time,seconds_elapsed,z,y,x
1697726931091471400,0.137471435546875,8.387516975402832,5.067628383636475,0.37294188141822815
1697726931101063000,0.14706298828125,8.302632331848145,5.200910568237305,0.43269607424736023
1697726931110653700,0.15665380859375,8.224226951599121,5.3192830085754395,0.4875622093677521
1697726931120245200,0.166245361328125,8.079978942871094,5.538424968719482,0.45844846963882446
1697726931129837600,0.175837646484375,8.094630241394043,5.518070220947266,0.44525638222694397
1697726931139429000,0.18542919921875,7.772342681884766,5.97564697265625,-0.2296392321586609
1697726931149019600,0.19501953125,7.627896785736084,6.133213043212891,-0.607687771320343
1697726931158611200,0.204611083984375,7.543535232543945,6.2162909507751465,-0.7894222140312195
1697726931168203500,0.21420361328125,7.56908655166626,6.189791202545166,-0.7521961331367493
1697726931177795000,0.223795166015625,7.650262355804443,6.105875015258789,-0.6017959117889404
1697726931187385900,0.2333857421875,7.738430976867676,6.010712146759033,-0.39802002906799316
1697726931196977400,0.242977294921875,7.8067708015441895,5.932392597198486,-0.17729054391384125
1697726931206569700,0.25256982421875,7.845924377441406,5.8829827308654785,0.04874734580516815
1697726931216161300,0.262161376953125,7.86413049697876,5.853679180145264,0.24552994966506958
1697726931225751800,0.271751708984375,7.8679728507995605,5.840098857879639,0.3982946276664734
1697726931235343400,0.28134326171875,7.8497090339660645,5.856138706207275,0.5080329775810242
1697726931244936000,0.29093603515625,7.802827835083008,5.913204669952393,0.5659347176551819
1697726931254527200,0.30052734375,7.731959342956543,6.005452632904053,0.567207396030426
1697726931264118000,0.310117919921875,7.64581298828125,6.119026184082031,0.5190818309783936
1697726931273709600,0.31970947265625,7.552138328552246,6.2396039962768555,0.45047980546951294
1697726931283302000,0.329302001953125,7.462194442749023,6.35090970993042,0.3898625373840332
1697726931292893400,0.3388935546875,7.382258415222168,6.445606708526611,0.35610052943229675
1697726931302484200,0.348484130859375,7.314026355743408,6.522918224334717,0.35628384351730347
1697726931312075800,0.35807568359375,7.253834247589111,6.587824821472168,0.3909485936164856
1697726931321668000,0.367668212890625,7.218641757965088,6.621435165405273,0.46710723638534546
1697726931331259400,0.37725927734375,7.2224249839782715,6.607889175415039,0.5854583382606506
1697726931340850200,0.38685009765625,7.23830509185791,6.578275203704834,0.7096645832061768
1697726931350441700,0.396441650390625,7.228923797607422,6.5778937339782715,0.8027188181877136
1697726931360034000,0.406033935546875,7.198925018310547,6.601468563079834,0.8754827380180359
1697726931369625600,0.41562548828125,7.168283939361572,6.623476505279541,0.9568952918052673
1697726931379216400,0.42521630859375,7.142564296722412,6.6379170417785645,1.0450886487960815
1697726931388808000,0.434807861328125,7.118189334869385,6.653076648712158,1.1128120422363281
1697726931398400300,0.444400146484375,7.097196578979492,6.668632507324219,1.153053879737854
1697726931407991600,0.453991455078125,7.082442283630371,6.67967414855957,1.1795499324798584
1697726931417582300,0.463582275390625,7.070174217224121,6.691068172454834,1.1885411739349365
1697726931427174000,0.473173828125,7.059991836547852,6.704362392425537,1.1740676164627075
1697726931436766200,0.48276611328125,7.0569963455200195,6.7130937576293945,1.1417365074157715
1697726931446357800,0.492357666015625,7.0658650398254395,6.711640357971191,1.0944483280181885
1697726931455948500,0.501948486328125,7.091073513031006,6.693746089935303,1.0396288633346558
1697726931465540000,0.5115400390625,7.133493423461914,6.655954837799072,0.9909215569496155
1697726931475132400,0.52113232421875,7.189460754394531,6.601109504699707,0.952568531036377
1697726931484724000,0.530723876953125,7.2538251876831055,6.53391170501709,0.9275787472724915
1697726931494314500,0.540314453125,7.3264875411987305,6.4530134201049805,0.9228090643882751
1697726931503906000,0.549906005859375,7.402595520019531,6.363638877868652,0.9359859824180603
1697726931513498400,0.559498291015625,7.477718353271484,6.27137565612793,0.9612378478050232
1697726931523090000,0.56908984375,7.548997402191162,6.180271625518799,0.9936195015907288
1697726931532680700,0.5786806640625,7.613283157348633,6.0951247215271,1.0284738540649414
1697726931542272300,0.588272216796875,7.667924880981445,6.0205817222595215,1.0610871315002441
1697726931551864600,0.597864501953125,7.7097697257995605,5.96183443069458,1.0892035961151123
1697726931561456000,0.6074560546875,7.7373199462890625,5.920783042907715,1.1174004077911377
1697726931571046700,0.617046630859375,7.751256942749023,5.896439075469971,1.1490923166275024
1697726931580638200,0.62663818359375,7.751650810241699,5.888934135437012,1.1843796968460083
1697726931590230800,0.636230712890625,7.739562034606934,5.896982669830322,1.2227656841278076
1697726931599822000,0.645822021484375,7.717370986938477,5.916756629943848,1.2667109966278076
1697726931609412900,0.655412841796875,7.687739849090576,5.944352149963379,1.3167096376419067
1697726931619004400,0.66500439453125,7.653631687164307,5.975938320159912,1.371299147605896
1697726931628596700,0.6745966796875,7.618585586547852,6.007094860076904,1.4291114807128906
1697726931638188300,0.684188232421875,7.586291790008545,6.034306526184082,1.4851614236831665
1697726931647779000,0.693779052734375,7.559092044830322,6.0567145347595215,1.5318992137908936
1697726931657370600,0.70337060546875,7.538876533508301,6.073546886444092,1.5645270347595215
1697726931666963000,0.712962890625,7.526139259338379,6.085713863372803,1.5785112380981445
1697726931676554200,0.72255419921875,7.519641399383545,6.09498929977417,1.573683500289917
1697726931686145000,0.73214501953125,7.517458915710449,6.103725910186768,1.550071358680725
1697726931695736600,0.741736572265625,7.516564846038818,6.114633083343506,1.5109325647354126
1697726931705329000,0.751328857421875,7.513725757598877,6.130234718322754,1.4610042572021484
1697726931714920400,0.76092041015625,7.506538391113281,6.152022838592529,1.405305027961731
1697726931724511200,0.77051123046875,7.493619918823242,6.180960655212402,1.3460180759429932
1697726931734102800,0.780102783203125,7.475586891174316,6.215717792510986,1.2848539352416992
1697726931743695000,0.789695068359375,7.453848361968994,6.254420280456543,1.2217836380004883
1697726931753286400,0.799286376953125,7.430131912231445,6.295008182525635,1.1560286283493042
1697726931762877200,0.808877197265625,7.406788349151611,6.334632873535156,1.0873302221298218
1697726931772468700,0.81846875,7.385016918182373,6.372081279754639,1.0141464471817017
1697726931782061000,0.82806103515625,7.365726947784424,6.405979156494141,0.9380224347114563
1697726931791652600,0.837652587890625,7.348827838897705,6.435916900634766,0.8626142740249634
1697726931801243400,0.847243408203125,7.333210468292236,6.462479114532471,0.7942141890525818
1697726931810835000,0.8568349609375,7.317728519439697,6.486721038818359,0.7373586297035217
1697726931820427300,0.86642724609375,7.300909519195557,6.5107622146606445,0.6907143592834473
1697726931830018800,0.876018798828125,7.279476165771484,6.53863525390625,0.6525774598121643
1697726931839609300,0.885609375,7.251367092132568,6.572954177856445,0.6199498176574707
1697726931849201000,0.895200927734375,7.216031074523926,6.614371299743652,0.5910818576812744
1697726931858793200,0.904793212890625,7.175018787384033,6.660943508148193,0.5668497085571289
1697726931868384800,0.914384765625,7.130884170532227,6.709833145141602,0.5468301773071289
1697726931877975600,0.9239755859375,7.087528228759766,6.756885051727295,0.5308784246444702
1697726931887567000,0.933567138671875,7.049999713897705,6.797045707702637,0.5177540183067322
1697726931897159400,0.943159423828125,7.021276473999023,6.8278679847717285,0.5022739768028259
1697726931906750700,0.952750732421875,7.003439903259277,6.847996234893799,0.47661879658699036
1697726931916341500,0.962341552734375,6.996268272399902,6.85822057723999,0.4329247772693634
1697726931925933000,0.97193310546875,6.996154308319092,6.861886024475098,0.3724801242351532
1697726931935525400,0.981525390625,6.999439239501953,6.861729145050049,0.308072954416275
1697726931945117000,0.991116943359375,7.0020670890808105,6.861412048339844,0.24994291365146637
1697726931954707700,1.000707763671875,7.0001220703125,6.864926338195801,0.2036198377609253
1697726931964299300,1.01029931640625,6.991522789001465,6.874529838562012,0.17273473739624023
1697726931973891600,1.0198916015625,6.977250576019287,6.8893866539001465,0.1572071611881256
1697726931983483100,1.029483154296875,6.959851264953613,6.907070636749268,0.15243211388587952
1697726931993073700,1.03907373046875,6.943338394165039,6.923641204833984,0.1536942422389984
1697726932002665200,1.048665283203125,6.932136058807373,6.934802055358887,0.15619967877864838
1697726932012257500,1.058257568359375,6.9305524826049805,6.936459064483643,0.15285933017730713
1697726932021849000,1.06784912109375,6.941461563110352,6.925869941711426,0.13715796172618866
1697726932031440000,1.07743994140625,6.963891983032227,6.903865814208984,0.10600010305643082
1697726932041031400,1.087031494140625,6.993577003479004,6.874335765838623,0.06147713586688042
1697726932050623700,1.096623779296875,7.0265583992004395,6.840882301330566,0.013901839964091778
1697726932060215300,1.10621533203125,7.058565616607666,6.807819843292236,-0.024980878457427025
1697726932069805800,1.115805908203125,7.085139274597168,6.780032634735107,-0.04845033958554268
1697726932079397400,1.1253974609375,7.103702545166016,6.760534286499023,-0.054593320935964584
1697726932088989700,1.13498974609375,7.113581657409668,6.750202655792236,-0.045906104147434235
1697726932098581200,1.144581298828125,7.1163554191589355,6.747384071350098,-0.02624168060719967
1697726932108172000,1.154172119140625,7.115095138549805,6.748762607574463,-0.00033738609636202455
1697726932117763600,1.163763671875,7.114109039306641,6.749753475189209,0.026299308985471725
1697726932127356000,1.17335595703125,7.117759704589844,6.745792865753174,0.04653782397508621
1697726932136947500,1.182947509765625,7.128355503082275,6.7345499992370605,0.05255647376179695
1697726932146538000,1.1925380859375,7.1469621658325195,6.714896202087402,0.038508735597133636
1697726932156129500,1.202129638671875,7.172359466552734,6.687872409820557,0.003062259405851364
1697726932165721900,1.211721923828125,7.201205253601074,6.656620025634766,-0.04939035698771477
1697726932175313400,1.2213134765625,7.229315280914307,6.625356197357178,-0.1097043976187706
1697726932184904200,1.230904296875,7.252649784088135,6.598577976226807,-0.1680062860250473
1697726932194495700,1.240495849609375,7.268362998962402,6.579813480377197,-0.2175966054201126
1697726932204088000,1.250088134765625,7.275099277496338,6.571019172668457,-0.2549760937690735
1697726932213679400,1.259679443359375,7.273286819458008,6.571997165679932,-0.2802429497241974
1697726932223270100,1.269270263671875,7.26480770111084,6.580723762512207,-0.29501548409461975
1697726932232861700,1.27886181640625,7.252216339111328,6.594348430633545,-0.3005242645740509
1697726932242454000,1.2884541015625,7.23794412612915,6.610049724578857,-0.2996481955051422
1697726932252045600,1.298045654296875,7.223362922668457,6.626167297363281,-0.29551491141319275
1697726932261636400,1.30763623046875,7.210007667541504,6.640939235687256,-0.2899959981441498
1697726932271228000,1.317227783203125,7.199324607849121,6.652796745300293,-0.28358832001686096
1697726932280820200,1.3268203125,7.191958427429199,6.66103982925415,-0.27688467502593994
1697726932290411800,1.336411865234375,7.187503814697266,6.6661224365234375,-0.27016308903694153
1697726932300002300,1.346002197265625,7.185379981994629,6.668783664703369,-0.2608270049095154
1697726932309593900,1.35559375,7.184628009796143,6.670175075531006,-0.24549736082553864
1697726932319186200,1.365186279296875,7.183586597442627,6.672118663787842,-0.22204864025115967
1697726932328777700,1.37477783203125,7.1813578605651855,6.675491809844971,-0.1905032992362976
1697726932338368500,1.384368408203125,7.176309585571289,6.681830406188965,-0.1553119570016861
1697726932347960000,1.3939599609375,7.168157577514648,6.691296577453613,-0.12026344984769821
1697726932357552400,1.403552490234375,7.1593017578125,6.701301574707031,-0.08572499454021454
1697726932367143700,1.413143798828125,7.152570724487305,6.708838939666748,-0.05107725411653519
1697726932376734500,1.422734375,7.150913715362549,6.710780143737793,-0.015718817710876465
1697726932386326000,1.432325927734375,7.156497955322266,6.704819679260254,0.01781228743493557
1697726932395918300,1.44191845703125,7.1700873374938965,6.690169811248779,0.04320479929447174
1697726932405510000,1.451510009765625,7.190467834472656,6.668204307556152,0.05115377902984619
1697726932415100700,1.4611005859375,7.213109970092773,6.643805980682373,0.035756915807724
1697726932424692200,1.470692138671875,7.235196590423584,6.619838714599609,0.007098434958606958
1697726932434284500,1.480284423828125,7.256554126739502,6.596398830413818,-0.01811526156961918
1697726932443875800,1.489875732421875,7.275908946990967,6.574995517730713,-0.03127715364098549
1697726932453466600,1.499466552734375,7.293189525604248,6.555832386016846,-0.02873200550675392
1697726932463058200,1.50905810546875,7.311391830444336,6.53558349609375,-0.00911092758178711
1697726932472650500,1.518650390625,7.333526134490967,6.510699272155762,0.024094214662909508
1697726932482242000,1.528241943359375,7.364220142364502,6.475623607635498,0.07027821242809296
1697726932491832800,1.537832763671875,7.406644821166992,6.426186561584473,0.1270296424627304
1697726932501424400,1.54742431640625,7.461338520050049,6.361107349395752,0.18743033707141876
1697726932511016700,1.5570166015625,7.52722692489624,6.281039237976074,0.2445141226053238
1697726932520608000,1.56660791015625,7.6007080078125,6.189826965332031,0.29267340898513794
1697726932530198800,1.57619873046875,7.677011013031006,6.09311580657959,0.32834920287132263
1697726932539790300,1.585790283203125,7.75018835067749,5.998374938964844,0.35280197858810425
1697726932549382700,1.595382568359375,7.81423807144165,5.913748264312744,0.3683054745197296
1697726932558974200,1.60497412109375,7.86442756652832,5.84619665145874,0.37836843729019165
1697726932568564700,1.614564697265625,7.897616863250732,5.800734043121338,0.38668158650398254
1697726932578156300,1.62415625,7.912283897399902,5.7801289558410645,0.395301878452301
1697726932587748900,1.633748779296875,7.90932035446167,5.783347129821777,0.4073511064052582
1697726932597340200,1.643340087890625,7.891584873199463,5.806149482727051,0.4264916181564331
1697726932606931000,1.652930908203125,7.8620195388793945,5.844109535217285,0.45322877168655396
1697726932616522500,1.6625224609375,7.823958396911621,5.892548561096191,0.48365017771720886
1697726932626114800,1.67211474609375,7.78135347366333,5.94620418548584,0.5133994221687317
1697726932635706400,1.681706298828125,7.738420486450195,5.999651908874512,0.5398200154304504
1697726932645297000,1.691296875,7.699096202850342,6.0480055809021,0.5620790719985962
1697726932654888400,1.700888427734375,7.666147232055664,6.088303089141846,0.5771738290786743
1697726932664480800,1.710480712890625,7.640994071960449,6.119315147399902,0.5827265381813049
1697726932674072300,1.720072265625,7.62337064743042,6.141635894775391,0.578711211681366
1697726932683663000,1.7296630859375,7.611765384674072,6.157248020172119,0.5654255747795105
1697726932693254700,1.739254638671875,7.603907585144043,6.168872833251953,0.5440487861633301
1697726932702847000,1.748846923828125,7.596926689147949,6.179778099060059,0.5171512961387634
1697726932712438300,1.758438232421875,7.588874816894531,6.191951751708984,0.48898252844810486
1697726932722029000,1.768029052734375,7.578460216522217,6.2066826820373535,0.46304547786712646
1697726932731620600,1.77762060546875,7.564746379852295,6.2250494956970215,0.44017916917800903
1697726932741213000,1.787212890625,7.5472893714904785,6.247637748718262,0.4193379282951355
1697726932750804500,1.796804443359375,7.526334285736084,6.274195671081543,0.3989170491695404
1697726932760395300,1.806395263671875,7.502523422241211,6.304003715515137,0.3769036829471588
1697726932769986800,1.81598681640625,7.477452278137207,6.335017204284668,0.3544950783252716
1697726932779579000,1.825578857421875,7.452953338623047,6.364973545074463,0.3331547975540161
1697726932789170400,1.83517041015625,7.430525302886963,6.392172336578369,0.3127533793449402
1697726932798761200,1.84476123046875,7.411792755126953,6.414853096008301,0.2921762764453888
1697726932808352800,1.854352783203125,7.398348331451416,6.4312639236450195,0.27143219113349915
1697726932817945000,1.863945068359375,7.390303134918213,6.4413909912109375,0.2495861053466797
1697726932827536400,1.873536376953125,7.386662483215332,6.446433067321777,0.22604288160800934
1697726932837127200,1.883127197265625,7.386465549468994,6.447411060333252,0.2034609615802765
1697726932846718700,1.89271875,7.3892436027526855,6.444765090942383,0.18567517399787903
1697726932856311000,1.90231103515625,7.394570350646973,6.439001560211182,0.17313407361507416
1697726932865902600,1.911902587890625,7.401289939880371,6.4315690994262695,0.16185756027698517
1697726932875493400,1.921493408203125,7.407917499542236,6.424341201782227,0.14486482739448547
1697726932885085000,1.9310849609375,7.414405822753906,6.417409896850586,0.11761235445737839
1697726932894677200,1.94067724609375,7.422033786773682,6.409189224243164,0.0781431719660759
1697726932904268500,1.9502685546875,7.430514335632324,6.399781227111816,0.025174297392368317
1697726932913859300,1.959859375,7.435487270355225,6.3939433097839355,-0.03734220191836357
1697726932923451000,1.969450927734375,7.431788921356201,6.39764928817749,-0.09477318078279495
1697726932933043200,1.979043212890625,7.419046878814697,6.411806583404541,-0.12988854944705963
1697726932942634800,1.988634765625,7.397948265075684,6.435979843139648,-0.13758428394794464
1697726932952225500,1.9982255859375,7.368680477142334,6.46976375579834,-0.1228700652718544
1697726932961817000,2.007817138671875,7.3343048095703125,6.50923490524292,-0.09077571332454681
1697726932971409200,2.0174091796875,7.2991108894348145,6.549138069152832,-0.04636269435286522
1697726932981000700,2.027000732421875,7.267153263092041,6.584744453430176,0.002927993657067418
1697726932990591500,2.036591552734375,7.241116046905518,6.61318826675415,0.048706043511629105
1697726933000183000,2.04618310546875,7.223481178283691,6.632087230682373,0.08435019105672836
1697726933009775400,2.055775390625,7.215482711791992,6.640494346618652,0.10502301156520844
1697726933019366700,2.06536669921875,7.21627950668335,6.639586925506592,0.10760705173015594
1697726933028957400,2.07495751953125,7.2238545417785645,6.631550312042236,0.0940885841846466
1697726933038549000,2.084549072265625,7.235890865325928,6.618680000305176,0.07320549339056015
1697726933048141300,2.094141357421875,7.248424053192139,6.605136871337891,0.053970418870449066
1697726933057732900,2.10373291015625,7.2574462890625,6.595311641693115,0.04150066524744034
1697726933067323600,2.11332373046875,7.2597784996032715,6.592766284942627,0.037916697561740875
1697726933076915200,2.122915283203125,7.253017425537109,6.600177764892578,0.04229925572872162
1697726933086507300,2.13250732421875,7.2375102043151855,6.617110252380371,0.05180780962109566
1697726933096099000,2.14209912109375,7.216400146484375,6.640014171600342,0.06450273096561432
1697726933105689600,2.151689697265625,7.193909168243408,6.664227485656738,0.07832173258066177
1697726933115281200,2.16128125,7.174269676208496,6.685240745544434,0.08827229589223862
1697726933124873500,2.17087353515625,7.161275386810303,6.699150562286377,0.08894684165716171
1697726933134465000,2.180465087890625,7.1567463874816895,6.704151630401611,0.07561831921339035
1697726933144055600,2.1900556640625,7.159900665283203,6.701051712036133,0.04597386717796326
1697726933153647000,2.199647216796875,7.167919635772705,6.692631244659424,0.0009324001730419695
1697726933163239400,2.209239501953125,7.177228927612305,6.682424068450928,-0.054609280079603195
1697726933172831000,2.2188310546875,7.184764862060547,6.673574447631836,-0.1138063445687294
1697726933182421800,2.228421875,7.188239574432373,6.668619155883789,-0.17059586942195892
1697726933192013300,2.238013427734375,7.186225891113281,6.669288635253906,-0.2216448187828064
1697726933201605600,2.247605712890625,7.178462982177734,6.67609167098999,-0.26431649923324585
1697726933211197000,2.257197021484375,7.1656951904296875,6.688431262969971,-0.29677972197532654
1697726933220787700,2.26678759765625,7.148889541625977,6.705378532409668,-0.3188565969467163
1697726933230379300,2.276379150390625,7.129794120788574,6.725057125091553,-0.33170223236083984
1697726933239971600,2.2859716796875,7.1107611656188965,6.744866847991943,-0.3379765748977661
1697726933249563100,2.295563232421875,7.094112396240234,6.762251377105713,-0.3404589891433716
1697726933259153700,2.305153564453125,7.082164287567139,6.774813175201416,-0.33946746587753296
1697726933268745500,2.314745361328125,7.077308654785156,6.780165195465088,-0.3338497579097748
1697726933278337500,2.324337646484375,7.080845832824707,6.7770514488220215,-0.32186147570610046
1697726933287929000,2.33392919921875,7.09251070022583,6.765779495239258,-0.3015112280845642
1697726933297519900,2.343519775390625,7.110690116882324,6.748025894165039,-0.269478440284729
1697726933307111400,2.353111328125,7.132808685302734,6.726280689239502,-0.22488145530223846
1697726933316703700,2.362703857421875,7.155607223510742,6.7035980224609375,-0.1716155707836151
1697726933326295000,2.372294921875,7.175764560699463,6.683187961578369,-0.11742497980594635
1697726933335885800,2.3818857421875,7.190549850463867,6.6679558753967285,-0.06892557442188263
1697726933345477400,2.391477294921875,7.1993889808654785,6.658706188201904,-0.028804752975702286
1697726933355069700,2.401069580078125,7.2035441398620605,6.654272079467773,0.0036099290009588003
1697726933364661200,2.4106611328125,7.205569744110107,6.652005195617676,0.031181098893284798
1697726933374251800,2.420251708984375,7.208343029022217,6.648839950561523,0.05570625513792038
1697726933383843300,2.42984326171875,7.2133073806762695,6.643255233764648,0.07575329393148422
1697726933393435600,2.439435546875,7.219703674316406,6.636164665222168,0.08711540699005127
1697726933403027200,2.449027099609375,7.225591659545898,6.629715919494629,0.08995126932859421
1697726933412618000,2.458617919921875,7.231051445007324,6.6237287521362305,0.09221763908863068
1697726933422209500,2.46820947265625,7.237417221069336,6.616628170013428,0.10205426067113876
1697726933431801900,2.4778017578125,7.245788097381592,6.6071367263793945,0.1211797371506691
1697726933441393200,2.48739306640625,7.258263111114502,6.592924118041992,0.14616020023822784
1697726933450984000,2.49698388671875,7.277098178863525,6.571481227874756,0.17280793190002441
1697726933460575500,2.506575439453125,7.304400444030762,6.540353775024414,0.199731707572937
1697726933470167800,2.516167724609375,7.340847492218018,6.498528957366943,0.2268831878900528
1697726933479759400,2.52575927734375,7.3849616050720215,6.447271823883057,0.2557739019393921
1697726933489350000,2.535349853515625,7.433154106140137,6.390266418457031,0.2882663905620575
1697726933498941400,2.54494140625,7.48077917098999,6.332798004150391,0.3225102722644806
1697726933508533800,2.55453369140625,7.522278785705566,6.2817063331604,0.3547897934913635
1697726933518125300,2.564125244140625,7.55262565612793,6.243539810180664,0.3826742470264435
1697726933527716000,2.573716064453125,7.568221092224121,6.223170280456543,0.4056676924228668
1697726933537307600,2.5833076171875,7.568625450134277,6.221292972564697,0.42641308903694153
1697726933546900000,2.59289990234375,7.555332660675049,6.235899448394775,0.44820064306259155
1697726933556491300,2.6024912109375,7.531263828277588,6.2631025314331055,0.4732901155948639
1697726933566082000,2.61208203125,7.50037145614624,6.297746658325195,0.5031876564025879
1697726933575673600,2.621673583984375,7.467556953430176,6.333721160888672,0.5384624600410461
1697726933585266000,2.631265869140625,7.4376139640808105,6.365021228790283,0.582053005695343
1697726933594857200,2.640857177734375,7.413239479064941,6.388550758361816,0.6330034732818604
1697726933604448000,2.650447998046875,7.395176410675049,6.404397964477539,0.6822301745414734
1697726933614039600,2.66003955078125,7.383769989013672,6.413308620452881,0.7209627628326416
1697726933623632000,2.6696318359375,7.378603935241699,6.416448593139648,0.7455011010169983
1697726933633223400,2.679223388671875,7.377724647521973,6.416204452514648,0.7562326192855835
1697726933642814200,2.688814208984375,7.378050327301025,6.415938377380371,0.7553145289421082
1697726933652405800,2.69840576171875,7.376134395599365,6.4191741943359375,0.7464845180511475
1697726933661998000,2.707998046875,7.369715690612793,6.428028583526611,0.7335591316223145
1697726933671589400,2.71758935546875,7.3570170402526855,6.444313049316406,0.7179999947547913
1697726933681180200,2.72718017578125,7.337429046630859,6.468674182891846,0.6991227865219116
1697726933690771700,2.736771728515625,7.311120510101318,6.500728607177734,0.6770702004432678
1697726933700364000,2.746364013671875,7.279052257537842,6.5391364097595215,0.6523022055625916
1697726933709955600,2.75595556640625,7.242245197296143,6.582518100738525,0.6250767111778259
1697726933719546000,2.765546142578125,7.202469348907471,6.628708362579346,0.5958625078201294
1697726933729137700,2.7751376953125,7.161561012268066,6.675582408905029,0.5648345947265625
1697726933738730000,2.78472998046875,7.121333122253418,6.721105575561523,0.532684326171875
1697726933748321500,2.794321533203125,7.083703517913818,6.763137340545654,0.5014972686767578
1697726933757912000,2.803912109375,7.050167560577393,6.800154685974121,0.4726693332195282
1697726933767503600,2.813503662109375,7.021785259246826,6.83103084564209,0.4493882954120636
1697726933777096000,2.823095947265625,6.999358177185059,6.854953765869141,0.43470299243927
1697726933786687500,2.8326875,6.982626438140869,6.872294902801514,0.42996254563331604
1697726933796278300,2.8422783203125,6.969982624053955,6.884892463684082,0.4335828721523285
1697726933805869800,2.851869873046875,6.959125995635986,6.895335674285889,0.441924512386322
1697726933815462100,2.861462158203125,6.948209762573242,6.905707359313965,0.4516262412071228
1697726933825053400,2.871053466796875,6.936970233917236,6.916374206542969,0.4610951840877533
1697726933834644200,2.880644287109375,6.924140930175781,6.928898811340332,0.46586179733276367
1697726933844235800,2.89023583984375,6.9098076820373535,6.943366050720215,0.46325746178627014
1697726933853828000,2.899828125,6.896318435668945,6.95734977722168,0.45439326763153076
1697726933863419600,2.909419677734375,6.886894702911377,6.967620372772217,0.43968895077705383
1697726933873010200,2.91901025390625,6.884471893310547,6.971403121948242,0.417093962430954
1697726933882601700,2.928601806640625,6.888250350952148,6.969740390777588,0.38092970848083496
1697726933892194000,2.938194091796875,6.892007350921631,6.968798637390137,0.3263057470321655
1697726933901785600,2.94778564453125,6.891402244567871,6.972136974334717,0.2612643539905548
1697726933911376400,2.95737646484375,6.882347106933594,6.982955455780029,0.2049800157546997
1697726933920968000,2.966968017578125,6.863105297088623,7.002753734588623,0.1721010059118271
1697726933930560300,2.976560302734375,6.834549427032471,7.0308518409729,0.1626359224319458
1697726933940151600,2.986151611328125,6.79887580871582,7.0651960372924805,0.1693381518125534
1697726933949742300,2.995742431640625,6.758177757263184,7.103846549987793,0.1810632348060608
1697726933959334000,3.005333984375,6.714779853820801,7.144647121429443,0.1900935024023056
1697726933968926200,3.01492626953125,6.673125743865967,7.18333625793457,0.19865615665912628
1697726933978517500,3.024517578125,6.640181541442871,7.2133612632751465,0.21399468183517456
1697726933988108300,3.0341083984375,6.622066020965576,7.229311466217041,0.23595379292964935
1697726933997699800,3.043699951171875,6.623722553253174,7.227149963378906,0.2548995316028595
1697726934007292200,3.053292236328125,6.646544456481934,7.206106185913086,0.25663241744041443
1697726934016883700,3.0628837890625,6.6857523918151855,7.170638561248779,0.2303074300289154
1697726934026474200,3.07247412109375,6.729067802429199,7.131479263305664,0.17898665368556976
1697726934036066000,3.082066162109375,6.771464824676514,7.092577934265137,0.11397054046392441
1697726934045658000,3.091658203125,6.815245151519775,7.051238059997559,0.053435441106557846
1697726934055249700,3.101249755859375,6.856794834136963,7.0110321044921875,0.013670647516846657
1697726934064840400,3.11084033203125,6.8889241218566895,6.979477405548096,-0.002839606488123536
1697726934074432000,3.120431884765625,6.908429145812988,6.960172176361084,0.0005388637655414641
1697726934084024300,3.1300244140625,6.914639949798584,6.9539794921875,0.017868634313344955
1697726934093615600,3.13961572265625,6.909515380859375,6.958958148956299,0.04349731281399727
1697726934103206400,3.149206298828125,6.897418022155762,6.970672130584717,0.0757143497467041
1697726934112798000,3.1587978515625,6.882651329040527,6.984755039215088,0.11268182098865509
1697726934122390300,3.168390380859375,6.86805534362793,6.998409271240234,0.14988474547863007
1697726934131981600,3.177981689453125,6.855307102203369,7.010145664215088,0.1816437989473343
1697726934141572400,3.187572265625,6.845180988311768,7.01943826675415,0.20336930453777313
1697726934151164000,3.197163818359375,6.837981700897217,7.026224136352539,0.21108220517635345
1697726934160756200,3.206756103515625,6.8333845138549805,7.030938625335693,0.20283162593841553
1697726934170347800,3.21634765625,6.83001708984375,7.034829139709473,0.18008723855018616
1697726934179938300,3.225938232421875,6.825083255767822,7.0403900146484375,0.1467636674642563
1697726934189530000,3.235530029296875,6.815207004547119,7.050658702850342,0.10751804709434509
1697726934199122200,3.2451220703125,6.799690246582031,7.066119194030762,0.06755004823207855
1697726934208713700,3.254713623046875,6.781748294830322,7.083569526672363,0.03627472743391991
1697726934218304500,3.264304443359375,6.762325286865234,7.102182388305664,0.018500523641705513
1697726934227896000,3.27389599609375,6.741017818450928,7.122419357299805,0.014415713027119637
1697726934237488400,3.28348828125,6.7189507484436035,7.143215179443359,0.02391759864985943
1697726934247079700,3.29307958984375,6.698477745056152,7.16231632232666,0.04481905326247215
1697726934256670500,3.30267041015625,6.682375907897949,7.1771063804626465,0.07341980189085007
1697726934266262000,3.312261962890625,6.672618865966797,7.185769557952881,0.10616997629404068
1697726934275854300,3.321854248046875,6.674036026000977,7.183822154998779,0.14256708323955536
1697726934285445600,3.331445556640625,6.688969135284424,7.169112682342529,0.1786525696516037
1697726934295036400,3.341036376953125,6.718349933624268,7.140710353851318,0.21079790592193604
1697726934304628000,3.3506279296875,6.761144638061523,7.0993428230285645,0.23799684643745422
1697726934314220300,3.36022021484375,6.815042018890381,7.046782970428467,0.26159554719924927
1697726934323811800,3.369811767578125,6.877795696258545,6.98466157913208,0.28426989912986755
1697726934333402400,3.37940234375,6.947478771209717,6.914300918579102,0.30882030725479126
1697726934342994200,3.388994140625,7.023400783538818,6.835677623748779,0.3402137756347656
1697726934352586200,3.398586181640625,7.106152534484863,6.747422695159912,0.3811388313770294
1697726934362177800,3.408177734375,7.195610046386719,6.649131774902344,0.427344411611557
1697726934371768600,3.4177685546875,7.289486885070801,6.5434184074401855,0.466320663690567
1697726934381360000,3.427360107421875,7.385895729064941,6.433088779449463,0.4840252101421356
1697726934390952400,3.436952392578125,7.476190090179443,6.329161167144775,0.46764031052589417
1697726934400543700,3.446543701171875,7.547542095184326,6.24720573425293,0.4212157726287842
1697726934410134500,3.456134521484375,7.592332363128662,6.195428371429443,0.3788694441318512
1697726934419726000,3.46572607421875,7.606015682220459,6.179192066192627,0.36946091055870056
1697726934429318400,3.475318359375,7.586482524871826,6.201908588409424,0.3898683488368988
1697726934438909700,3.48490966796875,7.541530132293701,6.254022598266602,0.4276762306690216
1697726934448500500,3.49450048828125,7.483732223510742,6.320355415344238,0.4661012887954712
1697726934458092000,3.504092041015625,7.425220966339111,6.386294364929199,0.5017217993736267
1697726934467684400,3.513684326171875,7.376414775848389,6.439480304718018,0.5403509736061096
1697726934477276000,3.52327587890625,7.346225738525391,6.469982624053955,0.5853948593139648
1697726934486866400,3.532866455078125,7.3425469398498535,6.469076633453369,0.6390994191169739
1697726934496458200,3.542458251953125,7.366013526916504,6.436101913452148,0.6991618871688843
1697726934506050300,3.55205029296875,7.410635471343994,6.3794474601745605,0.7453330159187317
1697726934515641900,3.561641845703125,7.467357635498047,6.311492443084717,0.7576377391815186
1697726934525232600,3.571232666015625,7.524127960205078,6.246391773223877,0.7351833581924438
1697726934534824200,3.58082421875,7.568360805511475,6.196898937225342,0.6991150975227356
1697726934544416500,3.59041650390625,7.591726779937744,6.170855522155762,0.675736129283905
1697726934554007800,3.6000078125,7.5908589363098145,6.171482086181641,0.6797388195991516
1697726934563598600,3.6095986328125,7.564906597137451,6.199306488037109,0.714964747428894
1697726934573190100,3.619190185546875,7.516238689422607,6.2509236335754395,0.7762116193771362
1697726934582782500,3.628782470703125,7.451244354248047,6.317689895629883,0.8579901456832886
1697726934592373800,3.638373779296875,7.377873420715332,6.389135360717773,0.9572505354881287
1697726934601964500,3.647964599609375,7.304900169372559,6.455476760864258,1.0656671524047852
1697726934611556000,3.65755615234375,7.240787982940674,6.509491920471191,1.1695716381072998
1697726934621148400,3.6671484375,7.192951202392578,6.546416282653809,1.2554984092712402
1697726934630739700,3.67673974609375,7.166058540344238,6.564706325531006,1.3124878406524658
1697726934640330500,3.68633056640625,7.161890506744385,6.564608573913574,1.3355255126953125
1697726934649922000,3.695922119140625,7.1778998374938965,6.548892498016357,1.326703667640686
1697726934659514400,3.705514404296875,7.207122802734375,6.523239612579346,1.2942644357681274
1697726934669106000,3.71510595703125,7.241468906402588,6.493975639343262,1.2489240169525146
1697726934678696400,3.724696533203125,7.273872375488281,6.466917514801025,1.2000645399093628
1697726934688288000,3.7342880859375,7.300012588500977,6.445468902587891,1.1559125185012817
1697726934697880300,3.74388037109375,7.317788124084473,6.4319047927856445,1.118464708328247
1697726934707472000,3.753471923828125,7.3269548416137695,6.427375316619873,1.083960771560669
1697726934717062700,3.763062744140625,7.329130172729492,6.4308624267578125,1.0479755401611328
1697726934726654200,3.772654296875,7.326838970184326,6.4397993087768555,1.008368730545044
1697726934736246300,3.782246337890625,7.322488307952881,6.451492786407471,0.9642583727836609
1697726934745837800,3.791837890625,7.317009449005127,6.4646477699279785,0.9165599942207336
1697726934755428600,3.8014287109375,7.311520576477051,6.477437496185303,0.8688262701034546
1697726934765020200,3.811020263671875,7.307936668395996,6.48732328414917,0.8240677714347839
1697726934774612500,3.820612548828125,7.308578014373779,6.491657733917236,0.7832311987876892
1697726934784203800,3.830203857421875,7.314923286437988,6.489166736602783,0.7436420917510986
1697726934793794600,3.839794677734375,7.323982238769531,6.483755111694336,0.7004178762435913
1697726934803386000,3.84938623046875,7.332526683807373,6.478178977966309,0.6615381836891174
1697726934812978400,3.858978515625,7.336137294769287,6.476912021636963,0.6333237290382385
1697726934822570000,3.868570068359375,7.329118251800537,6.48672342300415,0.6138638257980347
1697726934832160500,3.878160400390625,7.3055033683776855,6.514887809753418,0.5968603491783142
1697726934841752000,3.887751953125,7.264579772949219,6.561661720275879,0.5838267207145691
1697726934851344400,3.897344482421875,7.212318420410156,6.619555950164795,0.5782065391540527
1697726934860936000,3.90693603515625,7.158374309539795,6.678196430206299,0.5742444396018982
1697726934870526700,3.916526611328125,7.113735198974609,6.726974964141846,0.5594350099563599
1697726934880118300,3.9261181640625,7.085184574127197,6.7604498863220215,0.5165895819664001
1697726934889710300,3.93571044921875,7.072177410125732,6.77963399887085,0.43732887506484985
1697726934899302000,3.945302001953125,7.070440769195557,6.787382125854492,0.33272507786750793
1697726934908892700,3.954892578125,7.074946403503418,6.7874274253845215,0.21528589725494385
1697726934918484200,3.964484130859375,7.0797834396362305,6.785152912139893,0.09361643344163895
1697726934928076500,3.97407666015625,7.081012725830078,6.784472465515137,-0.02374359592795372
1697726934937667800,3.983667724609375,7.079923152923584,6.784373760223389,-0.1317395567893982
1697726934947258600,3.993258544921875,7.081512451171875,6.78018045425415,-0.2274133414030075
1697726934956850200,4.00285009765625,7.093254089355469,6.764827251434326,-0.3053353726863861
1697726934966442500,4.0124423828125,7.121275901794434,6.732517242431641,-0.3619830012321472
1697726934976033800,4.02203369140625,7.167575359344482,6.681088924407959,-0.39912694692611694
1697726934985624600,4.03162451171875,7.230271816253662,6.611767768859863,-0.42200979590415955
1697726934995216100,4.041216064453125,7.302335739135742,6.531108856201172,-0.43690797686576843
1697726935004808400,4.050808349609375,7.374880790710449,6.448477268218994,-0.44570547342300415
1697726935014400000,4.06039990234375,7.439569473266602,6.373871803283691,-0.4438004195690155
1697726935023990500,4.069990478515625,7.49039888381958,6.315292835235596,-0.42589274048805237
1697726935033582000,4.07958203125,7.524239540100098,6.277220726013184,-0.3907790780067444
1697726935043174400,4.08917431640625,7.540480613708496,6.260530471801758,-0.3424738049507141
1697726935052766000,4.098765869140625,7.542778491973877,6.260550022125244,-0.2870526909828186
1697726935062356500,4.1083564453125,7.537067890167236,6.269732475280762,-0.23120185732841492
1697726935071948300,4.1179482421875,7.527463436126709,6.282890796661377,-0.18153293430805206
1697726935081540400,4.127540283203125,7.51709508895874,6.296327590942383,-0.14113874733448029
1697726935091132000,4.1371318359375,7.509496212005615,6.306140899658203,-0.10217516869306564
1697726935100722700,4.14672265625,7.503088474273682,6.314296245574951,-0.0608493871986866
1697726935110314200,4.156314208984375,7.494688510894775,6.324529647827148,-0.01901034265756607
1697726935119906300,4.16590625,7.479208469390869,6.34281063079834,0.024297697469592094
1697726935129497900,4.175497802734375,7.45137357711792,6.3751444816589355,0.07035242021083832
1697726935139088600,4.185088623046875,7.408607006072998,6.424071788787842,0.11933926492929459
1697726935148680200,4.19468017578125,7.346712112426758,6.4939165115356445,0.15892855823040009
1697726935158272500,4.2042724609375,7.262382507324219,6.58754825592041,0.18000271916389465
1697726935167863800,4.21386376953125,7.156373977661133,6.702254772186279,0.19095119833946228
1697726935177454600,4.22345458984375,7.03183650970459,6.832382678985596,0.20546522736549377
1697726935187046100,4.233046142578125,6.895451545715332,6.969354629516602,0.22638416290283203
1697726935196638500,4.242638427734375,6.753235816955566,7.106575965881348,0.24650005996227264
1697726935206230000,4.25222998046875,6.608673572540283,7.240793228149414,0.25833794474601746
1697726935215820500,4.261820556640625,6.46614933013916,7.368587493896484,0.2514382600784302
1697726935225412000,4.271412109375,6.330685615539551,7.486224174499512,0.22190232574939728
1697726935235004400,4.28100439453125,6.205227375030518,7.591769695281982,0.17486999928951263
1697726935244595700,4.290595703125,6.092069149017334,7.683990001678467,0.11569114774465561
1697726935254186500,4.3001865234375,5.992866516113281,7.762314796447754,0.0490545891225338
1697726935263778000,4.309778076171875,5.908140182495117,7.827127456665039,-0.01878168433904648
1697726935273370400,4.319370361328125,5.838237285614014,7.8789963722229,-0.08238298445940018
1697726935282962000,4.3289619140625,5.78397274017334,7.918185234069824,-0.13560549914836884
1697726935292552700,4.338552734375,5.746931076049805,7.944347381591797,-0.17466995120048523
1697726935302144000,4.34814404296875,5.729620933532715,7.956327438354492,-0.19664473831653595
1697726935311736300,4.357736328125,5.732010841369629,7.954439640045166,-0.20332318544387817
1697726935321327900,4.367327880859375,5.752790451049805,7.93955659866333,-0.19807633757591248
1697726935330918700,4.376918701171875,5.7883524894714355,7.914029598236084,-0.18298889696598053
1697726935340510000,4.386510009765625,5.835048198699951,7.880139350891113,-0.1612551212310791
1697726935350102300,4.396102294921875,5.89072847366333,7.839122295379639,-0.13368618488311768
1697726935359693800,4.40569384765625,5.950918197631836,7.793981075286865,-0.10400628298521042
1697726935369284600,4.41528466796875,6.011433124542236,7.747686386108398,-0.08011168986558914
1697726935378876200,4.424876220703125,6.067638874053955,7.703878402709961,-0.06635254621505737
1697726935388468500,4.434468505859375,6.115261554718018,7.666144371032715,-0.06484498083591461
1697726935398059800,4.444059814453125,6.152172088623047,7.636470317840576,-0.0741051658987999
1697726935407650600,4.453650634765625,6.178821086883545,7.614774703979492,-0.08807507157325745
1697726935417242000,4.4632421875,6.199554443359375,7.5978169441223145,-0.09530836343765259
1697726935426834400,4.47283447265625,6.220310688018799,7.5809502601623535,-0.08560654520988464
1697726935436425700,4.48242578125,6.246864318847656,7.559372425079346,-0.05446571111679077
1697726935446016500,4.4920166015625,6.283693313598633,7.5289835929870605,-0.0018324397969990969
1697726935455608000,4.501608154296875,6.334798336029053,7.48570442199707,0.07030404359102249
1697726935465200400,4.511200439453125,6.402291297912598,7.426765441894531,0.1555795818567276
1697726935474792000,4.5207919921875,6.484087944030762,7.353024959564209,0.244968444108963
1697726935484382500,4.530382568359375,6.573482990264893,7.270009994506836,0.3266015350818634
1697726935493974000,4.53997412109375,6.661984920501709,7.185651779174805,0.3933933973312378
1697726935503566300,4.54956640625,6.740302085876465,7.1093010902404785,0.44334107637405396
1697726935513158000,4.559157958984375,6.80052375793457,7.049488544464111,0.4774755537509918
1697726935522748400,4.56874853515625,6.839377403259277,7.009911060333252,0.5044280886650085
1697726935532340200,4.57834033203125,6.856762409210205,6.990546703338623,0.5361423492431641
1697726935541932300,4.587932373046875,6.854715347290039,6.989060401916504,0.5799245834350586
1697726935551523800,4.59752392578125,6.8354082107543945,7.002944469451904,0.6374668478965759
1697726935561114600,4.607114501953125,6.802359580993652,7.028525352478027,0.7057874798774719
1697726935570706200,4.6167060546875,6.7596116065979,7.062450885772705,0.77448970079422
1697726935580298200,4.62629833984375,6.7112956047058105,7.102170944213867,0.8294991850852966
1697726935589889800,4.635889892578125,6.662103652954102,7.144771099090576,0.8596572875976562
1697726935599480600,4.64548046875,6.616891860961914,7.186222076416016,0.8633309006690979
1697726935609072000,4.655072021484375,6.57708215713501,7.225588321685791,0.8386030793190002
1697726935618664200,4.664664306640625,6.540836334228516,7.264323711395264,0.7857782244682312
1697726935628255700,4.674255859375,6.504937648773193,7.303910255432129,0.7134893536567688
1697726935637846500,4.683846435546875,6.465933799743652,7.345685005187988,0.6348218321800232
1697726935647438000,4.69343798828125,6.421141147613525,7.39089822769165,0.5603176355361938
1697726935657030400,4.703030517578125,6.368673801422119,7.44085168838501,0.49406158924102783
1697726935666621700,4.71262158203125,6.308189868927002,7.495908260345459,0.4341588020324707
1697726935676212500,4.72221240234375,6.2409515380859375,7.554965496063232,0.3786810636520386
1697726935685804000,4.731803955078125,6.169656276702881,7.615631580352783,0.32846105098724365
1697726935695396400,4.741396240234375,6.097208023071289,7.675539016723633,0.2838039994239807
1697726935704987600,4.750987548828125,6.0267109870910645,7.732405185699463,0.24298200011253357
1697726935714578400,4.760578369140625,5.961802005767822,7.783686637878418,0.20377294719219208
1697726935724170000,4.770169921875,5.905448913574219,7.827489852905273,0.16267967224121094
1697726935733762300,4.77976220703125,5.859623432159424,7.8626532554626465,0.11787228286266327
1697726935743353900,4.789353759765625,5.824953556060791,7.888929843902588,0.07139620929956436
1697726935752944400,4.7989443359375,5.800136089324951,7.907467365264893,0.027354897931218147
1697726935762536000,4.808535888671875,5.7822699546813965,7.9205827713012695,-0.011047866195440292
1697726935772128300,4.818128173828125,5.7687087059021,7.930361270904541,-0.04193912446498871
1697726935781719800,4.8277197265625,5.758129596710205,7.937895774841309,-0.06432702392339706
1697726935791310300,4.837310302734375,5.749422073364258,7.944091320037842,-0.07708343118429184
1697726935800902000,4.84690185546875,5.7418718338012695,7.949526309967041,-0.07950343936681747
1697726935810494200,4.856494140625,5.736097812652588,7.95375919342041,-0.07265205681324005
1697726935820085800,4.866085693359375,5.733425140380859,7.955801486968994,-0.0586434006690979
1697726935829676500,4.875676513671875,5.7344441413879395,7.955180644989014,-0.040533311665058136
1697726935839267800,4.885267822265625,5.73878288269043,7.952121734619141,-0.022682707756757736
1697726935848860200,4.894860107421875,5.7463603019714355,7.946673393249512,-0.011346498504281044
1697726935858451700,4.90445166015625,5.757522106170654,7.938582897186279,-0.014877451583743095
1697726935868042500,4.91404248046875,5.772145748138428,7.927875518798828,-0.038716286420822144
1697726935877634000,4.923634033203125,5.7877726554870605,7.916164875030518,-0.08006890118122101
1697726935887226400,4.933226318359375,5.8006720542907715,7.906087875366211,-0.12786976993083954
1697726935896817700,4.942817626953125,5.808523654937744,7.899506092071533,-0.1710255891084671
1697726935906408400,4.952408447265625,5.81058931350708,7.897235870361328,-0.20273800194263458
1697726935916000000,4.962,5.806427955627441,7.899836540222168,-0.21991479396820068
1697726935925592300,4.97159228515625,5.795749664306641,7.907537460327148,-0.22478577494621277
1697726935935183600,4.98118359375,5.780355453491211,7.918877124786377,-0.2219618856906891
1697726935944774400,4.9907744140625,5.765005588531494,7.9302544593811035,-0.2148585319519043
1697726935954366000,5.000365966796875,5.757943630218506,7.935617446899414,-0.20602808892726898
1697726935963958300,5.009958251953125,5.767237186431885,7.929056167602539,-0.19855037331581116
1697726935973549600,5.019549560546875,5.795244216918945,7.908584117889404,-0.19958768784999847
1697726935983140400,5.029140380859375,5.842249393463135,7.873619556427002,-0.21124544739723206
1697726935992732000,5.03873193359375,5.915821552276611,7.8182220458984375,-0.22104421257972717
1697726936002324200,5.04832421875,6.005753993988037,7.748815536499023,-0.23909007012844086
1697726936011915500,5.05791552734375,6.101075649261475,7.672900676727295,-0.2717859447002411
1697726936021506300,5.06750634765625,6.194278240203857,7.596187114715576,-0.3150373697280884
1697726936031097900,5.077097900390625,6.281187057495117,7.52235221862793,-0.36234250664711
1697726936040690200,5.086690185546875,6.360244274139404,7.453625679016113,-0.40142714977264404
1697726936050281700,5.09628173828125,6.430054187774658,7.392195224761963,-0.42453905940055847
1697726936059872300,5.105872314453125,6.491218566894531,7.338213920593262,-0.4302203059196472
1697726936069463800,5.1154638671875,6.5474629402160645,7.288570404052734,-0.4217459559440613
1697726936079056100,5.12505615234375,6.603706359863281,7.238370418548584,-0.40919262170791626
1697726936088647700,5.134647705078125,6.666062355041504,7.181304931640625,-0.403578519821167
1697726936098238200,5.14423828125,6.742647171020508,7.109030723571777,-0.41082730889320374
1697726936107829800,5.153829833984375,6.834814071655273,7.0189008712768555,-0.43672671914100647
1697726936117422000,5.163422119140625,6.942115306854248,6.909932613372803,-0.4798647463321686
1697726936127013600,5.173013671875,7.061610221862793,6.782656192779541,-0.5473707914352417
1697726936136604200,5.182604248046875,7.191196441650391,6.636234760284424,-0.6461261510848999
1697726936146195700,5.19219580078125,7.331009864807129,6.468476295471191,-0.7651739120483398
1697726936155788000,5.2017880859375,7.479272842407227,6.279091835021973,-0.8965836763381958
1697726936165379600,5.211379638671875,7.628765106201172,6.07129430770874,-1.0543781518936157
1697726936174970400,5.220970458984375,7.768569469451904,5.8580522537231445,-1.2259453535079956
1697726936184562000,5.23056201171875,7.899006366729736,5.647436141967773,-1.3720588684082031
1697726936194154000,5.240154052734375,8.031792640686035,5.429440021514893,-1.477118730545044
1697726936203745500,5.24974560546875,8.16665267944336,5.1990180015563965,-1.564092755317688
1697726936213336300,5.25933642578125,8.294137001037598,4.964233875274658,-1.653498649597168
1697726936222928000,5.268927978515625,8.405863761901855,4.7362751960754395,-1.7548673152923584
1697726936232520000,5.27852001953125,8.496211051940918,4.522805690765381,-1.8785673379898071
1697726936242111500,5.288111572265625,8.561307907104492,4.327974319458008,-2.035444736480713
1697726936251702300,5.297702392578125,8.59713363647461,4.156088829040527,-2.233067750930786
1697726936261293600,5.30729345703125,8.60258674621582,4.012887954711914,-2.4622390270233154
1697726936270886100,5.31688623046875,8.593371391296387,3.89729380607605,-2.6712279319763184
1697726936280477400,5.3264775390625,8.611796379089355,3.7871649265289307,-2.7685258388519287
1697726936290068200,5.336068115234375,8.670252799987793,3.676105499267578,-2.7355740070343018
1697726936299659800,5.34565966796875,8.73558235168457,3.5871078968048096,-2.644362688064575
1697726936309252000,5.355252197265625,8.794424057006836,3.5303826332092285,-2.5228729248046875
1697726936318843400,5.364843505859375,8.851614952087402,3.503115653991699,-2.3553085327148438
1697726936328434200,5.37443408203125,8.906200408935547,3.502246141433716,-2.1410863399505615
1697726936338025700,5.384025634765625,8.950298309326172,3.5222206115722656,-1.9122029542922974
1697726936347618000,5.3936181640625,8.980249404907227,3.5471060276031494,-1.7156763076782227
1697726936357209300,5.403209228515625,9.001510620117188,3.57291316986084,-1.5419074296951294
1697726936366800100,5.412800048828125,9.015294075012207,3.5940897464752197,-1.4061976671218872
1697726936376391700,5.4223916015625,9.025296211242676,3.6038310527801514,-1.3140887022018433
1697726936385984000,5.43198388671875,9.034066200256348,3.5945518016815186,-1.27876877784729
1697726936395575300,5.4415751953125,9.04141616821289,3.5776162147521973,-1.2743040323257446
1697726936405166000,5.451166015625,9.05135726928711,3.553834915161133,-1.270269513130188
1697726936414757600,5.460757568359375,9.067378997802734,3.521976947784424,-1.2444679737091064
1697726936424350000,5.470349853515625,9.088850021362305,3.484849691390991,-1.1912246942520142
1697726936433941200,5.479941162109375,9.114974975585938,3.443873167037964,-1.107864260673523
1697726936443532000,5.489531982421875,9.1424560546875,3.4031665325164795,-1.0021684169769287
1697726936453123600,5.49912353515625,9.169276237487793,3.365809679031372,-0.8752591013908386
1697726936462716000,5.5087158203125,9.192227363586426,3.3368372917175293,-0.7340749502182007
1697726936472307500,5.518307373046875,9.207891464233398,3.3218257427215576,-0.5921206474304199
1697726936481898000,5.52789794921875,9.214728355407715,3.323348045349121,-0.46317240595817566
1697726936491489500,5.537489501953125,9.211121559143066,3.3456671237945557,-0.3635220229625702
1697726936501081900,5.547081787109375,9.196544647216797,3.3918299674987793,-0.2990491986274719
1697726936510673400,5.55667333984375,9.172338485717773,3.4600589275360107,-0.25804153084754944
1697726936520264000,5.566263916015625,9.140042304992676,3.546868324279785,-0.22301876544952393
1697726936529855500,5.57585546875,9.101390838623047,3.647277355194092,-0.18011614680290222
1697726936539447800,5.58544775390625,9.058444023132324,3.7550323009490967,-0.12131388485431671
1697726936549039400,5.595039306640625,9.013154029846191,3.864119052886963,-0.04493789002299309
1697726936558630000,5.6046298828125,8.966705322265625,3.970716953277588,0.04461606219410896
1697726936568221400,5.614221435546875,8.918496131896973,4.075802803039551,0.13658417761325836
1697726936577813800,5.623813720703125,8.869000434875488,4.178450584411621,0.22752884030342102
1697726936587405300,5.6334052734375,8.818355560302734,4.278836250305176,0.3139512836933136
1697726936596996000,5.64299609375,8.767288208007812,4.376421928405762,0.38985103368759155
1697726936606587400,5.65258740234375,8.717377662658691,4.469494819641113,0.4487040340900421
1697726936616179700,5.6621796875,8.671075820922852,4.555136203765869,0.4832989573478699
1697726936625771300,5.671771240234375,8.630847930908203,4.630143165588379,0.4905325174331665
1697726936635361800,5.68136181640625,8.598152160644531,4.692607402801514,0.4707590639591217
1697726936644953600,5.69095361328125,8.57314682006836,4.742244720458984,0.4273991286754608
1697726936654545700,5.700545654296875,8.555383682250977,4.779216766357422,0.3672621548175812
1697726936664137200,5.71013720703125,8.544171333312988,4.803968906402588,0.29901963472366333
1697726936673728000,5.71972802734375,8.538415908813477,4.8179168701171875,0.2313326597213745
1697726936683319600,5.729319580078125,8.537036895751953,4.822870254516602,0.17122112214565277
1697726936692911600,5.73891162109375,8.539557456970215,4.8199143409729,0.12155729532241821
1697726936702503200,5.748503173828125,8.545269012451172,4.810533046722412,0.08691529929637909
1697726936712094000,5.758093994140625,8.5517578125,4.799337387084961,0.06473983079195023
1697726936721685200,5.767685302734375,8.55630111694336,4.791443347930908,0.0466766282916069
1697726936731277800,5.77727783203125,8.55656909942627,4.79110050201416,0.029453914612531662
1697726936740869000,5.786869140625,8.550501823425293,4.802004337310791,0.008251585066318512
1697726936750460000,5.7964599609375,8.536767959594727,4.826351642608643,-0.01780596747994423
1697726936760051500,5.806051513671875,8.515334129333496,4.863893508911133,-0.04473722353577614
1697726936769643500,5.8156435546875,8.486330032348633,4.914230823516846,-0.05412359535694122
1697726936779235000,5.825235107421875,8.448728561401367,4.978774547576904,-0.03428354859352112
1697726936788825900,5.834825927734375,8.400294303894043,5.060182094573975,0.0013302667066454887
1697726936798417400,5.84441748046875,8.339763641357422,5.159244060516357,0.030201811343431473
1697726936808009700,5.854009765625,8.267051696777344,5.274907112121582,0.040118638426065445
1697726936817601000,5.86360107421875,8.18726634979248,5.397913932800293,0.04002826660871506
1697726936827191800,5.87319189453125,8.104467391967773,5.521490573883057,0.03366383910179138
1697726936836783400,5.882783447265625,8.019864082336426,5.643754005432129,0.014607932418584824
1697726936846375700,5.892375732421875,7.9357757568359375,5.761375904083252,-0.019978364929556847
1697726936855967000,5.901967041015625,7.85302209854126,5.87330436706543,-0.0688106045126915
1697726936865557800,5.911557861328125,7.769276142120361,5.982635498046875,-0.12962722778320312
1697726936875149300,5.9211494140625,7.682769775390625,6.091431617736816,-0.19974707067012787
1697726936884741600,5.93074169921875,7.5939788818359375,6.198983192443848,-0.2729104161262512
1697726936894333000,5.9403330078125,7.504293441772461,6.303721904754639,-0.34504416584968567
1697726936903923700,5.949923828125,7.4160966873168945,6.403108596801758,-0.414845734834671
1697726936913515300,5.959515380859375,7.332542896270752,6.494205474853516,-0.4790556728839874
1697726936923107600,5.969107666015625,7.25687313079834,6.574541091918945,-0.5325334072113037
1697726936932699000,5.978698974609375,7.1922430992126465,6.642061710357666,-0.5701309442520142
1697726936942289700,5.98828955078125,7.140239715576172,6.6961798667907715,-0.590369462966919
1697726936951881200,5.997881103515625,7.102267742156982,6.736438274383545,-0.5904151797294617
1697726936961473500,6.0074736328125,7.079809188842773,6.761748313903809,-0.5704871416091919
1697726936971064800,6.01706494140625,7.072932720184326,6.771730422973633,-0.5363536477088928
1697726936980655600,6.026655517578125,7.079171657562256,6.768095016479492,-0.4986216723918915
1697726936990247200,6.0362470703125,7.0949931144714355,6.7536115646362305,-0.46925070881843567
1697726936999839500,6.045839599609375,7.116749286651611,6.731462001800537,-0.45791977643966675
1697726937009431000,6.05543115234375,7.140811443328857,6.705177307128906,-0.4688331186771393
1697726937019021600,6.065021484375,7.164437770843506,6.677552223205566,-0.5015275478363037
1697726937028613000,6.074613037109375,7.185020923614502,6.651454448699951,-0.5513777136802673
1697726937038205400,6.084205322265625,7.20075798034668,6.629268169403076,-0.6101499795913696
1697726937047797000,6.093796875,7.210750579833984,6.61284875869751,-0.6676025390625
1697726937057387500,6.103387451171875,7.215606212615967,6.602617263793945,-0.7147464156150818
1697726937066979000,6.11297900390625,7.21622896194458,6.598288536071777,-0.747674822807312
1697726937076571400,6.1225712890625,7.213106632232666,6.599671840667725,-0.7653833031654358
1697726937086163000,6.132162841796875,7.205868721008301,6.6066389083862305,-0.7734194397926331
1697726937095753500,6.14175341796875,7.196366310119629,6.616466045379639,-0.7778613567352295
1697726937105345000,6.151344970703125,7.189871311187744,6.622833728790283,-0.7837146520614624
1697726937114937300,6.160937255859375,7.187712669372559,6.62302827835083,-0.8016651272773743
1697726937124529000,6.17052880859375,7.187768459320068,6.617927551269531,-0.8422561287879944
1697726937134119400,6.180119384765625,7.1872477531433105,6.609020709991455,-0.9136214256286621
1697726937143711000,6.1897109375,7.184545516967773,6.597110748291016,-1.0152935981750488
1697726937153303300,6.19930322265625,7.179165363311768,6.582534313201904,-1.14026939868927
1697726937162894800,6.208894775390625,7.169929027557373,6.566503047943115,-1.2820063829421997
1697726937172485400,6.2184853515625,7.155379295349121,6.55094575881958,-1.4338912963867188
1697726937182077000,6.228076904296875,7.1357011795043945,6.5370025634765625,-1.5873736143112183
1697726937191669200,6.237669189453125,7.112527847290039,6.5249505043029785,-1.7341731786727905
1697726937201260800,6.2472607421875,7.088102340698242,6.514890193939209,-1.8669203519821167
1697726937210851300,6.256851318359375,7.0651936531066895,6.5066819190979,-1.9790174961090088
1697726937220443000,6.26644287109375,7.047403335571289,6.499726295471191,-2.0635054111480713
1697726937230035200,6.27603515625,7.037045955657959,6.493551254272461,-2.1175880432128906
1697726937239626800,6.285626708984375,7.0341010093688965,6.487967014312744,-2.144317626953125
1697726937249217300,6.29521728515625,7.036617279052734,6.482970714569092,-2.15116024017334
1697726937258808800,6.304808837890625,7.043951511383057,6.478597164154053,-2.140305519104004
1697726937268401200,6.314401123046875,7.055972099304199,6.4751996994018555,-2.1107892990112305
1697726937277992700,6.32399267578125,7.07008171081543,6.474218368530273,-2.066114664077759
1697726937287583500,6.33358349609375,7.088298320770264,6.474911689758301,-2.0004849433898926
1697726937297175000,6.343175048828125,7.107416152954102,6.480070114135742,-1.9140803813934326
1697726937306767000,6.35276708984375,7.123532295227051,6.492385387420654,-1.8095927238464355
1697726937316358700,6.362358642578125,7.134493350982666,6.512634754180908,-1.6896708011627197
1697726937325949400,6.371949462890625,7.138248443603516,6.540643215179443,-1.5607045888900757
1697726937335541000,6.381541015625,7.1338324546813965,6.574845314025879,-1.4318615198135376
1697726937345133000,6.391133056640625,7.122832298278809,6.612005710601807,-1.3103519678115845
1697726937354724600,6.400724609375,7.108753204345703,6.64691686630249,-1.2060328722000122
1697726937364315400,6.4103154296875,7.094035625457764,6.677087783813477,-1.1231855154037476
1697726937373907000,6.419906982421875,7.078989028930664,6.702649116516113,-1.0643237829208374
1697726937383499000,6.4294990234375,7.063992977142334,6.724179267883301,-1.027529001235962
1697726937393090600,6.439090576171875,7.050808906555176,6.741649627685547,-1.0033142566680908
1697726937402681300,6.448681396484375,7.039001941680908,6.756643772125244,-0.9851990938186646
1697726937412273000,6.45827294921875,7.027756214141846,6.771010875701904,-0.9666728973388672
1697726937421865200,6.467865234375,7.01806640625,6.784572601318359,-0.9416484236717224
1697726937431456500,6.47745654296875,7.0101318359375,6.7970075607299805,-0.9105586409568787
1697726937441047300,6.48704736328125,7.005498886108398,6.806598663330078,-0.8738306164741516
1697726937450638600,6.496638671875,7.006481647491455,6.8112030029296875,-0.8289230465888977
1697726937460231000,6.50623095703125,7.013416767120361,6.809998512268066,-0.7786508202552795
1697726937469822500,6.515822509765625,7.023577690124512,6.805049896240234,-0.7287302613258362
1697726937479413200,6.525413330078125,7.032995223999023,6.8000030517578125,-0.6836119890213013
1697726937489004800,6.5350048828125,7.037920951843262,6.798340320587158,-0.648547887802124
1697726937498596900,6.544596923828125,7.035195827484131,6.803188323974609,-0.6269225478172302
1697726937508188400,6.5541884765625,7.022998332977295,6.816519737243652,-0.6188352704048157
1697726937517779200,6.563779296875,6.999970436096191,6.839776039123535,-0.6231122612953186
1697726937527370500,6.57337060546875,6.965221881866455,6.873934745788574,-0.6364625096321106
1697726937536963000,6.582963134765625,6.918720722198486,6.919071674346924,-0.6543189883232117
1697726937546554400,6.592554443359375,6.861681938171387,6.973922252655029,-0.6723963618278503
1697726937556145200,6.602145263671875,6.7957763671875,7.036924839019775,-0.6851904392242432
1697726937565736700,6.61173681640625,6.722713947296143,7.106652736663818,-0.6862956881523132
1697726937575329000,6.6213291015625,6.643875598907471,7.181766510009766,-0.6719683408737183
1697726937584920300,6.63092041015625,6.559791564941406,7.261376857757568,-0.641819953918457
1697726937594511000,6.640510986328125,6.470761299133301,7.3445143699646,-0.5981151461601257
1697726937604102700,6.6501025390625,6.377439498901367,7.429827690124512,-0.5443556904792786
1697726937613695000,6.659695068359375,6.280939102172852,7.515634059906006,-0.48521852493286133
1697726937623286300,6.669286376953125,6.183165550231934,7.5998687744140625,-0.425258606672287
1697726937632877000,6.678876953125,6.086182117462158,7.6806864738464355,-0.3685625195503235
1697726937642468600,6.688468505859375,5.991844654083252,7.756747245788574,-0.31788480281829834
1697726937652061000,6.69806103515625,5.902340412139893,7.826683044433594,-0.2752973139286041
1697726937661652200,6.70765234375,5.819832801818848,7.889305114746094,-0.24247124791145325
1697726937671243000,6.717242919921875,5.746456623077393,7.943570137023926,-0.21980950236320496
1697726937680834600,6.72683447265625,5.683088302612305,7.9893479347229,-0.20786909759044647
1697726937690427000,6.736427001953125,5.630510330200195,8.02652359008789,-0.20657522976398468
1697726937700018200,6.74601806640625,5.589326858520508,8.055027961730957,-0.2152540534734726
1697726937709609000,6.75560888671875,5.559313774108887,8.075296401977539,-0.23240207135677338
1697726937719200500,6.765200439453125,5.539359092712402,8.0883207321167,-0.25490039587020874
1697726937728792800,6.774792724609375,5.528369426727295,8.09505558013916,-0.27855899930000305
1697726937738384100,6.784384033203125,5.525437831878662,8.096344947814941,-0.2985476553440094
1697726937747975700,6.7939755859375,5.5295186042785645,8.093091011047363,-0.31095531582832336
1697726937757566500,6.80356640625,5.540365695953369,8.085609436035156,-0.312504380941391
1697726937767158800,6.81315869140625,5.558452129364014,8.073599815368652,-0.3016040027141571
1697726937776750000,6.82275,5.584227561950684,8.056614875793457,-0.27880778908729553
1697726937786340900,6.8323408203125,5.617269039154053,8.034660339355469,-0.2467992603778839
1697726937795932400,6.841932373046875,5.656760215759277,8.007976531982422,-0.20921681821346283
1697726937805524700,6.851524658203125,5.701327323913574,7.977240085601807,-0.16997282207012177
1697726937815116000,6.861115966796875,5.748058319091797,7.94431734085083,-0.13430346548557281
1697726937824706800,6.870706787109375,5.7933878898620605,7.9117326736450195,-0.1074206531047821
1697726937834298400,6.88029833984375,5.834174156188965,7.881882190704346,-0.09344815462827682
1697726937843890700,6.889890625,5.869684219360352,7.855463981628418,-0.09420744329690933
1697726937853482000,6.89948193359375,5.8996381759643555,7.832773685455322,-0.11093372106552124
1697726937863072800,6.90907275390625,5.924081802368164,7.813784122467041,-0.1428697556257248
1697726937872664300,6.918664306640625,5.943528652191162,7.797996997833252,-0.19000037014484406
1697726937882256600,6.928256591796875,5.959037780761719,7.78447961807251,-0.24925246834754944
1697726937891848000,6.937847900390625,5.9722700119018555,7.772013187408447,-0.31337082386016846
1697726937901438700,6.947438720703125,5.984959602355957,7.759454250335693,-0.3761838376522064
1697726937911030300,6.9570302734375,5.998678207397461,7.746077060699463,-0.4295884966850281
1697726937920622600,6.96662255859375,6.0158820152282715,7.7307586669921875,-0.4636005759239197
1697726937930214000,6.9762138671875,6.04004430770874,7.711671829223633,-0.4673044681549072
1697726937939804700,6.9858046875,6.073029518127441,7.687454700469971,-0.4378918409347534
1697726937949396200,6.995396240234375,6.114113807678223,7.657797336578369,-0.3822719156742096
1697726937958988500,7.004988525390625,6.160946846008301,7.6234450340271,-0.3101665675640106
1697726937968579800,7.014579833984375,6.20958948135376,7.5866875648498535,-0.23140738904476166
1697726937978170600,7.024170654296875,6.255904197692871,7.550476551055908,-0.15602728724479675
1697726937987762200,7.03376220703125,6.296494483947754,7.517702102661133,-0.09320410341024399
1697726937997354500,7.0433544921875,6.329780578613281,7.490114212036133,-0.049467094242572784
1697726938006945800,7.05294580078125,6.355936050415039,7.468049049377441,-0.02651035785675049
1697726938016536600,7.06253662109375,6.376748561859131,7.450302600860596,-0.021242717280983925
1697726938026128100,7.072128173828125,6.394242763519287,7.435266971588135,-0.029514078050851822
1697726938035720400,7.081720458984375,6.409786701202393,7.421782493591309,-0.04640410095453262
1697726938045311700,7.091311767578125,6.423661231994629,7.409623622894287,-0.06659151613712311
1697726938054902500,7.100902587890625,6.436141490936279,7.398581027984619,-0.08638954162597656
1697726938064494000,7.110494140625,6.447661399841309,7.3883137702941895,-0.10431645810604095
1697726938074086400,7.12008642578125,6.459238052368164,7.377950668334961,-0.12031394243240356
1697726938083677700,7.129677734375,6.472501277923584,7.366063117980957,-0.13504329323768616
1697726938093268500,7.1392685546875,6.489065647125244,7.351156711578369,-0.15137657523155212
1697726938102860000,7.148860107421875,6.509567737579346,7.332554340362549,-0.17192938923835754
1697726938112452400,7.158452392578125,6.533944129943848,7.310162544250488,-0.19873441755771637
1697726938122043600,7.168043701171875,6.561186790466309,7.284637451171875,-0.23513729870319366
1697726938131634400,7.177634521484375,6.58954381942749,7.257309436798096,-0.2824295163154602
1697726938141226000,7.18722607421875,6.617333889007568,7.229518890380859,-0.3396129906177521
1697726938150818300,7.196818359375,6.643436431884766,7.2021918296813965,-0.40444111824035645
1697726938160409600,7.20640966796875,6.667105197906494,7.175924301147461,-0.4756259024143219
1697726938170000400,7.21600048828125,6.688483238220215,7.150677680969238,-0.5499094724655151
1697726938179592000,7.225592041015625,6.70901346206665,7.125542163848877,-0.6214342713356018
1697726938189184300,7.235184326171875,6.730490207672119,7.099401950836182,-0.685116708278656
1697726938198775600,7.244775634765625,6.754983901977539,7.071001052856445,-0.7358843684196472
1697726938208366300,7.254366455078125,6.783812522888184,7.03980016708374,-0.7690786123275757
1697726938217958000,7.2639580078125,6.817930221557617,7.005422115325928,-0.7812023162841797
1697726938227550200,7.27355029296875,6.857293128967285,6.968133449554443,-0.770081102848053
1697726938237141500,7.2831416015625,6.901189804077148,6.928409576416016,-0.7356057167053223
1697726938246732300,7.292732177734375,6.948358535766602,6.886947154998779,-0.6787194013595581
1697726938256323800,7.30232373046875,6.996528148651123,6.845163822174072,-0.6022512316703796
1697726938265916200,7.311916259765625,7.043686866760254,6.804239749908447,-0.5091067552566528
1697726938275507500,7.321507568359375,7.088367938995361,6.764859199523926,-0.40263622999191284
1697726938285098200,7.33109814453125,7.128969192504883,6.727920055389404,-0.2885715067386627
1697726938294689800,7.340689697265625,7.1653523445129395,6.693102836608887,-0.17462404072284698
1697726938304282000,7.3502822265625,7.198430061340332,6.659454822540283,-0.06815434247255325
1697726938313873400,7.359873291015625,7.229737758636475,6.625751495361328,0.026294967159628868
1697726938323464200,7.369464111328125,7.262000560760498,6.589582920074463,0.10556318610906601
1697726938333055700,7.3790556640625,7.298460006713867,6.547890663146973,0.167354017496109
1697726938342648000,7.38864794921875,7.34233283996582,6.4973344802856445,0.21257388591766357
1697726938352239400,7.3982392578125,7.396082401275635,6.434981822967529,0.2436288297176361
1697726938361830100,7.407830078125,7.458701133728027,6.3617048263549805,0.2586071789264679
1697726938371421700,7.417421630859375,7.525928020477295,6.282199859619141,0.25447022914886475
1697726938381014000,7.427013916015625,7.593509674072266,6.201082229614258,0.23575811088085175
1697726938390605300,7.436605224609375,7.65816068649292,6.12205171585083,0.20842882990837097
1697726938400196000,7.446196044921875,7.7171711921691895,6.048574924468994,0.1743539571762085
1697726938409787600,7.45578759765625,7.770148754119873,5.981208324432373,0.14256323873996735
1697726938419380000,7.4653798828125,7.819258689880371,5.917257308959961,0.1251179277896881
1697726938428971300,7.47497119140625,7.865668296813965,5.855380535125732,0.12716509401798248
1697726938438562000,7.48456201171875,7.908383846282959,5.797031402587891,0.1492079198360443
1697726938448153600,7.494153564453125,7.944801330566406,5.745913028717041,0.1870814561843872
1697726938457746000,7.503745849609375,7.9723219871521,5.705857276916504,0.23591095209121704
1697726938467337200,7.513337158203125,7.989637851715088,5.67904806137085,0.2906723618507385
1697726938476928000,7.522927978515625,7.9971818923950195,5.665340423583984,0.34551042318344116
1697726938486519600,7.53251953125,7.99652624130249,5.662966728210449,0.3959374725818634
1697726938496111900,7.54211181640625,7.989441871643066,5.669788360595703,0.438982218503952
1697726938505703200,7.551703125,7.977410316467285,5.684014320373535,0.47254449129104614
1697726938515294000,7.5612939453125,7.961568832397461,5.704226016998291,0.4956003725528717
1697726938524885500,7.570885498046875,7.942782878875732,5.729169845581055,0.5091167688369751
1697726938534477800,7.580477783203125,7.921219825744629,5.758322238922119,0.5161188244819641
1697726938544069000,7.590069091796875,7.896333694458008,5.791762828826904,0.5232539772987366
1697726938553660000,7.599659912109375,7.867725372314453,5.829394817352295,0.5361379384994507
1697726938563251500,7.60925146484375,7.835054397583008,5.8711676597595215,0.5582889914512634
1697726938572843800,7.61884375,7.797749996185303,5.917331218719482,0.5921863317489624
1697726938582435000,7.62843505859375,7.756269931793213,5.966827869415283,0.6384692788124084
1697726938592025900,7.63802587890625,7.712454795837402,6.017622947692871,0.6903849840164185
1697726938601617400,7.647617431640625,7.669928550720215,6.066490173339844,0.7350361347198486
1697726938611209700,7.657209716796875,7.632138729095459,6.110353946685791,0.7644658088684082
1697726938620801000,7.666801025390625,7.6004958152771,6.148248672485352,0.7758243083953857
1697726938630391800,7.676391845703125,7.57546329498291,6.179865837097168,0.7694140672683716
1697726938639983400,7.6859833984375,7.557408809661865,6.204642295837402,0.747241735458374
1697726938649575700,7.69557568359375,7.545197010040283,6.223827838897705,0.7101925611495972
1697726938659167000,7.7051669921875,7.537689208984375,6.238295078277588,0.661282479763031
1697726938668757800,7.7147578125,7.534601211547852,6.247472763061523,0.6076608896255493
1697726938678349300,7.724349365234375,7.535325050354004,6.251525402069092,0.5547029376029968
1697726938687941600,7.733941650390625,7.538888931274414,6.251361846923828,0.5059770941734314
1697726938697533000,7.743532958984375,7.54386043548584,6.248500823974609,0.46560409665107727
1697726938707123700,7.753123779296875,7.5490522384643555,6.244179725646973,0.4386543929576874
1697726938716715300,7.76271533203125,7.5526041984558105,6.2405104637146,0.4296191930770874
1697726938726307600,7.7723076171875,7.552781581878662,6.2394022941589355,0.44241899251937866
1697726938735899000,7.78189892578125,7.548964977264404,6.24127197265625,0.4796189069747925
1697726938745489700,7.79148974609375,7.540714740753174,6.245971202850342,0.5439241528511047
1697726938755081200,7.801081298828125,7.527657508850098,6.253051280975342,0.6356958150863647
1697726938764673500,7.810673583984375,7.511050701141357,6.2616167068481445,0.7393697500228882
1697726938774264800,7.820264892578125,7.495141506195068,6.269532680511475,0.8283750414848328
1697726938783855600,7.829855712890625,7.476224899291992,6.280885696411133,0.9093512892723083
1697726938793447200,7.839447265625,7.454395294189453,6.297384738922119,0.9722824692726135
1697726938803039500,7.84903955078125,7.430815696716309,6.318045616149902,1.0176711082458496
1697726938812630800,7.858630859375,7.4072980880737305,6.3405070304870605,1.0489494800567627
1697726938822221600,7.8682216796875,7.387171745300293,6.361489295959473,1.063739538192749
1697726938831813000,7.877813232421875,7.373984336853027,6.37701416015625,1.06227707862854
1697726938841405200,7.8874052734375,7.370599269866943,6.3836493492126465,1.0457929372787476
1697726938850996700,7.896996826171875,7.376481533050537,6.382133483886719,1.0130592584609985
1697726938860587500,7.90658740234375,7.386996746063232,6.377259254455566,0.9660402536392212
1697726938870179000,7.916178955078125,7.396170139312744,6.374306678771973,0.913936197757721
1697726938879771400,7.925771484375,7.399911880493164,6.376242160797119,0.8690468072891235
1697726938889362700,7.93536279296875,7.396791934967041,6.383899211883545,0.8388614058494568
1697726938898953500,7.944953369140625,7.383057594299316,6.401956558227539,0.822070837020874
1697726938908544800,7.954544677734375,7.357461929321289,6.431309700012207,0.8224297761917114
1697726938918137300,7.964137451171875,7.323846817016602,6.46649169921875,0.846251368522644
1697726938927728600,7.973728759765625,7.286859035491943,6.502391338348389,0.889374852180481
1697726938937319400,7.9833193359375,7.250422954559326,6.535989284515381,0.9394689202308655
1697726938946910700,7.99291064453125,7.2185468673706055,6.564330101013184,0.9861749410629272
1697726938956503300,8.00250341796875,7.194683074951172,6.585210800170898,1.0207395553588867
1697726938966094600,8.012094482421874,7.180691242218018,6.598005771636963,1.0365221500396729
1697726938975685400,8.021685302734374,7.176602363586426,6.6033830642700195,1.0305899381637573
1697726938985276700,8.031276611328124,7.181318759918213,6.602140426635742,1.0053784847259521
1697726938994869000,8.040868896484374,7.193087577819824,6.5949249267578125,0.9679135084152222
1697726939004460500,8.05046044921875,7.2089056968688965,6.583619594573975,0.9262980818748474
1697726939014051300,8.06005126953125,7.225151062011719,6.571048736572266,0.8882013559341431
1697726939023643000,8.069642822265624,7.239189624786377,6.559217929840088,0.8609285950660706
1697726939033235000,8.07923486328125,7.250176906585693,6.548611164093018,0.8491210341453552
1697726939042826500,8.088826416015625,7.259102821350098,6.53837251663208,0.8517537117004395
1697726939052417300,8.098417236328125,7.268402576446533,6.526337623596191,0.8646586537361145
1697726939062008800,8.1080087890625,7.281245708465576,6.510073184967041,0.8790814280509949
1697726939071601000,8.117600830078125,7.300160884857178,6.488168716430664,0.8841436505317688
1697726939081192400,8.1271923828125,7.32569694519043,6.4612274169921875,0.8701111674308777
1697726939090783200,8.136783203125,7.3560380935668945,6.431983947753906,0.8298677802085876
1697726939100374800,8.146374755859375,7.3864054679870605,6.405749797821045,0.7601048946380615
1697726939109966800,8.155966796875,7.413767337799072,6.3840718269348145,0.6708680391311646
1697726939119558400,8.165558349609375,7.434865474700928,6.3691325187683105,0.5721188187599182
1697726939129149000,8.17514892578125,7.447638988494873,6.362184524536133,0.4750496745109558
1697726939138740700,8.18474072265625,7.451488971710205,6.3634233474731445,0.39058738946914673
1697726939148332800,8.194332763671875,7.44564962387085,6.373910427093506,0.32552570104599
1697726939157924400,8.20392431640625,7.430100917816162,6.393985271453857,0.28449559211730957
1697726939167515000,8.213514892578125,7.406377792358398,6.422182083129883,0.2674521505832672
1697726939177106400,8.2231064453125,7.376066207885742,6.456756114959717,0.27266353368759155
1697726939186698800,8.23269873046875,7.3414225578308105,6.495004653930664,0.29801830649375916
1697726939196290300,8.242290283203126,7.3039116859436035,6.535225868225098,0.33776646852493286
1697726939205880800,8.251880859375,7.26491641998291,6.5759100914001465,0.3857344686985016
1697726939215472400,8.261472412109375,7.225534915924072,6.615941524505615,0.4374331831932068
1697726939225064700,8.271064697265626,7.186553955078125,6.65471887588501,0.48840153217315674
1697726939234656300,8.28065625,7.14946985244751,6.690913200378418,0.5358524322509766
1697726939244246800,8.290246826171876,7.1156792640686035,6.7233357429504395,0.5781510472297668
1697726939253838300,8.29983837890625,7.085269927978516,6.752129077911377,0.6148977279663086
1697726939263430700,8.3094306640625,7.056704998016357,6.779102802276611,0.6458117365837097
1697726939273022200,8.319022216796874,7.027984619140625,6.806643486022949,0.6688982844352722
1697726939282612700,8.32861279296875,6.9992451667785645,6.834688663482666,0.6840930581092834
1697726939292204300,8.338204345703126,6.973320007324219,6.860071182250977,0.6947072744369507
1697726939301796600,8.347796630859374,6.9543256759643555,6.878159523010254,0.7061598300933838
1697726939311388200,8.35738818359375,6.945583820343018,6.88524866104126,0.7229142189025879
1697726939320978700,8.366978759765624,6.948784351348877,6.879623889923096,0.7453622221946716
1697726939330570200,8.3765703125,6.963453769683838,6.8620171546936035,0.7703427076339722
1697726939340162600,8.38616259765625,6.986013412475586,6.8366546630859375,0.7913035750389099
1697726939349754000,8.395754150390625,7.010893821716309,6.80989408493042,0.8019227385520935
1697726939359344600,8.4053447265625,7.03288459777832,6.786751747131348,0.8055654764175415
1697726939368936200,8.414936279296874,7.049638271331787,6.768543243408203,0.8122801780700684
1697726939378528500,8.424528564453125,7.0617356300354,6.753820896148682,0.8295644521713257
1697726939388120000,8.4341201171875,7.072661399841309,6.738048076629639,0.8640320897102356
1697726939397710600,8.443710693359375,7.087433815002441,6.715237617492676,0.9188365340232849
1697726939407302100,8.45330224609375,7.109888553619385,6.681080341339111,0.9914891719818115
1697726939416894500,8.46289453125,7.141005039215088,6.6350483894348145,1.0735790729522705
1697726939426485800,8.47248583984375,7.179075717926025,6.579956531524658,1.1556124687194824
1697726939436076500,8.48207666015625,7.220613479614258,6.520902156829834,1.22921621799469
1697726939445668000,8.491668212890625,7.260751247406006,6.46474552154541,1.2879966497421265
1697726939455260400,8.501260498046875,7.294621467590332,6.418566703796387,1.3269801139831543
1697726939464851700,8.510851806640625,7.318256378173828,6.387757301330566,1.3453892469406128
1697726939474442500,8.5204423828125,7.329338550567627,6.374695301055908,1.3470141887664795
1697726939484034000,8.530033935546875,7.327495098114014,6.378756046295166,1.3377889394760132
1697726939493626400,8.53962646484375,7.313737392425537,6.397027015686035,1.3257721662521362
1697726939503217700,8.5492177734375,7.29058837890625,6.424524307250977,1.320299744606018
1697726939512808400,8.558808349609375,7.2623395919799805,6.454566955566406,1.3294261693954468
1697726939522400000,8.56839990234375,7.234635353088379,6.480153560638428,1.3557517528533936
1697726939531992300,8.577992431640626,7.212643623352051,6.496525287628174,1.3940263986587524
1697726939541583600,8.58758349609375,7.199234485626221,6.502865791320801,1.4332258701324463
1697726939551174400,8.59717431640625,7.194516658782959,6.501800060272217,1.4614759683609009
1697726939560766000,8.606765869140625,7.197837829589844,6.495857238769531,1.471510887145996
1697726939570358300,8.616358154296876,7.208782196044922,6.485411167144775,1.4639956951141357
1697726939579949600,8.625949462890626,7.225939750671387,6.471452236175537,1.4409997463226318
1697726939589540400,8.635540283203126,7.247566223144531,6.4551897048950195,1.404883623123169
1697726939599132000,8.6451318359375,7.27220344543457,6.4371538162231445,1.3595949411392212
1697726939608724200,8.65472412109375,7.298950672149658,6.417330741882324,1.309034824371338
1697726939618315500,8.6643154296875,7.326362133026123,6.396790504455566,1.2553393840789795
1697726939627906300,8.67390625,7.352782726287842,6.377200603485107,1.199288249015808
1697726939637497900,8.683497802734376,7.3772172927856445,6.3593292236328125,1.1428018808364868
1697726939647090000,8.69308984375,7.399086952209473,6.3434295654296875,1.0884876251220703
1697726939656681500,8.702681396484374,7.418198108673096,6.3296332359313965,1.0375248193740845
1697726939666272300,8.712272216796874,7.434260845184326,6.318177223205566,0.9913586378097534
1697726939675863800,8.72186376953125,7.448151588439941,6.307957172393799,0.9513724446296692
1697726939685456000,8.731455810546874,7.461407661437988,6.297249794006348,0.9178378582000732
1697726939695047400,8.74104736328125,7.475446701049805,6.2844672203063965,0.8908244371414185
1697726939704638200,8.75063818359375,7.491086006164551,6.2686567306518555,0.8706110715866089
1697726939714229800,8.760229736328125,7.509243011474609,6.248534679412842,0.8587616682052612
1697726939723821800,8.76982177734375,7.530935287475586,6.222760200500488,0.855956494808197
1697726939733413400,8.779413330078125,7.55656623840332,6.191047191619873,0.8600197434425354
1697726939743004200,8.789004150390625,7.586227893829346,6.153728008270264,0.8667015433311462
1697726939752595700,8.798595703125,7.618869781494141,6.112574577331543,0.8715707659721375
1697726939762187800,8.808187744140625,7.652522563934326,6.070372104644775,0.871713399887085
1697726939771779300,8.817779296875,7.685439109802246,6.029913425445557,0.8628759384155273
1697726939781370000,8.8273701171875,7.715251922607422,5.994488716125488,0.8434333801269531
1697726939790961700,8.836961669921875,7.7390055656433105,5.96778678894043,0.8146770596504211
1697726939800553700,8.8465537109375,7.754941463470459,5.95181941986084,0.7791779637336731
1697726939810145300,8.856145263671875,7.763118743896484,5.945987701416016,0.74134761095047
1697726939819735800,8.86573583984375,7.7653889656066895,5.947243690490723,0.7066888809204102
1697726939829327600,8.87532763671875,7.763741493225098,5.9530487060546875,0.6752074956893921
1697726939838919700,8.884919677734375,7.760719299316406,5.960398197174072,0.6444247961044312
1697726939848511200,8.89451123046875,7.758031845092773,5.967251300811768,0.612570583820343
1697726939858101800,8.904101806640625,7.755381107330322,5.973858833312988,0.5809173583984375
1697726939867693300,8.913693359375,7.7518744468688965,5.981070041656494,0.552837073802948
1697726939877285600,8.92328564453125,7.746227741241455,5.99030065536499,0.5316344499588013
1697726939886877200,8.932877197265626,7.7382097244262695,6.00138521194458,0.5233215093612671
1697726939896467700,8.9424677734375,7.728956699371338,6.012265682220459,0.5350508093833923
1697726939906059300,8.952059326171875,7.720460891723633,6.019894599914551,0.5707502961158752
1697726939915651600,8.961651611328126,7.714900493621826,6.021339416503906,0.6278296113014221
1697726939925243100,8.9712431640625,7.714013576507568,6.014766216278076,0.6978399753570557
1697726939934833700,8.980833740234376,7.718755722045898,6.000117301940918,0.7679808139801025
1697726939944425200,8.99042529296875,7.728362083435059,5.980029106140137,0.8258619904518127
1697726939954017500,9.000017578125,7.740787029266357,5.958878517150879,0.861611008644104
1697726939963608800,9.00960888671875,7.754225730895996,5.94018030166626,0.8698475360870361
1697726939973199600,9.01919970703125,7.76745080947876,5.925411701202393,0.852397620677948
1697726939982791200,9.028791259765624,7.779354572296143,5.9149065017700195,0.8160386085510254
1697726939992383500,9.038383544921874,7.788383960723877,5.90910005569458,0.7707089185714722
1697726940001974800,9.047974853515624,7.792855739593506,5.908745288848877,0.7269861102104187
1697726940011565600,9.057565673828124,7.791591644287109,5.914404392242432,0.6937623620033264
1697726940021157000,9.0671572265625,7.784549713134766,5.925592422485352,0.6771454215049744
1697726940030749400,9.07674951171875,7.773020267486572,5.940468788146973,0.6792489290237427
1697726940040340700,9.0863408203125,7.759490966796875,5.956067085266113,0.6971080899238586
1697726940049931500,9.095931640625,7.747339725494385,5.96861457824707,0.7243911623954773
1697726940059523000,9.105523193359375,7.740320205688477,5.974153518676758,0.7532045841217041
1697726940069115400,9.115115478515625,7.7413506507873535,5.9700927734375,0.7745139598846436
1697726940078706700,9.124706787109375,7.75179386138916,5.955693244934082,0.7808975577354431
1697726940088297500,9.13429736328125,7.771470546722412,5.93171501159668,0.7677179574966431
1697726940097889000,9.143888916015625,7.798739910125732,5.900142669677734,0.7337312698364258
1697726940107481300,9.1534814453125,7.830783367156982,5.863988876342773,0.6803342700004578
1697726940117072600,9.16307275390625,7.8641533851623535,5.826735496520996,0.6120758652687073
1697726940126663400,9.172663330078125,7.895627975463867,5.791502475738525,0.536596417427063
1697726940136255000,9.1822548828125,7.922754287719727,5.760775566101074,0.46239084005355835
1697726940145847300,9.191847412109375,7.944119930267334,5.736156463623047,0.3973167836666107
1697726940155438600,9.2014384765625,7.959686756134033,5.717739582061768,0.34815946221351624
1697726940165029400,9.211029296875,7.970087051391602,5.704939365386963,0.31903478503227234
1697726940174621000,9.220620849609375,7.976376533508301,5.696535587310791,0.3119014799594879
1697726940184213000,9.230212890625,7.979066848754883,5.6920037269592285,0.3255394697189331
1697726940193804500,9.239804443359375,7.97809362411499,5.691519737243652,0.35638344287872314
1697726940203395300,9.249395263671875,7.973430633544922,5.6951518058776855,0.400048166513443
1697726940212986600,9.258986572265625,7.9654388427734375,5.702391147613525,0.452670693397522
1697726940222579000,9.268578857421875,7.955152988433838,5.711823463439941,0.5108740925788879
1697726940232170500,9.27817041015625,7.943450927734375,5.722103595733643,0.5740219950675964
1697726940241761300,9.28776123046875,7.930870056152344,5.732276439666748,0.6424077153205872
1697726940251352600,9.2973525390625,7.916556358337402,5.743929862976074,0.7111972570419312
1697726940260945000,9.30694482421875,7.898842811584473,5.7604193687438965,0.7721593976020813
1697726940270536400,9.316536376953126,7.877317905426025,5.7834296226501465,0.8186466097831726
1697726940280127200,9.326127197265626,7.853395462036133,5.811868667602539,0.8466114401817322
1697726940289718500,9.335718505859376,7.829584121704102,5.842601299285889,0.8555676937103271
1697726940299310800,9.345310791015624,7.809314727783203,5.870713233947754,0.8483700752258301
1697726940308902400,9.35490234375,7.796008586883545,5.891140460968018,0.8289228081703186
1697726940318493200,9.3644931640625,7.79179048538208,5.900613307952881,0.8007168173789978
1697726940328084500,9.37408447265625,7.797005653381348,5.898587226867676,0.7640509605407715
1697726940337676800,9.3836767578125,7.809665203094482,5.887816905975342,0.7163199782371521
1697726940347268400,9.393268310546874,7.82548713684082,5.873591899871826,0.6580680012702942
1697726940356859000,9.40285888671875,7.83988618850708,5.860867023468018,0.5973429679870605
1697726940366450400,9.412450439453124,7.850275039672852,5.852349758148193,0.5418166518211365
1697726940376042800,9.422042724609375,7.856050968170166,5.848471164703369,0.49822911620140076
1697726940385634300,9.43163427734375,7.859554290771484,5.845830917358398,0.4733614921569824
1697726940395224800,9.441224853515624,7.864249229431152,5.839821815490723,0.46953174471855164
1697726940404816400,9.45081640625,7.873597621917725,5.825816631317139,0.4865352213382721
1697726940414408700,9.46040869140625,7.890633583068848,5.799471855163574,0.5238444209098816
1697726940424000000,9.47,7.917624473571777,5.757347106933594,0.5784071683883667
1697726940433590800,9.4795908203125,7.9553422927856445,5.697976589202881,0.6449732184410095
1697726940443182300,9.489182373046875,8.002725601196289,5.622828483581543,0.7145496606826782
1697726940452774700,9.498774658203125,8.057002067565918,5.536411762237549,0.7766950726509094
1697726940462366000,9.508365966796875,8.113487243652344,5.446440696716309,0.823408305644989
1697726940471956700,9.517956787109375,8.166132926940918,5.36313009262085,0.849410891532898
1697726940481548300,9.52754833984375,8.209759712219238,5.2956223487854,0.8524186015129089
1697726940491140600,9.537140625,8.240808486938477,5.250157833099365,0.8338441252708435
1697726940500732000,9.54673193359375,8.257168769836426,5.229608058929443,0.8004630208015442
1697726940510322700,9.55632275390625,8.257786750793457,5.234275817871094,0.7627076506614685
1697726940519914200,9.565914306640625,8.242569923400879,5.262767314910889,0.7305606603622437
1697726940529506600,9.575506591796875,8.212971687316895,5.311470031738281,0.7111667394638062
1697726940539097900,9.585097900390625,8.171380043029785,5.3755412101745605,0.7088676691055298
1697726940548688600,9.594688720703125,8.121363639831543,5.448790550231934,0.7242408394813538
1697726940558280200,9.6042802734375,8.066534996032715,5.5257720947265625,0.7531467080116272
1697726940567872500,9.61387255859375,8.01021671295166,5.602090835571289,0.7895615696907043
1697726940577463800,9.6234638671875,7.954955101013184,5.674723148345947,0.8286080360412598
1697726940587054600,9.6330546875,7.902653694152832,5.741745471954346,0.8664979934692383
1697726940596646100,9.642646240234376,7.855110168457031,5.801619529724121,0.8993546962738037
1697726940606238200,9.65223828125,7.814496994018555,5.852291107177734,0.9245074987411499
1697726940615829800,9.661829833984376,7.782647132873535,5.892086029052734,0.9402778148651123
1697726940625420500,9.671420654296876,7.760920524597168,5.919734477996826,0.9461732506752014
1697726940635012000,9.68101220703125,7.750261306762695,5.934245586395264,0.942635715007782
1697726940644604200,9.690604248046874,7.750484943389893,5.936031818389893,0.929463803768158
1697726940654195700,9.70019580078125,7.760947227478027,5.925743579864502,0.9075455665588379
1697726940663786500,9.709786376953126,7.780158042907715,5.90477991104126,0.8792593479156494
1697726940673377800,9.719377685546876,7.805748462677002,5.875340461730957,0.849149763584137
1697726940682970000,9.72897021484375,7.834936141967773,5.8401265144348145,0.8228579163551331
1697726940692561700,9.738561767578124,7.8647894859313965,5.8024001121521,0.8047466278076172
1697726940702152400,9.74815234375,7.892758369445801,5.765017509460449,0.7995784878730774
1697726940711743700,9.75774365234375,7.9159040451049805,5.731423854827881,0.8121829628944397
1697726940721336000,9.767336181640625,7.931983470916748,5.704155445098877,0.8465517163276672
1697726940730927600,9.776927734375,7.940412521362305,5.683554172515869,0.9041296243667603
1697726940740518100,9.78651806640625,7.942387580871582,5.6680989265441895,0.9805703163146973
1697726940750109700,9.796109619140625,7.940592288970947,5.654980659484863,1.0670392513275146
1697726940759702000,9.805701904296875,7.938220024108887,5.641090393066406,1.1546207666397095
1697726940769293600,9.81529345703125,7.938117980957031,5.624202251434326,1.234915018081665
1697726940778884000,9.824884033203125,7.9423747062683105,5.603092670440674,1.30169677734375
1697726940788475600,9.8344755859375,7.951881408691406,5.57781457901001,1.351278305053711
1697726940798068000,9.84406787109375,7.966953277587891,5.548498153686523,1.382825255393982
1697726940807659500,9.853659423828125,7.987371444702148,5.515590190887451,1.3966244459152222
1697726940817250000,9.86325,8.013105392456055,5.479552745819092,1.3910561800003052
1697726940826841600,9.872841552734375,8.044281959533691,5.441037654876709,1.3619927167892456
1697726940836434000,9.882433837890625,8.080062866210938,5.400813579559326,1.3092710971832275
1697726940846025200,9.892025146484375,8.118815422058105,5.359138488769531,1.2388943433761597
1697726940855616000,9.901615966796875,8.158390998840332,5.316680908203125,1.1592923402786255
1697726940865207600,9.91120751953125,8.196776390075684,5.27394437789917,1.0810867547988892
1697726940874799900,9.9207998046875,8.233025550842285,5.230135440826416,1.016544222831726
1697726940884391200,9.93039111328125,8.26762866973877,5.183023452758789,0.9762051701545715
1697726940893982000,9.93998193359375,8.301852226257324,5.1305389404296875,0.96291583776474
1697726940903573500,9.949573486328125,8.336285591125488,5.073089599609375,0.9697895646095276
1697726940913165800,9.959165771484376,8.371245384216309,5.012192726135254,0.9851732850074768
1697726940922757000,9.968757080078126,8.406455039978027,4.950747013092041,0.9959885478019714
1697726940932348000,9.978347900390625,8.44144344329834,4.8919477462768555,0.9905933141708374
1697726940941939500,9.987939453125,8.474860191345215,4.839842319488525,0.9607651829719543
1697726940951531800,9.99753173828125,8.504534721374512,4.7985029220581055,0.9042415618896484
1697726940961123000,10.007123046875,8.528199195861816,4.770531177520752,0.8259832262992859
1697726940970713900,10.0167138671875,8.543915748596191,4.757208347320557,0.735444188117981
1697726940980305200,10.02630517578125,8.549827575683594,4.759927749633789,0.6433552503585815
1697726940989897500,10.0358974609375,8.544665336608887,4.779679775238037,0.5601214170455933
1697726940999489000,10.045489013671874,8.527912139892578,4.816609859466553,0.49534887075424194
1697726941009079800,10.055079833984376,8.500057220458984,4.869438648223877,0.4560588598251343
1697726941018671000,10.064671142578124,8.462174415588379,4.935966968536377,0.44520896673202515
1697726941028263400,10.074263427734374,8.41591739654541,5.013014793395996,0.4608698785305023
1697726941037855000,10.08385498046875,8.36368179321289,5.0962815284729,0.4971277415752411
1697726941047445500,10.093445556640624,8.308279991149902,5.1811981201171875,0.5459406971931458
1697726941057037000,10.103037109375,8.252446174621582,5.264019012451172,0.5980101823806763
1697726941066629400,10.11262939453125,8.198942184448242,5.3417510986328125,0.6429890394210815
1697726941076221000,10.122220947265625,8.150157928466797,5.412469863891602,0.6711862683296204
1697726941085811500,10.1318115234375,8.107696533203125,5.475401401519775,0.6749956607818604
1697726941095403000,10.141403076171875,8.072488784790039,5.5300774574279785,0.650802493095398
1697726941104995300,10.150995361328125,8.044746398925781,5.576094627380371,0.5996823310852051
1697726941114587000,10.1605869140625,8.023649215698242,5.613758087158203,0.5264593362808228
1697726941124177400,10.170177490234375,8.007217407226562,5.644776344299316,0.4374368190765381
1697726941133769000,10.17976904296875,7.993157863616943,5.671307563781738,0.3407159447669983
1697726941143361300,10.189361328125,7.9798126220703125,5.694995403289795,0.24497011303901672
1697726941152952600,10.19895263671875,7.9661149978637695,5.717236042022705,0.15687814354896545
1697726941162543400,10.20854345703125,7.951952934265137,5.7385101318359375,0.07955988496541977
1697726941172135000,10.218135009765625,7.93756103515625,5.758919715881348,0.0187747273594141
1697726941181727200,10.227727294921875,7.924258708953857,5.777220726013184,-0.015178326517343521
1697726941191318500,10.237318603515625,7.913326740264893,5.792168617248535,-0.020573444664478302
1697726941200909300,10.246909423828125,7.905673980712891,5.802646160125732,0.0018392789643257856
1697726941210500900,10.2565009765625,7.902132034301758,5.807219505310059,0.05395485460758209
1697726941220093200,10.26609326171875,7.902770519256592,5.805006980895996,0.136068657040596
1697726941229684500,10.2756845703125,7.907503604888916,5.794886589050293,0.24709178507328033
1697726941239275300,10.285275146484375,7.916074275970459,5.775712490081787,0.38379332423210144
1697726941248866800,10.29486669921875,7.927495956420898,5.747373580932617,0.5411818623542786
1697726941258459100,10.304459228515626,7.938932418823242,5.712904930114746,0.7116636633872986
1697726941268050400,10.314050537109376,7.945915699005127,5.678506851196289,0.8873315453529358
1697726941277641200,10.32364111328125,7.944748401641846,5.650921821594238,1.0575671195983887
1697726941287232800,10.333232666015626,7.934296607971191,5.635122299194336,1.209426760673523
1697726941296825000,10.3428251953125,7.916609287261963,5.632628440856934,1.330854058265686
1697726941306416400,10.35241650390625,7.896603584289551,5.640103816986084,1.415368676185608
1697726941316007200,10.362007080078126,7.880945205688477,5.650819301605225,1.4592235088348389
1697726941325598500,10.371598388671876,7.875936031341553,5.65771484375,1.4595469236373901
1697726941335190800,10.381190673828126,7.8848090171813965,5.655116081237793,1.421207070350647
1697726941344782300,10.3907822265625,7.907871723175049,5.638491153717041,1.3577061891555786
1697726941354373000,10.400373046875,7.9424638748168945,5.607504367828369,1.2820091247558594
1697726941363964700,10.409964599609374,7.983790874481201,5.5653767585754395,1.2066679000854492
1697726941373556700,10.419556640625,8.027944564819336,5.514923572540283,1.143727421760559
1697726941383148300,10.429148193359374,8.072678565979004,5.4586501121521,1.0979008674621582
1697726941392739000,10.438739013671874,8.116354942321777,5.399174690246582,1.0696139335632324
1697726941402330400,10.448330322265624,8.158244132995605,5.33738374710083,1.0610288381576538
1697726941411922700,10.457922607421875,8.198026657104492,5.274220943450928,1.0702097415924072
1697726941421514200,10.46751416015625,8.235311508178711,5.211298942565918,1.0919660329818726
1697726941431104800,10.477104736328124,8.268991470336914,5.1519455909729,1.1187587976455688
1697726941440696300,10.4866962890625,8.297853469848633,5.100252151489258,1.141684651374817
1697726941450288600,10.49628857421875,8.32042407989502,5.0603837966918945,1.1547455787658691
1697726941459880200,10.505880126953125,8.33473014831543,5.036539077758789,1.1558254957199097
1697726941469470700,10.515470703125,8.338665008544922,5.032105445861816,1.1467182636260986
1697726941479062300,10.525062255859375,8.33051586151123,5.049203872680664,1.1306724548339844
1697726941488654600,10.534654541015625,8.308996200561523,5.088562965393066,1.1124284267425537
1697726941498246000,10.544245849609375,8.273557662963867,5.149197578430176,1.0974477529525757
1697726941507836700,10.553836669921875,8.224543571472168,5.228637218475342,1.090246319770813
1697726941517428200,10.56342822265625,8.162702560424805,5.324100971221924,1.0929886102676392
1697726941527020500,10.5730205078125,8.089791297912598,5.4317545890808105,1.1053122282028198
1697726941536611800,10.58261181640625,8.008344650268555,5.547284126281738,1.1244710683822632
1697726941546202600,10.59220263671875,7.921413898468018,5.666285991668701,1.146640419960022
1697726941555794200,10.601794189453125,7.832573413848877,5.784260272979736,1.1676956415176392
1697726941565386500,10.611386474609375,7.745571136474609,5.896946907043457,1.1842879056930542
1697726941574977800,10.620977783203125,7.663625240325928,6.0009613037109375,1.1948565244674683
1697726941584568600,10.630568603515625,7.589533805847168,6.093741416931152,1.1981964111328125
1697726941594160000,10.64016015625,7.5254130363464355,6.173598289489746,1.1938307285308838
1697726941603752400,10.64975244140625,7.472606182098389,6.239806175231934,1.1812525987625122
1697726941613343700,10.65934375,7.4321818351745605,6.292002201080322,1.1592121124267578
1697726941622934500,10.6689345703125,7.404499530792236,6.330341815948486,1.1271817684173584
1697726941632525800,10.67852587890625,7.389155864715576,6.35560941696167,1.0848875045776367
1697726941642118400,10.688118408203126,7.385243892669678,6.36905574798584,1.0313494205474854
1697726941651709700,10.697709716796876,7.3915300369262695,6.371891498565674,0.9667856693267822
1697726941661300500,10.707300537109376,7.407079219818115,6.364439487457275,0.8941329717636108
1697726941670891800,10.716891845703126,7.430391311645508,6.347500801086426,0.8178694844245911
1697726941680484000,10.726484130859374,7.459824562072754,6.322229385375977,0.7421739101409912
1697726941690075600,10.73607568359375,7.4939727783203125,6.289659023284912,0.6715337038040161
1697726941699666200,10.745666259765626,7.5316853523254395,6.250813961029053,0.609451949596405
1697726941709258000,10.755258056640624,7.571933746337891,6.206827163696289,0.5581240057945251
1697726941718850000,10.76485009765625,7.6143574714660645,6.157989025115967,0.5206999778747559
1697726941728441600,10.774441650390624,7.65851354598999,6.1045989990234375,0.50141441822052
1697726941738032000,10.7840322265625,7.703312397003174,6.04787015914917,0.5026308298110962
1697726941747623700,10.793623779296874,7.746236324310303,5.9910807609558105,0.5226465463638306
1697726941757216000,10.803216064453125,7.784214496612549,5.938421249389648,0.5581643581390381
1697726941766807600,10.8128076171875,7.815253257751465,5.892868995666504,0.6052239537239075
1697726941776398000,10.822398193359374,7.838403224945068,5.856679439544678,0.655078113079071
1697726941785989600,10.83198974609375,7.8538899421691895,5.831161975860596,0.6959550380706787
1697726941795582000,10.84158203125,7.863274574279785,5.815670013427734,0.7192195057868958
1697726941805173500,10.851173583984375,7.87069845199585,5.805356025695801,0.7213456630706787
1697726941814764000,10.860763916015625,7.881623268127441,5.792872428894043,0.702164351940155
1697726941824355600,10.87035546875,7.899682998657227,5.7727437019348145,0.6639502644538879
1697726941833948000,10.879947998046875,7.925781726837158,5.742557048797607,0.6127027273178101
1697726941843539200,10.889539306640625,7.958033084869385,5.703663349151611,0.5552613735198975
1697726941853130000,10.8991298828125,7.9930949211120605,5.659761428833008,0.4979024827480316
1697726941862721500,10.908721435546875,8.028109550476074,5.614035129547119,0.4499524235725403
1697726941872313900,10.91831396484375,8.061972618103027,5.5675177574157715,0.4215864837169647
1697726941881905200,10.9279052734375,8.094491958618164,5.520361423492432,0.41856053471565247
1697726941891496000,10.937495849609375,8.125336647033691,5.4732842445373535,0.43869519233703613
1697726941901087500,10.94708740234375,8.153593063354492,5.428137302398682,0.47396981716156006
1697726941910679600,10.956679443359375,8.178415298461914,5.38706636428833,0.5132539868354797
1697726941920271000,10.96627099609375,8.198982238769531,5.35277795791626,0.5429787039756775
1697726941929862000,10.97586181640625,8.214820861816406,5.327472686767578,0.552401065826416
1697726941939453200,10.985453125,8.225543022155762,5.312500476837158,0.5368096828460693
1697726941949045500,10.99504541015625,8.23069953918457,5.3082661628723145,0.49827420711517334
1697726941958637000,11.004636962890626,8.22964096069336,5.314746379852295,0.4437011182308197
1697726941968227600,11.0142275390625,8.22142505645752,5.332301139831543,0.3809504210948944
1697726941977819100,11.023819091796875,8.205537796020508,5.36100959777832,0.31482037901878357
1697726941987411500,11.033411376953126,8.180749893188477,5.401777267456055,0.2579067647457123
1697726941997003000,11.0430029296875,8.147536277770996,5.453405380249023,0.22001880407333374
1697726942006593500,11.052593505859376,8.107487678527832,5.513383865356445,0.20405997335910797
1697726942016185000,11.06218505859375,8.062765121459961,5.5783843994140625,0.20935280621051788
1697726942025777400,11.07177734375,8.015824317932129,5.6446919441223145,0.23322343826293945
1697726942035369000,11.081368896484374,7.970099449157715,5.707421779632568,0.27063310146331787
1697726942044959500,11.09095947265625,7.929301738739014,5.761785984039307,0.31367239356040955
1697726942054551000,11.100551025390626,7.896247386932373,5.804763317108154,0.35268673300743103
1697726942064143400,11.110143310546874,7.872830390930176,5.834862232208252,0.3785753548145294
1697726942073734700,11.119734619140624,7.859564304351807,5.852286338806152,0.3852013647556305
1697726942083325400,11.129325439453124,7.855682373046875,5.858431339263916,0.3706817030906677
1697726942092917000,11.1389169921875,7.859301567077637,5.855670928955078,0.33598849177360535
1697726942102509300,11.14850927734375,7.868022441864014,5.8466010093688965,0.28609499335289
1697726942112100600,11.1581005859375,7.879028797149658,5.834263801574707,0.22948218882083893
1697726942121691400,11.16769140625,7.889094829559326,5.822535037994385,0.1750776767730713
1697726942131283000,11.177282958984375,7.895133018493652,5.815485954284668,0.13188031315803528
1697726942140875300,11.186875244140625,7.894928932189941,5.816257953643799,0.107832171022892
1697726942150466600,11.196466552734375,7.886955738067627,5.827059268951416,0.1081513836979866
1697726942160057300,11.206057373046875,7.870637893676758,5.848542213439941,0.1341455727815628
1697726942169649000,11.21564892578125,7.846320629119873,5.87977409362793,0.18409666419029236
1697726942179241000,11.225240966796875,7.81552267074585,5.917977333068848,0.25599992275238037
1697726942188832500,11.23483251953125,7.78011417388916,5.95979118347168,0.3479923903942108
1697726942198423300,11.24442333984375,7.742349624633789,6.001306056976318,0.4590698778629303
1697726942208014600,11.2540146484375,7.704285144805908,6.038689613342285,0.590435802936554
1697726942217607000,11.26360693359375,7.666177749633789,6.070382595062256,0.7419853210449219
1697726942227198500,11.273198486328125,7.62586784362793,6.098395347595215,0.9088989496231079
1697726942236789200,11.282789306640625,7.580558776855469,6.126370906829834,1.0830949544906616
1697726942246380500,11.292380615234375,7.5287981033325195,6.157506465911865,1.2540781497955322
1697726942255972900,11.301972900390625,7.472053050994873,6.192564487457275,1.4110150337219238
1697726942265564400,11.311564453125,7.414479732513428,6.23004674911499,1.5435012578964233
1697726942275155000,11.321155029296875,7.360486030578613,6.267975330352783,1.6450287103652954
1697726942284746500,11.33074658203125,7.313752174377441,6.304335594177246,1.71311616897583
1697726942294338800,11.3403388671875,7.276727676391602,6.337311744689941,1.7487462759017944
1697726942303930400,11.349930419921876,7.2500481605529785,6.365991592407227,1.755377173423767
1697726942313521000,11.35952099609375,7.23195743560791,6.391876697540283,1.7358232736587524
1697726942323112400,11.369112548828125,7.219183921813965,6.417582035064697,1.6936360597610474
1697726942332704800,11.378704833984376,7.208117485046387,6.444471836090088,1.6377445459365845
1697726942342296000,11.388296142578126,7.197192192077637,6.471057415008545,1.5799440145492554
1697726942351886800,11.397886962890626,7.187196254730225,6.494497299194336,1.528428077697754
1697726942361478400,11.407478515625,7.180999279022217,6.510727405548096,1.4879735708236694
1697726942371070700,11.41707080078125,7.181636333465576,6.516100883483887,1.4611347913742065
1697726942380662000,11.426662109375,7.191230297088623,6.508791446685791,1.4464492797851562
1697726942390252800,11.436252685546876,7.209280490875244,6.490286350250244,1.4397414922714233
1697726942399844400,11.44584423828125,7.232883453369141,6.464575290679932,1.4370312690734863
1697726942409436700,11.455436767578124,7.257720470428467,6.436803817749023,1.4364672899246216
1697726942419028000,11.465028076171874,7.279058456420898,6.412346363067627,1.4378788471221924
1697726942428618800,11.47461865234375,7.292553424835205,6.395838260650635,1.4430173635482788
1697726942438210300,11.484210205078124,7.29451322555542,6.391012668609619,1.4544481039047241
1697726942447802400,11.49380224609375,7.283061981201172,6.399129867553711,1.4759876728057861
1697726942457394000,11.503393798828125,7.258529186248779,6.4191107749938965,1.5096899271011353
1697726942466984700,11.512984619140624,7.2232794761657715,6.44818115234375,1.5542124509811401
1697726942476576000,11.522575927734374,7.181140422821045,6.482459545135498,1.6060293912887573
1697726942486168300,11.532168212890625,7.135909080505371,6.518284320831299,1.661675214767456
1697726942495760000,11.541759765625,7.091085433959961,6.552443981170654,1.7182477712631226
1697726942505350700,11.5513505859375,7.048975944519043,6.583487510681152,1.7720131874084473
1697726942514942000,11.56094189453125,7.011269569396973,6.610922336578369,1.8188427686691284
1697726942524534300,11.5705341796875,6.979456424713135,6.63453483581543,1.8548624515533447
1697726942534125800,11.580125732421875,6.954824447631836,6.654339790344238,1.8763145208358765
1697726942543716400,11.58971630859375,6.937955379486084,6.670864105224609,1.8800865411758423
1697726942553308000,11.599307861328125,6.929150581359863,6.684269428253174,1.864883542060852
1697726942562900200,11.608900146484375,6.927426338195801,6.695376873016357,1.8311444520950317
1697726942572491800,11.61849169921875,6.931517124176025,6.704747200012207,1.7806812524795532
1697726942582082300,11.628082275390625,6.939394474029541,6.713372707366943,1.7163362503051758
1697726942591673900,11.637673828125,6.949283123016357,6.721765518188477,1.6418659687042236
1697726942601266200,11.64726611328125,6.95953369140625,6.730623245239258,1.5601235628128052
1697726942610857500,11.656857421875,6.969179153442383,6.7402753829956055,1.472963809967041
1697726942620448300,11.6664482421875,6.977689266204834,6.751073837280273,1.3803050518035889
1697726942630039800,11.676039794921875,6.985437870025635,6.762131690979004,1.283594012260437
1697726942639632100,11.685632080078125,6.99385929107666,6.770450115203857,1.1905182600021362
1697726942649223400,11.695223388671875,7.0040717124938965,6.774596214294434,1.1037311553955078
1697726942658814200,11.704814208984375,7.017590522766113,6.772525787353516,1.0279580354690552
1697726942668405800,11.71440576171875,7.035612106323242,6.762392997741699,0.9698426127433777
1697726942677998000,11.723998046875,7.057777404785156,6.74446964263916,0.9328959584236145
1697726942687589400,11.73358935546875,7.081876277923584,6.721095085144043,0.9188545942306519
1697726942697180200,11.74318017578125,7.105537414550781,6.694921493530273,0.9272230863571167
1697726942706771700,11.752771728515626,7.127172946929932,6.6681976318359375,0.9533873200416565
1697726942716363800,11.76236376953125,7.145286560058594,6.64325475692749,0.9911708235740662
1697726942725955300,11.771955322265624,7.159798622131348,6.620929718017578,1.0348737239837646
1697726942735546000,11.781546142578126,7.171719074249268,6.600618839263916,1.081046223640442
1697726942745137400,11.791137451171876,7.18198299407959,6.581867694854736,1.12628972530365
1697726942754729700,11.800729736328124,7.190588474273682,6.565540313720703,1.16598641872406
1697726942764321300,11.8103212890625,7.198298931121826,6.551479816436768,1.197072982788086
1697726942773911800,11.819911865234374,7.207441329956055,6.537327289581299,1.2192364931106567
1697726942783503400,11.82950341796875,7.2212042808532715,6.51961088180542,1.2325901985168457
1697726942793095700,11.839095703125,7.241788387298584,6.496490478515625,1.233894944190979
1697726942802687200,11.848687255859375,7.2683844566345215,6.469586372375488,1.218780755996704
1697726942812277800,11.85827783203125,7.29695463180542,6.442889213562012,1.1891205310821533
1697726942821869300,11.867869384765624,7.323288917541504,6.419930458068848,1.1507984399795532
1697726942831461600,11.877461669921875,7.343479156494141,6.4039225578308105,1.1106172800064087
1697726942841053200,11.88705322265625,7.355898380279541,6.39541482925415,1.07695472240448
1697726942850643700,11.896643798828125,7.362049579620361,6.3914690017700195,1.05817449092865
1697726942860235300,11.9062353515625,7.365187644958496,6.388037204742432,1.0570589303970337
1697726942869827600,11.91582763671875,7.368836879730225,6.381653785705566,1.0701096057891846
1697726942879419000,11.9254189453125,7.375540733337402,6.370382785797119,1.0908771753311157
1697726942889009700,11.935009765625,7.385746955871582,6.355101108551025,1.1107710599899292
1697726942898601200,11.944601318359375,7.397373199462891,6.33969259262085,1.1214059591293335
1697726942908193500,11.954193603515625,7.4067206382751465,6.329425811767578,1.1176979541778564
1697726942917784800,11.963784912109375,7.410073757171631,6.328831195831299,1.0986733436584473
1697726942927375600,11.973375732421875,7.404222011566162,6.340989589691162,1.067586064338684
1697726942936967000,11.982966796875,7.386630535125732,6.367581367492676,1.0305255651474
1697726942946559500,11.9925595703125,7.35542631149292,6.409123420715332,0.9956071972846985
1697726942956150800,12.00215087890625,7.310556411743164,6.463849067687988,0.9720069766044617
1697726942965741600,12.011741455078125,7.254379749298096,6.527406692504883,0.9681507349014282
1697726942975333000,12.0213330078125,7.19157600402832,6.5934157371521,0.9891811609268188
1697726942984925200,12.03092529296875,7.128170013427734,6.6547956466674805,1.0359914302825928
1697726942994516700,12.040516845703126,7.070019245147705,6.706026554107666,1.1020058393478394
1697726943004107300,12.050107177734375,7.021695137023926,6.744316101074219,1.1748976707458496
1697726943013698800,12.05969873046875,6.986082077026367,6.769576072692871,1.2401142120361328
1697726943023291100,12.069291015625,6.963985919952393,6.7842936515808105,1.2832130193710327
1697726943032882700,12.078882568359376,6.9544997215271,6.792091369628906,1.2933745384216309
1697726943042473200,12.08847314453125,6.955697059631348,6.795727729797363,1.2675740718841553
1697726943052064800,12.098064697265626,6.964504718780518,6.797298908233643,1.209452748298645
1697726943061657000,12.107656982421876,6.977114677429199,6.7983574867248535,1.1280938386917114
1697726943071248400,12.117248291015626,6.9903950691223145,6.799434185028076,1.0355912446975708
1697726943080839200,12.126839111328126,7.001750469207764,6.8011393547058105,0.9436026215553284
1697726943090430700,12.1364306640625,7.008995056152344,6.804563045501709,0.8615742325782776
1697726943100023000,12.14602294921875,7.010663032531738,6.810840606689453,0.7958959937095642
1697726943109614300,12.1556142578125,7.005857467651367,6.820959568023682,0.7502384185791016
1697726943119205000,12.165205078125,6.994518756866455,6.835309028625488,0.7250111103057861
1697726943128796700,12.174796630859374,6.9773640632629395,6.853616237640381,0.717441976070404
1697726943138389000,12.184388916015624,6.956614971160889,6.874129295349121,0.7226618528366089
1697726943147980300,12.193980224609374,6.9354352951049805,6.894176483154297,0.7351531982421875
1697726943157571000,12.203571044921874,6.9166765213012695,6.9112067222595215,0.7517910003662109
1697726943167162400,12.213162353515624,6.902506351470947,6.923043727874756,0.7728325128555298
1697726943176754700,12.222754638671875,6.8937249183654785,6.928829193115234,0.7989069819450378
1697726943186346200,12.23234619140625,6.8897199630737305,6.929293632507324,0.8288784623146057
1697726943195937000,12.24193701171875,6.8884806632995605,6.926604270935059,0.861020565032959
1697726943205528300,12.2515283203125,6.8868794441223145,6.92400598526001,0.8940954804420471
1697726943215120600,12.26112060546875,6.882638931274414,6.924029350280762,0.9260083436965942
1697726943224712200,12.270712158203125,6.875598430633545,6.927322864532471,0.9532730579376221
1697726943234302700,12.280302734375,6.868344783782959,6.931964874267578,0.9716376066207886
1697726943243894300,12.289894287109375,6.864466190338135,6.935068607330322,0.9768955707550049
1697726943253486600,12.299486572265625,6.866660118103027,6.934542179107666,0.9651474952697754
1697726943263078100,12.309078125,6.876735687255859,6.928668975830078,0.9351108074188232
1697726943272668700,12.318668701171875,6.895258903503418,6.915674686431885,0.8939945101737976
1697726943282260200,12.32826025390625,6.921510696411133,6.894699573516846,0.8521693348884583
1697726943291852500,12.3378525390625,6.95517110824585,6.865130424499512,0.8160659670829773
1697726943301443800,12.34744384765625,6.996792316436768,6.825729846954346,0.7903782725334167
1697726943311034600,12.35703466796875,7.047380447387695,6.7749505043029785,0.7777342200279236
1697726943320626200,12.366626220703125,7.109076976776123,6.710075378417969,0.7786584496498108
1697726943330218500,12.376218505859375,7.1836628913879395,6.628839492797852,0.7898440957069397
1697726943339809800,12.385809814453125,7.270974636077881,6.530694007873535,0.8083051443099976
1697726943349400600,12.395400634765625,7.369190692901611,6.416531085968018,0.832786500453949
1697726943358992100,12.4049921875,7.47359561920166,6.290925979614258,0.8602365851402283
1697726943368584200,12.414584228515626,7.576819896697998,6.1624979972839355,0.8864560127258301
1697726943378175700,12.42417578125,7.670923233032227,6.041911602020264,0.9069939851760864
1697726943387766500,12.4337666015625,7.749812126159668,5.938575744628906,0.9187536835670471
1697726943397357800,12.44335791015625,7.810320854187012,5.858448505401611,0.920789897441864
1697726943406950100,12.4529501953125,7.851787567138672,5.803670406341553,0.9149916172027588
1697726943416541700,12.462541748046876,7.875550746917725,5.772604465484619,0.9072600603103638
1697726943426132200,12.47213232421875,7.884450435638428,5.760937213897705,0.904119610786438
1697726943435723800,12.481723876953126,7.881775379180908,5.7635273933410645,0.9109139442443848
1697726943445316000,12.491316162109374,7.869963645935059,5.776378154754639,0.9313977360725403
1697726943454907600,12.50090771484375,7.850433826446533,5.79728889465332,0.9656703472137451
1697726943464498200,12.510498291015624,7.8238205909729,5.825718402862549,1.0095700025558472
1697726943474089700,12.52008984375,7.790615081787109,5.861665725708008,1.05715811252594
1697726943483682000,12.52968212890625,7.751667499542236,5.9048333168029785,1.1022610664367676
1697726943493273600,12.539273681640625,7.708431243896484,5.954151630401611,1.1395394802093506
