time,seconds_elapsed,z,y,x
1697745303460598000,0.052597900390625,10.230000495910645,2.725050210952759,1.075950026512146
1697745303470017000,0.06201708984375,9.351000785827637,2.7150001525878906,1.870050072669983
1697745303479436000,0.07143603515625,8.760000228881836,3.309000253677368,2.02905011177063
1697745303488855000,0.08085498046875,8.017950057983398,2.931000232696533,2.694000244140625
1697745303498274000,0.090274169921875,8.236050605773926,3.0670502185821533,2.823000192642212
1697745303507693000,0.099693115234375,8.403000831604004,2.8060500621795654,3.0510001182556152
1697745303517112300,0.1091123046875,8.062950134277344,2.593050241470337,2.4240000247955322
1697745303526531000,0.118531005859375,7.672950267791748,1.588050127029419,1.7650500535964966
1697745303535950000,0.1279501953125,8.439000129699707,1.3530000448226929,1.0830000638961792
1697745303545369000,0.137369140625,9.86400032043457,2.512050151824951,-0.23805001378059387
1697745303554788000,0.1467880859375,10.294950485229492,2.9190001487731934,-0.5989500284194946
1697745303564207000,0.15620703125,9.385050773620605,2.221950054168701,0.6160500049591064
1697745303573625900,0.1656259765625,7.6110005378723145,1.3030500411987305,1.9399501085281372
1697745303583044900,0.175044921875,6.334050178527832,0.9360000491142273,2.1220500469207764
1697745303592464000,0.1844638671875,6.603000164031982,1.453950047492981,1.6690500974655151
1697745303601883000,0.1938828125,9.391950607299805,2.31600022315979,1.9969501495361328
1697745303611302000,0.203302001953125,11.31195068359375,2.3110501766204834,2.8690500259399414
1697745303620721000,0.212720947265625,11.88705062866211,1.4680501222610474,2.934000253677368
1697745303630140000,0.222139892578125,11.607000350952148,1.593000054359436,2.2270500659942627
1697745303639559000,0.231558837890625,8.51294994354248,1.4419500827789307,-0.12105000764131546
1697745303648978000,0.24097802734375,5.331000328063965,1.4850000143051147,-1.3510500192642212
1697745303658396700,0.250396728515625,4.3660502433776855,2.0470499992370605,-0.7189500331878662
1697745303667815700,0.259815673828125,5.104050159454346,2.1859500408172607,0.6130500435829163
1697745303677234700,0.269234619140625,6.576000213623047,2.272050142288208,1.8919501304626465
1697745303686654000,0.278654052734375,7.548000335693359,2.8060500621795654,1.759950041770935
1697745303696072700,0.28807275390625,8.36205005645752,2.686950206756592,1.76295006275177
1697745303705491700,0.29749169921875,8.105999946594238,2.0190000534057617,2.874000072479248
1697745303714910700,0.30691064453125,8.959050178527832,1.5370501279830933,1.957050085067749
1697745303724329700,0.316329833984375,9.955050468444824,2.014050006866455,0.2850000262260437
1697745303733748700,0.325748779296875,9.259950637817383,1.8990000486373901,0.5509500503540039
1697745303743167700,0.335167724609375,10.957950592041016,1.5640500783920288,2.086050033569336
1697745303752586800,0.344586669921875,12.796950340270996,1.2480000257492065,1.7560501098632812
1697745303762005500,0.354005615234375,9.00195026397705,1.1260499954223633,2.742000102996826
1697745303771424500,0.363424560546875,8.13705062866211,2.143050193786621,3.891000270843506
1697745303780843500,0.372843505859375,8.60205078125,2.1499500274658203,3.453000068664551
1697745303790262500,0.382262451171875,7.941000461578369,2.6200501918792725,3.610950231552124
1697745303799681500,0.391681640625,7.471950531005859,3.000000238418579,4.966050148010254
1697745303809100300,0.401100341796875,8.290950775146484,2.422950029373169,5.761050224304199
1697745303818519600,0.41051953125,8.997000694274902,1.702950119972229,4.401000022888184
1697745303827938600,0.4199384765625,9.291000366210938,1.6669501066207886,2.373000144958496
1697745303837357600,0.429357666015625,9.873000144958496,1.7740501165390015,0.89805006980896
1697745303846776600,0.438776611328125,10.843050956726074,1.336050033569336,1.1860500574111938
1697745303856195600,0.448195556640625,11.391000747680664,1.0180500745773315,1.3840500116348267
1697745303865614600,0.457614501953125,10.291950225830078,1.072950005531311,1.240950107574463
1697745303875033600,0.46703369140625,9.03795051574707,1.2930001020431519,0.5149500370025635
1697745303884452400,0.476452392578125,8.449049949645996,1.3750500679016113,0.47895002365112305
1697745303893871400,0.485871337890625,8.254950523376465,1.758000135421753,1.746000051498413
1697745303903290600,0.49529052734375,7.168050289154053,1.585050106048584,2.364000082015991
1697745303912709400,0.50470947265625,5.662050247192383,1.0420500040054321,3.0769500732421875
1697745303922128400,0.51412841796875,2.3530499935150146,-7.801950454711914,15.373950958251953
1697745303931547400,0.52354736328125,2.1640501022338867,-5.593950271606445,8.140950202941895
1697745303940966400,0.53296630859375,4.189050197601318,-0.7120500206947327,1.324950098991394
1697745303950385400,0.542385498046875,8.206950187683105,2.8500001430511475,-0.922950029373169
1697745303959804400,0.551804443359375,12.256050109863281,4.3120503425598145,-2.794950246810913
1697745303969223400,0.561223388671875,15.471000671386719,2.694000244140625,-7.378050327301025
1697745303978642400,0.570642333984375,9.982950210571289,-2.2639501094818115,2.2080001831054688
1697745303988061400,0.5800615234375,7.0000505447387695,-3.573000192642212,4.200000286102295
1697745303997480400,0.58948046875,5.748000144958496,-2.6520001888275146,1.9999500513076782
1697745304006899500,0.5988994140625,3.6150002479553223,-1.4020500183105469,1.7650500535964966
1697745304016318200,0.608318115234375,2.82705020904541,-2.965050220489502,2.4910500049591064
1697745304025737500,0.617737548828125,2.2350001335144043,-3.6450002193450928,3.6469502449035645
1697745304035156500,0.627156494140625,2.635050058364868,-3.576000213623047,4.972950458526611
1697745304044575200,0.6365751953125,2.0149500370025635,-3.9559502601623535,6.727950096130371
1697745304053994200,0.645994140625,-0.031050002202391624,-3.982950210571289,8.665050506591797
1697745304063413200,0.655413330078125,-0.6559500098228455,-3.7189502716064453,8.10300064086914
1697745304072832300,0.664832275390625,-1.2090001106262207,-5.050950050354004,9.492000579833984
1697745304082251300,0.674251220703125,0.5089499950408936,-8.617950439453125,14.824050903320312
1697745304091670300,0.683670166015625,4.558050155639648,-8.683050155639648,15.457950592041016
1697745304101089000,0.693089111328125,8.248050689697266,-6.655050277709961,12.8100004196167
1697745304110508000,0.702508056640625,8.796000480651855,-5.901000499725342,11.416950225830078
1697745304119927000,0.711927001953125,9.028050422668457,-6.739050388336182,14.047950744628906
1697745304129346000,0.721345947265625,8.986950874328613,-7.870950222015381,16.416000366210938
1697745304138765000,0.73076513671875,9.097050666809082,-7.785000324249268,15.750000953674316
1697745304148184300,0.740184326171875,7.90500020980835,-8.034000396728516,13.423050880432129
1697745304157602800,0.749602783203125,6.796950340270996,-8.700000762939453,10.35300064086914
1697745304167022000,0.75902197265625,6.427950382232666,-8.905050277709961,8.176950454711914
1697745304176441000,0.768441162109375,5.379000186920166,-9.253050804138184,7.954050540924072
1697745304185860000,0.777860107421875,4.402050018310547,-9.6739501953125,9.26400089263916
1697745304195278800,0.78727880859375,4.25100040435791,-9.463050842285156,10.498950958251953
1697745304204698000,0.796697998046875,4.749000072479248,-8.898000717163086,11.496000289916992
1697745304214117000,0.8061171875,5.002950191497803,-8.950950622558594,12.180000305175781
1697745304223536000,0.8155361328125,0.4849500358104706,-8.97705078125,13.212000846862793
1697745304232955100,0.824955078125,-0.1290000081062317,-8.304000854492188,13.67400074005127
1697745304242374100,0.8343740234375,2.1060001850128174,-7.7659502029418945,13.67400074005127
1697745304251793200,0.843793212890625,1.543950080871582,-8.179950714111328,14.98905086517334
1697745304261212000,0.8532119140625,-0.42600002884864807,-8.098950386047363,15.930000305175781
1697745304270631200,0.862631103515625,-8.974050521850586,-7.557000160217285,12.973051071166992
1697745304280050000,0.8720498046875,-15.490950584411621,-6.067950248718262,12.361950874328613
1697745304289469000,0.881468994140625,-3.744000196456909,-5.476950168609619,15.21405029296875
1697745304298888200,0.89088818359375,8.334000587463379,-4.399050235748291,18.381000518798828
1697745304308307000,0.900306884765625,-4.800000190734863,-5.008050441741943,20.838001251220703
1697745304317726000,0.909725830078125,-5.64300012588501,-3.5400002002716064,18.05805015563965
1697745304327145200,0.919145263671875,-5.143050193786621,-2.0239500999450684,14.7610502243042
1697745304336564000,0.92856396484375,-7.573050498962402,-2.206050157546997,13.885050773620605
1697745304345983000,0.93798291015625,-7.444050312042236,-2.557950019836426,12.295050621032715
1697745304355402000,0.947402099609375,-6.555000305175781,-3.384000062942505,6.424050331115723
1697745304364820700,0.95682080078125,-1.5750000476837158,-3.9880502223968506,1.7220001220703125
1697745304374239700,0.96623974609375,2.6950502395629883,-3.217050075531006,-2.3400001525878906
1697745304383659000,0.975658935546875,3.873000144958496,-2.5390501022338867,-2.8600502014160156
1697745304393078000,0.985078125,4.72605037689209,-1.4899500608444214,0.40005001425743103
1697745304402496800,0.994496826171875,2.998950242996216,-0.33195000886917114,4.873050212860107
1697745304411915800,1.003915771484375,-0.5460000038146973,-0.07500000298023224,8.17199993133545
1697745304421334800,1.013334716796875,-3.727950096130371,-0.5470499992370605,9.075000762939453
1697745304430753800,1.02275390625,-3.7950000762939453,-1.5649501085281372,9.280950546264648
1697745304440172800,1.0321728515625,-1.3000500202178955,-1.3060500621795654,6.8959503173828125
1697745304449591800,1.041591796875,0.6030000448226929,-3.4390501976013184,8.886000633239746
1697745304459010800,1.0510107421875,-0.019050000235438347,-3.636000156402588,8.447999954223633
1697745304468429800,1.060429931640625,-0.2779500186443329,-4.548000335693359,9.322050094604492
1697745304477848600,1.0698486328125,-0.2580000162124634,-6.621000289916992,11.323050498962402
1697745304487267800,1.079267822265625,-3.3730502128601074,-8.35200023651123,11.677050590515137
1697745304496686800,1.088686767578125,-4.381050109863281,-8.689949989318848,11.553000450134277
1697745304506105600,1.098105712890625,-0.7279500365257263,-8.970000267028809,15.109050750732422
1697745304515524600,1.107524658203125,3.5329501628875732,-9.133049964904785,17.89095115661621
1697745304524943600,1.116943603515625,10.16100025177002,-10.795050621032715,19.92300033569336
1697745304534362600,1.126362548828125,9.496950149536133,-10.270050048828125,19.867950439453125
1697745304543781600,1.13578173828125,2.389050006866455,-9.693000793457031,17.79705047607422
1697745304553200600,1.14520068359375,-0.7200000286102295,-7.129050254821777,29.70195198059082
1697745304562619600,1.15461962890625,-0.7830000519752502,-9.39900016784668,20.626951217651367
1697745304572038400,1.164038330078125,1.7209501266479492,-9.894000053405762,14.068950653076172
1697745304581457700,1.173457763671875,5.785950183868408,-11.712000846862793,9.219000816345215
1697745304590876700,1.182876708984375,12.543000221252441,-12.991950988769531,10.183050155639648
1697745304600295700,1.192295654296875,12.382050514221191,-12.832050323486328,0.15405000746250153
1697745304609714700,1.201714599609375,7.929000377655029,-12.078001022338867,-8.683050155639648
1697745304619133700,1.2111337890625,2.371950149536133,-10.306050300598145,-11.467050552368164
1697745304628552700,1.220552734375,-0.6679500341415405,-9.382050514221191,-9.44895076751709
1697745304637971500,1.229971435546875,-3.9619503021240234,-9.115950584411621,-7.432950496673584
1697745304647390500,1.239390380859375,-6.060000419616699,-10.488000869750977,-8.830950736999512
1697745304656809500,1.2488095703125,-7.635000228881836,-10.917000770568848,-9.559050559997559
1697745304666228500,1.258228515625,-7.465050220489502,-10.960050582885742,-9.307050704956055
1697745304675647700,1.267647705078125,-6.262950420379639,-11.908050537109375,-7.653000354766846
1697745304685066500,1.27706640625,-5.503950119018555,-13.768050193786621,-2.8500001430511475
1697745304694485500,1.286485595703125,-3.6220502853393555,-16.6200008392334,1.665000081062317
1697745304703904500,1.295904541015625,-3.5190000534057617,-17.96295166015625,5.38800048828125
1697745304713323500,1.305323486328125,-2.4760501384735107,-17.235000610351562,6.333000183105469
1697745304722742500,1.314742431640625,0.44700002670288086,-15.16200065612793,3.6540002822875977
1697745304732161500,1.32416162109375,4.468950271606445,-13.85205078125,6.472050189971924
1697745304741580500,1.33358056640625,4.990950107574463,-11.641950607299805,12.127950668334961
1697745304750999600,1.34299951171875,2.3530499935150146,-8.569950103759766,20.18400001525879
1697745304760418600,1.35241845703125,0.7920000553131104,-3.9280502796173096,22.141050338745117
1697745304769837600,1.361837646484375,-3.3640501499176025,-1.3039500713348389,23.077051162719727
1697745304779256300,1.37125634765625,-6.268050193786621,0.8290500640869141,24.094051361083984
1697745304788675600,1.380675537109375,-9.301950454711914,1.4610000848770142,24.619050979614258
1697745304798094600,1.390094482421875,-9.606000900268555,-0.7120500206947327,25.155000686645508
1697745304807513600,1.399513671875,-6.460050106048584,-3.183000087738037,22.99005126953125
1697745304816932600,1.4089326171875,-1.5229500532150269,-4.888050079345703,17.92905044555664
1697745304826351600,1.4183515625,1.696950078010559,-6.28095006942749,11.767951011657715
1697745304835770600,1.4277705078125,4.4070000648498535,-8.740050315856934,1.0950000286102295
1697745304845189600,1.437189697265625,0.6480000019073486,-8.315999984741211,-2.365950107574463
1697745304854608600,1.446608642578125,1.426050066947937,-11.247000694274902,-3.2400002479553223
1697745304864027600,1.456027587890625,-5.104050159454346,-15.535050392150879,0.2659500241279602
1697745304873446700,1.46544677734375,2.8909502029418945,-17.34105110168457,-3.934950113296509
1697745304882865700,1.47486572265625,4.635000228881836,-12.823050498962402,-1.4419500827789307
1697745304892284400,1.484284423828125,1.2540000677108765,-9.619050025939941,-0.5640000104904175
1697745304901703400,1.493703369140625,-0.2370000183582306,-7.593000411987305,0.3360000252723694
1697745304911122400,1.503122314453125,-1.051050066947937,-5.422050476074219,2.644050121307373
1697745304920541400,1.51254150390625,-2.0779500007629395,-5.970000267028809,4.132950305938721
1697745304929960400,1.52196044921875,-3.8310000896453857,-6.600000381469727,5.260950088500977
1697745304939379500,1.53137939453125,-1.1989500522613525,-2.1060001850128174,3.2380502223968506
1697745304948798500,1.540798583984375,0.30105000734329224,-2.2710001468658447,5.365950107574463
1697745304958217200,1.55021728515625,0.3630000054836273,-1.6030501127243042,6.21405029296875
1697745304967636500,1.559636474609375,-0.17505000531673431,-2.814000129699707,5.610000133514404
1697745304977055500,1.569055419921875,-0.1290000081062317,-2.448000192642212,4.789050102233887
1697745304986474500,1.578474609375,1.0909500122070312,-1.6390501260757446,3.6660001277923584
1697745304995893500,1.5878935546875,-8.26200008392334,-4.7059502601623535,5.46405029296875
1697745305005312300,1.597312255859375,-3.8590502738952637,-1.765950083732605,4.6720499992370605
1697745305014731500,1.6067314453125,-2.1070501804351807,-0.3360000252723694,4.44195032119751
1697745305024150500,1.616150634765625,-4.603950023651123,0.26805001497268677,5.839950084686279
1697745305033569500,1.625569580078125,-5.928000450134277,0.8620500564575195,6.288000106811523
1697745305042988500,1.634988525390625,-6.13200044631958,0.9340500235557556,6.084000110626221
1697745305052407300,1.6444072265625,-7.2900004386901855,-2.319000005722046,10.67400074005127
1697745305061826300,1.653826416015625,-7.699950218200684,-5.067000389099121,12.580050468444824
1697745305071245300,1.663245361328125,-8.896950721740723,-9.018000602722168,15.862950325012207
1697745305080664300,1.672664306640625,-10.723950386047363,-11.671051025390625,18.424951553344727
1697745305090083300,1.682083251953125,-10.38900089263916,-13.681950569152832,22.806001663208008
1697745305099502300,1.69150244140625,-7.453050136566162,-12.868050575256348,20.71095085144043
1697745305108921600,1.700921630859375,-3.261000156402588,-9.075000762939453,9.796050071716309
1697745305118340400,1.71034033203125,0.030000001192092896,-7.371000289916992,7.674000263214111
1697745305127759400,1.71975927734375,1.0720500946044922,-7.459050178527832,7.1670002937316895
1697745305137178400,1.729178466796875,-0.43800002336502075,-8.82194995880127,7.549950122833252
1697745305146597400,1.738597412109375,-1.4959501028060913,-11.668050765991211,8.878950119018555
1697745305156016400,1.748016357421875,-0.09795000404119492,-13.62195110321045,7.489950180053711
1697745305165435400,1.757435302734375,2.7529501914978027,-12.834000587463379,4.270050048828125
1697745305174854400,1.7668544921875,6.277050495147705,-10.669950485229492,3.444000244140625
1697745305184273200,1.776273193359375,7.500000476837158,-8.447999954223633,5.0620503425598145
1697745305193692400,1.7856923828125,6.913950443267822,-9.13800048828125,4.328999996185303
1697745305203111400,1.795111328125,3.1399500370025635,-9.681000709533691,2.9860501289367676
1697745305212530400,1.804530517578125,0.24300001561641693,-8.307000160217285,1.363050103187561
1697745305221949700,1.81394970703125,-3.238950252532959,-6.523050308227539,3.0079500675201416
1697745305231368700,1.82336865234375,-8.482950210571289,-6.748050212860107,9.781050682067871
1697745305240787500,1.832787353515625,-9.727950096130371,-12.559050559997559,14.995950698852539
1697745305250206500,1.84220654296875,-5.167050361633301,-15.829950332641602,15.091950416564941
1697745305259625500,1.85162548828125,8.182950019836426,-11.079000473022461,7.284000396728516
1697745305269044200,1.861044189453125,17.29305076599121,-7.560000419616699,2.455050230026245
1697745305278463500,1.87046337890625,13.567950248718262,-7.332000255584717,2.5309500694274902
1697745305287882500,1.879882568359375,3.5020501613616943,-6.364950180053711,3.8550002574920654
1697745305297301500,1.889301513671875,-6.214950084686279,-3.4459502696990967,3.705000162124634
1697745305306720500,1.898720458984375,-5.952000141143799,-1.5529500246047974,2.3610000610351562
1697745305316139500,1.908139404296875,-2.0370001792907715,-0.4440000355243683,2.6580002307891846
1697745305325558500,1.91755859375,-0.32505002617836,-0.12300000339746475,3.630000114440918
1697745305334977500,1.9269775390625,1.2469500303268433,0.10095000267028809,3.259050130844116
1697745305344396500,1.936396484375,-0.7279500365257263,-2.7109501361846924,3.0799500942230225
1697745305353815300,1.945815185546875,-3.0550501346588135,-4.135950088500977,3.0990002155303955
1697745305363234600,1.955234619140625,-4.087049961090088,-3.8149502277374268,2.5360500812530518
1697745305372653600,1.964653564453125,-2.887050151824951,-3.504000186920166,6.4960503578186035
1697745305382072600,1.974072509765625,-3.5910000801086426,-3.5250000953674316,8.743950843811035
1697745305391491300,1.9834912109375,-5.574000358581543,-3.9400501251220703,10.195050239562988
1697745305400910600,1.99291064453125,-5.104050159454346,-6.022950172424316,11.485950469970703
1697745305410329600,2.00232958984375,-2.703000068664551,-8.625,9.183000564575195
1697745305419748400,2.011748291015625,0.8520000576972961,-9.708000183105469,8.437950134277344
1697745305429167600,2.021167724609375,0.04905000329017639,-11.893950462341309,9.039000511169434
1697745305438586400,2.03058642578125,-2.5759501457214355,-12.940051078796387,10.642950057983398
1697745305448005600,2.040005615234375,-23.643001556396484,-11.63700008392334,18.86505126953125
1697745305457424600,2.049424560546875,-22.389001846313477,-17.625,15.991950988769531
1697745305466843600,2.05884375,-7.756950378417969,-15.492000579833984,14.62695026397705
1697745305476262700,2.0682626953125,-4.860000133514404,-9.504000663757324,6.6160502433776855
1697745305485681700,2.077681640625,0.9190500378608704,-10.198050498962402,-0.7330500483512878
1697745305495100700,2.0871005859375,4.8259501457214355,-8.236949920654297,-4.063950061798096
1697745305504519700,2.096519775390625,2.788950204849243,-11.500950813293457,-1.1430000066757202
1697745305513938700,2.105938720703125,-7.003050327301025,-6.541950225830078,-4.636050224304199
1697745305523357400,2.115357421875,6.001950263977051,-5.190000057220459,-3.1090500354766846
1697745305532776700,2.124776611328125,9.483000755310059,-13.705950736999512,3.601950168609619
1697745305542195700,2.13419580078125,11.239950180053711,-14.451000213623047,12.046051025390625
1697745305551614500,2.143614501953125,15.604950904846191,-13.893000602722168,8.515049934387207
1697745305561033700,2.15303369140625,14.185050964355469,-13.471050262451172,7.633950233459473
1697745305570452700,2.16245263671875,16.12200164794922,-11.830950736999512,8.457000732421875
1697745305579871700,2.171871826171875,15.447000503540039,-14.278050422668457,14.095951080322266
1697745305589290800,2.181290771484375,5.530050277709961,-17.817001342773438,21.468000411987305
1697745305598709500,2.19070947265625,-42.13905334472656,-5.350050449371338,23.101051330566406
1697745305608128500,2.20012841796875,-29.05695152282715,0.7230000495910645,5.539050102233887
1697745305617547800,2.2095478515625,-16.807950973510742,3.879000186920166,-7.16895055770874
1697745305626966800,2.218966796875,-15.508050918579102,4.545000076293945,-14.817000389099121
1697745305636385500,2.228385498046875,-7.077000141143799,-4.452000141143799,-5.17995023727417
1697745305645804500,2.237804443359375,-4.70205020904541,-6.672000408172607,0.30195000767707825
1697745305655223800,2.247223876953125,3.5400002002716064,-3.424950122833252,-1.7149500846862793
1697745305664642600,2.256642578125,11.3100004196167,-2.0869500637054443,-1.8130500316619873
1697745305674061600,2.2660615234375,14.643000602722168,-1.7230501174926758,-6.232950210571289
1697745305683480600,2.27548046875,9.82800006866455,0.5490000247955322,-11.26395034790039
1697745305692899600,2.284899658203125,6.2910003662109375,3.598950147628784,-7.174050331115723
1697745305702318800,2.29431884765625,1.4640001058578491,-0.6430500149726868,-0.10395000129938126
1697745305711737900,2.30373779296875,-6.01200008392334,-8.563050270080566,5.709000110626221
1697745305721156600,2.313156494140625,-20.23200035095215,-26.06100082397461,27.022050857543945
1697745305730575600,2.32257568359375,-8.47800064086914,-3.384000062942505,-1.957050085067749
1697745305739994600,2.33199462890625,-8.029950141906738,-16.878000259399414,12.910950660705566
1697745305749413600,2.34141357421875,-10.681050300598145,-19.675050735473633,11.296950340270996
1697745305758832600,2.35083251953125,-7.438950538635254,-21.082950592041016,12.970050811767578
1697745305768251600,2.360251708984375,-4.8670501708984375,-20.16105079650879,11.134050369262695
1697745305777671000,2.3696708984375,-2.281949996948242,-18.709951400756836,6.060000419616699
1697745305787090000,2.37908984375,-4.152000427246094,-16.91400146484375,2.734950065612793
1697745305796509000,2.388509033203125,-3.9840002059936523,-16.55805015563965,2.2270500659942627
1697745305805927700,2.397927734375,-3.586050271987915,-15.199951171875,-1.8229501247406006
1697745305815346700,2.4073466796875,-3.4039502143859863,-12.079950332641602,-5.404950141906738
1697745305824766000,2.416765869140625,-0.8089500665664673,-12.643050193786621,-6.288000106811523
1697745305834184700,2.426184814453125,0.8850000500679016,-13.795050621032715,-6.01800012588501
1697745305843603700,2.435603759765625,3.475950241088867,-10.723050117492676,-2.8380000591278076
1697745305853022700,2.445022705078125,3.7579500675201416,-11.970000267028809,-0.8340000510215759
1697745305862441700,2.454441650390625,5.808000087738037,-14.472001075744629,-5.208000183105469
1697745305871861000,2.463861083984375,-1.290000081062317,-12.109050750732422,1.0249500274658203
1697745305881280000,2.473280029296875,-5.182950019836426,-12.463050842285156,4.284000396728516
1697745305890698800,2.48269873046875,-3.0840001106262207,-13.356000900268555,1.0039499998092651
1697745305900117800,2.49211767578125,-3.1939501762390137,-16.861949920654297,-5.11305046081543
1697745305909536800,2.501536865234375,-7.633050441741943,-23.101051330566406,-10.095000267028809
1697745305918956000,2.5109560546875,-3.630000114440918,-19.759050369262695,-4.950000286102295
1697745305928375000,2.520375,-1.0410000085830688,-11.206050872802734,7.921050548553467
1697745305937794000,2.5297939453125,8.638050079345703,-3.730950117111206,2.4310500621795654
1697745305947212800,2.539212890625,10.531950950622559,-2.533950090408325,3.3330001831054688
1697745305956631800,2.5486318359375,6.238950252532959,-5.248950481414795,0.2179500162601471
1697745305966051000,2.558051025390625,-1.0290000438690186,-9.265050888061523,15.166050910949707
1697745305975470000,2.567469970703125,0.5260500311851501,-10.380000114440918,8.377950668334961
1697745305984888800,2.576888916015625,-0.30900001525878906,-9.805950164794922,-2.5699501037597656
1697745305994307800,2.586307861328125,-3.4999501705169678,-8.884050369262695,-7.572000503540039
1697745306003727000,2.59572705078125,-6.529050350189209,-5.5819501876831055,-5.608050346374512
1697745306013145900,2.605145751953125,-5.068950176239014,-1.5649501085281372,-4.33905029296875
1697745306022564900,2.61456494140625,-4.50600004196167,-4.090950012207031,-5.187000274658203
1697745306031984000,2.623984130859375,-5.938050270080566,-9.23805046081543,0.46995002031326294
1697745306041403100,2.633403076171875,-7.25700044631958,-9.229050636291504,5.950050354003906
1697745306050822100,2.642822265625,-7.51800012588501,-7.051950454711914,5.014050006866455
1697745306060241200,2.6522412109375,-3.6559500694274902,-5.328000068664551,2.5789501667022705
1697745306069660200,2.66166015625,-0.7729500532150269,-3.894000291824341,-1.9380000829696655
1697745306079079200,2.6710791015625,0.04200000315904617,-3.0870001316070557,-4.761000156402588
1697745306088498200,2.680498291015625,1.125,-1.2600001096725464,-4.354050159454346
1697745306097917200,2.689917236328125,-4.328999996185303,-4.902000427246094,-1.39395010471344
1697745306107336200,2.699336181640625,-6.8359503746032715,-7.966950416564941,8.419050216674805
1697745306116755200,2.708755126953125,0.4210500121116638,-9.535050392150879,5.104950428009033
1697745306126174200,2.71817431640625,3.334050178527832,-9.684000015258789,1.0470000505447388
1697745306135593200,2.72759326171875,1.0600500106811523,-8.14905071258545,2.806950092315674
1697745306145012000,2.737011962890625,-2.4060001373291016,-6.039000511169434,4.636050224304199
1697745306154431200,2.74643115234375,-2.7199501991271973,-7.2270002365112305,7.99500036239624
1697745306163850200,2.755850341796875,5.008050441741943,-1.651050090789795,-12.193050384521484
1697745306173269200,2.765269287109375,-3.8140501976013184,3.747000217437744,-4.5259504318237305
1697745306182688300,2.774688232421875,-9.433050155639648,1.2570000886917114,-5.814000129699707
1697745306192107300,2.784107177734375,-9.77595043182373,-1.6750500202178955,-4.284000396728516
1697745306201526500,2.793526611328125,-9.08595085144043,-2.6640000343322754,-2.5480501651763916
1697745306210945300,2.8029453125,-6.7009501457214355,-5.479050159454346,-2.07705020904541
1697745306220364300,2.8123642578125,-4.177950382232666,-11.362051010131836,2.328000068664551
1697745306229783300,2.821783203125,0.7729500532150269,-16.12200164794922,5.634000301361084
1697745306239202300,2.831202392578125,3.7219502925872803,-14.55405044555664,4.332000255584717
1697745306248621300,2.840621337890625,0.2770500183105469,-12.178050994873047,5.107950210571289
1697745306258040300,2.850040283203125,-4.378950119018555,-11.629950523376465,2.4690001010894775
1697745306267459300,2.859459228515625,-5.832000255584717,-12.408000946044922,5.158050060272217
1697745306276878300,2.86887841796875,-1.1509500741958618,-11.223000526428223,1.1880000829696655
1697745306286297300,2.87829736328125,1.9429501295089722,-9.8100004196167,-2.845050096511841
1697745306295716600,2.887716552734375,-1.8630000352859497,-11.452950477600098,0.29295000433921814
1697745306305135400,2.89713525390625,-8.695950508117676,-9.219000816345215,-3.376950263977051
1697745306314554400,2.906554443359375,-8.818050384521484,-8.206049919128418,-1.6840500831604004
1697745306323973400,2.915973388671875,-4.1610002517700195,-10.036050796508789,-0.42000001668930054
1697745306333392400,2.925392333984375,-6.88800048828125,-11.107950210571289,-11.314050674438477
1697745306342811400,2.934811279296875,-14.277000427246094,2.54295015335083,-2.098050117492676
1697745306352230400,2.94423046875,-11.583000183105469,5.919000148773193,-4.081050395965576
1697745306361649700,2.953649658203125,5.9320502281188965,1.4010000228881836,-7.504950523376465
1697745306371068400,2.963068359375,1.327950119972229,-4.882950305938721,4.942050457000732
1697745306380487400,2.9724873046875,3.136050224304199,-6.556950092315674,3.9820501804351807
1697745306389906400,2.981906494140625,9.164999961853027,-5.781000137329102,-5.5320000648498535
1697745306399325700,2.99132568359375,-8.305950164794922,-7.552950382232666,-0.62295001745224
1697745306408744700,3.00074462890625,-10.756950378417969,-6.090000152587891,4.234050273895264
1697745306418163700,3.010163818359375,-3.3829500675201416,-8.520000457763672,0.5010000467300415
1697745306427582700,3.019582763671875,-2.073000192642212,-10.749000549316406,-4.284000396728516
1697745306437001700,3.029001708984375,-2.3749501705169678,-12.48495101928711,3.730950117111206
1697745306446420700,3.038420654296875,0.7219500541687012,-11.503050804138184,5.244000434875488
1697745306455839700,3.04783984375,-1.4560500383377075,-9.688050270080566,1.01295006275177
1697745306465258500,3.057258544921875,-1.5150001049041748,-14.874000549316406,5.7900004386901855
1697745306474677800,3.066677734375,-4.365000247955322,-25.11705207824707,6.5560503005981445
1697745306484096800,3.0760966796875,9.385050773620605,-16.471050262451172,6.003000259399414
1697745306493515800,3.085515869140625,-14.290950775146484,-18.44700050354004,1.831950068473816
1697745306502934800,3.094934814453125,-9.523950576782227,-18.61695098876953,0.4909500181674957
1697745306512353800,3.104353759765625,-0.8740500211715698,-20.563051223754883,-0.5419500470161438
1697745306521772800,3.113772705078125,-3.8809502124786377,-25.270051956176758,7.504050254821777
1697745306531191800,3.12319189453125,-9.184050559997559,-22.105051040649414,0.8269500136375427
1697745306540610800,3.13261083984375,-2.7529501914978027,-17.551050186157227,-2.326050043106079
1697745306550029800,3.14202978515625,1.2390000820159912,-12.942000389099121,-2.284950017929077
1697745306559448800,3.15144873046875,3.475950241088867,-9.339000701904297,-2.508000135421753
1697745306568867800,3.160867919921875,2.0299501419067383,-7.81095027923584,-1.76295006275177
1697745306578286600,3.17028662109375,0.6360000371932983,-10.890000343322754,-1.1190000772476196
1697745306587705900,3.179705810546875,1.1599500179290771,-10.603050231933594,1.759950041770935
1697745306597124900,3.189124755859375,-2.2380001544952393,-9.994950294494629,-0.9709500670433044
1697745306606543600,3.198543701171875,-0.7780500650405884,-10.692000389099121,2.473950147628784
1697745306615963000,3.207962890625,1.633950114250183,-8.826000213623047,-0.3379500210285187
1697745306625382100,3.217382080078125,3.4999501705169678,-8.920050621032715,-1.3680000305175781
1697745306634801000,3.22680078125,4.048050403594971,-9.556950569152832,-2.4910500049591064
1697745306644220000,3.236219970703125,3.7800002098083496,-9.552000045776367,-3.9750001430511475
1697745306653639000,3.245638916015625,2.2519500255584717,-9.556950569152832,-3.436950206756592
1697745306663058200,3.25505810546875,0.8970000147819519,-7.978950500488281,0.08205000311136246
1697745306672477000,3.264476806640625,-0.7920000553131104,-6.918000221252441,-0.0010500000789761543
1697745306681896000,3.27389599609375,-3.7759501934051514,-7.852050304412842,1.6309500932693481
1697745306691315000,3.28331494140625,-10.741050720214844,-9.034950256347656,0.3960000276565552
1697745306700734000,3.29273388671875,-14.988000869750977,-9.969000816345215,2.206050157546997
1697745306710153200,3.3021533203125,-14.815950393676758,-10.042950630187988,2.4790501594543457
1697745306719572200,3.311572265625,-12.235050201416016,-8.344950675964355,2.436000108718872
1697745306728991200,3.3209912109375,-7.096050262451172,-5.476950168609619,1.7989500761032104
1697745306738410200,3.33041015625,-2.2890000343322754,-2.4190502166748047,1.1740500926971436
1697745306747829200,3.339829345703125,1.894950032234192,-0.42195001244544983,0.609000027179718
1697745306757248300,3.349248291015625,3.703050136566162,0.2850000262260437,-1.3680000305175781
1697745306766667300,3.358667236328125,1.9480501413345337,0.34005001187324524,-0.22095000743865967
1697745306776086000,3.3680859375,-3.3349502086639404,-1.1599500179290771,2.5890002250671387
1697745306785505000,3.377505126953125,-6.211050510406494,-3.5350501537323,2.3329501152038574
1697745306794924300,3.38692431640625,-5.56695032119751,-5.272950172424316,0.6250500082969666
1697745306804343000,3.396343017578125,-3.8400001525878906,-6.897000312805176,-0.43905001878738403
1697745306813762000,3.405761962890625,-4.072050094604492,-8.439000129699707,0.6420000195503235
1697745306823181300,3.415181396484375,-2.6959500312805176,-8.800050735473633,1.9810501337051392
1697745306832600300,3.424600341796875,-0.9960000514984131,-8.890950202941895,2.7799501419067383
1697745306842019300,3.434019287109375,-0.8929500579833984,-9.205050468444824,3.9300003051757812
1697745306851438300,3.443438232421875,-2.1190500259399414,-8.629950523376465,2.802000045776367
1697745306860857000,3.452857177734375,-0.13395000994205475,-7.9960503578186035,2.1510000228881836
1697745306870276400,3.4622763671875,1.078950047492981,-7.773000240325928,1.8750001192092896
1697745306879695400,3.4716953125,-0.5269500017166138,-8.09595012664795,2.425950050354004
1697745306889114400,3.4811142578125,-3.7350001335144043,-8.893050193786621,2.5410001277923584
1697745306898533400,3.490533447265625,-5.053950309753418,-9.17805004119873,1.7080501317977905
1697745306907952400,3.499952392578125,-3.4639501571655273,-9.289050102233887,1.5259500741958618
1697745306917371400,3.509371337890625,-3.1080000400543213,-9.21405029296875,-0.7620000243186951
1697745306926790700,3.518790771484375,-7.020000457763672,-9.616950035095215,-5.638950347900391
1697745306936209400,3.52820947265625,-6.13200044631958,-10.665000915527344,-7.789050579071045
1697745306945628700,3.537628662109375,-3.2749502658843994,-13.105051040649414,-2.863950252532959
1697745306955047700,3.547047607421875,-3.400050163269043,-15.123001098632812,0.34995001554489136
1697745306964466700,3.556466796875,-5.250000476837158,-15.796051025390625,0.34800001978874207
1697745306973885400,3.565885498046875,-7.192050457000732,-14.221050262451172,0.4510500133037567
1697745306983304400,3.575304443359375,-5.83905029296875,-13.01205062866211,-0.23100000619888306
1697745306992723700,3.5847236328125,-2.4559500217437744,-12.121050834655762,-1.1809500455856323
1697745307002142700,3.594142822265625,-1.8000000715255737,-12.166050910949707,-1.6770000457763672
1697745307011561700,3.603561767578125,-5.8560004234313965,-13.330050468444824,-2.7690000534057617
1697745307020980700,3.612980712890625,-9.217950820922852,-14.833950996398926,-2.5819501876831055
1697745307030399700,3.622399658203125,-7.795950412750244,-15.535050392150879,-3.2760002613067627
1697745307039818800,3.63181884765625,-5.775000095367432,-16.00695037841797,-2.3620500564575195
1697745307049237800,3.64123779296875,-3.4669501781463623,-15.7870512008667,-2.4619500637054443
1697745307058656800,3.65065673828125,-2.218950033187866,-14.167950630187988,-2.593950033187866
1697745307068075800,3.66007568359375,-3.181950092315674,-11.970000267028809,-3.2910001277923584
1697745307077495000,3.6694951171875,-4.0410003662109375,-10.546050071716309,-2.4120001792907715
1697745307086913800,3.678913818359375,-3.850050210952759,-9.508950233459473,0.10605000704526901
1697745307096332800,3.688332763671875,-4.1419501304626465,-8.14905071258545,-0.3169500231742859
1697745307105752000,3.697751953125,-4.719000339508057,-6.934950351715088,-0.0010500000789761543
1697745307115170800,3.7071708984375,-4.003050327301025,-6.945000171661377,-0.5539500117301941
1697745307124589800,3.71658984375,-3.061950206756592,-8.199000358581543,0.19395001232624054
1697745307134008800,3.7260087890625,-2.740950107574463,-9.640050888061523,-0.0970500037074089
1697745307143428000,3.735427978515625,-2.5690500736236572,-10.155000686645508,-0.40995001792907715
1697745307152847000,3.74484716796875,-2.7840001583099365,-9.459000587463379,-0.3960000276565552
1697745307162266000,3.75426611328125,-2.422950029373169,-8.035950660705566,-0.7189500331878662
1697745307171684900,3.763684814453125,-1.8049501180648804,-6.481950283050537,-0.9679500460624695
1697745307181104000,3.773104248046875,-1.2690000534057617,-4.885050296783447,-1.1910001039505005
1697745307190523100,3.782523193359375,-0.984000027179718,-3.6760501861572266,-1.144950032234192
1697745307199942100,3.791942138671875,-0.9340500235557556,-2.9320502281188965,-1.071000099182129
1697745307209361200,3.801361083984375,-1.1470500230789185,-2.7499501705169678,-0.6589500308036804
1697745307218780200,3.8107802734375,-0.9930000305175781,-2.826000213623047,-0.3859500288963318
1697745307228199400,3.820199462890625,-0.8280000686645508,-3.1879501342773438,0.27105000615119934
1697745307237618200,3.8296181640625,-0.7350000143051147,-3.6790502071380615,0.21405000984668732
1697745307247037200,3.839037109375,-0.38805001974105835,-4.050000190734863,0.18495000898838043
1697745307256456200,3.848456298828125,-0.1099500060081482,-4.146000385284424,0.5700000524520874
1697745307265875500,3.85787548828125,0.4249500334262848,-4.182000160217285,0.2970000207424164
1697745307275294200,3.867294189453125,0.7459500432014465,-4.408950328826904,0.4819500148296356
1697745307284713200,3.876713134765625,0.07304999977350235,-4.713000297546387,0.3240000009536743
1697745307294132500,3.886132568359375,-0.46695002913475037,-5.212950229644775,0.06000000238418579
1697745307303551500,3.895551513671875,-0.673050045967102,-5.722950458526611,0.24195000529289246
1697745307312970500,3.904970458984375,-0.8089500665664673,-6.157050132751465,0.016950000077486038
1697745307322389500,3.914389404296875,-1.1130000352859497,-6.801000118255615,-0.2880000174045563
1697745307331808300,3.923808349609375,-2.499000072479248,-7.785000324249268,-0.5250000357627869
1697745307341227500,3.9332275390625,-5.962050437927246,-8.82194995880127,-1.609950065612793
1697745307350646500,3.942646484375,-13.140000343322754,-10.110000610351562,-2.3710501194000244
1697745307360065500,3.9520654296875,-19.609050750732422,-10.96500015258789,-4.390050411224365
1697745307369484500,3.961484619140625,-15.225000381469727,-11.130000114440918,-6.247950077056885
1697745307378903600,3.970903564453125,-8.072999954223633,-11.439000129699707,-5.512050151824951
1697745307388322800,3.98032275390625,-4.044000148773193,-11.239950180053711,-2.896050214767456
1697745307397741800,3.989741943359375,-2.571000099182129,-10.23705005645752,-2.1700501441955566
1697745307407160600,3.99916064453125,-2.3269500732421875,-9.571050643920898,-1.1790000200271606
1697745307416579600,4.00857958984375,-3.1270501613616943,-9.568950653076172,-1.071000099182129
1697745307425998800,4.017998779296875,-4.105950355529785,-10.099950790405273,-1.702950119972229
1697745307435417900,4.02741796875,-5.089950084686279,-11.062950134277344,-2.158050060272217
1697745307444836600,4.036836669921875,-7.413000583648682,-12.26205062866211,-3.1300501823425293
1697745307454255900,4.046255859375,-9.718050003051758,-13.371000289916992,-4.411050319671631
1697745307463675000,4.0556748046875,-7.309950351715088,-14.518051147460938,-3.733950138092041
1697745307473094000,4.065093994140625,0.14805001020431519,-15.696001052856445,0.6640500426292419
1697745307482513000,4.074512939453125,3.639000177383423,-15.523050308227539,3.309000253677368
1697745307491932000,4.083931884765625,2.0080502033233643,-15.451050758361816,3.658950090408325
1697745307501351000,4.093350830078125,-1.1320500373840332,-15.70305061340332,3.9300003051757812
1697745307510770200,4.102770263671875,-1.5540000200271606,-16.597949981689453,1.7940000295639038
1697745307520189000,4.11218896484375,-6.95805025100708,-17.797950744628906,0.9820500612258911
1697745307529608000,4.12160791015625,-9.06195068359375,-16.552949905395508,-0.1660500019788742
1697745307539027200,4.131027099609375,2.092050075531006,-12.42300033569336,-1.1809500455856323
1697745307548446200,4.1404462890625,3.4300501346588135,-9.906000137329102,-0.45795002579689026
1697745307557865200,4.149865234375,3.283950090408325,-8.245050430297852,-0.625950038433075
1697745307567284200,4.1592841796875,1.6660500764846802,-6.444000244140625,0.25005000829696655
1697745307576703200,4.168703125,-0.7519500255584717,-6.223950386047363,0.9559500217437744
1697745307586122200,4.178122314453125,-2.350950002670288,-7.7149505615234375,-0.1399500072002411
1697745307595541200,4.187541259765625,-2.659950017929077,-9.705000877380371,1.13100004196167
1697745307604960000,4.1969599609375,-3.582000255584717,-11.950950622558594,1.8900001049041748
1697745307614379500,4.206379638671875,-5.800950050354004,-13.291950225830078,2.653050184249878
1697745307623798500,4.215798583984375,-7.033950328826904,-13.474050521850586,2.8780500888824463
1697745307633217300,4.22521728515625,-7.6020002365112305,-12.301050186157227,1.6140000820159912
1697745307642636300,4.23463623046875,-6.658050537109375,-9.979950904846191,-0.15405000746250153
1697745307652055300,4.24405517578125,-3.9409501552581787,-8.683050155639648,-2.593950033187866
1697745307661474300,4.253474365234375,-2.947050094604492,-6.849000453948975,-3.1300501823425293
1697745307670893300,4.262893310546875,-1.6810500621795654,-5.596950054168701,-3.4579501152038574
1697745307680312300,4.272312255859375,-0.8830500245094299,-4.9960503578186035,-2.2159500122070312
1697745307689731300,4.2817314453125,-0.2580000162124634,-4.675050258636475,-0.46095001697540283
1697745307699150600,4.291150634765625,-0.33000001311302185,-4.258049964904785,0.09405000507831573
1697745307708569600,4.300569580078125,-1.3189500570297241,-3.123000144958496,0.09405000507831573
1697745307717988600,4.309988525390625,-3.9979500770568848,-3.2980501651763916,1.0780500173568726
1697745307727407600,4.31940771484375,-5.914050102233887,-4.330049991607666,0.7639500498771667
1697745307736826600,4.32882666015625,-6.619950294494629,-5.452950477600098,-0.6280500292778015
1697745307746245600,4.33824560546875,-7.578000545501709,-6.717000484466553,-1.6530001163482666
1697745307755664600,4.34766455078125,-5.013000011444092,-8.11305046081543,-3.403050184249878
1697745307765083600,4.357083740234375,-3.0810000896453857,-8.689949989318848,-3.372000217437744
1697745307774502700,4.366502685546875,-4.314000129699707,-8.862000465393066,-2.407050132751465
1697745307783921400,4.37592138671875,-4.645050048828125,-8.155950546264648,-1.6789500713348389
1697745307793341000,4.3853408203125,-2.230950117111206,-7.038000106811523,-0.22605000436306
1697745307802759700,4.394759765625,0.08100000023841858,-5.725950241088867,0.3450000286102295
1697745307812179000,4.404178955078125,0.21900001168251038,-5.230050086975098,0.8820000290870667
1697745307821598000,4.413597900390625,-0.3469500243663788,-5.428950309753418,0.7069500088691711
1697745307831017000,4.423016845703125,-1.5799500942230225,-6.183000087738037,0.25394999980926514
1697745307840436000,4.43243603515625,-4.683000087738037,-7.095000267028809,-0.7240500450134277
1697745307849854700,4.441854736328125,-6.804000377655029,-7.938000202178955,-1.2079501152038574
1697745307859273700,4.451273681640625,-7.273950576782227,-8.509950637817383,-0.9900000691413879
1697745307868693000,4.46069287109375,-5.430000305175781,-9.067950248718262,0.3450000286102295
1697745307878112000,4.470112060546875,-3.687000274658203,-9.316950798034668,1.3099501132965088
1697745307887531000,4.479531005859375,-3.759000062942505,-9.340950012207031,1.6690500974655151
1697745307896950000,4.488949951171875,-3.6180002689361572,-9.672000885009766,2.3680500984191895
1697745307906369000,4.498369140625,-2.1190500259399414,-10.078950881958008,2.3710501194000244
1697745307915788000,4.5077880859375,-3.2509500980377197,-10.914000511169434,2.176950216293335
1697745307925207300,4.517207275390625,-8.169000625610352,-12.10200023651123,1.4830501079559326
1697745307934626300,4.526626220703125,-9.534000396728516,-13.072051048278809,0.7620000243186951
1697745307944045300,4.53604541015625,-6.646050453186035,-13.230000495910645,-0.10095000267028809
1697745307953464300,4.54546435546875,-5.041950225830078,-13.564950942993164,-0.6430500149726868
1697745307962883000,4.554883056640625,-7.474950313568115,-14.689950942993164,-1.0780500173568726
1697745307972302000,4.564302001953125,-10.080000877380371,-15.873001098632812,-1.1880000829696655
1697745307981721000,4.57372119140625,-9.064949989318848,-16.81905174255371,-1.0470000505447388
1697745307991140400,4.583140380859375,-6.1650004386901855,-17.077051162719727,-1.2340500354766846
1697745308000559400,4.592559326171875,-4.273950099945068,-16.078950881958008,-2.0809500217437744
1697745308009978400,4.601978271484375,-2.502000093460083,-14.106000900268555,-2.734950065612793
1697745308019397600,4.611397705078125,-1.852950096130371,-12.055950164794922,-1.7220001220703125
1697745308028816600,4.620816650390625,-2.950050115585327,-9.657000541687012,-1.9350000619888306
1697745308038235400,4.6302353515625,-3.475950241088867,-7.2960004806518555,-1.270050048828125
1697745308047654400,4.639654296875,-3.727950096130371,-5.553000450134277,-1.609950065612793
1697745308057073700,4.64907373046875,-3.9240002632141113,-5.484000205993652,-1.4089500904083252
1697745308066492400,4.658492431640625,-3.595950126647949,-6.784050464630127,-1.8370500802993774
1697745308075911700,4.66791162109375,-3.1549501419067383,-8.158050537109375,-2.0020501613616943
1697745308085330700,4.67733056640625,-3.450000047683716,-9.030000686645508,-2.02905011177063
1697745308094749700,4.686749755859375,-3.5839502811431885,-9.111000061035156,-1.8520500659942627
1697745308104168700,4.696168701171875,-3.0139501094818115,-8.575050354003906,-1.5400500297546387
1697745308113587700,4.705587646484375,-2.4280500411987305,-7.603050231933594,-1.4710500240325928
1697745308123006700,4.7150068359375,-1.9320000410079956,-6.436950206756592,-1.3819500207901
1697745308132426000,4.724426025390625,-1.599000096321106,-5.19195032119751,-1.3339500427246094
1697745308141845000,4.733844970703125,-1.429050087928772,-4.171950340270996,-0.8770500421524048
1697745308151264000,4.743263916015625,-1.264050006866455,-3.3319501876831055,-0.48000001907348633
1697745308160683000,4.75268310546875,-0.8929500579833984,-2.7660000324249268,-0.06105000153183937
1697745308170102000,4.76210205078125,-0.43095001578330994,-2.4000000953674316,0.039000000804662704
1697745308179521000,4.77152099609375,-0.06405000388622284,-2.1610500812530518,0.2659500241279602
1697745308188940000,4.78093994140625,0.022950001060962677,-2.199000120162964,0.5629500150680542
1697745308198359000,4.790359130859375,0.2530499994754791,-2.3590500354766846,0.8820000290870667
1697745308207778000,4.799778076171875,0.4849500358104706,-2.568000078201294,1.0489500761032104
1697745308217197300,4.809197265625,0.3340500295162201,-3.214050054550171,1.2340500354766846
1697745308226616000,4.818615966796875,-0.16005000472068787,-4.339950084686279,1.5739500522613525
1697745308236035000,4.82803515625,-1.0459500551223755,-5.608950138092041,1.2139500379562378
1697745308245454300,4.837454345703125,-0.6060000061988831,-6.829950332641602,0.6180000305175781
1697745308254873300,4.846873291015625,-0.700950026512146,-8.254050254821777,0.5629500150680542
1697745308264292000,4.8562919921875,-1.966050148010254,-9.310050010681152,-0.18000000715255737
1697745308273711000,4.865711181640625,-4.729050159454346,-9.994950294494629,-1.6819500923156738
1697745308283130000,4.875130126953125,-11.242950439453125,-10.845000267028809,-3.4650001525878906
1697745308292549000,4.884549072265625,-20.974050521850586,-11.725950241088867,-7.866000175476074
1697745308301968400,4.893968505859375,-19.04595184326172,-12.657000541687012,-10.00200080871582
1697745308311387400,4.903387451171875,-12.117000579833984,-12.583050727844238,-6.487050533294678
1697745308320806400,4.912806396484375,-5.703000068664551,-12.301050186157227,-3.8050501346588135
1697745308330225200,4.92222509765625,-1.9339500665664673,-10.96500015258789,-3.790950298309326
1697745308339644400,4.93164453125,-2.0710501670837402,-10.738950729370117,-2.556000232696533
1697745308349063400,4.9410634765625,-4.34505033493042,-10.897050857543945,-5.1220502853393555
1697745308358482400,4.950482421875,-5.674050331115723,-11.314050674438477,-6.250050067901611
1697745308367901700,4.959901611328125,-4.6210503578186035,-12.327000617980957,-5.512050151824951
1697745308377320700,4.96932080078125,-0.3520500063896179,-13.972050666809082,0.003000000026077032
1697745308386739700,4.97873974609375,4.455000400543213,-15.331951141357422,5.779950141906738
1697745308396158500,4.988158447265625,2.6760001182556152,-14.850000381469727,6.592050075531006
1697745308405577700,4.99757763671875,-0.8020500540733337,-13.873950958251953,4.236000061035156
1697745308414996500,5.00699658203125,-4.24500036239624,-14.319000244140625,3.0390000343322754
1697745308424415700,5.016415771484375,-6.50700044631958,-15.02505111694336,4.570950031280518
1697745308433834800,5.025834716796875,-4.293000221252441,-15.034950256347656,4.7029500007629395
1697745308443253500,5.03525341796875,1.0549499988555908,-14.914950370788574,4.332000255584717
1697745308452672800,5.0446728515625,1.6849501132965088,-13.015950202941895,1.7320500612258911
1697745308462092000,5.054092041015625,0.2050500065088272,-11.652000427246094,-0.6709500551223755
1697745308471510800,5.0635107421875,-2.725050210952759,-11.28795051574707,-2.572050094604492
1697745308480929800,5.0729296875,-2.434950113296509,-11.296950340270996,-2.508000135421753
1697745308490348800,5.082348876953125,-2.3269500732421875,-11.857950210571289,-0.76500004529953
1697745308499767800,5.091767822265625,-6.091050148010254,-12.825000762939453,1.4490001201629639
1697745308509187000,5.10118701171875,-7.510950565338135,-12.633000373840332,2.0910000801086426
1697745308518605800,5.110605712890625,-5.680950164794922,-11.743050575256348,1.5210000276565552
1697745308528025000,5.120025146484375,-3.0979502201080322,-10.873950958251953,0.8860500454902649
1697745308537444000,5.129444091796875,-1.6930500268936157,-10.075950622558594,0.22800001502037048
1697745308546863000,5.138863037109375,-1.0870500802993774,-9.243000030517578,-0.06795000284910202
1697745308556282000,5.1482822265625,-0.6439500451087952,-8.439000129699707,-0.20400001108646393
1697745308565701000,5.157701171875,-0.7440000176429749,-7.636050224304199,-0.43905001878738403
1697745308575120100,5.1671201171875,-1.0840500593185425,-7.027950286865234,-0.45600003004074097
1697745308584539100,5.1765390625,-1.5150001049041748,-6.3319501876831055,-0.5659500360488892
1697745308593958400,5.18595849609375,-1.7190001010894775,-5.545950412750244,-0.6109500527381897
1697745308603377400,5.19537744140625,-1.6609500646591187,-4.749000072479248,-0.7720500230789185
1697745308612796200,5.204796142578125,-1.9339500665664673,-3.8419501781463623,-1.0519500970840454
1697745308622215400,5.21421533203125,-3.886050224304199,-2.965050220489502,-1.363050103187561
1697745308631634400,5.223634521484375,-4.71405029296875,-3.0510001182556152,-2.1319501399993896
1697745308641053400,5.233053466796875,-4.434000015258789,-4.062000274658203,-3.283050060272217
1697745308650472200,5.24247216796875,-6.0169501304626465,-5.533950328826904,-3.492000102996826
1697745308659891500,5.251891357421875,-8.133000373840332,-6.616950511932373,-3.3409502506256104
1697745308669310500,5.261310546875,-7.82205057144165,-7.006950378417969,-2.6509501934051514
1697745308678729700,5.270729736328125,-6.190950393676758,-7.0000505447387695,-1.6699501276016235
1697745308688148700,5.280148681640625,-4.099050045013428,-6.810000419616699,-0.6570000052452087
1697745308697567700,5.289567626953125,-2.5039501190185547,-6.523050308227539,0.5800500512123108
1697745308706986800,5.29898681640625,-1.6110000610351562,-6.195000171661377,1.2580500841140747
1697745308716405800,5.30840576171875,-1.1899501085281372,-6.324000358581543,1.606950044631958
1697745308725824800,5.31782470703125,-0.9649500250816345,-6.838950157165527,0.9100500345230103
1697745308735244000,5.327244140625,-2.155050039291382,-7.624950408935547,-0.5659500360488892
1697745308744662800,5.336662841796875,-5.75100040435791,-8.197050094604492,-0.973050057888031
1697745308754081800,5.346081787109375,-6.474000453948975,-8.190000534057617,-2.1820499897003174
1697745308763500800,5.355500732421875,-2.4370501041412354,-7.327950477600098,-2.338050127029419
1697745308772920000,5.364920166015625,-1.4650501012802124,-7.105050563812256,-0.999000072479248
1697745308782339000,5.374339111328125,-3.7300500869750977,-7.7149505615234375,0.6949500441551208
1697745308791758000,5.383758056640625,-2.5039501190185547,-8.029050827026367,1.3339500427246094
1697745308801176800,5.3931767578125,-1.771950125694275,-8.982000350952148,1.6050000190734863
1697745308810596400,5.402596435546875,-4.558950424194336,-10.087950706481934,0.12300000339746475
1697745308820015000,5.41201513671875,-12.535950660705566,-12.142951011657715,-1.1190000772476196
1697745308829434000,5.42143408203125,-13.537050247192383,-13.902000427246094,-2.7060000896453857
1697745308838853400,5.430853271484375,-7.63800048828125,-15.255001068115234,-1.927950143814087
1697745308848272400,5.4402724609375,-3.2149500846862793,-16.23900032043457,-0.10905000567436218
1697745308857691400,5.44969140625,-3.6820502281188965,-16.7320499420166,0.24195000529289246
1697745308867110400,5.4591103515625,-5.638050079345703,-17.142000198364258,0.5320500135421753
1697745308876529200,5.468529052734375,-6.3760504722595215,-17.487001419067383,0.4720500111579895
1697745308885948400,5.477948486328125,-4.4320502281188965,-17.115001678466797,-0.35295000672340393
1697745308895367400,5.487367431640625,-4.135050296783447,-15.439050674438477,-2.035950183868408
1697745308904786400,5.496786376953125,-4.948950290679932,-13.342050552368164,-3.1900501251220703
1697745308914205400,5.506205322265625,-5.07105016708374,-11.017050743103027,-3.0319502353668213
1697745308923624700,5.515624755859375,-4.3909502029418945,-8.968050003051758,-2.263050079345703
1697745308933043700,5.525043701171875,-3.9030001163482666,-7.7989501953125,-1.6840500831604004
1697745308942462500,5.53446240234375,-3.634050130844116,-7.657950401306152,-1.287000060081482
1697745308951881500,5.543881591796875,-3.736950159072876,-7.866000175476074,-1.210050106048584
1697745308961300700,5.55330078125,-3.3520500659942627,-7.909050464630127,-0.7690500617027283
1697745308970719700,5.5627197265625,-2.899050235748291,-7.725000381469727,-0.29295000433921814
1697745308980138800,5.572138671875,-2.431950092315674,-7.234050273895264,-0.04905000329017639
1697745308989557800,5.581557861328125,-1.798050045967102,-6.6910505294799805,-0.15195000171661377
1697745308998976500,5.5909765625,-1.3480501174926758,-6.139950275421143,-0.7810500264167786
1697745309008396000,5.60039599609375,-1.0459500551223755,-5.57295036315918,-1.2529500722885132
1697745309017815000,5.60981494140625,-0.6889500617980957,-4.82295036315918,-1.6410000324249268
1697745309027233800,5.61923388671875,-0.5389500260353088,-4.059000015258789,-1.8520500659942627
1697745309036652800,5.62865283203125,-0.5670000314712524,-3.307950258255005,-2.107950210571289
1697745309046071800,5.63807177734375,-0.4429500102996826,-2.6760001182556152,-2.02905011177063
1697745309055491000,5.647490966796875,-0.3060000240802765,-2.137050151824951,-1.6819500923156738
1697745309064910000,5.65691015625,-0.06405000388622284,-1.9210500717163086,-1.0380001068115234
1697745309074328800,5.666328857421875,0.33195000886917114,-1.9860000610351562,-0.21195000410079956
1697745309083748000,5.675748046875,0.4210500121116638,-2.287950038909912,0.3739500045776367
1697745309093167000,5.6851669921875,0.40905001759529114,-2.953050136566162,0.9820500612258911
1697745309102586000,5.694586181640625,0.3150000274181366,-3.9760501384735107,1.870050072669983
1697745309112005000,5.704005126953125,-0.30900001525878906,-5.259000301361084,2.5360500812530518
1697745309121424100,5.713424072265625,-1.4440500736236572,-6.966000556945801,2.224950075149536
1697745309130843400,5.722843505859375,-3.199050188064575,-9.115950584411621,1.2600001096725464
1697745309140262100,5.73226220703125,-4.537050247192383,-11.11500072479248,0.8340000510215759
1697745309149681200,5.74168115234375,-7.575000286102295,-12.157050132751465,-0.8389500379562378
1697745309159100200,5.75110009765625,-14.052000999450684,-12.526050567626953,-2.953050136566162
1697745309168519400,5.76051953125,-20.57400131225586,-12.814950942993164,-5.401950359344482
1697745309177938400,5.7699384765625,-18.44805145263672,-11.5489501953125,-5.922000408172607
1697745309187357400,5.779357421875,-13.594950675964355,-10.336950302124023,-2.8999500274658203
1697745309196776700,5.788776611328125,-10.06095027923584,-9.636000633239746,-2.1409502029418945
1697745309206195700,5.79819580078125,-8.953950881958008,-10.048050880432129,-1.9260001182556152
1697745309215614700,5.80761474609375,-8.418000221252441,-10.857000350952148,-2.0429999828338623
1697745309225033700,5.81703369140625,-5.4559502601623535,-11.604000091552734,-3.910950183868408
1697745309234452700,5.82645263671875,1.4050500392913818,-12.40095043182373,-3.3859500885009766
1697745309243871700,5.835871826171875,6.547950267791748,-13.069050788879395,-2.39805006980896
1697745309253290800,5.845290771484375,8.695050239562988,-14.083950996398926,0.6640500426292419
1697745309262709800,5.854709716796875,4.275000095367432,-14.57805061340332,2.139000177383423
1697745309272129000,5.86412890625,0.37005001306533813,-13.60995101928711,1.8850500583648682
1697745309281548000,5.873548095703125,1.38795006275177,-12.672000885009766,-0.859950065612793
1697745309290966800,5.882966796875,-0.6100500226020813,-13.531050682067871,0.47505003213882446
1697745309300385800,5.8923857421875,-1.8079501390457153,-14.041050910949707,0.7140000462532043
1697745309309805000,5.90180517578125,-1.264050006866455,-14.06295108795166,0.6040500402450562
1697745309319224000,5.91122412109375,-0.47895002365112305,-13.464000701904297,0.04800000041723251
1697745309328643000,5.92064306640625,-1.2829500436782837,-13.2649507522583,-1.2580500841140747
1697745309338062000,5.93006201171875,-6.0769500732421875,-12.886950492858887,-2.1319501399993896
1697745309455800300,6.04780029296875,-2.0850000381469727,-7.593000411987305,-0.6070500016212463
1697745309465219000,6.057218994140625,-3.3040502071380615,-6.970950126647949,-0.7069500088691711
1697745309474638000,6.06663818359375,-5.113950252532959,-6.516000270843506,-0.9079500436782837
1697745309484057300,6.076057373046875,-6.297000408172607,-6.051000118255615,-1.423050045967102
1697745309493476000,6.08547607421875,-6.273000240325928,-5.719050407409668,-1.5070500373840332
1697745309502895000,6.09489501953125,-5.521050453186035,-5.359950065612793,-1.2990000247955322
1697745309512314000,6.104314208984375,-4.242000102996826,-4.950000286102295,-0.9970500469207764
1697745309521733000,6.113733154296875,-3.049950122833252,-4.597949981689453,-0.6139500141143799
1697745309531152400,6.12315234375,-1.8360000848770142,-4.324950218200684,0.010050000622868538
1697745309540571400,6.1325712890625,-1.429050087928772,-4.03095006942749,0.364050030708313
1697745309549990400,6.141990478515625,-1.0699501037597656,-3.9090001583099365,0.62295001745224
1697745309559409400,6.151409423828125,-1.966050148010254,-4.25100040435791,0.8719500303268433
1697745309568828700,6.16082861328125,-3.9220502376556396,-5.284950256347656,1.2120000123977661
1697745309578247700,6.17024755859375,-6.133950233459473,-6.375000476837158,1.1809500455856323
1697745309587666700,6.179666748046875,-6.615000247955322,-7.018950462341309,1.5640500783920288
1697745309597085700,6.189085693359375,-4.429050445556641,-7.095000267028809,1.9039500951766968
1697745309606504700,6.198504638671875,-1.5679501295089722,-6.801000118255615,1.377000093460083
1697745309615923700,6.207923828125,-0.021000001579523087,-6.3100504875183105,0.38100001215934753
1697745309625342700,6.2173427734375,0.2670000195503235,-6.481950283050537,-0.2950500249862671
1697745309634761700,6.22676171875,-0.04500000178813934,-6.814950466156006,-1.0090500116348267
1697745309644180700,6.2361806640625,-1.6540501117706299,-7.210050106048584,-0.7480500340461731
1697745309653600000,6.24560009765625,-3.5460002422332764,-7.291950225830078,-0.817050039768219
1697745309663018800,6.255018798828125,-5.023050308227539,-7.7440505027771,-0.5710500478744507
1697745309672438000,6.26443798828125,-5.124000072479248,-8.314050674438477,-0.6859500408172607
1697745309681857300,6.273857177734375,-2.902050256729126,-8.740050315856934,-1.5139501094818115
1697745309691276000,6.283276123046875,-2.212050199508667,-9.41295051574707,-2.1250500679016113
1697745309700695000,6.292695068359375,-4.980000019073486,-11.005050659179688,-2.433000087738037
1697745309710114000,6.302114013671875,-7.152000427246094,-12.805950164794922,-2.545950174331665
1697745309719533000,6.311532958984375,-5.188050270080566,-14.482050895690918,-2.104950189590454
1697745309728952300,6.320952392578125,-1.6710001230239868,-15.058950424194336,-1.6960500478744507
1697745309738371300,6.330371337890625,-0.8710500597953796,-14.707050323486328,-2.905050039291382
1697745309747790000,6.3397900390625,-5.467950344085693,-15.037050247192383,-3.0460500717163086
1697745309757209000,6.349208984375,-11.989950180053711,-15.916050910949707,-4.030050277709961
1697745309766628400,6.35862841796875,-10.927050590515137,-16.792051315307617,-4.231950283050537
1697745309776047600,6.368047607421875,-5.779950141906738,-16.65795135498047,-3.7099502086639404
1697745309785466400,6.37746630859375,-0.7660500407218933,-15.696001052856445,-3.970950126647949
1697745309794885400,6.386885498046875,1.0120500326156616,-14.434050559997559,-4.062000274658203
1697745309804304400,6.396304443359375,0.6739500164985657,-13.624950408935547,-4.437000274658203
1697745309813723600,6.4057236328125,-2.325000047683716,-12.789000511169434,-4.468950271606445
1697745309823142700,6.415142578125,-3.7920002937316895,-12.283950805664062,-4.818000316619873
1697745309832561700,6.424561767578125,-4.671000003814697,-11.455050468444824,-5.230050086975098
1697745309841980700,6.433980712890625,-4.03695011138916,-11.09595012664795,-4.344000339508057
1697745309851399700,6.443399658203125,-2.302950143814087,-10.689000129699707,-3.9160501956939697
1697745309860818700,6.452818603515625,-1.0920000076293945,-10.452000617980957,-3.327000141143799
1697745309870238000,6.462238037109375,-1.7280000448226929,-9.844050407409668,-2.896050214767456
1697745309879657000,6.471656982421875,-2.3389501571655273,-9.39900016784668,-2.2829999923706055
1697745309889076000,6.481075927734375,-2.67900013923645,-8.593950271606445,-1.7970000505447388
1697745309898495000,6.490494873046875,-2.788950204849243,-7.633950233459473,-1.6150500774383545
1697745309907914200,6.499914306640625,-2.3680500984191895,-6.57105016708374,-1.0330500602722168
1697745309917333200,6.509333251953125,-1.8550500869750977,-5.287950038909912,-0.9610500335693359
1697745309926752000,6.518751953125,-1.4700000286102295,-4.332000255584717,-0.999000072479248
1697745309936171300,6.528171142578125,-1.0270500183105469,-3.5299501419067383,-1.0519500970840454
1697745309945590300,6.53759033203125,-0.547950029373169,-3.1110000610351562,-1.062000036239624
1697745309955009300,6.54700927734375,-0.16005000472068787,-2.9509501457214355,-1.1329500675201416
1697745309964428300,6.55642822265625,0.09300000220537186,-2.9250001907348633,-1.0660500526428223
1697745309973847600,6.56584765625,0.27900001406669617,-3.0490500926971436,-0.8290500640869141
1697745309983266600,6.5752666015625,0.18405000865459442,-3.1810500621795654,-0.6520500183105469
1697745309992685300,6.584685302734375,-0.032999999821186066,-3.2880001068115234,-0.5749500393867493
1697745310002104300,6.594104248046875,-0.14595000445842743,-3.327000141143799,-0.5590500235557556
1697745310011523600,6.603523681640625,-0.25394999980926514,-3.346050262451172,-0.5419500470161438
1697745310020942600,6.612942626953125,-0.6370500326156616,-3.4780502319335938,-0.6520500183105469
1697745310030361600,6.622361572265625,-1.1389501094818115,-3.9300003051757812,-0.8290500640869141
1697745310039780600,6.631780517578125,-1.615950107574463,-4.77495002746582,-1.2360000610351562
1697745310049199600,6.64119970703125,-1.8790501356124878,-6.0610504150390625,-1.4419500827789307
1697745310058619000,6.650618896484375,-2.578050136566162,-7.462050437927246,-1.801050066947937
1697745310068038000,6.660037841796875,-4.549050331115723,-8.794950485229492,-2.584050178527832
1697745310077456600,6.66945654296875,-10.824000358581543,-10.495050430297852,-3.172950267791748
1697745310086875600,6.678875732421875,-20.01405143737793,-11.776050567626953,-5.746950149536133
1697745310096295000,6.688294921875,-19.69005012512207,-11.094000816345215,-8.094000816345215
1697745310105714000,6.6977138671875,-11.716950416564941,-10.234050750732422,-7.240950107574463
1697745310115133000,6.7071328125,-8.638050079345703,-10.488000869750977,-5.404950141906738
1697745310124552000,6.716552001953125,-12.90000057220459,-10.476000785827637,-5.863950252532959
1697745310133971200,6.72597119140625,-9.32805061340332,-10.407000541687012,-4.666950225830078
1697745310143390200,6.73539013671875,-2.808000087738037,-9.70995044708252,-4.630950450897217
1697745310152809000,6.74480908203125,-0.4330500066280365,-8.884050369262695,-6.21405029296875
1697745310162228000,6.75422802734375,-0.6990000605583191,-7.7560505867004395,-7.023000240325928
1697745310171647200,6.763647216796875,-3.325050115585327,-6.961050510406494,-8.65095043182373
1697745310181066200,6.773066162109375,-3.4240500926971436,-8.410050392150879,-8.557950019836426
1697745310190485200,6.7824853515625,-0.51705002784729,-10.789950370788574,-4.047000408172607
1697745310199904300,6.791904296875,7.267950534820557,-13.384950637817383,3.369000196456909
1697745310209323300,6.8013232421875,7.588950157165527,-14.668050765991211,8.34000015258789
1697745310218742500,6.810742431640625,-0.13095000386238098,-14.58495044708252,2.63700008392334
1697745310228161500,6.82016162109375,-8.822999954223633,-15.505950927734375,2.5189502239227295
1697745310237580500,6.82958056640625,-8.50005054473877,-15.183000564575195,1.9950001239776611
1697745310246999600,6.83899951171875,-3.1650002002716064,-15.127950668334961,-0.5520000457763672
1697745310256418600,6.84841845703125,1.4530500173568726,-15.930000305175781,-0.9679500460624695
1697745310265837600,6.857837646484375,3.106950044631958,-17.809951782226562,-5.587050437927246
1697745310275256600,6.867256591796875,4.35705041885376,-19.921951293945312,-8.920050621032715
1697745310284675600,6.876675537109375,5.760000228881836,-19.588951110839844,-11.617950439453125
1697745310294094600,6.886094482421875,5.755050182342529,-18.339000701904297,-6.439050197601318
1697745310303513900,6.895513916015625,5.149050235748291,-16.44300079345703,-2.577000141143799
1697745310312932900,6.904932861328125,3.8800501823425293,-14.599050521850586,-2.3400001525878906
1697745310322351600,6.9143515625,1.519950032234192,-13.074000358581543,-1.117050051689148
1697745310331771000,6.92377099609375,-0.6250500082969666,-11.830950736999512,-0.9610500335693359
1697745310341190100,6.933190185546875,-0.9739500284194946,-11.427000999450684,-1.5120000839233398
1697745310350609000,6.94260888671875,0.7939500212669373,-11.884050369262695,-2.1559500694274902
1697745310360028000,6.95202783203125,1.6180500984191895,-12.601950645446777,-2.1750001907348633
1697745310369447000,6.961447021484375,1.0000500679016113,-13.087950706481934,-1.5280500650405884
1697745310378866200,6.9708662109375,0.6049500107765198,-12.918000221252441,-1.0690500736236572
1697745310388285200,6.98028515625,0.7800000309944153,-12.195000648498535,0.04800000041723251
1697745310397704200,6.9897041015625,0.8680500388145447,-11.056050300598145,0.6540000438690186
1697745310407123200,6.999123291015625,0.8440500497817993,-10.01205062866211,1.2120000123977661
1697745310416542200,7.008542236328125,0.6739500164985657,-9.1399507522583,1.5859500169754028
1697745310425961500,7.01796142578125,0.7680000066757202,-8.278050422668457,2.0500500202178955
1697745310435380200,7.027380126953125,1.0890001058578491,-7.73205041885376,2.7180001735687256
1697745310444799200,7.03679931640625,1.1080501079559326,-7.336950302124023,2.7490501403808594
1697745310454218500,7.046218505859375,0.8130000233650208,-7.359000205993652,2.8690500259399414
1697745310463637500,7.055637451171875,0.0690000057220459,-7.522050380706787,2.7589502334594727
1697745310473056500,7.065056396484375,-0.9790500402450562,-7.633950233459473,2.716050148010254
1697745310482475300,7.074475341796875,-2.5350000858306885,-7.480950355529785,2.6290500164031982
1697745310491894300,7.083894287109375,-4.591950416564941,-7.3399505615234375,2.7079501152038574
1697745310501313500,7.0933134765625,-5.9760003089904785,-7.368000507354736,2.6890501976013184
1697745310510732500,7.102732666015625,-6.169950485229492,-7.407000541687012,2.059950113296509
1697745310520151600,7.112151611328125,-5.09505033493042,-7.557000160217285,2.1190500259399414
1697745310529570800,7.12157080078125,-4.360050201416016,-7.902000427246094,0.8070000410079956
1697745310538989800,7.13098974609375,-2.3530499935150146,-9.061050415039062,0.8550000190734863
1697745310548408800,7.140408935546875,-1.294950008392334,-9.66195011138916,1.4179500341415405
1697745310557827800,7.149827880859375,-1.2019500732421875,-10.015950202941895,1.3750500679016113
1697745310567246800,7.159246826171875,-1.7860500812530518,-10.099950790405273,2.095950126647949
1697745310576666000,7.168666015625,-1.968000054359436,-9.778950691223145,2.052000045776367
1697745310586085000,7.178085205078125,-1.5540000200271606,-8.755050659179688,2.356950044631958
1697745310595504000,7.187504150390625,-1.2330000400543213,-8.122950553894043,2.55495023727417
1697745310604923100,7.196923095703125,-0.7920000553131104,-8.082000732421875,2.5480501651763916
1697745310614342100,7.206342041015625,-0.4620000123977661,-8.14905071258545,2.63700008392334
1697745310623761200,7.21576123046875,-0.31800001859664917,-8.314050674438477,2.791950225830078
1697745310633180400,7.225180419921875,-1.0049999952316284,-8.290050506591797,1.855950117111206
1697745310642599400,7.234599365234375,-1.6930500268936157,-8.52495002746582,1.39395010471344
1697745310652018400,7.244018310546875,-2.2980000972747803,-8.884050369262695,0.8580000400543213
1697745310661437400,7.2534375,-2.803950071334839,-9.23805046081543,0.534000039100647
1697745310670856400,7.2628564453125,-3.0859501361846924,-9.42300033569336,0.597000002861023
1697745310680275500,7.272275390625,-3.2970001697540283,-9.67905044555664,0.6760500073432922
1697745310689694500,7.281694580078125,-3.409050226211548,-9.96405029296875,0.7399500608444214
1697745310699113500,7.291113525390625,-2.8350000381469727,-9.97800064086914,0.49605002999305725
1697745310708532500,7.300532470703125,-1.4560500383377075,-9.846000671386719,0.18495000898838043
1697745310717951700,7.30995166015625,-0.16695000231266022,-9.589950561523438,-0.3910500109195709
1697745310727370800,7.319370849609375,0.322050005197525,-9.327000617980957,-1.3459500074386597
1697745310736790000,7.3287900390625,-0.024000000208616257,-9.211950302124023,-1.9039500951766968
1697745310746209000,7.338208984375,-1.264050006866455,-9.304950714111328,-2.278050184249878
1697745310755628000,7.3476279296875,-2.950050115585327,-9.439050674438477,-2.6509501934051514
1697745310765046800,7.357046875,-4.522950172424316,-9.589950561523438,-2.77305006980896
1697745310774466000,7.366466064453125,-5.6770501136779785,-9.490050315856934,-2.473950147628784
1697745310783885300,7.37588525390625,-5.290950298309326,-9.544950485229492,-1.5070500373840332
1697745310793304000,7.385303955078125,-3.9120001792907715,-9.334050178527832,-1.1759999990463257
1697745310802723000,7.39472314453125,-3.1549501419067383,-9.115950584411621,-0.906000018119812
1697745310812142000,7.40414208984375,-3.072000026702881,-8.914950370788574,-1.0470000505447388
1697745310821561300,7.413561279296875,-3.3949501514434814,-8.994000434875488,-1.5280500650405884
1697745310830980400,7.42298046875,-4.438950061798096,-9.466050148010254,-1.3900500535964966
1697745310840399400,7.4323994140625,-5.490000247955322,-10.027950286865234,-1.5859500169754028
1697745310849818400,7.441818359375,-5.200050354003906,-10.306050300598145,-2.0340001583099365
1697745310859237400,7.4512373046875,-4.663950443267822,-10.681950569152832,-1.6050000190734863
1697745310868656400,7.460656494140625,-3.9720001220703125,-11.209050178527832,-1.3819500207901
1697745310878075600,7.47007568359375,-2.7870001792907715,-12.075000762939453,-0.9829500317573547
1697745310887494400,7.479494384765625,-1.8580501079559326,-13.54995059967041,-0.6540000438690186
1697745310896913700,7.48891357421875,-1.3429501056671143,-15.018000602722168,-1.054050087928772
1697745310906332700,7.498332763671875,-0.09795000404119492,-14.980051040649414,-2.5480501651763916
1697745310915751700,7.507751708984375,0.7939500212669373,-13.999950408935547,-3.742950201034546
1697745310925170700,7.517170654296875,0.6550500392913818,-13.222050666809082,-4.866000175476074
1697745310934589700,7.526589599609375,0.3270000219345093,-12.483000755310059,-6.034050464630127
1697745310944008700,7.5360087890625,-0.12000000476837158,-11.922000885009766,-6.975000381469727
1697745310953427700,7.545427734375,0.2460000067949295,-11.812050819396973,-6.6160502433776855
1697745310962847000,7.554846923828125,1.612950086593628,-12.094950675964355,-4.926000118255615
1697745310972265700,7.564265625,2.6070001125335693,-12.799050331115723,-3.9900002479553223
1697745310981685000,7.57368505859375,1.9480501413345337,-14.374051094055176,-2.386050224304199
1697745310991104000,7.58310400390625,0.9930000305175781,-15.43005084991455,-1.2199500799179077
1697745311000523000,7.59252294921875,2.0370001792907715,-16.255950927734375,-0.10395000129938126
1697745311009942000,7.60194189453125,1.1700000762939453,-16.936050415039062,0.6349500417709351
1697745311019361000,7.611361083984375,0.29100000858306885,-16.905000686645508,-0.17805001139640808
1697745311028780300,7.6207802734375,-2.6430001258850098,-16.38300132751465,-1.4689500331878662
1697745311038199300,7.63019921875,-4.717050075531006,-15.15195083618164,-1.9830000400543213
1697745311047618000,7.6396181640625,-5.538000106811523,-14.119950294494629,-2.983950138092041
1697745311057037600,7.64903759765625,-5.011050224304199,-12.760050773620605,-2.8600502014160156
1697745311066456300,7.658456298828125,-2.760000228881836,-11.356950759887695,-2.682000160217285
1697745311075875300,7.667875244140625,-0.024000000208616257,-9.850950241088867,-2.0050501823425293
1697745311085294300,7.67729443359375,2.0680501461029053,-8.248950004577637,-1.2580500841140747
1697745311094713600,7.686713623046875,1.612950086593628,-6.801000118255615,-1.3030500411987305
1697745311104132600,7.696132568359375,-0.1579500138759613,-5.968050479888916,-1.5259500741958618
1697745311113551600,7.705551513671875,-1.1989500522613525,-5.862000465393066,-1.67205011844635
1697745311122970400,7.714970458984375,-1.6279500722885132,-5.644050121307373,-1.4280000925064087
1697745311132389600,7.7243896484375,-1.5370501279830933,-5.725950241088867,-0.7810500264167786
1697745311141808600,7.73380859375,-0.9409500360488892,-5.565000057220459,-0.3840000033378601
1697745311151228000,7.743227783203125,-0.4039500057697296,-5.199000358581543,0.040950000286102295
1697745311160647000,7.75264697265625,-0.15495000779628754,-4.902000427246094,0.8239500522613525
1697745311170065700,7.762065673828125,0.9109500646591187,-4.464000225067139,1.1809500455856323
1697745311179485000,7.77148486328125,1.1440500020980835,-4.021049976348877,1.4280000925064087
1697745311188904000,7.780904052734375,0.612000048160553,-3.763050079345703,1.440000057220459
1697745311198323200,7.7903232421875,-0.04305000230669975,-3.516000270843506,1.1670000553131104
1697745311207742000,7.799741943359375,-0.45000001788139343,-3.115950107574463,1.01295006275177
1697745311217161200,7.8091611328125,-0.9049500226974487,-3.016050100326538,1.2120000123977661
1697745311226580200,7.818580322265625,-1.3189500570297241,-2.9359500408172607,1.5019500255584717
1697745311235999200,7.827999267578125,-1.6849501132965088,-2.9410500526428223,1.7269500494003296
1697745311245418500,7.83741845703125,-1.3120501041412354,-2.986950159072876,1.5859500169754028
1697745311254837500,7.84683740234375,-1.1730000972747803,-3.2530500888824463,2.124000072479248
1697745311264256300,7.85625634765625,-1.207050085067749,-3.52305006980896,2.4190502166748047
1697745311273675300,7.86567529296875,-1.5559500455856323,-3.9559502601623535,2.562000036239624
1697745311283094300,7.87509423828125,-2.083050012588501,-4.507050037384033,2.7109501361846924
1697745311292513500,7.884513427734375,-2.7529501914978027,-5.091000080108643,2.584050178527832
1697745311301932500,7.8939326171875,-3.6559500694274902,-5.577000141143799,2.245950222015381
1697745311311351600,7.9033515625,-5.38200044631958,-6.1810503005981445,2.1220500469207764
1697745311320770600,7.9127705078125,-8.527950286865234,-6.757950305938721,1.2430500984191895
1697745311330189600,7.922189453125,-13.305000305175781,-7.735050201416016,-0.595050036907196
1697745311339608800,7.93160888671875,-12.571950912475586,-8.355000495910645,-3.772050142288208
1697745311349027600,7.941027587890625,-11.595000267028809,-9.022950172424316,-4.501950263977051
1697745311358446800,7.95044677734375,-7.800000190734863,-10.150050163269043,-3.1660501956939697
1697745311367865900,7.959865966796875,-4.498950004577637,-10.771050453186035,-2.9509501457214355
1697745311377284900,7.969284912109375,-3.4620001316070557,-10.297050476074219,-2.7330000400543213
1697745311386704000,7.978703857421875,-4.281000137329102,-8.866950035095215,-2.943000078201294
1697745311396123100,7.988123046875,-5.052000045776367,-7.711050510406494,-3.0919501781463623
1697745311405542100,7.997542236328125,-4.764000415802002,-7.14300012588501,-2.9479501247406006
1697745311414961200,8.006961181640625,-4.104000091552734,-6.994950294494629,-2.746950149536133
1697745311424380200,8.016380126953125,-3.727950096130371,-6.930000305175781,-2.6700000762939453
1697745311551537200,8.143537109375,-5.928000450134277,-17.36894989013672,-2.368950128555298
1697745311560956200,8.1529560546875,4.579050064086914,-15.490050315856934,-2.31600022315979
1697745311570375200,8.162375244140625,5.145000457763672,-14.536951065063477,-0.006000000052154064
1697745311579794400,8.17179443359375,4.045950412750244,-13.12695026397705,0.6690000295639038
1697745311589213400,8.18121337890625,3.14805006980896,-11.671051025390625,1.4590500593185425
1697745311598632400,8.190632568359375,1.3930500745773315,-11.314050674438477,1.5739500522613525
1697745311608051500,8.200051513671875,0.7320000529289246,-11.094000816345215,0.6660000085830688
1697745311617470500,8.209470458984375,0.21000000834465027,-11.283000946044922,-0.6139500141143799
1697745311626889700,8.2188896484375,-1.0770000219345093,-12.028050422668457,-1.927950143814087
1697745311636308700,8.228308837890625,-2.320050001144409,-13.110000610351562,-3.063000202178955
1697745311645727700,8.237727783203125,-10.642050743103027,-14.499000549316406,-2.7829501628875732
1697745311655146800,8.247146728515625,-14.722050666809082,-15.154951095581055,-2.593950033187866
1697745311664565800,8.256565673828124,-6.706050395965576,-13.486050605773926,-0.4410000145435333
1697745311673984800,8.26598486328125,-3.5719501972198486,-12.520950317382812,0.8509500622749329
1697745311683404000,8.275404052734375,-2.713050127029419,-11.233050346374512,0.7189500331878662
1697745311692823000,8.284822998046875,-2.305950164794922,-9.98805046081543,-0.3460500240325928
1697745311702242000,8.294241943359374,-2.6359500885009766,-8.994000434875488,-1.002000093460083
1697745311711661000,8.3036611328125,-3.220050096511841,-8.020050048828125,-1.6270500421524048
1697745311721080000,8.313080078125,-3.748950242996216,-7.285050392150879,-2.395050048828125
1697745311730499000,8.3224990234375,-4.216050148010254,-6.730950355529785,-3.5710501670837402
1697745311739918000,8.33191796875,-4.429050445556641,-6.528000354766846,-3.991950273513794
1697745311749337300,8.34133740234375,-4.638000011444092,-6.319950103759766,-4.372950077056885
1697745311758756400,8.35075634765625,-4.89900016784668,-6.21405029296875,-3.520050048828125
1697745311768175400,8.36017529296875,-3.6510002613067627,-5.824050426483154,-2.493000030517578
1697745311777594400,8.369594482421874,-2.6569502353668213,-5.014950275421143,-1.6270500421524048
1697745311787013600,8.379013671875,-3.369000196456909,-3.9130501747131348,-1.4130001068115234
1697745311796432600,8.3884326171875,-4.563000202178955,-3.5370001792907715,-0.5899500250816345
1697745311805851600,8.3978515625,-4.381050109863281,-3.1020002365112305,-0.6430500149726868
1697745311815270400,8.4072705078125,-2.241000175476074,-2.757000207901001,-1.0879501104354858
1697745311824689700,8.416689697265625,-1.4820001125335693,-2.605950117111206,-1.2630000114440918
1697745311834109000,8.42610888671875,-2.521050214767456,-2.7780001163482666,-1.9470001459121704
1697745311843528000,8.43552783203125,-3.7159502506256104,-3.43500018119812,-2.2489500045776367
1697745311852946700,8.44494677734375,-3.9030001163482666,-4.1670002937316895,-2.206050157546997
1697745311862366000,8.454365966796875,-4.951050281524658,-4.897050380706787,-1.9860000610351562
1697745311871785000,8.463784912109375,-6.948000431060791,-5.64900016784668,-1.321950078010559
1697745311881204000,8.473203857421876,-6.414000511169434,-5.983950138092041,-0.6520500183105469
1697745311890623000,8.482623046875,-3.2340002059936523,-5.845950126647949,-0.42000001668930054
1697745311900042000,8.4920419921875,-0.38100001215934753,-5.7709503173828125,-0.27105000615119934
1697745311909461200,8.501461181640625,0.8970000147819519,-5.632050037384033,-0.8719500303268433
1697745311918880300,8.51088037109375,-0.8520000576972961,-5.968050479888916,-0.7410000562667847
1697745311928299300,8.52029931640625,-3.756000280380249,-6.505950450897217,-1.4710500240325928
1697745311937718500,8.529718505859375,-5.562000274658203,-6.468000411987305,-2.086050033569336
1697745311947137500,8.539137451171875,-4.839000225067139,-6.186000347137451,-2.5699501037597656
1697745311956556300,8.548556396484376,-4.063050270080566,-6.094950199127197,-2.5960500240325928
1697745311965975600,8.5579755859375,-3.721050262451172,-6.4609503746032715,-2.206050157546997
1697745311975394600,8.56739453125,-3.7129502296447754,-7.050000190734863,-2.086050033569336
1697745311984813600,8.5768134765625,-4.123050212860107,-7.858950138092041,-2.1720001697540283
1697745311994232600,8.586232666015626,-5.016000270843506,-9.327000617980957,-2.7229502201080322
1697745312003651600,8.595651611328124,-7.549050331115723,-11.230050086975098,-3.192000150680542
1697745312013070600,8.605070556640625,-7.360050201416016,-13.258050918579102,-2.716050148010254
1697745312022489900,8.61448974609375,-4.009950160980225,-14.782950401306152,-2.218050003051758
1697745312031908900,8.623908935546876,-4.852950096130371,-15.75300121307373,-2.3299500942230225
1697745312041327900,8.633327880859374,-8.79900074005127,-16.612951278686523,-2.908050060272217
1697745312050747100,8.6427470703125,-9.451950073242188,-17.10300064086914,-3.1900501251220703
1697745312060166100,8.652166259765625,-6.301950454711914,-17.058000564575195,-3.489000082015991
1697745312069585000,8.6615849609375,-4.056000232696533,-17.187000274658203,-3.352950096130371
1697745312079004200,8.671004150390624,-5.064000129699707,-16.81905174255371,-4.3060503005981445
1697745312088423200,8.680423095703125,-5.968950271606445,-16.158000946044922,-5.401950359344482
1697745312097842200,8.68984228515625,-5.752950191497803,-15.145051002502441,-5.299050331115723
1697745312107261200,8.69926123046875,-5.586000442504883,-13.81095027923584,-5.296950340270996
1697745312116680200,8.70868017578125,-5.029950141906738,-12.19005012512207,-4.234050273895264
1697745312126099200,8.71809912109375,-4.360050201416016,-10.194000244140625,-3.235950231552124
1697745312135518500,8.7275185546875,-4.5610504150390625,-8.743050575256348,-2.070000171661377
1697745312144937500,8.7369375,-4.183050155639648,-7.6459503173828125,-0.9970500469207764
1697745312154356200,8.746356201171874,-3.469050168991089,-7.14300012588501,-0.6810000538825989
1697745312163775500,8.755775390625,-4.192049980163574,-8.290050506591797,-0.9630000591278076
1697745312173194500,8.765194580078125,-4.683000087738037,-9.070950508117676,-1.4880000352859497
1697745312182613500,8.774613525390626,-3.639000177383423,-9.310050010681152,-3.0199501514434814
1697745312192032500,8.784032470703124,-2.5980000495910645,-9.528000831604004,-4.1170501708984375
1697745312201451800,8.79345166015625,-1.4239500761032104,-9.10200023651123,-4.414050102233887
1697745312210870500,8.80287060546875,-0.8350500464439392,-8.472000122070312,-4.176000118255615
1697745312220289800,8.812289794921876,-1.258950114250183,-7.69605016708374,-3.5059502124786377
1697745312229708800,8.821708740234374,-1.828950047492981,-6.967950344085693,-2.448000192642212
1697745312239128000,8.831128173828125,-2.245950222015381,-6.243000507354736,-1.5040500164031982
1697745312248546800,8.840546875,-2.419950008392334,-5.520000457763672,-0.8130000233650208
1697745312257965800,8.8499658203125,-2.26200008392334,-4.81095027923584,-0.4729500114917755
1697745312267384800,8.859384765625,-1.9750500917434692,-4.146000385284424,-0.40800002217292786
1697745312276804000,8.86880419921875,-1.1989500522613525,-3.6790502071380615,-0.18300001323223114
1697745312286222800,8.878222900390625,-0.6820500493049622,-3.3480000495910645,0.06000000238418579
1697745312295642400,8.887642333984376,-0.4909500181674957,-3.2500500679016113,0.13005000352859497
1697745312305061000,8.89706103515625,-0.29205000400543213,-3.1300501823425293,0.33105000853538513
1697745312314480400,8.90648046875,0.10005000233650208,-3.15405011177063,0.43905001878738403
1697745312323899400,8.9158994140625,0.49500003457069397,-3.20205020904541,0.4549500346183777
1697745312333318400,8.925318359375,1.0360500812530518,-3.1399500370025635,0.3910500109195709
1697745312342737400,8.9347373046875,1.4689500331878662,-3.1090500354766846,0.8460000157356262
1697745312352156400,8.944156494140625,1.8310500383377075,-3.0319502353668213,0.9220500588417053
1697745312361575400,8.953575439453125,1.8499500751495361,-2.9509501457214355,1.3099501132965088
1697745312370994400,8.962994384765626,1.3039500713348389,-3.114000082015991,1.9780501127243042
1697745312380413400,8.972413330078124,0.04005000367760658,-3.6690001487731934,1.9690500497817993
1697745312389832700,8.981832763671875,-0.04800000041723251,-4.282050132751465,2.9860501289367676
1697745312399251500,8.99125146484375,0.15195000171661377,-5.047950267791748,3.0840001106262207
1697745312408670700,9.000670654296876,-0.23400001227855682,-6.055950164794922,2.4690001010894775
1697745312418089700,9.01008984375,-0.226950004696846,-7.549950122833252,1.8390001058578491
1697745312427508700,9.0195087890625,-0.5430000424385071,-9.103950500488281,0.24705001711845398
1697745312436927700,9.028927734375,-3.120000123977661,-10.641000747680664,-1.2510000467300415
1697745312446347000,9.038346923828126,-17.635950088500977,-11.665950775146484,-4.432950019836426
1697745312455766000,9.04776611328125,-32.422950744628906,-12.010951042175293,-10.81605052947998
1697745312465184800,9.057184814453125,-24.27105140686035,-12.1399507522583,-8.356950759887695
1697745312474604000,9.06660400390625,-12.844950675964355,-11.604000091552734,-1.437000036239624
1697745312484023000,9.07602294921875,-6.57705020904541,-10.194000244140625,-0.34095001220703125
1697745312493442300,9.0854423828125,-2.731950044631958,-10.528950691223145,1.7119500637054443
1697745312502861300,9.094861328125,-2.272050142288208,-10.617000579833984,-2.659050226211548
1697745312512280300,9.1042802734375,-4.61400032043457,-11.379000663757324,-6.693000316619873
1697745312521699300,9.11369921875,-0.19905000925064087,-12.387001037597656,-10.37505054473877
1697745312531118300,9.123118408203124,5.911050319671631,-13.90005111694336,-5.8120503425598145
1697745312540537300,9.132537353515625,5.4340500831604,-14.226000785827637,-0.8869500160217285
1697745312549956600,9.14195654296875,0.08100000023841858,-14.683051109313965,5.400000095367432
1697745312559375600,9.151375732421876,-3.1270501613616943,-14.391000747680664,3.592050075531006
1697745312568794600,9.160794677734375,-2.562000036239624,-14.278050422668457,0.62295001745224
1697745312578213600,9.170213623046875,0.41805002093315125,-14.623050689697266,-1.440000057220459
1697745312587632600,9.179632568359375,1.1869500875473022,-17.31195068359375,4.666950225830078
1697745312597052000,9.189052001953126,-0.6180000305175781,-18.928050994873047,3.478950262069702
1697745312606471000,9.198470947265625,-1.0049999952316284,-18.92595100402832,0.7189500331878662
1697745312615890200,9.20789013671875,-2.218950033187866,-18.420000076293945,-1.8730500936508179
1697745312625309000,9.217308837890625,-15.09105110168457,-18.577951431274414,-2.2710001468658447
1697745312634728000,9.22672802734375,-10.033950805664062,-17.05095100402832,-0.973050057888031
1697745312644147000,9.23614697265625,-3.061950206756592,-13.993050575256348,-1.8250501155853271
1697745312653566200,9.245566162109375,-3.558000087738037,-12.052050590515137,1.9609501361846924
1697745312662985200,9.254985107421875,-5.397000312805176,-10.516950607299805,2.697000026702881
1697745312672404200,9.264404296875,-4.555950164794922,-9.267000198364258,2.5909500122070312
1697745312681823200,9.2738232421875,-2.638050079345703,-9.207000732421875,1.9180500507354736
1697745312691242200,9.2832421875,-0.531000018119812,-9.589950561523438,1.0399500131607056
1697745312700661500,9.29266162109375,0.6310500502586365,-9.834000587463379,0.5269500017166138
1697745312710080500,9.30208056640625,1.1100000143051147,-9.868050575256348,-0.3739500045776367
1697745312719499500,9.31149951171875,0.6790500283241272,-9.7339506149292,-0.7069500088691711
1697745312728918500,9.32091845703125,-0.51705002784729,-9.712050437927246,-0.7260000109672546
1697745312738337500,9.330337646484375,-2.0590500831604004,-9.327000617980957,-0.5299500226974487
1697745312747756500,9.339756591796874,-3.2820000648498535,-8.707050323486328,0.06495000422000885
1697745312757175800,9.34917578125,-4.033950328826904,-8.062950134277344,-0.45795002579689026
1697745312766594800,9.3585947265625,-4.527000427246094,-7.332000255584717,0.4909500181674957
1697745312776013800,9.368013916015625,-6.472050189971924,-6.541950225830078,-1.1209501028060913
1697745312785432800,9.377432861328124,-6.057000160217285,-6.049050331115723,-0.6930000185966492
1697745312794852000,9.38685205078125,-4.921950340270996,-5.75700044631958,-1.2360000610351562
1697745312804271000,9.39627099609375,-3.8520002365112305,-5.713950157165527,-0.9940500259399414
1697745312813690000,9.405690185546876,-2.1000001430511475,-5.332950115203857,-1.6530001163482666
1697745312823109000,9.415109130859374,-1.4389500617980957,-4.882950305938721,-1.3300501108169556
1697745312832528100,9.424528076171875,-1.374000072479248,-4.588950157165527,-1.9639500379562378
1697745312841947100,9.433947021484375,-1.390950083732605,-4.408950328826904,-2.139000177383423
1697745312851366100,9.4433662109375,-1.1440500020980835,-4.231950283050537,-1.9470001459121704
1697745312860785200,9.45278515625,-1.0699501037597656,-4.3560004234313965,-1.0260000228881836
1697745312870204400,9.462204345703125,-1.429050087928772,-5.008050441741943,0.24705001711845398
1697745312879623400,9.47162353515625,-1.8790501356124878,-5.836050510406494,1.01295006275177
1697745312889042400,9.48104248046875,-1.8310500383377075,-6.592950344085693,1.6290000677108765
1697745312898461200,9.490461181640624,-1.4100000858306885,-7.147950172424316,2.245950222015381
1697745312907880400,9.49988037109375,-1.3860000371932983,-7.383000373840332,1.3050000667572021
1697745312917299500,9.509299560546875,-1.6230000257492065,-7.285050392150879,0.19395001232624054
1697745312926718700,9.51871875,-3.2659502029418945,-7.002000331878662,-0.9679500460624695
1697745312936137500,9.528137451171874,-4.975050449371338,-6.928050518035889,-1.4160000085830688
1697745312945557000,9.537556884765625,-4.321950435638428,-6.862950325012207,-0.9850500226020813
1697745312954976000,9.54697607421875,-4.0410003662109375,-6.942000389099121,-0.859950065612793
1697745312964394800,9.556394775390626,-3.2370002269744873,-7.129050254821777,-0.9919500350952148
1697745312973813800,9.565813720703124,-2.461050033569336,-7.597950458526611,-0.6880500316619873
1697745312983233000,9.57523291015625,-2.7649500370025635,-7.993050575256348,-0.39795002341270447
1697745312992652000,9.584652099609375,-2.6860501766204834,-7.9960503578186035,-0.583050012588501
1697745313002071000,9.594071044921876,-1.8079501390457153,-7.942950248718262,-0.9850500226020813
1697745313011489800,9.60348974609375,-2.155050039291382,-8.167950630187988,-1.3579500913619995
1697745313020909300,9.612909423828125,-4.2330002784729,-8.934000015258789,-1.5690001249313354
1697745313030328300,9.622328369140625,-8.080950736999512,-10.219950675964355,-1.651050090789795
1697745313039747000,9.6317470703125,-6.655950546264648,-11.788050651550293,-1.4130001068115234
1697745313049166300,9.641166259765624,-4.684950351715088,-13.58595085144043,-0.7219500541687012
1697745313058585300,9.65058544921875,-2.9760000705718994,-14.532000541687012,-1.0399500131607056
1697745313068004400,9.66000439453125,-3.472050189971924,-14.509950637817383,-1.1329500675201416
1697745313077423400,9.66942333984375,-5.334000110626221,-14.218050956726074,-1.6410000324249268
1697745313086842600,9.678842529296874,-5.971050262451172,-13.993050575256348,-2.505000114440918
1697745313096261600,9.68826171875,-6.903000354766846,-14.074950218200684,-3.516000270843506
1697745313105680600,9.6976806640625,-8.581050872802734,-15.463050842285156,-3.192000150680542
1697745313115100000,9.707099853515626,-7.674000263214111,-16.76595115661621,-3.1660501956939697
1697745313124519000,9.716518798828124,-4.908000469207764,-18.316951751708984,-1.998000144958496
1697745313133938000,9.72593798828125,-3.390000104904175,-18.111000061035156,-1.858950138092041
1697745313143356700,9.735356689453125,-3.9000000953674316,-16.23900032043457,-2.326050043106079
1697745313152775700,9.744775634765626,-4.116000175476074,-13.438050270080566,-2.9629502296447754
1697745313162195200,9.7541953125,-3.6510002613067627,-11.167950630187988,-2.25600004196167
1697745313171614200,9.7636142578125,-3.1459500789642334,-9.106950759887695,-1.4280000925064087
1697745313181033000,9.773032958984375,-3.0139501094818115,-7.6870503425598145,-0.48000001907348633
1697745313190452000,9.782451904296876,-3.6010501384735107,-7.146000385284424,0.043950002640485764
1697745313199871200,9.791871337890624,-3.867000102996826,-7.669950485229492,0.013050000183284283
1697745313209290200,9.801290283203125,-3.3229501247406006,-8.604000091552734,-0.18000000715255737
1697745313218709200,9.810709228515625,-2.3959500789642334,-8.98905086517334,-0.5080500245094299
1697745313228128300,9.820128173828126,-1.812000036239624,-8.824049949645996,-0.9250500202178955
1697745313237547500,9.829547607421874,-1.3860000371932983,-8.199000358581543,-1.2460500001907349
1697745313246966500,9.838966552734375,-0.9889500737190247,-7.282050132751465,-1.384950041770935
1697745313256385500,9.848385498046875,-0.5910000205039978,-6.178050518035889,-1.456950068473816
1697745313265804500,9.857804443359376,-0.3730500042438507,-5.130000114440918,-1.2630000114440918
1697745313275223600,9.8672236328125,0.006000000052154064,-4.183950424194336,-0.8869500160217285
1697745313284642800,9.876642822265625,-0.05700000375509262,-3.4780502319335938,-0.6709500551223755
1697745313294061600,9.8860615234375,-0.17205001413822174,-3.1090500354766846,-0.6570000052452087
1697745313303480800,9.895480712890626,-0.20595000684261322,-2.826000213623047,-0.8410500288009644
1697745313312899800,9.90489990234375,-0.32295000553131104,-2.7499501705169678,-0.8869500160217285
1697745313322318800,9.91431884765625,-0.4710000157356262,-2.7660000324249268,-1.0879501104354858
1697745313331737900,9.92373779296875,-0.6919500231742859,-2.9700000286102295,-0.817050039768219
1697745313341156900,9.933156982421876,-0.6300000548362732,-3.3439502716064453,-0.39795002341270447
1697745313350576000,9.942576171875,-0.43605002760887146,-3.922950267791748,0.283050000667572
1697745313359995100,9.9519951171875,-0.019050000235438347,-4.6120500564575195,1.225950002670288
1697745313369414000,9.961413818359375,-0.13905000686645508,-5.368950366973877,1.9420500993728638
1697745313378833000,9.9708330078125,-0.3520500063896179,-6.006000518798828,2.467050075531006
1697745313388252400,9.98025244140625,-0.1270500123500824,-6.549000263214111,2.9140501022338867
1697745313397671400,9.98967138671875,0.10905000567436218,-7.249050140380859,2.5600500106811523
1697745313407090400,9.99909033203125,-0.4069500267505646,-8.302050590515137,1.5780000686645508
1697745313416509200,10.00850927734375,-1.977000117301941,-9.22605037689209,0.2850000262260437
1697745313425928400,10.017928466796874,-5.073000431060791,-9.784050941467285,-1.818000078201294
1697745313435347500,10.027347412109375,-13.188000679016113,-10.330050468444824,-4.9830002784729
1697745313444766500,10.036766357421875,-22.588050842285156,-10.368000030517578,-12.159000396728516
1697745313454185500,10.046185546875,-21.364051818847656,-11.601000785827637,-9.808050155639648
1697745313463604700,10.055604736328124,-12.35400104522705,-11.671051025390625,-1.9810501337051392
1697745313473023700,10.065023681640625,-6.730050086975098,-10.510050773620605,-4.003950119018555
1697745313482442800,10.07444287109375,-5.581050395965576,-10.158000946044922,-1.453950047492981
1697745313491861800,10.08386181640625,-8.362950325012207,-10.452000617980957,-3.5059502124786377
1697745313501280800,10.09328076171875,-12.112950325012207,-11.071950912475586,-6.324000358581543
1697745313510699800,10.10269970703125,-13.587000846862793,-11.470050811767578,-9.844050407409668
1697745313520119000,10.112119140625,-7.234950542449951,-12.17400074005127,-9.889050483703613
1697745313529538000,10.1215380859375,3.307950258255005,-13.59105110168457,-2.1529500484466553
1697745313538957000,10.13095703125,7.1700005531311035,-13.953001022338867,1.0639500617980957
1697745313548376000,10.1403759765625,6.49500036239624,-15.243000984191895,6.151050090789795
1697745313557795000,10.149795166015625,4.584000110626221,-14.194050788879395,5.151000022888184
1697745313567214000,10.159214111328126,4.51200008392334,-12.712050437927246,4.06095027923584
1697745313576633300,10.16863330078125,4.998000144958496,-11.806950569152832,2.4589500427246094
1697745313586052400,10.17805224609375,2.7360000610351562,-13.657950401306152,4.528050422668457
1697745313595471400,10.187471435546875,-2.574000120162964,-13.993050575256348,4.543050289154053
1697745313604890000,10.19689013671875,-5.470950126647949,-12.475050926208496,3.324000120162964
1697745313614309600,10.2063095703125,-8.71500015258789,-11.187000274658203,-0.3960000276565552
1697745313623728600,10.215728759765625,-11.320050239562988,-11.902950286865234,-2.224950075149536
1697745313633147400,10.2251474609375,-11.125950813293457,-13.593000411987305,-0.013050000183284283
1697745313642567000,10.23456689453125,-6.804000377655029,-15.034950256347656,1.3150500059127808
1697745313651986000,10.24398583984375,-3.6220502853393555,-14.446050643920898,2.116950035095215
1697745313661404700,10.25340478515625,-2.7960002422332764,-13.687050819396973,1.3609501123428345
1697745313670823700,10.26282373046875,-2.2669501304626465,-13.13895034790039,0.27105000615119934
1697745313680242700,10.27224267578125,-1.4029500484466553,-12.1399507522583,-1.0039499998092651
1697745313689662000,10.281661865234375,-0.7350000143051147,-11.247000694274902,-1.7680500745773315
1697745313699081000,10.2910810546875,-0.6769500374794006,-10.55505084991455,-1.9620001316070557
1697745313708500000,10.3005,-1.336050033569336,-10.111950874328613,-1.4850000143051147
1697745313717919000,10.3099189453125,-2.0329501628875732,-9.708000183105469,-0.9709500670433044
1697745313727338000,10.319337890625,-2.5380001068115234,-9.490050315856934,-0.4129500091075897
1697745313736757200,10.32875732421875,-3.1410000324249268,-9.43695068359375,-0.22095000743865967
1697745313746176300,10.33817626953125,-3.3450002670288086,-9.319950103759766,-0.40995001792907715
1697745313755595300,10.34759521484375,-3.4450502395629883,-9.098999977111816,-0.8440500497817993
1697745313765014300,10.35701416015625,-3.739950180053711,-8.628000259399414,-1.3680000305175781
1697745313774433300,10.366433349609375,-3.891000270843506,-8.086950302124023,-1.3729500770568848
1697745313783852300,10.375852294921875,-3.864000082015991,-7.249050140380859,-1.6549500226974487
1697745313793271300,10.385271240234376,-4.240050315856934,-6.516000270843506,-1.6030501127243042
1697745313802690600,10.394690673828125,-4.951050281524658,-5.898000240325928,-1.440000057220459
1697745313812109600,10.404109619140625,-4.306950092315674,-5.266050338745117,-1.4280000925064087
1697745313821528600,10.413528564453125,-3.2730002403259277,-4.713000297546387,-1.6699501276016235
1697745313830947600,10.422947509765624,-2.8320000171661377,-4.228950023651123,-1.5739500522613525
1697745313840366600,10.43236669921875,-2.7960002422332764,-4.162050247192383,-1.0210500955581665
1697745313849785900,10.441785888671875,-2.671950101852417,-4.2870001792907715,-1.1380500793457031
1697745313859204900,10.451204833984375,-3.582000255584717,-4.840050220489502,-0.7480500340461731
1697745313868623600,10.46062353515625,-4.858050346374512,-5.3520002365112305,-0.2639999985694885
1697745313878043100,10.470043212890625,-5.46405029296875,-5.539050102233887,-0.18300001323223114
1697745313887462100,10.479462158203125,-5.818050384521484,-5.5489501953125,-0.022050000727176666
1697745313896881200,10.488881103515626,-4.944000244140625,-5.359950065612793,-0.10395000129938126
1697745313906300200,10.498300048828124,-3.2629501819610596,-5.400000095367432,-0.45600003004074097
1697745313915719200,10.50771923828125,-2.044950008392334,-6.1020002365112305,-0.3940500319004059
1697745313925138200,10.51713818359375,-1.5250500440597534,-6.727050304412842,0.027000000700354576
1697745313934557200,10.52655712890625,-1.5870001316070557,-7.1170501708984375,0.20595000684261322
1697745313943976200,10.53597607421875,-3.6100502014160156,-8.06505012512207,-0.23100000619888306
1697745313953395500,10.5453955078125,-5.760000228881836,-8.6850004196167,-0.6690000295639038
1697745313962814500,10.554814453125,-3.1270501613616943,-7.900050163269043,-0.8340000510215759
1697745314080552400,10.672552490234375,-6.811950206756592,-16.24394989013672,-1.864050030708313
1697745314089971700,10.6819716796875,-8.920950889587402,-16.977001190185547,-3.0319502353668213
1697745314099390700,10.691390625,-9.211050033569336,-18.2530517578125,-3.894000291824341
1697745314108809700,10.700809814453125,-7.401000499725342,-18.660001754760742,-4.962000370025635
1697745314118228700,10.710228759765625,-6.258000373840332,-17.69205093383789,-5.7109503746032715
1697745314127647700,10.719647705078126,-5.779950141906738,-15.918001174926758,-6.073050498962402
1697745314137067000,10.72906689453125,-5.4370503425598145,-13.26300048828125,-5.931000232696533
1697745314146485800,10.73848583984375,-4.113000392913818,-11.296950340270996,-5.395050048828125
1697745314155905000,10.747905029296875,-2.5830001831054688,-10.22700023651123,-3.790950298309326
1697745314165324000,10.757323974609376,-1.755000114440918,-9.280950546264648,-1.7370001077651978
1697745314174743000,10.766742919921874,-2.158950090408325,-8.269050598144531,-0.10095000267028809
1697745314184162300,10.776162353515625,-2.7340500354766846,-7.7440505027771,0.999000072479248
1697745314193581300,10.785581298828125,-2.9830501079559326,-7.9360504150390625,1.168950080871582
1697745314203000300,10.795000244140626,-2.434950113296509,-8.569950103759766,0.41505002975463867
1697745314212419300,10.80441943359375,-2.083050012588501,-8.575050354003906,-0.5130000114440918
1697745314221838300,10.81383837890625,-1.9440001249313354,-8.230050086975098,-1.5829501152038574
1697745314231257600,10.823257568359375,-1.981950044631958,-7.510050296783447,-2.1600000858306885
1697745314240676400,10.83267626953125,-1.870050072669983,-6.57105016708374,-2.3209500312805176
1697745314250095600,10.842095703125,-1.4440500736236572,-5.5489501953125,-2.01705002784729
1697745314259515000,10.851514892578125,-0.4810500144958496,-4.738950252532959,-1.6219500303268433
1697745314268934000,10.860933837890625,-0.13905000686645508,-4.107000350952148,-1.240950107574463
1697745314278353000,10.870352783203124,0.04500000178813934,-3.564000129699707,-1.0140000581741333
1697745314287771600,10.879771728515625,0.0690000057220459,-3.1590001583099365,-0.931950032711029
1697745314297191000,10.88919091796875,-0.05700000375509262,-3.0730502605438232,-0.8560500144958496
1697745314306610000,10.89860986328125,-0.1579500138759613,-3.2410502433776855,-0.6210000514984131
1697745314316029000,10.90802880859375,0.04200000315904617,-3.561000108718872,-0.3769500255584717
1697745314325448200,10.9174482421875,0.29100000858306885,-3.90405011177063,-0.22605000436306
1697745314334867200,10.9268671875,0.556950032711029,-4.213050365447998,0.024000000208616257
1697745314344286200,10.9362861328125,0.7920000553131104,-4.501950263977051,0.3330000042915344
1697745314353705200,10.945705322265624,0.9829500317573547,-4.897050380706787,0.843000054359436
1697745314363124200,10.955124267578125,0.19305001199245453,-5.139000415802002,1.1040000915527344
1697745314372543000,10.96454296875,-0.5890500545501709,-5.319000244140625,1.5210000276565552
1697745314381962500,10.97396240234375,-0.48600003123283386,-5.266050338745117,2.01705002784729
1697745314391381200,10.98338134765625,-0.5910000205039978,-5.221050262451172,1.8630000352859497
1697745314400800500,10.992800537109375,-0.7969500422477722,-5.484000205993652,1.593000054359436
1697745314410219500,11.002219482421875,-1.297950029373169,-6.127950191497803,1.144950032234192
1697745314419638500,11.011638427734376,-1.9800001382827759,-7.1670002937316895,0.33105000853538513
1697745314429057500,11.0210576171875,-3.57705020904541,-8.37600040435791,-0.10605000704526901
1697745314438476500,11.0304765625,-7.033950328826904,-9.420000076293945,-0.8509500622749329
1697745314447895800,11.039895751953125,-12.634050369262695,-10.519050598144531,-2.107950210571289
1697745314457314800,11.049314697265626,-18.301950454711914,-11.223000526428223,-5.902950286865234
1697745314466733800,11.05873388671875,-16.807950973510742,-11.644950866699219,-11.010000228881836
1697745314476152800,11.06815283203125,-10.810050964355469,-11.755050659179688,-7.681950569152832
1697745314485571800,11.07757177734375,-6.021000385284424,-11.239950180053711,-2.266050100326538
1697745314494990800,11.086990966796876,-4.88700008392334,-9.826950073242188,-1.5910500288009644
1697745314504410000,11.09641015625,-6.01200008392334,-8.874000549316406,-2.070000171661377
1697745314513829000,11.1058291015625,-7.846050262451172,-9.391050338745117,-2.8429501056671143
1697745314523248000,11.115248046875,-9.910050392150879,-10.255950927734375,-5.17995023727417
1697745314532667100,11.124667236328126,-9.610050201416016,-11.10105037689209,-6.445950508117676
1697745314542086100,11.134086181640624,-3.7849502563476562,-12.468000411987305,-3.871950149536133
1697745314551505400,11.14350537109375,3.4900500774383545,-13.950000762939453,0.9799500703811646
1697745314560924400,11.15292431640625,6.60705041885376,-15.130950927734375,3.9820501804351807
1697745314570343400,11.162343505859376,3.655050277709961,-15.291000366210938,4.078050136566162
1697745314579762400,11.171762451171874,0.4230000078678131,-15.055951118469238,5.079000473022461
1697745314589181400,11.181181396484375,0.3060000240802765,-13.576951026916504,3.697050094604492
1697745314598600700,11.1906005859375,-0.1099500060081482,-13.335000991821289,4.4320502281188965
1697745314608019700,11.200019775390626,-0.5389500260353088,-13.732050895690918,4.930050373077393
1697745314617438700,11.209438720703124,-0.16305001080036163,-13.426050186157227,3.919950246810913
1697745314626857700,11.218857666015625,-0.3060000240802765,-12.313050270080566,1.1670000553131104
1697745314636276700,11.22827685546875,-0.6319500207901001,-12.078001022338867,-1.915950059890747
1697745314645696000,11.237696044921876,-3.129000186920166,-12.085050582885742,-3.3480000495910645
1697745314655115000,11.247114990234374,-4.546950340270996,-13.28700065612793,-2.2159500122070312
1697745314664534300,11.2565341796875,-6.759000301361084,-14.308950424194336,-0.3169500231742859
1697745314673953000,11.265953125,-10.012950897216797,-14.314050674438477,0.6970500349998474
1697745314683372000,11.2753720703125,-9.988950729370117,-13.399950981140137,0.016950000077486038
1697745314692791300,11.284791259765624,-6.523950099945068,-12.078001022338867,-0.973050057888031
1697745314702210300,11.294210205078125,-3.037950038909912,-11.12505054473877,-1.3780500888824463
1697745314711629300,11.30362939453125,-1.0009500980377197,-10.450050354003906,-1.437000036239624
1697745314721048300,11.31304833984375,-0.40905001759529114,-9.874950408935547,-0.9250500202178955
1697745314730467300,11.32246728515625,-0.05700000375509262,-9.280950546264648,-0.3550500273704529
1697745314739886300,11.33188623046875,0.7440000176429749,-8.518050193786621,0.10095000267028809
1697745314749305600,11.3413056640625,1.456950068473816,-7.921050548553467,-0.1879500150680542
1697745314758724600,11.350724609375,0.5020500421524048,-7.750950336456299,-0.30300000309944153
1697745314768143400,11.360143310546874,-1.0009500980377197,-7.890000343322754,-1.0500000715255737
1697745314777562600,11.369562744140625,-1.9699500799179077,-7.801950454711914,-2.39805006980896
1697745314786982000,11.37898193359375,-3.7159502506256104,-7.249050140380859,-3.361950159072876
1697745314796400600,11.388400634765626,-7.108050346374512,-6.517950534820557,-3.9270002841949463
1697745314805820000,11.39781982421875,-9.55305004119873,-5.9509501457214355,-3.0799500942230225
1697745314815238700,11.40723876953125,-9.574950218200684,-5.589000225067139,-1.897050142288208
1697745314824658000,11.416657958984375,-7.575000286102295,-5.776050090789795,-0.3240000009536743
1697745314834077000,11.426076904296876,-3.808950185775757,-6.043950080871582,0.62295001745224
1697745314843496000,11.435495849609374,-1.5700501203536987,-6.199950218200684,1.516050100326538
1697745314852915200,11.444915283203125,-1.1350500583648682,-5.599050045013428,0.6280500292778015
1697745314862334200,11.454334228515625,-2.31000018119812,-4.900050163269043,0.16095000505447388
1697745314871753200,11.463753173828126,-2.5230000019073486,-4.204950332641602,-0.0580500029027462
1697745314881172200,11.473172119140624,-1.4560500383377075,-3.8299500942230225,0.5460000038146973
1697745314890591200,11.48259130859375,-1.0080000162124634,-3.844050168991089,1.4040000438690186
1697745314900010500,11.492010498046875,-0.9790500402450562,-4.264950275421143,2.007000207901001
1697745314909429500,11.501429443359376,-0.7590000629425049,-5.299950122833252,2.3010001182556152
1697745314918848300,11.51084814453125,-0.45705002546310425,-6.097050189971924,1.9470001459121704
1697745314928267500,11.520267578125,-0.8860500454902649,-7.231950283050537,-0.4990500211715698
1697745314937686500,11.5296865234375,-0.8929500579833984,-8.224950790405273,-2.68500018119812
1697745314947105500,11.53910546875,-2.968950033187866,-9.1399507522583,-2.7180001735687256
1697745314956524500,11.548524658203124,-5.191050052642822,-8.257050514221191,-2.7139501571655273
1697745314965943800,11.55794384765625,-4.70205020904541,-7.063950538635254,-1.7100000381469727
1697745314975362800,11.56736279296875,-3.7300500869750977,-6.991950511932373,-0.24000000953674316
1697745314984781800,11.57678173828125,-2.5260000228881836,-8.31195068359375,1.3200000524520874
1697745314994201000,11.586201171875,-2.932950258255005,-9.481950759887695,1.9380000829696655
1697745315003619800,11.595619873046875,-5.08305025100708,-11.03895092010498,0.906000018119812
1697745315013039000,11.6050390625,-7.065000534057617,-13.146000862121582,0.38100001215934753
1697745315022457900,11.614457763671876,-5.46405029296875,-14.488950729370117,-0.09195000678300858
1697745315031877400,11.62387744140625,-3.850050210952759,-15.085050582885742,0.35295000672340393
1697745315041296100,11.633296142578125,-4.990050315856934,-15.256950378417969,0.8410500288009644
1697745315050715100,11.642715087890625,-5.080050468444824,-15.310050964355469,1.2499500513076782
1697745315060134100,11.652134033203126,-3.1579501628875732,-15.15195083618164,1.0060499906539917
1697745315069553200,11.66155322265625,-4.019999980926514,-15.529951095581055,-0.5640000104904175
1697745315078972400,11.670972412109375,-7.077000141143799,-16.03095054626465,-4.114050388336182
1697745315088391400,11.680391357421875,-10.207050323486328,-16.3439998626709,-5.5819501876831055
1697745315097810400,11.689810546875,-10.159050941467285,-16.79505157470703,-7.2870001792907715
1697745315107229700,11.699229736328125,-8.076000213623047,-16.368000030517578,-6.985050201416016
1697745315116648700,11.708648681640625,-6.960000514984131,-14.617950439453125,-7.500000476837158
1697745315126067700,11.718067626953125,-5.404050350189209,-12.154050827026367,-6.918000221252441
1697745315135486700,11.72748681640625,-2.4439501762390137,-10.183950424194336,-5.173050403594971
1697745315144905700,11.73690576171875,-0.11700000613927841,-9.636000633239746,-2.83305025100708
1697745315154324700,11.74632470703125,-0.036000002175569534,-9.559050559997559,-0.6619500517845154
1697745315163744000,11.755743896484375,-2.533050060272217,-9.418050765991211,0.32895001769065857
1697745315173163000,11.7651630859375,-4.933950424194336,-9.20205020904541,0.6180000305175781
1697745315182581800,11.774581787109375,-5.143050193786621,-9.15195083618164,-0.10395000129938126
1697745315192001000,11.7840009765625,-4.249950408935547,-8.908050537109375,-1.1069999933242798
1697745315201420000,11.793419921875,-2.883000135421753,-8.467050552368164,-1.4850000143051147
1697745315210839000,11.802839111328124,-2.1690001487731934,-7.969050407409668,-1.7610000371932983
1697745315220258000,11.812258056640625,-2.218950033187866,-7.243950366973877,-1.7200500965118408
1697745315229677300,11.82167724609375,-1.9339500665664673,-6.601950168609619,-1.2049500942230225
1697745315239096300,11.831096435546876,-1.4100000858306885,-5.886000156402588,-1.2769500017166138
1697745315248515300,11.840515380859374,-0.8160000443458557,-5.151000022888184,-1.072950005531311
1697745315257934300,11.849934326171875,-0.3829500079154968,-4.4070000648498535,-1.071000099182129
1697745315267353300,11.859353271484375,-0.4140000343322754,-4.009050369262695,-1.1359500885009766
1697745315276772600,11.868772705078126,-0.5239500403404236,-3.961050271987915,-1.1500500440597534
1697745315286191600,11.878191650390624,-0.48600003123283386,-4.000050067901611,-1.2720000743865967
1697745315295610600,11.887610595703125,-0.23400001227855682,-4.0159502029418945,-1.4209500551223755
1697745315305029600,11.897029541015625,-0.028950002044439316,-4.147950172424316,-1.4899500608444214
1697745315314449000,11.906448974609376,0.032999999821186066,-4.399050235748291,-1.227000117301941
1697745315323867600,11.91586767578125,0.013950000517070293,-4.5960001945495605,-1.1050500869750977
1697745315333287000,11.925286865234375,-0.07200000435113907,-4.975950241088867,-0.6570000052452087
1697745315342705700,11.93470556640625,-0.3730500042438507,-5.4120001792907715,-0.29295000433921814
1697745315352125000,11.944125,-0.7560000419616699,-5.898000240325928,-0.08505000174045563
1697745315361544000,11.9535439453125,-1.3309500217437744,-6.151950359344482,-0.34095001220703125
1697745315370963200,11.962963134765625,-1.924950122833252,-6.022950172424316,-0.7380000352859497
1697745315380382000,11.9723818359375,-2.0850000381469727,-5.589000225067139,-0.7309500575065613
1697745315389801200,11.98180126953125,-2.3989500999450684,-5.211000442504883,-0.6469500064849854
1697745315399220200,11.99122021484375,-3.1960501670837402,-5.1820502281188965,-0.5490000247955322
1697745315408639200,12.00063916015625,-3.309000253677368,-5.284950256347656,0.14400000870227814
1697745315418058500,12.01005859375,-3.4669501781463623,-5.698950290679932,0.027000000700354576
1697745315427477500,12.0194775390625,-3.2659502029418945,-6.909000396728516,0.33105000853538513
1697745315436896300,12.028896240234374,-3.5239500999450684,-8.154000282287598,-0.23805001378059387
1697745315446315300,12.038315185546875,-5.658000469207764,-9.643050193786621,-0.6660000085830688
1697745315455734800,12.04773486328125,-11.265000343322754,-10.926000595092773,-3.3070502281188965
1697745315465153500,12.057153564453126,-16.326000213623047,-11.70405101776123,-7.050000190734863
1697745315474572500,12.066572509765624,-15.709051132202148,-11.782950401306152,-5.893050193786621
1697745315483991600,12.075991455078125,-9.988950729370117,-10.873950958251953,-2.527050018310547
1697745315493410600,12.08541064453125,-6.555000305175781,-10.066950798034668,0.970050036907196
1697745315502829800,12.094829833984376,-7.0410003662109375,-9.748050689697266,3.055950164794922
1697745315512248800,12.104248779296874,-8.952000617980957,-9.769950866699219,2.6509501934051514
1697745315521667800,12.113667724609375,-8.14995002746582,-9.813000679016113,1.01295006275177
1697745315531087000,12.123087158203125,-6.172050476074219,-9.490050315856934,-0.6829500198364258
1697745315540506000,12.132506103515626,-6.358950138092041,-10.143000602722168,-2.3209500312805176
1697745315549924900,12.1419248046875,-8.409000396728516,-12.007950782775879,-3.145050048828125
1697745315559344000,12.15134423828125,-9.196050643920898,-13.330050468444824,-3.0889501571655273
1697745315568763100,12.16076318359375,-10.129950523376465,-12.777000427246094,-2.7520501613616943
1697745315578182100,12.17018212890625,-8.581050872802734,-12.67905044555664,-0.25005000829696655
1697745315587601400,12.179601318359374,-3.9720001220703125,-13.090950965881348,2.5530002117156982
1697745315597020200,12.189020263671875,-1.3380000591278076,-12.981000900268555,5.128950119018555
1697745315606439400,12.198439453125,-1.5490500926971436,-12.904050827026367,4.159049987792969
1697745315615858400,12.2078583984375,-2.7679500579833984,-12.529950141906738,3.142050266265869
1697745315625277400,12.21727734375,-1.7500500679016113,-12.23805046081543,2.3970000743865967
1697745315634696700,12.22669677734375,0.6840000152587891,-13.042950630187988,0.8359500169754028
1697745315644115500,12.236115478515625,3.9469501972198486,-13.941000938415527,-0.11100000888109207
1697745315653534700,12.24553466796875,4.43595027923584,-14.41200065612793,-1.4250000715255737
1697745315662953700,12.25495361328125,4.0410003662109375,-14.890951156616211,-2.007000207901001
1697745315672372700,12.264372802734375,3.8230502605438232,-15.17595100402832,-3.2380502223968506
