time,seconds_elapsed,z,y,x
1701865281451348500,0.165348388671875,-0.5473191738128662,-0.40850409865379333,0.05543438717722893
1701865281460941300,0.17494140625,-0.45447036623954773,-0.1238492801785469,-0.03130592033267021
1701865281470535000,0.184534912109375,-0.27976804971694946,0.055739812552928925,-0.11438114941120148
1701865281480127700,0.194127685546875,-0.010995250195264816,0.08261708915233612,-0.18279604613780975
1701865281489719800,0.2037197265625,0.29565006494522095,-0.0847550556063652,-0.2047865390777588
1701865281499312600,0.213312744140625,0.5155550837516785,-0.5650337338447571,-0.15836215019226074
1701865281508906500,0.222906494140625,0.5937435626983643,-1.317597508430481,-0.03497100621461868
1701865281518499000,0.2324990234375,0.5937435626983643,-2.086043357849121,0.14461809396743774
1701865281528091100,0.242091064453125,0.6303943991661072,-2.566169261932373,0.319320410490036
1701865281537684200,0.251684326171875,0.7452336549758911,-2.5148582458496094,0.4402681589126587
1701865281547277800,0.26127783203125,0.8710681796073914,-1.8074970245361328,0.4549284875392914
1701865281556870700,0.27087060546875,0.9871291518211365,-1.2284138202667236,0.376740038394928
1701865281566462700,0.280462646484375,1.0824213027954102,-0.8716790676116943,0.19592925906181335
1701865281576055600,0.2900556640625,1.1691616773605347,-0.6872031688690186,-0.03008422814309597
1701865281585649200,0.299649169921875,1.2412415742874146,-0.5699204802513123,-0.2279987335205078
1701865281595242000,0.309241943359375,1.235133171081543,-0.5662553906440735,-0.41858309507369995
1701865281604834000,0.318833984375,1.133732557296753,-0.6737645268440247,-0.6421532034873962
1701865281614427000,0.328427001953125,0.9309312105178833,-0.9926267862319946,-0.9231429100036621
1701865281624020500,0.3380205078125,0.8148702383041382,-1.6120258569717407,-1.215127944946289
1701865281633613300,0.34761328125,0.9810206890106201,-2.3218305110931396,-1.4948959350585938
1701865281643205400,0.357205322265625,1.1764918565750122,-2.4513299465179443,-1.6353908777236938
1701865281652798200,0.366798095703125,1.220472812652588,-1.8942373991012573,-1.5987399816513062
1701865281662391800,0.376391845703125,1.1691616773605347,-1.3102673292160034,-1.474127173423767
1701865281671984600,0.385984619140625,1.1276240348815918,-1.0341644287109375,-1.3519576787948608
1701865281681576700,0.39557666015625,1.0811996459960938,-0.9571976661682129,-1.2224581241607666
1701865281691169800,0.405169677734375,1.0030112266540527,-0.8961129188537598,-0.9891144037246704
1701865281700763400,0.414763427734375,0.9089407324790955,-0.8936695456504822,-0.6299362182617188
1701865281710356000,0.42435595703125,0.8209787011146545,-1.0793671607971191,-0.1901262104511261
1701865281719948300,0.4339482421875,0.790436327457428,-1.4275500774383545,0.2851129472255707
1701865281729540900,0.443540771484375,0.8661814332008362,-1.9345532655715942,0.7214106321334839
1701865281739134700,0.453134765625,0.9907942414283752,-2.461103677749634,1.0695935487747192
1701865281748727600,0.4627275390625,1.0188932418823242,-2.8337204456329346,1.323706030845642
1701865281758319600,0.472319580078125,0.9565867781639099,-2.9412295818328857,1.4825263023376465
1701865281767912400,0.481912353515625,0.8722898960113525,-2.6810085773468018,1.5338374376296997
1701865281777506000,0.491506103515625,0.8197570443153381,-2.2082128524780273,1.4886348247528076
1701865281787099000,0.501098876953125,0.8222004175186157,-1.7219784259796143,1.3689087629318237
1701865281796691000,0.51069091796875,0.8759549856185913,-1.342031478881836,1.199093222618103
1701865281806283800,0.52028369140625,0.9614735841751099,-1.1074661016464233,0.9767447710037231
1701865281815877400,0.52987744140625,1.0848647356033325,-1.0195040702819824,0.7201889157295227
1701865281825470200,0.53947021484375,1.2412415742874146,-0.9571976661682129,0.44393324851989746
1701865281835062300,0.549062255859375,1.4318259954452515,-0.8411366939544678,0.17882554233074188
1701865281844655000,0.558655029296875,1.6541743278503418,-0.6872031688690186,-0.03497100621461868
1701865281854248700,0.568248779296875,1.8753011226654053,-0.5638120174407959,-0.16813570261001587
1701865281863841500,0.577841552734375,2.057333469390869,-0.5833591222763062,-0.20600824058055878
1701865281873433600,0.58743359375,2.169729471206665,-0.7959339618682861,-0.14492350816726685
1701865281883026400,0.5970263671875,2.2051587104797363,-1.1392301321029663,-0.005650337319821119
1701865281892620300,0.606620361328125,2.207602024078369,-1.498408317565918,0.19592925906181335
1701865281902212900,0.616212890625,2.224705696105957,-1.7354170083999634,0.42927291989326477
1701865281911805000,0.625804931640625,2.290677309036255,-1.7146482467651367,0.6407787799835205
1701865281921397800,0.635397705078125,2.4165117740631104,-1.3615785837173462,0.7983773946762085
1701865281930991600,0.64499169921875,2.5936574935913086,-0.8252546191215515,0.9046648144721985
1701865281940584400,0.65458447265625,2.768359661102295,-0.31199023127555847,0.9559759497642517
1701865281950176500,0.664176513671875,2.863651990890503,0.058183200657367706,0.9425373077392578
1701865281959769300,0.673769287109375,2.8331096172332764,0.23166382312774658,0.869235634803772
1701865281969363000,0.683363037109375,2.6779544353485107,0.2011214643716812,0.739736020565033
1701865281978955800,0.692955810546875,2.429950475692749,-0.005344913341104984,0.5674771070480347
1701865281988547800,0.7025478515625,2.1196398735046387,-0.2912214398384094,0.3694098889827728
1701865281998140700,0.712140625,1.786117434501648,-0.550373375415802,0.16172181069850922
1701865282007734300,0.721734375,1.5222313404083252,-0.70308518409729,-0.05207473039627075
1701865282017327000,0.7313271484375,1.3670761585235596,-0.6774296164512634,-0.27197974920272827
1701865282026919200,0.740919189453125,1.346307396888733,-0.5076140761375427,-0.5028799772262573
1701865282036512000,0.750511962890625,1.4550381898880005,-0.14828316867351532,-0.7398887276649475
1701865282046105600,0.760105712890625,1.62851881980896,0.35505497455596924,-0.9524635672569275
1701865282055698400,0.769698486328125,1.7751221656799316,0.8864920735359192,-1.1027320623397827
1701865282065290500,0.77929052734375,1.8594191074371338,1.1870288848876953,-1.213906168937683
1701865282074883300,0.78888330078125,1.8716360330581665,1.1100621223449707,-1.278656005859375
1701865282084477000,0.798476806640625,1.8129947185516357,0.6836907863616943,-1.29331636428833
1701865282094069800,0.80806982421875,1.7005987167358398,0.01175880990922451,-1.246891975402832
1701865282103661800,0.817661865234375,1.572320818901062,-0.7140804529190063,-1.1247224807739258
1701865282113254700,0.827254638671875,1.4758069515228271,-1.3041589260101318,-0.9280297160148621
1701865282122848500,0.8368486328125,1.4440429210662842,-1.6645587682724,-0.6665870547294617
1701865282132441000,0.846441162109375,1.4965758323669434,-1.7598509788513184,-0.38193225860595703
1701865282142033200,0.856033203125,1.6578394174575806,-1.6498984098434448,-0.12048961967229843
1701865282151626000,0.8656259765625,1.9070651531219482,-1.3945642709732056,0.10308047384023666
1701865282161219800,0.8752197265625,2.1795029640197754,-1.073258638381958,0.2716743052005768
1701865282170812700,0.884812744140625,2.4018514156341553,-0.786160409450531,0.37796175479888916
1701865282180404700,0.89440478515625,2.499587059020996,-0.5625903010368347,0.43538138270378113
1701865282189997600,0.90399755859375,2.450719118118286,-0.40483900904655457,0.4537068009376526
1701865282199591200,0.913591064453125,2.2699084281921387,-0.35108447074890137,0.4390464723110199
1701865282209184000,0.92318408203125,2.0145742893218994,-0.4428642690181732,0.3987305462360382
1701865282218776000,0.932776123046875,1.7604618072509766,-0.6114581227302551,0.33764582872390747
1701865282228369000,0.942368896484375,1.5747642517089844,-0.7226322889328003,0.26067906618118286
1701865282237962500,0.95196240234375,1.4660334587097168,-0.7140804529190063,0.18615570664405823
1701865282247555300,0.961555419921875,1.374406337738037,-0.5528167486190796,0.11896250396966934
1701865282257147400,0.9711474609375,1.2326897382736206,-0.24846212565898895,0.04932591691613197
1701865282266740200,0.980740234375,1.0506572723388672,0.1107160672545433,-0.036192700266838074
1701865282276333800,0.990333740234375,0.8893936276435852,0.4405735731124878,-0.14125843346118927
1701865282285926700,0.9999267578125,0.7843278646469116,0.6678087711334229,-0.2548760175704956
1701865282295518700,1.009518798828125,0.7220214605331421,0.7863131165504456,-0.358720064163208
1701865282305111600,1.019111572265625,0.6817055344581604,0.8327375054359436,-0.43324342370033264
1701865282314705200,1.028705078125,0.6426113247871399,0.8180772066116333,-0.4540122151374817
1701865282324298000,1.038298095703125,0.5974085927009583,0.728893518447876,-0.4136963188648224
1701865282333890000,1.04789013671875,0.5497625470161438,0.5908420085906982,-0.3110739588737488
1701865282343483100,1.057483154296875,0.5155550837516785,0.44423866271972656,-0.15836215019226074
1701865282353076700,1.06707666015625,0.5216635465621948,0.3171824514865875,0.0261137206107378
1701865282362669300,1.07666943359375,0.5864133834838867,0.22433365881443024,0.21303297579288483
1701865282372261400,1.086261474609375,0.7049177289009094,0.1498102843761444,0.3889569938182831
1701865282381854500,1.0958544921875,0.8527427911758423,0.05329642444849014,0.5467082858085632
1701865282391448000,1.105447998046875,0.9907942414283752,-0.11896250396966934,0.6872031688690186
1701865282401041000,1.115041015625,1.0934165716171265,-0.3633013963699341,0.8130376935005188
1701865282410632700,1.1246328125,1.155722975730896,-0.6407787799835205,0.9327637553215027
1701865282420225800,1.134225830078125,1.2070342302322388,-0.9144383668899536,1.0549331903457642
1701865282429819400,1.1438193359375,1.2717839479446411,-1.1575555801391602,1.1856545209884644
1701865282439412200,1.153412109375,1.3377554416656494,-1.3371446132659912,1.318819284439087
1701865282449004300,1.16300439453125,1.374406337738037,-1.4043378829956055,1.4470971822738647
1701865282458597000,1.17259716796875,1.3866232633590698,-1.3530266284942627,1.55338454246521
1701865282468190700,1.182190673828125,1.391510009765625,-1.216196894645691,1.6254645586013794
1701865282477783600,1.191783447265625,1.3792930841445923,-1.0683718919754028,1.6584503650665283
1701865282487375600,1.201375732421875,1.3194301128387451,-0.9107732772827148,1.6511201858520508
1701865282496968400,1.210968505859375,1.2045907974243164,-0.7201889157295227,1.609582543373108
1701865282506562000,1.22056201171875,1.0555440187454224,-0.5173876285552979,1.5277290344238281
1701865282516155000,1.23015478515625,0.9064973592758179,-0.34375429153442383,1.4006727933883667
1701865282525747000,1.239746826171875,0.7721109390258789,-0.19348587095737457,1.2345223426818848
1701865282535339800,1.24933984375,0.6438329815864563,-0.01511846948415041,1.0366077423095703
1701865282544933400,1.258933349609375,0.5265503525733948,0.1889045089483261,0.8301414251327515
1701865282554526200,1.268526123046875,0.43614494800567627,0.38193225860595703,0.624896764755249
1701865282564118300,1.2781181640625,0.38727715611457825,0.5358657836914062,0.43293800950050354
1701865282573711000,1.287711181640625,0.3689517378807068,0.6653653979301453,0.26312246918678284
1701865282583304700,1.2973046875,0.3701734244823456,0.7667660117149353,0.12140589207410812
1701865282592897500,1.3068974609375,0.37506023049354553,0.7948650121688843,0.01511846948415041
1701865282602489600,1.316489501953125,0.3555130958557129,0.7362236380577087,-0.054518118500709534
1701865282612082400,1.32608251953125,0.2980934679508209,0.6152759194374084,-0.08750387281179428
1701865282621676000,1.335676025390625,0.21257483959197998,0.4760027229785919,-0.08628217875957489
1701865282631268900,1.345268798828125,0.129499614238739,0.34405970573425293,-0.06429167091846466
1701865282640861000,1.35486083984375,0.0794101431965828,0.24876753985881805,-0.037414394319057465
1701865282650453800,1.364453857421875,0.07085828483104706,0.19745637476444244,-0.022754060104489326
1701865282660047600,1.374047607421875,0.10384403169155121,0.2011214643716812,-0.03008422814309597
1701865282669640200,1.38364013671875,0.16737215220928192,0.2279987335205078,-0.055739812552928925
1701865282679232300,1.393232177734375,0.24556060135364532,0.22311195731163025,-0.09605573117733002
1701865282688825300,1.402825439453125,0.33596599102020264,0.1754658818244934,-0.13514995574951172
1701865282698419000,1.4124189453125,0.45324867963790894,0.10827267915010452,-0.15591876208782196
1701865282708011800,1.42201171875,0.5864133834838867,0.017867282032966614,-0.1498102843761444
1701865282717603600,1.431603515625,0.7134696245193481,-0.12018419802188873,-0.1119377613067627
1701865282727196700,1.44119677734375,0.813648521900177,-0.31321191787719727,-0.039857782423496246
1701865282736790300,1.450790283203125,0.8845068216323853,-0.5430431962013245,0.06276455521583557
1701865282746383000,1.460383056640625,0.9333745837211609,-0.7641699314117432,0.18371231853961945
1701865282755975200,1.46997509765625,0.9871291518211365,-0.9413156509399414,0.2985515892505646
1701865282765568000,1.479568115234375,1.0616525411605835,-1.064706802368164,0.3840702176094055
1701865282775161600,1.48916162109375,1.156944751739502,-1.129456639289856,0.43415969610214233
1701865282784754400,1.49875439453125,1.2620104551315308,-1.1001359224319458,0.44759833812713623
1701865282794346500,1.508346435546875,1.3548592329025269,-0.9840749502182007,0.43293800950050354
1701865282803939300,1.517939208984375,1.41594398021698,-0.8338065147399902,0.40972578525543213
1701865282813533000,1.527532958984375,1.447708010673523,-0.7177455425262451,0.39262208342552185
1701865282823125800,1.537125732421875,1.462368369102478,-0.684759795665741,0.402395635843277
1701865282832717800,1.5467177734375,1.4733636379241943,-0.7348492741584778,0.44515493512153625
1701865282842310700,1.556310546875,1.4831371307373047,-0.8423583507537842,0.49890950322151184
1701865282851904300,1.565904296875,1.4733636379241943,-1.0121738910675049,0.5540384650230408
1701865282861497000,1.5754970703125,1.4440429210662842,-1.1795459985733032,0.6200099587440491
1701865282871089200,1.585089111328125,1.4220523834228516,-1.276059865951538,0.6945333480834961
1701865282880682000,1.594681884765625,1.437934398651123,-1.3273711204528809,0.7519529461860657
1701865282890275600,1.604275634765625,1.4977974891662598,-1.3603568077087402,0.7776085734367371
1701865282899868400,1.613868408203125,1.5882028341293335,-1.3750171661376953,0.7751652002334595
1701865282909460500,1.62346044921875,1.6712781190872192,-1.3921209573745728,0.7592831254005432
1701865282919053300,1.63305322265625,1.7250326871871948,-1.4263283014297485,0.7458444833755493
1701865282928647000,1.64264697265625,1.7482448816299438,-1.4910781383514404,0.7287407517433167
1701865282938239700,1.65223974609375,1.753131628036499,-1.5729316473007202,0.7006418108940125
1701865282947831800,1.661831787109375,1.7519099712371826,-1.6535634994506836,0.6652126908302307
1701865282957424600,1.671424560546875,1.7103723287582397,-1.7830631732940674,0.5748072862625122
1701865282967018200,1.681018310546875,1.6309621334075928,-1.9321098327636719,0.4011739492416382
1701865282976611000,1.690611083984375,1.595533013343811,-1.984642744064331,0.22280654311180115
1701865282986203100,1.700203125,1.5564388036727905,-1.8710252046585083,0.04688252881169319
1701865282995796000,1.7097958984375,1.4892456531524658,-1.544832706451416,-0.0850604772567749
1701865283005389600,1.7193896484375,1.3768497705459595,-1.113574504852295,-0.20967331528663635
1701865283014982400,1.728982421875,1.1948171854019165,-0.7165238261222839,-0.39292749762535095
1701865283024574500,1.738574462890625,0.9553651213645935,-0.39140036702156067,-0.6042806506156921
1701865283034167300,1.748167236328125,0.6988092660903931,-0.10185877978801727,-0.7765395641326904
1701865283043761200,1.75776123046875,0.46668729186058044,0.19867807626724243,-0.8742751479148865
1701865283053353700,1.767353759765625,0.27854636311531067,0.4747810363769531,-0.8974873423576355
1701865283062945800,1.77694580078125,0.13805148005485535,0.936581552028656,-0.5847335457801819
1701865283072538600,1.78653857421875,0.129499614238739,1.5205515623092651,0.40483900904655457
1701865283082132200,1.79613232421875,0.1172826737165451,1.1699252128601074,0.8228112459182739
1701865283091725000,1.80572509765625,-0.0390942245721817,0.3220692276954651,0.4940227270126343
1701865283101317000,1.815317138671875,-0.16737215220928192,-0.07986827939748764,-0.02641914412379265
1701865283110910200,1.82491015625,-0.17714570462703705,0.1901262104511261,-0.3208475112915039
1701865283120503800,1.83450390625,-0.06719319522380829,0.5676298141479492,-0.3855973184108734
1701865283130096400,1.844096435546875,0.05131116881966591,0.7044596076011658,-0.3599417507648468
1701865283139688400,1.8536884765625,0.10995250940322876,0.6348230242729187,-0.27320143580436707
1701865283149281500,1.863281494140625,0.09529217332601547,0.44668206572532654,-0.2011214643716812
1701865283158875100,1.872875244140625,0.06719319522380829,0.22677704691886902,-0.1901262104511261
1701865283168467700,1.8824677734375,0.0794101431965828,0.039857782423496246,-0.21211670339107513
1701865283178059800,1.892059814453125,0.13805148005485535,-0.07742489129304886,-0.24021568894386292
1701865283187652600,1.901652587890625,0.2101314514875412,-0.08231166750192642,-0.21333840489387512
1701865283197246500,1.91124658203125,0.2602209448814392,-0.06887302547693253,-0.11682453751564026
1701865283206839000,1.920839111328125,0.27854636311531067,-0.1519482582807541,0.013896775431931019
1701865283216431400,1.930431396484375,0.3029802441596985,-0.32665055990219116,0.10063708573579788
1701865283226024000,1.94002392578125,0.34451785683631897,-0.4831801950931549,0.12018419802188873
1701865283235617800,1.94961767578125,0.38483378291130066,-0.5638120174407959,0.06520794332027435
1701865283245210600,1.959210693359375,0.42514967918395996,-0.5748072862625122,-0.015423892997205257
1701865283254802700,1.968802734375,0.4850127100944519,-0.527161180973053,-0.06795676052570343
1701865283264395500,1.9783955078125,0.554649293422699,-0.45019441843032837,-0.08994726091623306
1701865283273989000,1.987989013671875,0.6316160559654236,-0.402395635843277,-0.10216420143842697
1701865283283582000,1.99758203125,0.7452336549758911,-0.3706315755844116,-0.12904147803783417
1701865283293174000,2.007174072265625,0.9028322696685791,-0.36574479937553406,-0.16813570261001587
1701865283302766800,2.016766845703125,1.035996913909912,-0.45263782143592834,-0.20356485247612
1701865283312360400,2.0263603515625,1.0885298252105713,-0.6212316751480103,-0.24632415175437927
1701865283321953300,2.035953369140625,1.086086392402649,-0.7776085734367371,-0.30007871985435486
1701865283331545300,2.04554541015625,1.1117420196533203,-0.8496885299682617,-0.3501681983470917
1701865283341138200,2.05513818359375,1.1642749309539795,-0.81425940990448,-0.4027010500431061
1701865283350731800,2.064731689453125,1.2180293798446655,-0.7262973785400391,-0.462564080953598
1701865283360324600,2.07432470703125,1.2705622911453247,-0.6542174220085144,-0.5248705148696899
1701865283369916700,2.083916748046875,1.327981948852539,-0.6310052275657654,-0.5969504714012146
1701865283379509500,2.093509521484375,1.392731785774231,-0.6505523324012756,-0.6714738607406616
1701865283389103000,2.10310302734375,1.4587032794952393,-0.7153021693229675,-0.7301151752471924
1701865283398696000,2.112696044921875,1.5539953708648682,-0.8386932611465454,-0.775317907333374
1701865283408288000,2.1222880859375,1.6138584613800049,-0.8448017835617065,-0.7508839964866638
1701865283417880800,2.131880859375,1.3304253816604614,-0.5699204802513123,-0.4491254389286041
1701865283427474400,2.141474365234375,0.9761339426040649,-0.5198310017585754,-0.1375933438539505
1701865283437067300,2.1510673828125,0.786771297454834,-0.6261184215545654,-0.06429167091846466
1701865283446659300,2.160659423828125,0.8991671800613403,-0.5051707029342651,-0.11804623156785965
1701865283456252200,2.170252197265625,1.0237799882888794,-0.22402822971343994,-0.3220692276954651
1701865283465845800,2.179845703125,1.100746750831604,0.19623468816280365,-0.5700731873512268
1701865283475438600,2.1894384765625,1.1227372884750366,0.5236487984657288,-0.7435538172721863
1701865283485030700,2.19903076171875,1.1019684076309204,0.5126535892486572,-0.7740961909294128
1701865283494623500,2.20862353515625,0.9969027042388916,0.14736689627170563,-0.645818293094635
1701865283504217000,2.218217041015625,0.856407880783081,-0.3975088596343994,-0.42224815487861633
1701865283513810000,2.227809814453125,0.8050966858863831,-0.7849387526512146,-0.2170034945011139
1701865283523402000,2.237402099609375,0.8942803740501404,-0.8521319031715393,-0.07040014863014221
1701865283532994800,2.246994873046875,0.9969027042388916,-0.6493306159973145,0.013896775431931019
1701865283542588400,2.25658837890625,1.0408837795257568,-0.45019441843032837,0.012675080448389053
1701865283552181200,2.26618115234375,1.0176715850830078,-0.42576053738594055,-0.023975754156708717
1701865283561773300,2.275773193359375,0.9700254201889038,-0.5222744345664978,-0.025197450071573257
1701865283571366100,2.2853662109375,0.9382613897323608,-0.5674771070480347,-0.025197450071573257
1701865283580959700,2.294959716796875,0.9199360013008118,-0.5210527181625366,-0.09239064902067184
1701865283590552600,2.304552490234375,0.9101623892784119,-0.4294256269931793,-0.21822518110275269
1701865283600144600,2.31414453125,0.9077190160751343,-0.3180987238883972,-0.32573428750038147
1701865283609737500,2.323737548828125,0.971247136592865,-0.14095300436019897,-0.3733803927898407
1701865283619331000,2.3333310546875,1.0482138395309448,0.016645587980747223,-0.4136963188648224
1701865283628924000,2.342923828125,1.0616525411605835,0.03497100621461868,-0.43324342370033264
1701865283638516000,2.352515869140625,1.054322361946106,-0.052990999072790146,-0.40514445304870605
1701865283648108800,2.36210888671875,1.0567657947540283,-0.1519482582807541,-0.333064466714859
1701865283657702400,2.371702392578125,1.0677610635757446,-0.24846212565898895,-0.24632415175437927
1701865283667295200,2.381295166015625,1.0836430788040161,-0.4109475016593933,-0.16935740411281586
1701865283676887300,2.39088720703125,1.100746750831604,-0.6346703171730042,-0.08750387281179428
1701865283686480100,2.400480224609375,1.0787562131881714,-0.7886037826538086,-0.010537114925682545
1701865283696073700,2.41007373046875,1.0518789291381836,-0.7617265582084656,0.020005248486995697
1701865283705666600,2.41966650390625,1.0555440187454224,-0.6432221531867981,-0.02764083817601204
1701865283715258600,2.429258544921875,1.0750911235809326,-0.5149442553520203,-0.18401773273944855
1701865283724851500,2.4388515625,1.0750911235809326,-0.39384377002716064,-0.4405735731124878
1701865283734445000,2.448445068359375,1.014006495475769,-0.37918344140052795,-0.6983511447906494
1701865283744038000,2.458037841796875,0.8796200752258301,-0.444085955619812,-0.8999307155609131
1701865283753630000,2.4676298828125,0.712247908115387,-0.5467082858085632,-1.0062181949615479
1701865283763222800,2.477222900390625,0.5277720093727112,-0.5992411375045776,-1.0501991510391235
1701865283772816400,2.48681640625,0.33230090141296387,-0.527161180973053,-1.0941801071166992
1701865283782409200,2.4964091796875,0.18081079423427582,-0.3596363365650177,-1.1784770488739014
1701865283792001300,2.506001220703125,0.11483928561210632,-0.17149536311626434,-1.200467586517334
1701865283801594000,2.515593994140625,0.26632940769195557,-0.032222192734479904,-1.1198357343673706
1701865283811187700,2.525187744140625,0.7085828185081482,0.7166765332221985,-0.8486195802688599
1701865283820780500,2.534780517578125,1.115407109260559,1.3324105739593506,-0.4796678125858307
1701865283830372600,2.54437255859375,1.1349542140960693,1.3263020515441895,-0.15714046359062195
1701865283839965400,2.55396533203125,0.9077190160751343,1.0868499279022217,0.2411319613456726
1701865283849559000,2.56355908203125,0.6487197875976562,0.7227849960327148,0.8105943202972412
1701865283859152000,2.57315185546875,0.448361873626709,0.5468609929084778,1.364021897315979
1701865283868744000,2.582743896484375,0.19424942135810852,0.853506326675415,1.6584503650665283
1701865283878336800,2.592336669921875,-0.11117420345544815,0.7203416228294373,1.8881288766860962
1701865283887930400,2.601930419921875,-0.37383851408958435,0.4014793634414673,2.2399768829345703
1701865283897523200,2.611523193359375,-0.53143709897995,0.6739172339439392,2.6345841884613037
1701865283907115300,2.621115234375,-0.4324798583984375,1.2530004978179932,2.8825881481170654
1701865283916708000,2.6307080078125,0.05986303091049194,1.2957597970962524,2.604041814804077
1701865283926301700,2.6403017578125,0.7647807598114014,0.5566345453262329,1.3847907781600952
1701865283935894500,2.64989453125,1.4171656370162964,0.023975754156708717,-0.2573194205760956
1701865283945486600,2.659486572265625,1.9962488412857056,-0.7458444833755493,-1.7209094762802124
1701865283955079400,2.669079345703125,2.326106309890747,-1.6389031410217285,-2.444152593612671
1701865283964673000,2.678673095703125,2.2931206226348877,-2.0176284313201904,-2.256011724472046
1701865283974265900,2.688265869140625,2.039008140563965,-1.1624423265457153,-1.2187930345535278
1701865283983858000,2.69785791015625,1.6480659246444702,-0.11896250396966934,0.05665608495473862
1701865283993450800,2.70745068359375,1.4672551155090332,0.15958385169506073,0.6591041684150696
1701865284003044400,2.71704443359375,1.572320818901062,0.04107947647571564,0.5748072862625122
1701865284012637200,2.72663720703125,1.6578394174575806,-0.164165198802948,0.2802261710166931
1701865284022229200,2.736229248046875,1.5161229372024536,-0.19348587095737457,0.11774080991744995
1701865284031822000,2.745822021484375,1.1948171854019165,-0.04932591691613197,0.004123218823224306
1701865284041415700,2.755415771484375,0.836860716342926,0.1107160672545433,-0.1620272397994995
1701865284051008500,2.765008544921875,0.4727957844734192,0.1522536724805832,-0.3171824514865875
1701865284060600600,2.7746005859375,0.04153761267662048,-0.011453386396169662,-0.27808821201324463
1701865284070193400,2.784193359375,-0.2626643180847168,-0.13973131775856018,-0.009315420873463154
1701865284079787000,2.793787109375,-0.30664533376693726,-0.19226416945457458,0.13973131775856018
1701865284089379800,2.8033798828125,-0.12339114397764206,-0.23991025984287262,0.09086353331804276
1701865284098972000,2.812971923828125,-0.04886778071522713,-0.2667875289916992,0.011453386396169662
1701865284108564700,2.822564697265625,-0.05497625470161438,-0.25945737957954407,-0.02641914412379265
1701865284118158300,2.832158447265625,-0.061084724962711334,-0.25945737957954407,-0.04352286830544472
1701865284127751200,2.841751220703125,-0.05864133685827255,-0.2777827978134155,-0.06306997686624527
1701865284137343200,2.85134326171875,-0.0525328628718853,-0.2777827978134155,-0.07773031294345856
1701865284146936000,2.86093603515625,-0.05864133685827255,-0.27656111121177673,-0.08383878320455551
1701865284156529700,2.87052978515625,-0.0781884491443634,-0.2973299026489258,-0.09483403712511063
1701865284166122500,2.88012255859375,-0.10995250940322876,-0.32665055990219116,-0.10582929104566574
1701865284175714600,2.889714599609375,-0.13316470384597778,-0.33886751532554626,-0.10094250738620758
1701865284185307400,2.899307373046875,-0.15026842057704926,-0.3461976945400238,-0.08383878320455551
1701865284194901000,2.90890087890625,-0.16004198789596558,-0.35352784395217896,-0.06551336497068405
1701865284204493800,2.918493896484375,-0.15515519678592682,-0.3461976945400238,-0.04718795046210289
1701865284214086000,2.9280859375,-0.15515519678592682,-0.3315373361110687,-0.0325276181101799
1701865284223678700,2.9376787109375,-0.16370706260204315,-0.33031564950942993,-0.019088976085186005
1701865284233272300,2.947272216796875,-0.17470231652259827,-0.35230615735054016,-0.016645587980747223
1701865284242865200,2.956865234375,-0.17836740612983704,-0.3828485310077667,-0.017867282032966614
1701865284252457200,2.966457275390625,-0.17836740612983704,-0.4109475016593933,-0.021532366052269936
1701865284262050000,2.976050048828125,-0.18569757044315338,-0.4282039403915405,-0.03130592033267021
1701865284271643600,2.9856435546875,-0.20157960057258606,-0.4355340898036957,-0.04230117425322533
1701865284281236500,2.995236572265625,-0.21990501880645752,-0.4844018816947937,-0.036192700266838074
1701865284290828500,3.00482861328125,-0.24678228795528412,-0.6725428104400635,0.0065666078589856625
1701865284300421400,3.01442138671875,-0.26877278089523315,-0.503948986530304,-0.02641914412379265
1701865284310015000,3.024014892578125,-0.25777754187583923,-0.32542887330055237,-0.03008422814309597
1701865284319607800,3.03360791015625,-0.258999228477478,-0.3095468580722809,0.0029015245381742716
1701865284329199900,3.043199951171875,-0.2748812735080719,-0.2680092453956604,0.007788302376866341
1701865284338792700,3.052792724609375,-0.258999228477478,-0.18126893043518066,0.0016798300202935934
1701865284348386300,3.06238623046875,-0.21379654109477997,-0.2301367074251175,-0.009315420873463154
1701865284357979100,3.071979248046875,-0.18936264514923096,-0.39384377002716064,-0.0068720318377017975
1701865284367571200,3.0815712890625,-0.20524467527866364,-0.5821374654769897,0.028557108715176582
1701865284377164000,3.0911640625,-0.20280128717422485,-0.8655705451965332,0.052990999072790146
1701865284386757600,3.100757568359375,-0.15515519678592682,-0.6053496599197388,-0.04474456235766411
1701865284396350500,3.1103505859375,-0.10628741979598999,-0.6615476012229919,-0.020310672000050545
1701865284405942500,3.119942626953125,-0.11483928561210632,-0.7715001106262207,0.11896250396966934
1701865284415535400,3.129535400390625,-0.16370706260204315,-0.5613686442375183,0.21425467729568481
1701865284425129000,3.13912890625,-0.1832541823387146,-0.41827765107154846,0.2985515892505646
1701865284434721800,3.1487216796875,-0.1698155403137207,-0.4330907166004181,0.3828485310077667
1701865284444313900,3.15831396484375,-0.130721315741539,-0.5051707029342651,0.4378247857093811
1701865284453906400,3.167906494140625,-0.0794101431965828,-0.5967977643013,0.4634803533554077
1701865284463500300,3.177500244140625,-0.03298575058579445,-0.6957550048828125,0.4647020399570465
1701865284473093000,3.187093017578125,0,-0.7739434838294983,0.45981526374816895
1701865284482685000,3.196684814453125,0.021990500390529633,-0.8191461563110352,0.45737189054489136
1701865284492277800,3.20627783203125,0.03542914241552353,-0.846023440361023,0.45615020394325256
1701865284501871600,3.21587158203125,0.04031591862440109,-0.8643488883972168,0.45859357714653015
1701865284511464200,3.225464111328125,0.03420744836330414,-0.8826742768287659,0.45737189054489136
1701865284521056300,3.23505615234375,0.02076880633831024,-0.9071081876754761,0.4524851143360138
1701865284530649300,3.2446494140625,0.004886778071522713,-0.9339854717254639,0.44759833812713623
1701865284540243000,3.254242919921875,-0.010995250195264816,-0.9559759497642517,0.4402681589126587
1701865284549835500,3.26383544921875,-0.025655584409832954,-0.9645278453826904,0.4243861436843872
1701865284559427600,3.273427490234375,-0.0390942245721817,-0.9620844125747681,0.399952232837677
1701865284569020400,3.2830205078125,-0.04886778071522713,-0.9547542929649353,0.36818817257881165
1701865284578614300,3.2926142578125,-0.05497625470161438,-0.9474241137504578,0.3327590525150299
1701865284588206800,3.302206787109375,-0.05741964280605316,-0.9413156509399414,0.29977330565452576
1701865284597799000,3.311798828125,-0.05864133685827255,-0.938872218132019,0.2692309319972992
1701865284607391700,3.321391845703125,-0.05619794875383377,-0.9376505613327026,0.2435753494501114
1701865284616985300,3.3309853515625,-0.0525328628718853,-0.9352071285247803,0.21791976690292358
1701865284626578200,3.340578125,-0.05375456064939499,-0.9339854717254639,0.19348587095737457
1701865284636170200,3.350170166015625,-0.05497625470161438,-0.9242119193077087,0.17271706461906433
1701865284645763000,3.35976318359375,-0.061084724962711334,-0.9095515608787537,0.15561333298683167
1701865284655357000,3.36935693359375,-0.07330167293548584,-0.892447829246521,0.14217470586299896
1701865284664949500,3.378949462890625,-0.08796200156211853,-0.8741224408149719,0.12873606383800507
1701865284674541600,3.38854150390625,-0.10140064358711243,-0.8594620823860168,0.11285403370857239
1701865284684134400,3.398134521484375,-0.11239589750766754,-0.8533536195755005,0.10063708573579788
1701865284693728000,3.40772802734375,-0.1185043677687645,-0.8582404255867004,0.09208522737026215
1701865284703320800,3.41732080078125,-0.1185043677687645,-0.8667922616004944,0.08842013776302338
1701865284712913000,3.426912841796875,-0.11117420345544815,-0.8802309036254883,0.09208522737026215
1701865284722505700,3.436505615234375,-0.10017894953489304,-0.8912261724472046,0.0981936976313591
1701865284732099300,3.446099365234375,-0.08796200156211853,-0.9034430980682373,0.10308047384023666
1701865284741692200,3.455692138671875,-0.0781884491443634,-0.9107732772827148,0.0981936976313591
1701865284751284200,3.4652841796875,-0.06963659077882767,-0.9083298444747925,0.0847550556063652
1701865284760877000,3.474876953125,-0.06719319522380829,-0.9022213816642761,0.06276455521583557
1701865284770470700,3.484470703125,-0.06963659077882767,-0.8900044560432434,0.033443886786699295
1701865284780063500,3.4940634765625,-0.07696675509214401,-0.8716790676116943,-0.0032069480512291193
1701865284789655600,3.503655517578125,-0.08796200156211853,-0.8484668135643005,-0.04352286830544472
1701865284799248400,3.513248291015625,-0.10750912129878998,-0.8252546191215515,-0.09116895496845245
1701865284808842000,3.522842041015625,-0.13560809195041656,-0.7983773946762085,-0.14370182156562805
1701865284818434800,3.532434814453125,-0.16615045070648193,-0.7617265582084656,-0.2011214643716812
1701865284828027000,3.54202685546875,-0.19180603325366974,-0.7153021693229675,-0.2683146595954895
1701865284837619700,3.55161962890625,-0.2089097648859024,-0.6737645268440247,-0.34161633253097534
1701865284847213300,3.56121337890625,-0.22601348161697388,-0.633448600769043,-0.42224815487861633
1701865284856806100,3.57080615234375,-0.24678228795528412,-0.5906893014907837,-0.5102101564407349
1701865284866398200,3.580398193359375,-0.27121618390083313,-0.5454866290092468,-0.6140542030334473
1701865284875991000,3.589990966796875,-0.29442837834358215,-0.4856235682964325,-0.724006712436676
1701865284885584600,3.599584716796875,-0.31886225938796997,-0.40361732244491577,-0.8327375054359436
1701865284895177500,3.609177490234375,-0.3432961702346802,-0.3242071866989136,-0.9329164624214172
1701865284904769500,3.61876953125,-0.3555130958557129,-0.25090551376342773,-1.0208784341812134
1701865284914362400,3.6283623046875,-0.35795649886131287,-0.1898207813501358,-1.0905150175094604
1701865284923956000,3.6379560546875,-0.34818294644355774,-0.1372879147529602,-1.1393828392028809
1701865284933548800,3.647548828125,-0.3176405727863312,-0.06765133142471313,-1.1833637952804565
1701865284943140900,3.657140869140625,-0.30664533376693726,-0.05665608495473862,-1.2065759897232056
1701865284952733700,3.666733642578125,-0.3164188861846924,-0.05787777900695801,-1.2175712585449219
1701865284962327300,3.676327392578125,-0.3249707520008087,-0.14828316867351532,-1.1833637952804565
1701865284971920000,3.685919921875,-0.33474430441856384,-0.2423536479473114,-1.1332744359970093
1701865284981512200,3.69551220703125,-0.3811686933040619,-0.2533488869667053,-1.0819631814956665
1701865284991104800,3.705104736328125,-0.4446968138217926,-0.14339639246463776,-1.0013313293457031
1701865285000698600,3.71469873046875,-0.5131117105484009,-0.0261137206107378,-0.9292513728141785
1701865285010291500,3.72429150390625,-0.5656445622444153,0.07528692483901978,-0.9011524319648743
1701865285019883300,3.73388330078125,-0.6047387719154358,0.1754658818244934,-0.8412894010543823
1701865285029476000,3.74347607421875,-0.624285876750946,0.23655059933662415,-0.7582141757011414
1701865285039070000,3.753070068359375,-0.6633801460266113,0.24021568894386292,-0.709346354007721
1701865285048662500,3.76266259765625,-0.6817055344581604,0.13514995574951172,-0.6482616662979126
1701865285058254600,3.772254638671875,-0.6474980711936951,0.04352286830544472,-0.5725166201591492
1701865285067847400,3.781847412109375,-0.624285876750946,0.009315420873463154,-0.4955498278141022
1701865285077441000,3.79144091796875,-0.6047387719154358,0.04107947647571564,-0.3880407214164734
1701865285087033900,3.801033935546875,-0.5741963982582092,0.04474456235766411,-0.24632415175437927
1701865285096626000,3.8106259765625,-0.49356457591056824,0.0594048947095871,-0.08994726091623306
1701865285106218800,3.82021875,-0.4227063059806824,0.072843536734581,0.08842013776302338
1701865285115812400,3.829812255859375,-0.3518480062484741,0.08994726091623306,0.2545706033706665
1701865285125405200,3.8394052734375,-0.28098973631858826,0.11560284346342087,0.39140036702156067
1701865285134997200,3.848997314453125,-0.21379654109477997,0.13148486614227295,0.4769189953804016
1701865285144590000,3.858590087890625,-0.15026842057704926,0.15469707548618317,0.5196782946586609
1701865285154183700,3.86818359375,-0.09529217332601547,0.1901262104511261,0.5308262705802917
1701865285163776500,3.877776611328125,-0.046424392610788345,0.2157817929983139,0.5172349214553833
1701865285173368600,3.88736865234375,0.009773556143045425,0.23288552463054657,0.4769189953804016
1701865285182961400,3.89696142578125,0.07207997888326645,0.24998924136161804,0.41827765107154846
1701865285192555000,3.906554931640625,0.13682979345321655,0.2817533016204834,0.3620797097682953
1701865285202147800,3.91614794921875,0.21746163070201874,0.32695600390434265,0.3217637836933136
1701865285211740000,3.925739990234375,0.3042019307613373,0.3709369897842407,0.28999972343444824
1701865285221332700,3.935332763671875,0.4031592011451721,0.40636613965034485,0.26434415578842163
1701865285230926300,3.94492626953125,0.4752391576766968,0.4027010500431061,0.2545706033706665
1701865285240519200,3.954519287109375,0.4825693368911743,0.3953709006309509,0.25212720036506653
1701865285250111200,3.964111328125,0.48989951610565186,0.39170581102371216,0.25090551376342773
1701865285259704000,3.9737041015625,0.5375455617904663,0.3892624080181122,0.2545706033706665
1701865285269297700,3.983297607421875,0.605960488319397,0.38071054220199585,0.2667875289916992
1701865285278890500,3.992890380859375,0.6584933400154114,0.32695600390434265,0.2777827978134155
1701865285288482600,4.002482666015625,0.6694886088371277,0.2536543309688568,0.2973299026489258
1701865285298075400,4.012075439453125,0.6303943991661072,0.17424418032169342,0.32909396290779114
1701865285307669000,4.0216689453125,0.5522059202194214,0.12171131372451782,0.3608580231666565
1701865285317261800,4.03126171875,0.45080527663230896,0.10949437320232391,0.3742966651916504
1701865285326853600,4.040853515625,0.3384093940258026,0.13148486614227295,0.36696648597717285
1701865285336446500,4.050446533203125,0.24067382514476776,0.2157817929983139,0.3315373361110687
1701865285346040300,4.060040283203125,0.16126367449760437,0.3367295563220978,0.2826695740222931
1701865285355633000,4.0696328125,0.10262233763933182,0.44668206572532654,0.2289150059223175
1701865285365225000,4.079224853515625,0.07574506103992462,0.5248705148696899,0.1751604527235031
1701865285374817800,4.08881787109375,0.0659715011715889,0.5651864409446716,0.1250709742307663
1701865285384411600,4.09841162109375,0.06719319522380829,0.5920637249946594,0.08231166750192642
1701865285394004200,4.108004150390625,0.05864133685827255,0.5822901725769043,0.0456608310341835
1701865285403596300,4.11759619140625,0.047646086663007736,0.5493044257164001,0.011453386396169662
1701865285413189000,4.127189208984375,0.05741964280605316,0.5236487984657288,-0.014202198944985867
1701865285422782700,4.13678271484375,0.08429691940546036,0.4821111857891083,-0.023975754156708717
1701865285432375600,4.14637548828125,0.10995250940322876,0.4918847680091858,-0.02886253222823143
1701865285441967600,4.155967529296875,0.13316470384597778,0.5089884996414185,-0.025197450071573257
1701865285451560400,4.165560546875,0.14049486815929413,0.5102101564407349,-0.01175880990922451
1701865285461154000,4.175154052734375,0.15149012207984924,0.5297572612762451,0.0029015245381742716
1701865285470747000,4.184746826171875,0.16370706260204315,0.5273138880729675,0.018783552572131157
1701865285480339000,4.1943388671875,0.1698155403137207,0.5236487984657288,0.032222192734479904
1701865285489931800,4.203931884765625,0.17958909273147583,0.5187620520591736,0.04199574887752533
1701865285499525400,4.213525390625,0.1979145109653473,0.5041016936302185,0.052990999072790146
1701865285509118200,4.2231181640625,0.21501824259757996,0.48577627539634705,0.06887302547693253
1701865285518710300,4.232710205078125,0.21501824259757996,0.43324342370033264,0.0859767496585846
1701865285528303000,4.24230322265625,0.1979145109653473,0.3880407214164734,0.10185877978801727
1701865285537896700,4.251896728515625,0.17348061501979828,0.35261157155036926,0.11651911586523056
1701865285547489500,4.261489501953125,0.14782503247261047,0.31351736187934875,0.13117945194244385
1701865285557081600,4.27108154296875,0.11972606182098389,0.27442312240600586,0.14217470586299896
1701865285566674400,4.28067431640625,0.09284878522157669,0.24754585325717926,0.15439164638519287
1701865285576268000,4.29026806640625,0.07330167293548584,0.22555534541606903,0.17393875122070312
1701865285585860900,4.29986083984375,0.05375456064939499,0.18646112084388733,0.19715094566345215
1701865285595453000,4.309452880859375,0.024433890357613564,0.15591876208782196,0.21914145350456238
1701865285605045500,4.31904541015625,0,0.13270656764507294,0.2423536479473114
1701865285614639400,4.328639404296875,-0.01588202826678753,0.09727742522954941,0.26434415578842163
1701865285624232200,4.338232177734375,-0.021990500390529633,0.06795676052570343,0.2838912606239319
1701865285633824000,4.347823974609375,-0.024433890357613564,0.05085303261876106,0.29977330565452576
1701865285643416800,4.357416748046875,-0.01588202826678753,0.056961506605148315,0.31199023127555847
1701865285653010700,4.3670107421875,-0.013438640162348747,0.03497100621461868,0.31687700748443604
1701865285662603300,4.376603271484375,-0.01710372418165207,0.02764083817601204,0.3083251416683197
1701865285672195300,4.3861953125,-0.02076880633831024,0.04352286830544472,0.2948864996433258
1701865285681788200,4.3957880859375,-0.026877280324697495,0.06429167091846466,0.2777827978134155
1701865285691381800,4.4053818359375,-0.03298575058579445,0.08628217875957489,0.26067906618118286
1701865285700974600,4.414974609375,-0.03420744836330414,0.10338589549064636,0.24601873755455017
1701865285710566700,4.424566650390625,-0.030542362481355667,0.11315945535898209,0.2289150059223175
1701865285720159500,4.434159423828125,-0.025655584409832954,0.12171131372451782,0.21058958768844604
1701865285729753000,4.443753173828125,-0.021990500390529633,0.13270656764507294,0.19592925906181335
1701865285739346000,4.453345947265625,-0.01832541823387146,0.14736689627170563,0.18126893043518066
1701865285748938000,4.46293798828125,-0.014660334214568138,0.15836215019226074,0.1629435122013092
1701865285758530800,4.47253076171875,-0.012216945178806782,0.16080553829669952,0.14095300436019897
1701865285768124400,4.48212451171875,-0.010995250195264816,0.1522536724805832,0.1104106456041336
1701865285777717200,4.49171728515625,-0.009773556143045425,0.1375933438539505,0.07864658534526825
1701865285787309300,4.501309326171875,-0.012216945178806782,0.1241547018289566,0.052990999072790146
1701865285796902100,4.510902099609375,-0.01710372418165207,0.11560284346342087,0.033443886786699295
1701865285806495700,4.520495849609375,-0.024433890357613564,0.10705098509788513,0.02244863659143448
1701865285816088600,4.530088623046875,-0.03420744836330414,0.09605573117733002,0.017561858519911766
1701865285825680600,4.5396806640625,-0.045202698558568954,0.08383878320455551,0.013896775431931019
1701865285835273500,4.5492734375,-0.0525328628718853,0.06673506647348404,0.01511846948415041
1701865285844867000,4.5588671875,-0.05497625470161438,0.04474456235766411,0.018783552572131157
1701865285854460000,4.5684599609375,-0.0525328628718853,0.019088976085186005,0.02367033064365387
1701865285864051700,4.5780517578125,-0.046424392610788345,-0.0016798300202935934,0.029778804630041122
1701865285873644500,4.58764453125,-0.04031591862440109,-0.013896775431931019,0.034665580838918686
1701865285883238400,4.59723828125,-0.03542914241552353,-0.02489202655851841,0.034665580838918686
1701865285892831000,4.6068310546875,-0.03298575058579445,-0.033443886786699295,0.032222192734479904
1701865285902423000,4.616423095703125,-0.03176405653357506,-0.0456608310341835,0.02489202655851841
1701865285912016000,4.626015869140625,-0.029320668429136276,-0.05421269312500954,0.018783552572131157
1701865285921609500,4.635609375,-0.028098974376916885,-0.05787777900695801,0.016340164467692375
1701865285931202300,4.645202392578125,-0.028098974376916885,-0.05665608495473862,0.020005248486995697
1701865285940794400,4.65479443359375,-0.028098974376916885,-0.05421269312500954,0.02733541466295719
1701865285950387200,4.66438720703125,-0.025655584409832954,-0.05421269312500954,0.03955236077308655
1701865285959980800,4.673980712890625,-0.01832541823387146,-0.052990999072790146,0.050547610968351364
1701865285969573600,4.68357373046875,-0.007330167107284069,-0.050547610968351364,0.06032116711139679
1701865285979165700,4.693165771484375,0.006108472589403391,-0.050547610968351364,0.06642963737249374
1701865285988758500,4.702758544921875,0.01710372418165207,-0.052990999072790146,0.07009471952915192
1701865285998352100,4.71235205078125,0.025655584409832954,-0.052990999072790146,0.06642963737249374
1701865286007945000,4.721945068359375,0.026877280324697495,-0.050547610968351364,0.05665608495473862
1701865286017537000,4.731537109375,0.02076880633831024,-0.04688252881169319,0.04321744292974472
1701865286027129900,4.7411298828125,0.008551862090826035,-0.04443913698196411,0.02733541466295719
1701865286036723500,4.750723388671875,-0.0024433890357613564,-0.0456608310341835,0.011453386396169662
1701865286046316300,4.76031640625,-0.012216945178806782,-0.052990999072790146,-0.0032069480512291193
1701865286055908400,4.769908447265625,-0.021990500390529633,-0.06276455521583557,-0.014202198944985867
1701865286065501200,4.779501220703125,-0.030542362481355667,-0.07498150318861008,-0.017867282032966614
1701865286075094800,4.7890947265625,-0.04153761267662048,-0.08964183181524277,-0.019088976085186005
1701865286084687600,4.7986875,-0.05008947476744652,-0.111632339656353,-0.019088976085186005
1701865286094279400,4.808279541015625,-0.05619794875383377,-0.1360662281513214,-0.015423892997205257
1701865286103872300,4.817872314453125,-0.05741964280605316,-0.16538690030574799,-0.004428642801940441
1701865286113465900,4.8274658203125,-0.05131116881966591,-0.2020377367734909,0.012675080448389053
1701865286123058700,4.83705859375,-0.03787253051996231,-0.2411319613456726,0.032222192734479904
1701865286132650800,4.846650634765625,-0.01954711228609085,-0.2826695740222931,0.05543438717722893
1701865286142243600,4.85624365234375,-0.008551862090826035,-0.3205420970916748,0.07742489129304886
1701865286151837200,4.865837158203125,0.004886778071522713,-0.3461976945400238,0.09086353331804276
1701865286161430000,4.875429931640625,0.021990500390529633,-0.3633013963699341,0.10308047384023666
1701865286171022000,4.88502197265625,0.045202698558568954,-0.376740038394928,0.11774080991744995
1701865286180615000,4.894614990234375,0.05741964280605316,-0.38162681460380554,0.13117945194244385
1701865286190208500,4.90420849609375,0.06719319522380829,-0.3840702176094055,0.1372879147529602
1701865286199801300,4.91380126953125,0.07696675509214401,-0.3730749487876892,0.1372879147529602
1701865286209393400,4.923393310546875,0.08551861345767975,-0.3694098889827728,0.13484452664852142
1701865286218986200,4.932986328125,0.0794101431965828,-0.3706315755844116,0.12995775043964386
1701865286228579800,4.942579833984375,0.06841489672660828,-0.35474956035614014,0.12140589207410812
1701865286238172700,4.952172607421875,0.05741964280605316,-0.3327590525150299,0.111632339656353
1701865286247764700,4.9617646484375,0.042759306728839874,-0.31199023127555847,0.09941539168357849
1701865286257357600,4.971357666015625,0.03542914241552353,-0.2912214398384094,0.0859767496585846
1701865286266951200,4.980951171875,0.026877280324697495,-0.27411770820617676,0.07620319724082947
1701865286276544000,4.9905439453125,0.01588202826678753,-0.26312246918678284,0.0713164210319519
1701865286286135800,5.0001357421875,0.01832541823387146,-0.2411319613456726,0.06398624926805496
1701865286295728600,5.009728759765625,0.01954711228609085,-0.24479703605175018,0.07009471952915192
1701865286305322500,5.019322509765625,0.012216945178806782,-0.2423536479473114,0.08108997344970703
1701865286314915000,5.0289150390625,0.01588202826678753,-0.23502348363399506,0.09208522737026215
1701865286324507100,5.038507080078125,0.023212196305394173,-0.23746687173843384,0.09941539168357849
1701865286334100000,5.048099853515625,0.0390942245721817,-0.23868857324123383,0.10308047384023666
1701865286343693600,5.057693603515625,0.045202698558568954,-0.24968381226062775,0.10918894410133362
1701865286353286400,5.067286376953125,0.04886778071522713,-0.25212720036506653,0.11285403370857239
1701865286362878500,5.07687841796875,0.05497625470161438,-0.2557922899723053,0.111632339656353
1701865286372471300,5.08647119140625,0.05864133685827255,-0.2533488869667053,0.1104106456041336
1701865286382065000,5.09606494140625,0.061084724962711334,-0.24601873755455017,0.10552386194467545
1701865286391657700,5.10565771484375,0.061084724962711334,-0.2301367074251175,0.10063708573579788
1701865286401249800,5.115249755859375,0.05864133685827255,-0.21058958768844604,0.09452861547470093
1701865286410842600,5.124842529296875,0.05375456064939499,-0.1898207813501358,0.08231166750192642
1701865286420436200,5.134436279296875,0.043981000781059265,-0.17271706461906433,0.06520794332027435
1701865286430029000,5.144029052734375,0.03420744836330414,-0.15927842259407043,0.04688252881169319
1701865286439621000,5.15362109375,0.023212196305394173,-0.15927842259407043,0.028557108715176582
1701865286449214000,5.1632138671875,0.010995250195264816,-0.17149536311626434,0.011453386396169662
1701865286458807600,5.1728076171875,0.0036650835536420345,-0.188599094748497,0.0004581354442052543
1701865286468400000,5.182400146484375,-0.006108472589403391,-0.21181128919124603,-0.0068720318377017975
1701865286477992200,5.1919921875,-0.01710372418165207,-0.22402822971343994,-0.0068720318377017975
1701865286487585000,5.2015849609375,-0.028098974376916885,-0.23502348363399506,-0.005650337319821119
1701865286497178600,5.2111787109375,-0.03787253051996231,-0.23991025984287262,-0.0032069480512291193
1701865286506771500,5.220771484375,-0.045202698558568954,-0.23868857324123383,0.0004581354442052543
1701865286516363500,5.230363525390625,-0.0525328628718853,-0.23746687173843384,0.005344913341104984
1701865286525956400,5.239956298828125,-0.06352811306715012,-0.23746687173843384,0.010231691412627697
1701865286535550000,5.249550048828125,-0.07452336698770523,-0.23991025984287262,0.013896775431931019
1701865286545142800,5.259142822265625,-0.0794101431965828,-0.24724042415618896,0.017561858519911766
1701865286554734800,5.26873486328125,-0.08185353130102158,-0.24968381226062775,0.02367033064365387
1701865286564327700,5.27832763671875,-0.08307522535324097,-0.2435753494501114,0.032222192734479904
1701865286573921300,5.28792138671875,-0.0781884491443634,-0.23258009552955627,0.03955236077308655
1701865286583514000,5.29751416015625,-0.0781884491443634,-0.22158484160900116,0.04932591691613197
1701865286593106200,5.307106201171875,-0.08429691940546036,-0.21058958768844604,0.052990999072790146
1701865286602699000,5.316698974609375,-0.08063183724880219,-0.19348587095737457,0.052990999072790146
1701865286612292600,5.326292724609375,-0.07452336698770523,-0.1776038408279419,0.052990999072790146
1701865286621885400,5.335885498046875,-0.0659715011715889,-0.1629435122013092,0.04932591691613197
1701865286631477500,5.3454775390625,-0.05619794875383377,-0.14461809396743774,0.04321744292974472
1701865286641070000,5.355070068359375,-0.045202698558568954,-0.12629267573356628,0.033443886786699295
1701865286650664000,5.364663818359375,-0.03665083646774292,-0.10796725004911423,0.0261137206107378
1701865286660256500,5.374256591796875,-0.028098974376916885,-0.08842013776302338,0.016340164467692375
1701865286669848600,5.3838486328125,-0.02076880633831024,-0.0725381150841713,0.007788302376866341
1701865286679441400,5.39344140625,-0.01588202826678753,-0.0590994730591774,0.0016798300202935934
1701865286689035000,5.403034912109375,-0.014660334214568138,-0.04199574887752533,-0.0068720318377017975
1701865286698627800,5.4126279296875,-0.014660334214568138,-0.02489202655851841,-0.01175880990922451
1701865286708220000,5.422219970703125,-0.014660334214568138,-0.010231691412627697,-0.016645587980747223
1701865286717812700,5.431812744140625,-0.013438640162348747,0.004428642801940441,-0.021532366052269936
1701865286727406300,5.44140625,-0.010995250195264816,0.017867282032966614,-0.025197450071573257
1701865286736999200,5.450999267578125,-0.010995250195264816,0.03130592033267021,-0.03130592033267021
1701865286746591200,5.46059130859375,-0.009773556143045425,0.04718795046210289,-0.037414394319057465
1701865286756184000,5.47018408203125,-0.009773556143045425,0.06306997686624527,-0.04230117425322533
1701865286765777700,5.479777587890625,-0.009773556143045425,0.07528692483901978,-0.04840964451432228
1701865286775370500,5.48937060546875,-0.007330167107284069,0.08750387281179428,-0.05329642444849014
1701865286784962600,5.498962646484375,-0.007330167107284069,0.09727742522954941,-0.056961506605148315
1701865286794555100,5.50855517578125,-0.004886778071522713,0.10582929104566574,-0.056961506605148315
1701865286804149000,5.51814892578125,-0.0024433890357613564,0.10827267915010452,-0.055739812552928925
1701865286813741800,5.527741943359375,0.0012216945178806782,0.10949437320232391,-0.055739812552928925
1701865286823333600,5.537333740234375,0.006108472589403391,0.10949437320232391,-0.05085303261876106
1701865286832926500,5.546926513671875,0.008551862090826035,0.10827267915010452,-0.04474456235766411
1701865286842520300,5.556520263671875,0.009773556143045425,0.10582929104566574,-0.037414394319057465
1701865286852113000,5.56611279296875,0.009773556143045425,0.10827267915010452,-0.02886253222823143
1701865286861705000,5.575705078125,0.009773556143045425,0.10460758954286575,-0.021532366052269936
1701865286871297800,5.5852978515625,0.008551862090826035,0.10094250738620758,-0.014202198944985867
1701865286880891400,5.594891357421875,0.008551862090826035,0.09361234307289124,-0.0068720318377017975
1701865286890484200,5.604484130859375,0.006108472589403391,0.08017370104789734,-0.0007635590736754239
1701865286900076300,5.614076171875,0.006108472589403391,0.06795676052570343,0.005344913341104984
1701865286909669000,5.623669189453125,0.007330167107284069,0.05085303261876106,0.012675080448389053
1701865286919262700,5.6332626953125,0.008551862090826035,0.03374931216239929,0.016340164467692375
1701865286928855600,5.64285546875,0.009773556143045425,0.014202198944985867,0.020005248486995697
1701865286938447600,5.652447509765625,0.010995250195264816,-0.0016798300202935934,0.02244863659143448
1701865286948040400,5.66204052734375,0.012216945178806782,-0.013896775431931019,0.02244863659143448
1701865286957634000,5.671634033203125,0.010995250195264816,-0.017561858519911766,0.021226942539215088
1701865286967227000,5.681226806640625,0.008551862090826035,-0.018783552572131157,0.02367033064365387
1701865286976818700,5.690818603515625,0.004886778071522713,-0.021226942539215088,0.02733541466295719
1701865286986411500,5.70041162109375,0.0036650835536420345,-0.02367033064365387,0.034665580838918686
1701865286996005400,5.71000537109375,0.0024433890357613564,-0.028557108715176582,0.04443913698196411
1701865287005598000,5.719597900390625,0.0012216945178806782,-0.034665580838918686,0.05543438717722893
1701865287015190000,5.72918994140625,0.0024433890357613564,-0.037108972668647766,0.06520794332027435
1701865287024782800,5.738782958984375,0.0012216945178806782,-0.04199574887752533,0.06887302547693253
1701865287034376400,5.74837646484375,0,-0.04810422286391258,0.06887302547693253
1701865287043969300,5.75796923828125,0,-0.05543438717722893,0.06642963737249374
1701865287053561300,5.767561279296875,0.0024433890357613564,-0.06154286116361618,0.06032116711139679
1701865287063154200,5.777154296875,0.0024433890357613564,-0.06398624926805496,0.05421269312500954
1701865287072747800,5.786747802734375,0.0024433890357613564,-0.06276455521583557,0.051769305020570755
1701865287082340600,5.796340576171875,0.0024433890357613564,-0.06398624926805496,0.04932591691613197
1701865287091932700,5.8059326171875,0.0024433890357613564,-0.06765133142471313,0.0456608310341835
1701865287101525500,5.815525390625,0.0012216945178806782,-0.06887302547693253,0.04321744292974472
1701865287111119000,5.825119140625,0,-0.0713164210319519,0.0456608310341835
1701865287120712000,5.8347119140625,-0.0036650835536420345,-0.07620319724082947,0.04443913698196411
1701865287130303700,5.8443037109375,-0.007330167107284069,-0.08108997344970703,0.0456608310341835
1701865287139896600,5.853896484375,-0.010995250195264816,-0.0847550556063652,0.04688252881169319
1701865287149490400,5.863490478515625,-0.013438640162348747,-0.08964183181524277,0.04688252881169319
1701865287159083000,5.8730830078125,-0.01710372418165207,-0.09330692142248154,0.04688252881169319
1701865287168675000,5.882675048828125,-0.01954711228609085,-0.09575030952692032,0.04688252881169319
1701865287178268000,5.892267822265625,-0.01954711228609085,-0.09208522737026215,0.04443913698196411
1701865287187861500,5.901861572265625,-0.023212196305394173,-0.08964183181524277,0.04321744292974472
1701865287197454300,5.911454345703125,-0.024433890357613564,-0.08353336155414581,0.04199574887752533
1701865287207046400,5.92104638671875,-0.023212196305394173,-0.07986827939748764,0.03955236077308655
1701865287216639200,5.93063916015625,-0.01954711228609085,-0.07620319724082947,0.037108972668647766
1701865287226232800,5.94023291015625,-0.014660334214568138,-0.0725381150841713,0.03588727489113808
1701865287235825700,5.94982568359375,-0.008551862090826035,-0.06765133142471313,0.037108972668647766
1701865287245417700,5.959417724609375,-0.0024433890357613564,-0.0590994730591774,0.04077405482530594
1701865287255010600,5.969010498046875,0,-0.04443913698196411,0.04688252881169319
1701865287264604200,5.978604248046875,0.0036650835536420345,-0.028557108715176582,0.052990999072790146
1701865287274197000,5.988197021484375,0.008551862090826035,-0.013896775431931019,0.0590994730591774
1701865287283788800,5.997788818359375,0.012216945178806782,-0.004123218823224306,0.06520794332027435
1701865287293381600,6.007381591796875,0.01588202826678753,-0.0016798300202935934,0.06765133142471313
1701865287302975200,6.016975341796875,0.02076880633831024,-0.0016798300202935934,0.07375980913639069
1701865287312568000,6.026568115234375,0.025655584409832954,-0.0016798300202935934,0.07742489129304886
1701865287322160000,6.03616015625,0.029320668429136276,0.0007635590736754239,0.07986827939748764
1701865287331753000,6.0457529296875,0.03298575058579445,0.001985253533348441,0.07742489129304886
1701865287341346600,6.0553466796875,0.03542914241552353,0.001985253533348441,0.07009471952915192
1701865287350939400,6.064939453125,0.03542914241552353,0.008093725889921188,0.05787777900695801
1701865287360531500,6.074531494140625,0.03420744836330414,0.019088976085186005,0.04932591691613197
1701865287370124300,6.084124267578125,0.030542362481355667,0.0325276181101799,0.04199574887752533
1701865287379718000,6.0937177734375,0.025655584409832954,0.04718795046210289,0.03955236077308655
1701865287389310700,6.103310791015625,0.021990500390529633,0.058183200657367706,0.03955236077308655
1701865287398902500,6.112902587890625,0.021990500390529633,0.06429167091846466,0.04199574887752533
1701865287408495400,6.122495361328125,0.023212196305394173,0.06795676052570343,0.04443913698196411
1701865287418089200,6.132089111328125,0.024433890357613564,0.06673506647348404,0.04321744292974472
1701865287427681800,6.141681884765625,0.025655584409832954,0.06062658876180649,0.04077405482530594
1701865287437273900,6.15127392578125,0.025655584409832954,0.056961506605148315,0.034665580838918686
1701865287446866700,6.16086669921875,0.025655584409832954,0.05329642444849014,0.02733541466295719
1701865287456460300,6.170460205078125,0.024433890357613564,0.05329642444849014,0.018783552572131157
1701865287466053000,6.18005322265625,0.023212196305394173,0.0594048947095871,0.011453386396169662
1701865287475645200,6.189645263671875,0.02076880633831024,0.06551336497068405,0.0029015245381742716
1701865287485238000,6.199238037109375,0.01954711228609085,0.072843536734581,-0.0032069480512291193
1701865287494831600,6.20883154296875,0.01832541823387146,0.07650861889123917,-0.008093725889921188
1701865287504424400,6.218424560546875,0.01832541823387146,0.08017370104789734,-0.01175880990922451
1701865287514016500,6.2280166015625,0.01832541823387146,0.08261708915233612,-0.009315420873463154
1701865287523609300,6.237609375,0.01832541823387146,0.08750387281179428,-0.004428642801940441
1701865287533203000,6.247202880859375,0.01832541823387146,0.08994726091623306,0.0016798300202935934
1701865287542795800,6.256795654296875,0.01710372418165207,0.08994726091623306,0.005344913341104984
1701865287552387600,6.2663876953125,0.01710372418165207,0.08872556686401367,0.007788302376866341
1701865287561980400,6.27598046875,0.01832541823387146,0.08383878320455551,0.010231691412627697
1701865287571574300,6.28557421875,0.021990500390529633,0.07895200699567795,0.011453386396169662
1701865287581166800,6.295166748046875,0.026877280324697495,0.07528692483901978,0.016340164467692375
1701865287590759000,6.304759033203125,0.03176405653357506,0.072843536734581,0.02367033064365387
1701865287600351700,6.314351806640625,0.03665083646774292,0.07406523078680038,0.031000498682260513
1701865287609945300,6.3239453125,0.042759306728839874,0.08017370104789734,0.04077405482530594
1701865287619538200,6.3335380859375,0.047646086663007736,0.0850604772567749,0.04688252881169319
1701865287629130200,6.343130126953125,0.05375456064939499,0.08872556686401367,0.052990999072790146
1701865287638723000,6.35272314453125,0.05986303091049194,0.08994726091623306,0.05665608495473862
1701865287648316700,6.362316650390625,0.0647498071193695,0.08628217875957489,0.06032116711139679
1701865287657909500,6.371909423828125,0.06963659077882767,0.08261708915233612,0.06398624926805496
1701865287667501600,6.38150146484375,0.07330167293548584,0.08261708915233612,0.06887302547693253
1701865287677094100,6.39109423828125,0.07330167293548584,0.07895200699567795,0.07375980913639069
1701865287686688000,6.40068798828125,0.07574506103992462,0.08017370104789734,0.07864658534526825
1701865287696280600,6.410280517578125,0.07574506103992462,0.07895200699567795,0.08231166750192642
1701865287705872600,6.41987255859375,0.07696675509214401,0.07528692483901978,0.0859767496585846
1701865287715465500,6.429465576171875,0.08063183724880219,0.07406523078680038,0.08964183181524277
1701865287725059000,6.43905908203125,0.08307522535324097,0.07406523078680038,0.09330692142248154
1701865287734652000,6.44865185546875,0.08551861345767975,0.072843536734581,0.09575030952692032
1701865287744244000,6.458243896484375,0.09040539711713791,0.07650861889123917,0.09697200357913971
1701865287753836800,6.4678369140625,0.09529217332601547,0.08017370104789734,0.0981936976313591
1701865287763430400,6.477430419921875,0.10017894953489304,0.08383878320455551,0.10063708573579788
1701865287773023200,6.487023193359375,0.1050657257437706,0.08872556686401367,0.10430216789245605
1701865287782615300,6.496615234375,0.10873081535100937,0.08872556686401367,0.10674555599689484
1701865287792208100,6.5062080078125,0.11117420345544815,0.0850604772567749,0.10674555599689484
1701865287801801700,6.5158017578125,0.11361759155988693,0.07895200699567795,0.10552386194467545
1701865287811394300,6.525394287109375,0.11361759155988693,0.0716218426823616,0.10185877978801727
1701865287820986400,6.534986328125,0.11239589750766754,0.06551336497068405,0.10308047384023666
1701865287830579200,6.5445791015625,0.11117420345544815,0.0594048947095871,0.10430216789245605
1701865287840172800,6.5541728515625,0.10873081535100937,0.055739812552928925,0.10796725004911423
1701865287849765600,6.563765625,0.1050657257437706,0.05207473039627075,0.1104106456041336
1701865287859357700,6.573357666015625,0.1050657257437706,0.05329642444849014,0.11407572776079178
1701865287868950500,6.582950439453125,0.1050657257437706,0.056961506605148315,0.11774080991744995
1701865287878544100,6.592544189453125,0.10750912129878998,0.0594048947095871,0.12262758612632751
1701865287888137000,6.602136962890625,0.11117420345544815,0.0594048947095871,0.12629267573356628
1701865287897729000,6.61172900390625,0.11606097966432571,0.06184828653931618,0.13117945194244385
1701865287907321900,6.62132177734375,0.12216944992542267,0.06429167091846466,0.13362284004688263
1701865287916915500,6.63091552734375,0.12705622613430023,0.06551336497068405,0.13484452664852142
1701865287926508300,6.64050830078125,0.13316470384597778,0.06917845457792282,0.13973131775856018
1701865287936100000,6.65010009765625,0.14171656966209412,0.07528692483901978,0.14217470586299896
1701865287945693000,6.65969287109375,0.14660334587097168,0.07895200699567795,0.14339639246463776
1701865287955286800,6.669286865234375,0.15149012207984924,0.08017370104789734,0.13973131775856018
1701865287964879400,6.67887939453125,0.15515519678592682,0.0850604772567749,0.13484452664852142
1701865287974471400,6.688471435546875,0.1588202863931656,0.09361234307289124,0.13240113854408264
1701865287984064300,6.698064208984375,0.16126367449760437,0.10705098509788513,0.13484452664852142
1701865287993657900,6.707657958984375,0.16248537600040436,0.12048961967229843,0.13973131775856018
1701865288003250700,6.717250732421875,0.16737215220928192,0.1375933438539505,0.14461809396743774
1701865288012842800,6.7268427734375,0.17348061501979828,0.1522536724805832,0.1519482582807541
1701865288022435600,6.736435546875,0.18081079423427582,0.15958385169506073,0.15805672109127045
1701865288032029200,6.746029296875,0.18936264514923096,0.17180079221725464,0.16538690030574799
1701865288041622000,6.7556220703125,0.20280128717422485,0.18035265803337097,0.17271706461906433
1701865288051214000,6.765214111328125,0.21746163070201874,0.18646112084388733,0.1763821393251419
1701865288060806700,6.774806640625,0.23090025782585144,0.1901262104511261,0.17882554233074188
1701865288070400500,6.784400390625,0.24556060135364532,0.1913478970527649,0.18249061703681946
1701865288079993000,6.7939931640625,0.258999228477478,0.1901262104511261,0.18249061703681946
1701865288089585200,6.803585205078125,0.26632940769195557,0.1889045089483261,0.18004722893238068
1701865288099178000,6.813177978515625,0.2724378705024719,0.19256959855556488,0.18126893043518066
1701865288108771600,6.822771484375,0.2773246467113495,0.19256959855556488,0.18371231853961945
1701865288118364400,6.832364501953125,0.28343313932418823,0.1889045089483261,0.18126893043518066
1701865288127956500,6.84195654296875,0.29442837834358215,0.21211670339107513,0.17027367651462555
1701865288137549300,6.85154931640625,0.3151971995830536,0.23899398744106293,0.17027367651462555
1701865288147143000,6.861142822265625,0.3151971995830536,0.26342788338661194,0.18371231853961945
1701865288156735700,6.87073583984375,0.3139754831790924,0.3110739588737488,0.20570281147956848
1701865288166327800,6.880327880859375,0.32130566239356995,0.3733803927898407,0.24601873755455017
1701865288175920600,6.889920654296875,0.3310792148113251,0.42957833409309387,0.28999972343444824
1701865288185514200,6.89951416015625,0.33596599102020264,0.46134239435195923,0.31687700748443604
1701865288195106800,6.90910693359375,0.34573954343795776,0.48455458879470825,0.3229855000972748
1701865288204699000,6.918698974609375,0.3530697226524353,0.5102101564407349,0.32787227630615234
1701865288214291700,6.928291748046875,0.3506263196468353,0.5383091568946838,0.34008920192718506
1701865288223885300,6.93788525390625,0.33474430441856384,0.5639647245407104,0.35352784395217896
1701865288233478100,6.94747802734375,0.3029802441596985,0.5859552621841431,0.35474956035614014
1701865288243070200,6.9570703125,0.2626643180847168,0.6067240238189697,0.3327590525150299
1701865288252663000,6.9666630859375,0.2235700935125351,0.6299362182617188,0.28877803683280945
1701865288262256600,6.976256591796875,0.20035789906978607,0.6580352187156677,0.2276933193206787
1701865288271849500,6.985849365234375,0.17836740612983704,0.6800256967544556,0.16172181069850922
1701865288281441300,6.995441162109375,0.1588202863931656,0.7301151752471924,0.09941539168357849
1701865288291034000,7.0050341796875,0.13682979345321655,0.7618792653083801,0.052990999072790146
1701865288300628000,7.0146279296875,0.0916270911693573,0.7154548764228821,0.018783552572131157
1701865288310220500,7.024220458984375,0.03176405653357506,0.5981721878051758,-0.04840964451432228
1701865288319812600,7.0338125,-0.012216945178806782,0.35627666115760803,-0.19623468816280365
1701865288329405400,7.043405517578125,-0.08307522535324097,-0.016340164467692375,-0.35505497455596924
1701865288338999000,7.0529990234375,-0.23823043704032898,-0.5540384650230408,-0.649483323097229
1701865288348591900,7.062591796875,-0.474017471075058,-1.1331216096878052,-1.0856282711029053
1701865288358184000,7.072183837890625,-0.7415685653686523,-1.3505833148956299,-1.2334532737731934
1701865288367776800,7.08177685546875,-0.8344173431396484,-1.1771026849746704,-0.8107470273971558
1701865288377370400,7.091370361328125,-0.6193991303443909,-1.199093222618103,-0.02886253222823143
1701865288386963200,7.100963134765625,-0.15393351018428802,-1.4715310335159302,0.45737189054489136
1701865288396555300,7.11055517578125,0.36039987206459045,-1.6767756938934326,0.474475622177124
1701865288406147800,7.12014794921875,0.6731536984443665,-1.7207567691802979,0.4512633979320526
1701865288415741700,7.12974169921875,0.836860716342926,-1.4507622718811035,0.48424917459487915
1701865288425334300,7.139334228515625,0.9223793745040894,-1.050046443939209,0.4243861436843872
1701865288434926300,7.14892626953125,0.9174925684928894,-0.6969767212867737,0.2912214398384094
1701865288444519200,7.158519287109375,0.8197570443153381,-0.5198310017585754,0.12629267573356628
1701865288454112800,7.16811279296875,0.6377245187759399,-0.46607646346092224,-0.019088976085186005
1701865288463705600,7.17770556640625,0.5094466209411621,-0.6041279435157776,-0.07406523078680038
1701865288473297700,7.187297607421875,0.5375455617904663,-1.0390511751174927,-0.07406523078680038
1701865288482890500,7.196890380859375,0.6988092660903931,-1.4495404958724976,-0.10705098509788513
1701865288492484000,7.206484130859375,0.8588512539863586,-1.6401249170303345,-0.23288552463054657
1701865288502077000,7.216076904296875,0.9333745837211609,-1.458092451095581,-0.5187620520591736
1701865288511668700,7.225668701171875,0.8222004175186157,-1.1563338041305542,-0.8779402375221252
1701865288521261600,7.235261474609375,0.5412106513977051,-1.0744802951812744,-1.1491564512252808
1701865288530855400,7.24485546875,0.21746163070201874,-1.1221264600753784,-1.2810994386672974
1701865288540448000,7.254447998046875,-0.03787253051996231,-0.9767447710037231,-1.3372973203659058
1701865288550040000,7.2640400390625,-0.25533416867256165,-0.6554391384124756,-1.3458492755889893
1701865288559633000,7.2736328125,-0.49356457591056824,-0.4611896872520447,-1.395938754081726
1701865288569226500,7.2832265625,-0.6865923404693604,-0.444085955619812,-1.4472498893737793
1701865288578819300,7.2928193359375,-0.869846522808075,-0.7140804529190063,-1.450914978981018
1701865288588411400,7.302411376953125,-1.1435060501098633,-1.323706030845642,-1.389830231666565
1701865288598004200,7.312004150390625,-1.2731584310531616,-2.1850006580352783,-1.1968024969100952
1701865288607597800,7.321597900390625,-1.21818208694458,-2.4537734985351562,-0.9084826111793518
1701865288617190700,7.331190673828125,-0.9859074950218201,-2.1740055084228516,-0.6592568755149841
1701865288626782700,7.34078271484375,-0.7415685653686523,-1.90645432472229,-0.5077667832374573
1701865288636375300,7.350375244140625,-0.6572716236114502,-1.6608936786651611,-0.45523393154144287
1701865288645969200,7.35996923828125,-0.7440119385719299,-1.2748382091522217,-0.45889899134635925
1701865288655561700,7.369561767578125,-0.8319739699363708,-0.9046648144721985,-0.465007483959198
1701865288665153800,7.37915380859375,-0.8112051486968994,-0.6261184215545654,-0.4100312292575836
1701865288674746600,7.38874658203125,-0.7171346545219421,-0.5393781065940857,-0.27197974920272827
1701865288684340200,7.39834033203125,-0.5570927262306213,-0.5638120174407959,-0.0850604772567749
1701865288693933000,7.40793310546875,-0.30908870697021484,-0.5283828973770142,0.1898207813501358
1701865288703525000,7.417525146484375,0.028098974376916885,-0.34131091833114624,0.5147915482521057
1701865288713118000,7.427117919921875,0.3897205591201782,0.04474456235766411,0.8667922616004944
1701865288722711600,7.436711669921875,0.9126058220863342,0.36605021357536316,1.207645058631897
1701865288732304400,7.446304443359375,1.4269392490386963,0.6287145614624023,1.4507622718811035
1701865288741896200,7.455896240234375,1.8496454954147339,0.8742751479148865,1.45198392868042
1701865288751489000,7.465489013671875,2.175837993621826,1.0318737030029297,1.1233481168746948
1701865288761083000,7.475082763671875,2.3945212364196777,1.232231616973877,0.5540384650230408
1701865288770675500,7.484675537109375,2.487370014190674,1.6830369234085083,-0.11315945535898209
1701865288780267500,7.494267578125,2.4690446853637695,2.111851692199707,-0.7692093849182129
1701865288789860400,7.5038603515625,2.5496764183044434,2.2462379932403564,-1.2456703186035156
1701865288799454000,7.513453857421875,2.996816635131836,2.2352428436279297,-1.333632230758667
1701865288809046800,7.523046875,3.56123948097229,2.3415303230285645,-1.052642583847046
1701865288818638800,7.532638916015625,3.85566782951355,2.3671858310699463,-0.5358657836914062
1701865288828231700,7.542231689453125,3.8642196655273438,2.2120306491851807,0.09697200357913971
1701865288837825300,7.5518251953125,3.616215705871582,2.019002914428711,0.7531746625900269
1701865288847417900,7.56141796875,3.2729196548461914,1.8687344789505005,1.355470061302185
1701865288857010000,7.571010009765625,2.985821485519409,1.7709989547729492,1.858808159828186
1701865288866602800,7.580602783203125,2.8453264236450195,1.6757067441940308,2.2668542861938477
1701865288876196400,7.5901962890625,2.884420871734619,1.6842585802078247,2.5356268882751465
1701865288885789200,7.5997890625,3.0505712032318115,1.7086925506591797,2.5759429931640625
1701865288895381200,7.60938134765625,3.260702610015869,1.5987399816513062,2.450108289718628
1701865288904974000,7.61897412109375,3.417079448699951,1.3861651420593262,2.276627779006958
1701865288914567700,7.628567626953125,3.4610605239868164,1.1870288848876953,2.048170804977417
1701865288924160500,7.638160400390625,3.4060842990875244,1.0172133445739746,1.7855064868927002
1701865288933752600,7.647752685546875,3.269254446029663,0.9219212532043457,1.5863703489303589
1701865288943345400,7.657345458984375,3.0701184272766113,0.8791618943214417,1.498408317565918
1701865288952939000,7.66693896484375,2.8013455867767334,0.7826480269432068,1.4739744663238525
1701865288962531600,7.676531494140625,2.4885916709899902,0.6164975762367249,1.4422104358673096
1701865288972123600,7.68612353515625,2.1587343215942383,0.4271349310874939,1.378682255744934
1701865288981716500,7.695716552734375,1.8191031217575073,0.2707580327987671,1.317597508430481
1701865288991310000,7.70531005859375,1.485580563545227,0.1766875684261322,1.2846118211746216
1701865289000903000,7.71490283203125,1.178935170173645,0.12048961967229843,1.277281641960144
1701865289010495000,7.724494873046875,0.9040539264678955,0.0850604772567749,1.2968287467956543
1701865289020087800,7.734087890625,0.6633801460266113,0.04840964451432228,1.3542484045028687
1701865289029681400,7.743681396484375,0.448361873626709,-0.034665580838918686,1.4397670030593872
1701865289039274200,7.753274169921875,0.2492256760597229,-0.16050012409687042,1.5179554224014282
1701865289048866300,7.7628662109375,0.046424392610788345,-0.3229855000972748,1.5704883337020874
1701865289058459000,7.772458984375,-0.130721315741539,-0.5234960913658142,1.5814836025238037
1701865289068052500,7.782052490234375,-0.27121618390083313,-0.7837170362472534,1.5497194528579712
1701865289077645300,7.791645263671875,-0.34696123003959656,-1.1038010120391846,1.4544273614883423
1701865289087237400,7.8012373046875,-0.4043808877468109,-1.475196123123169,1.3298144340515137
1701865289096830200,7.810830322265625,-0.4862344264984131,-1.8930156230926514,1.309045672416687
1701865289106423800,7.820423828125,-0.5705313682556152,-2.268075942993164,1.475196123123169
1701865289116016600,7.8300166015625,-0.6157340407371521,-2.5844948291778564,1.8099404573440552
1701865289125608700,7.839608642578125,-0.5363239049911499,-2.817838430404663,2.204547643661499
1701865289135201500,7.849201416015625,-0.33352261781692505,-2.927790880203247,2.5063064098358154
1701865289144795100,7.858795166015625,-0.08307522535324097,-2.9839887619018555,2.6565747261047363
1701865289154388000,7.868387939453125,0.23823043704032898,-2.881366491317749,2.58327317237854
1701865289163979800,7.877979736328125,0.48989951610565186,-2.3425991535186768,2.224094867706299
1701865289173572600,7.887572509765625,0.4886777997016907,-1.568044900894165,1.6755540370941162
1701865289183166200,7.897166259765625,0.3139754831790924,-0.8118160367012024,1.1160179376602173
1701865289192759000,7.906759033203125,0.19058434665203094,-0.14461809396743774,0.6505523324012756
1701865289202351000,7.91635107421875,0.23945212364196777,0.3990359604358673,0.31687700748443604
1701865289211944000,7.92594384765625,0.3298575282096863,0.8681666851043701,0.11529742181301117
1701865289221537500,7.93553759765625,0.43981003761291504,1.1784770488739014,0.04199574887752533
1701865289231130400,7.94513037109375,0.5399889945983887,1.3763915300369263,0.03833066672086716
1701865289240722400,7.954722412109375,0.6071822047233582,1.4765704870224,0.06887302547693253
1701865289250315300,7.964315185546875,0.6389462351799011,1.5010044574737549,0.09941539168357849
1701865289259908900,7.973908935546875,0.6426113247871399,1.474127173423767,0.1250709742307663
1701865289269501400,7.98350146484375,0.6181774139404297,1.3947169780731201,0.15683503448963165
1701865289279093500,7.993093505859375,0.5619794726371765,1.2859861850738525,0.1910424828529358
1701865289288686300,8.002686279296874,0.4825693368911743,1.1589299440383911,0.2166980654001236
1701865289298280000,8.012280029296875,0.3823903799057007,1.0208784341812134,0.2166980654001236
1701865289307872800,8.021872802734375,0.2748812735080719,0.8803836107254028,0.19226416945457458
1701865289317464800,8.03146484375,0.17348061501979828,0.7618792653083801,0.15561333298683167
1701865289327057700,8.0410576171875,0.08796200156211853,0.6580352187156677,0.13484452664852142
1701865289336651300,8.0506513671875,0.030542362481355667,0.5883986353874207,0.1495048701763153
1701865289346244000,8.060244140625,0.006108472589403391,0.5468609929084778,0.19715094566345215
1701865289355836000,8.0698359375,0.0012216945178806782,0.5224271416664124,0.2777827978134155
1701865289365428700,8.0794287109375,0.0036650835536420345,0.4955498278141022,0.36574479937553406
1701865289375022300,8.089022216796875,0.0036650835536420345,0.462564080953598,0.43415969610214233
1701865289384615200,8.098615234375,0.006108472589403391,0.4259132444858551,0.4793623983860016
1701865289394207200,8.108207275390624,0.012216945178806782,0.3843756318092346,0.5135698318481445
1701865289403800000,8.117800048828125,0.021990500390529633,0.3245126008987427,0.5332696437835693
1701865289413393700,8.1273935546875,0.03787253051996231,0.23899398744106293,0.5344913601875305
1701865289422986500,8.136986572265625,0.05375456064939499,0.13514995574951172,0.5099047422409058
1701865289432578600,8.14657861328125,0.05741964280605316,0.05085303261876106,0.45859357714653015
1701865289442171100,8.156171142578126,0.042759306728839874,-0.0065666078589856625,0.38162681460380554
1701865289451765000,8.165764892578125,0.010995250195264816,-0.05543438717722893,0.30221667885780334
1701865289461357600,8.175357666015625,-0.029320668429136276,-0.08108997344970703,0.23991025984287262
1701865289470949600,8.18494970703125,-0.07085828483104706,-0.06642963737249374,0.1898207813501358
1701865289480542500,8.19454248046875,-0.10995250940322876,-0.013896775431931019,0.13117945194244385
1701865289490136000,8.204135986328126,-0.13438639044761658,0.056961506605148315,0.05665608495473862
1701865289499729000,8.21372900390625,-0.1429382562637329,0.13392825424671173,-0.025197450071573257
1701865289509321000,8.223321044921875,-0.14049486815929413,0.19867807626724243,-0.0984991192817688
1701865289518913800,8.232913818359375,-0.1319430023431778,0.23655059933662415,-0.14858859777450562
1701865289528507400,8.24250732421875,-0.1172826737165451,0.24021568894386292,-0.16080553829669952
1701865289538100200,8.252100341796876,-0.09895725548267365,0.20845162868499756,-0.14370182156562805
1701865289547692000,8.261692138671876,-0.07452336698770523,0.15714046359062195,-0.11926792562007904
1701865289557284900,8.271284912109374,-0.05131116881966591,0.09972081333398819,-0.10827267915010452
1701865289566878500,8.28087841796875,-0.03298575058579445,0.036192700266838074,-0.10582929104566574
1701865289576471300,8.29047119140625,-0.021990500390529633,-0.020005248486995697,-0.0984991192817688
1701865289586063400,8.3000634765625,-0.01710372418165207,-0.05787777900695801,-0.08261708915233612
1701865289595656200,8.30965625,-0.021990500390529633,-0.0725381150841713,-0.0594048947095871
1701865289605249800,8.319249755859374,-0.029320668429136276,-0.07009471952915192,-0.037414394319057465
1701865289614842600,8.328842529296875,-0.043981000781059265,-0.06520794332027435,-0.019088976085186005
1701865289624434700,8.3384345703125,-0.05864133685827255,-0.06520794332027435,-0.001985253533348441
1701865289634027300,8.34802734375,-0.07085828483104706,-0.06520794332027435,0.011453386396169662
1701865289643621000,8.35762109375,-0.08185353130102158,-0.06887302547693253,0.021226942539215088
1701865289653213700,8.367213623046876,-0.08918370306491852,-0.08108997344970703,0.02489202655851841
1701865289662805800,8.3768056640625,-0.09407047927379608,-0.10552386194467545,0.02733541466295719
1701865289672398600,8.386398681640625,-0.09529217332601547,-0.14828316867351532,0.033443886786699295
1701865289681992200,8.3959921875,-0.09529217332601547,-0.19837264716625214,0.0456608310341835
1701865289691585000,8.4055849609375,-0.09040539711713791,-0.24601873755455017,0.06398624926805496
1701865289701177000,8.415177001953126,-0.08307522535324097,-0.28877803683280945,0.0847550556063652
1701865289710770000,8.42477001953125,-0.07207997888326645,-0.32665055990219116,0.10552386194467545
1701865289720363500,8.434363525390625,-0.05986303091049194,-0.3608580231666565,0.12140589207410812
1701865289729956400,8.443956298828125,-0.045202698558568954,-0.3877353072166443,0.13484452664852142
1701865289739548200,8.453548095703125,-0.029320668429136276,-0.4146125912666321,0.14339639246463776
1701865289749141000,8.46314111328125,-0.012216945178806782,-0.4330907166004181,0.1519482582807541
1701865289758734600,8.472734619140626,0.0036650835536420345,-0.43797749280929565,0.16172181069850922
1701865289768327400,8.482327392578124,0.01832541823387146,-0.4282039403915405,0.17027367651462555
1701865289777919500,8.49191943359375,0.030542362481355667,-0.4121691882610321,0.1751604527235031
1701865289787512300,8.50151220703125,0.0390942245721817,-0.3901786804199219,0.1776038408279419
1701865289797106000,8.51110595703125,0.043981000781059265,-0.36452311277389526,0.17393875122070312
1701865289806698800,8.52069873046875,0.0390942245721817,-0.3327590525150299,0.164165198802948
1701865289816290800,8.530290771484376,0.026877280324697495,-0.29977330565452576,0.14461809396743774
1701865289825883400,8.53988330078125,0.012216945178806782,-0.2692309319972992,0.11896250396966934
1701865289835477200,8.549477294921875,-0.006108472589403391,-0.2435753494501114,0.08719844371080399
1701865289845069800,8.55906982421875,-0.025655584409832954,-0.2289150059223175,0.05421269312500954
1701865289854662000,8.568661865234375,-0.04153761267662048,-0.22158484160900116,0.020005248486995697
1701865289864254700,8.578254638671876,-0.05375456064939499,-0.22036315500736237,-0.012980503961443901
1701865289873848300,8.587848388671874,-0.05986303091049194,-0.21791976690292358,-0.04474456235766411
1701865289883441200,8.597441162109375,-0.0647498071193695,-0.21791976690292358,-0.07406523078680038
1701865289893033200,8.607033203125,-0.06841489672660828,-0.21914145350456238,-0.09483403712511063
1701865289902626000,8.6166259765625,-0.07330167293548584,-0.21303297579288483,-0.10827267915010452
1701865289912219600,8.6262197265625,-0.07696675509214401,-0.19959434866905212,-0.1119377613067627
1701865289921812200,8.635812255859374,-0.0781884491443634,-0.18493400514125824,-0.10949437320232391
1701865289931404300,8.645404296875,-0.0794101431965828,-0.17149536311626434,-0.09972081333398819
1701865289940997000,8.6549970703125,-0.08185353130102158,-0.1629435122013092,-0.08628217875957489
1701865289950590700,8.6645908203125,-0.08307522535324097,-0.16050012409687042,-0.07040014863014221
1701865289960183600,8.67418359375,-0.0794101431965828,-0.16050012409687042,-0.05085303261876106
1701865289969775600,8.683775634765626,-0.07207997888326645,-0.16538690030574799,-0.03497100621461868
1701865289979368400,8.693368408203124,-0.0659715011715889,-0.16783028841018677,-0.025197450071573257
1701865289988962000,8.702962158203125,-0.061084724962711334,-0.17149536311626434,-0.020310672000050545
1701865289998555000,8.712554931640625,-0.061084724962711334,-0.17149536311626434,-0.017867282032966614
1701865290008147000,8.72214697265625,-0.062306419014930725,-0.17271706461906433,-0.019088976085186005
1701865290017739500,8.731739501953125,-0.0647498071193695,-0.17027367651462555,-0.022754060104489326
1701865290027333000,8.7413330078125,-0.0659715011715889,-0.17149536311626434,-0.02764083817601204
1701865290036926000,8.750926025390624,-0.06963659077882767,-0.17271706461906433,-0.0325276181101799
1701865290046518000,8.76051806640625,-0.07330167293548584,-0.1751604527235031,-0.038636088371276855
1701865290056110800,8.77011083984375,-0.0781884491443634,-0.1751604527235031,-0.038636088371276855
1701865290065704400,8.779704345703125,-0.08185353130102158,-0.17027367651462555,-0.03497100621461868
1701865290075297300,8.78929736328125,-0.08429691940546036,-0.16538690030574799,-0.0325276181101799
1701865290084889300,8.798889404296874,-0.08307522535324097,-0.16172181069850922,-0.03130592033267021
1701865290094482000,8.80848193359375,-0.08185353130102158,-0.15927842259407043,-0.03008422814309597
1701865290104075800,8.81807568359375,-0.08185353130102158,-0.15683503448963165,-0.025197450071573257
1701865290113668400,8.82766845703125,-0.0794101431965828,-0.1519482582807541,-0.023975754156708717
1701865290123260400,8.837260498046875,-0.07330167293548584,-0.1495048701763153,-0.022754060104489326
1701865290132853200,8.846853271484376,-0.06841489672660828,-0.1519482582807541,-0.02886253222823143
1701865290142446800,8.85644677734375,-0.0659715011715889,-0.15927842259407043,-0.037414394319057465
1701865290152039700,8.866039794921875,-0.0659715011715889,-0.164165198802948,-0.04718795046210289
1701865290161631700,8.8756318359375,-0.06841489672660828,-0.17027367651462555,-0.056961506605148315
1701865290171224600,8.885224609375,-0.07085828483104706,-0.17149536311626434,-0.06917845457792282
1701865290180818200,8.894818115234376,-0.07330167293548584,-0.17027367651462555,-0.08139539510011673
1701865290190410800,8.90441064453125,-0.0781884491443634,-0.17027367651462555,-0.08994726091623306
1701865290200002800,8.9140029296875,-0.0794101431965828,-0.16660858690738678,-0.09361234307289124
1701865290209595600,8.923595703125,-0.08185353130102158,-0.15927842259407043,-0.09361234307289124
1701865290219189200,8.933189208984375,-0.08063183724880219,-0.1519482582807541,-0.09116895496845245
1701865290228782000,8.942781982421875,-0.0781884491443634,-0.14583978056907654,-0.09116895496845245
1701865290238374100,8.9523740234375,-0.08063183724880219,-0.1385096162557602,-0.08872556686401367
1701865290247967000,8.961967041015624,-0.08307522535324097,-0.12873606383800507,-0.08628217875957489
1701865290257560600,8.971560546875,-0.08918370306491852,-0.11651911586523056,-0.08383878320455551
1701865290267153400,8.9811533203125,-0.09529217332601547,-0.10185877978801727,-0.08139539510011673
1701865290276745500,8.990745361328125,-0.10140064358711243,-0.0859767496585846,-0.07895200699567795
1701865290286338000,9.000338134765625,-0.10628741979598999,-0.07009471952915192,-0.07895200699567795
1701865290295931600,9.009931640625,-0.10873081535100937,-0.06032116711139679,-0.07895200699567795
1701865290305524500,9.0195244140625,-0.10750912129878998,-0.052990999072790146,-0.07895200699567795
1701865290315116500,9.029116455078125,-0.10262233763933182,-0.03955236077308655,-0.07773031294345856
1701865290324709400,9.03870947265625,-0.09895725548267365,-0.031000498682260513,-0.07528692483901978
1701865290334303000,9.048302978515625,-0.09651386737823486,-0.02489202655851841,-0.0716218426823616
1701865290343895800,9.057895751953126,-0.09407047927379608,-0.013896775431931019,-0.06795676052570343
1701865290353488000,9.06748779296875,-0.09529217332601547,-0.004123218823224306,-0.06184828653931618
1701865290363080400,9.07708056640625,-0.09651386737823486,0.0032069480512291193,-0.05329642444849014
1701865290372674300,9.08667431640625,-0.09773556143045425,0.010537114925682545,-0.04352286830544472
1701865290382267000,9.096266845703125,-0.09773556143045425,0.019088976085186005,-0.03497100621461868
1701865290391859000,9.10585888671875,-0.09773556143045425,0.02641914412379265,-0.02886253222823143
1701865290401451800,9.11545166015625,-0.09529217332601547,0.02886253222823143,-0.022754060104489326
1701865290411045400,9.12504541015625,-0.09040539711713791,0.03008422814309597,-0.021532366052269936
1701865290420638200,9.13463818359375,-0.08429691940546036,0.02886253222823143,-0.023975754156708717
1701865290430230300,9.144230224609375,-0.07696675509214401,0.017867282032966614,-0.02886253222823143
1701865290439823000,9.153822998046875,-0.07696675509214401,0.0032069480512291193,-0.03497100621461868
1701865290449416700,9.163416748046876,-0.0781884491443634,0.0032069480512291193,-0.04230117425322533
1701865290459009300,9.17300927734375,-0.08429691940546036,0.009315420873463154,-0.04718795046210289
1701865290468601300,9.182601318359374,-0.0916270911693573,0.019088976085186005,-0.04963133856654167
1701865290478194200,9.192194091796875,-0.10017894953489304,0.03008422814309597,-0.04963133856654167
1701865290487787800,9.201787841796875,-0.09651386737823486,0.03130592033267021,-0.05085303261876106
1701865290497380600,9.211380615234376,-0.09651386737823486,0.02641914412379265,-0.05329642444849014
1701865290506972700,9.22097265625,-0.10140064358711243,0.023975754156708717,-0.054518118500709534
1701865290516565500,9.2305654296875,-0.10628741979598999,0.021532366052269936,-0.056961506605148315
1701865290526159000,9.2401591796875,-0.11361759155988693,0.014202198944985867,-0.06184828653931618
1701865290535752000,9.249751953125,-0.11117420345544815,0.0007635590736754239,-0.06795676052570343
1701865290545343700,9.25934375,-0.09407047927379608,-0.029778804630041122,-0.08139539510011673
1701865290554936600,9.2689365234375,-0.07330167293548584,-0.08231166750192642,-0.09605573117733002
1701865290564530200,9.2785302734375,-0.06963659077882767,-0.11774080991744995,-0.10949437320232391
1701865290574123000,9.288123046875,-0.06841489672660828,-0.14583978056907654,-0.12293300777673721
1701865290583715000,9.297715087890625,-0.05619794875383377,-0.17393875122070312,-0.14125843346118927
1701865290593308000,9.307307861328125,-0.04886778071522713,-0.19959434866905212,-0.15347537398338318
1701865290602901500,9.316901611328126,-0.045202698558568954,-0.21914145350456238,-0.15836215019226074
1701865290612494300,9.326494384765626,-0.03787253051996231,-0.23746687173843384,-0.15591876208782196
1701865290622086100,9.336086181640624,-0.028098974376916885,-0.2582356929779053,-0.15347537398338318
1701865290631679000,9.345678955078125,-0.01710372418165207,-0.27656111121177673,-0.1498102843761444
1701865290641272600,9.3552724609375,-0.010995250195264816,-0.28755635023117065,-0.14736689627170563
1701865290650865400,9.364865478515625,-0.006108472589403391,-0.2838912606239319,-0.14370182156562805
1701865290660457500,9.37445751953125,-0.0036650835536420345,-0.2655658423900604,-0.14003673195838928
1701865290670050300,9.38405029296875,-0.006108472589403391,-0.24479703605175018,-0.1388150453567505
1701865290679644000,9.393643798828125,-0.010995250195264816,-0.22280654311180115,-0.1388150453567505
1701865290689236700,9.40323681640625,-0.01954711228609085,-0.19959434866905212,-0.14003673195838928
1701865290698828800,9.412828857421875,-0.026877280324697495,-0.1751604527235031,-0.1363716572523117
1701865290708421600,9.422421630859375,-0.03542914241552353,-0.16172181069850922,-0.12904147803783417
1701865290718015200,9.43201513671875,-0.03787253051996231,-0.15316994488239288,-0.11926792562007904
1701865290727607800,9.44160791015625,-0.03665083646774292,-0.14461809396743774,-0.10949437320232391
1701865290737199900,9.451199951171875,-0.03420744836330414,-0.1372879147529602,-0.10094250738620758
1701865290746792700,9.460792724609375,-0.030542362481355667,-0.12873606383800507,-0.09116895496845245
1701865290756386300,9.47038623046875,-0.028098974376916885,-0.11529742181301117,-0.07773031294345856
1701865290765979100,9.479979248046876,-0.028098974376916885,-0.09575030952692032,-0.055739812552928925
1701865290775571200,9.4895712890625,-0.030542362481355667,-0.0713164210319519,-0.03008422814309597
1701865290785163800,9.499163818359374,-0.03176405653357506,-0.0456608310341835,-0.0068720318377017975
1701865290794757600,9.508757568359375,-0.03787253051996231,-0.02244863659143448,0.013896775431931019
1701865290804350200,9.51835009765625,-0.045202698558568954,-0.004123218823224306,0.029778804630041122
1701865290813942300,9.5279423828125,-0.05497625470161438,0.009315420873463154,0.04077405482530594
1701865290823535000,9.53753515625,-0.06352811306715012,0.014202198944985867,0.04321744292974472
1701865290833128700,9.547128662109374,-0.07085828483104706,0.017867282032966614,0.04077405482530594
1701865290842721500,9.556721435546875,-0.07574506103992462,0.017867282032966614,0.033443886786699295
1701865290852313600,9.566313720703125,-0.0794101431965828,0.014202198944985867,0.021226942539215088
1701865290861906400,9.575906494140625,-0.08185353130102158,0.008093725889921188,0.0065666078589856625
1701865290871500000,9.5855,-0.08063183724880219,0.0007635590736754239,-0.008093725889921188
1701865290881092600,9.595092529296876,-0.0781884491443634,-0.005344913341104984,-0.022754060104489326
1701865290890684700,9.6046845703125,-0.07330167293548584,-0.01511846948415041,-0.036192700266838074
1701865290900277500,9.614277587890625,-0.0647498071193695,-0.028557108715176582,-0.04718795046210289
1701865290909871000,9.62387109375,-0.05741964280605316,-0.04199574887752533,-0.054518118500709534
1701865290919464000,9.6334638671875,-0.04886778071522713,-0.052990999072790146,-0.0594048947095871
1701865290929056000,9.643055908203126,-0.04031591862440109,-0.0590994730591774,-0.06184828653931618
1701865290938648800,9.65264892578125,-0.03665083646774292,-0.06032116711139679,-0.06551336497068405
1701865290948242400,9.662242431640625,-0.03298575058579445,-0.06154286116361618,-0.07040014863014221
1701865290957835300,9.671835205078125,-0.030542362481355667,-0.0590994730591774,-0.07528692483901978
1701865290967427000,9.681427001953125,-0.03298575058579445,-0.06032116711139679,-0.08383878320455551
1701865290977020000,9.69102001953125,-0.03665083646774292,-0.06276455521583557,-0.09483403712511063
1701865290986613500,9.700613525390626,-0.04153761267662048,-0.06887302547693253,-0.10582929104566574
1701865290996206300,9.710206298828124,-0.043981000781059265,-0.07986827939748764,-0.12048961967229843
1701865291005798400,9.71979833984375,-0.045202698558568954,-0.09575030952692032,-0.14248012006282806
1701865291015391200,9.72939111328125,-0.042759306728839874,-0.11896250396966934,-0.1632489264011383
1701865291024984800,9.73898486328125,-0.05008947476744652,-0.14217470586299896,-0.1779092699289322
1701865291034577700,9.74857763671875,-0.05497625470161438,-0.15439164638519287,-0.19501298666000366
1701865291044169500,9.75816943359375,-0.05619794875383377,-0.15316994488239288,-0.20845162868499756
1701865291053762300,9.76776220703125,-0.05619794875383377,-0.14217470586299896,-0.21822518110275269
1701865291063356200,9.777356201171875,-0.05864133685827255,-0.12873606383800507,-0.22311195731163025
1701865291072948700,9.78694873046875,-0.05986303091049194,-0.111632339656353,-0.21944688260555267
1701865291082540800,9.796540771484375,-0.061084724962711334,-0.09452861547470093,-0.21089501678943634
1701865291092133600,9.806133544921876,-0.05497625470161438,-0.07620319724082947,-0.19623468816280365
1701865291101727200,9.815727294921874,-0.045202698558568954,-0.06520794332027435,-0.17913095653057098
1701865291111320000,9.825320068359375,-0.03420744836330414,-0.06032116711139679,-0.1620272397994995
1701865291120912000,9.834911865234375,-0.021990500390529633,-0.05543438717722893,-0.14858859777450562
1701865291130504700,9.844504638671875,-0.009773556143045425,-0.04932591691613197,-0.14125843346118927
1701865291140098600,9.8540986328125,0.004886778071522713,-0.03955236077308655,-0.1375933438539505
1701865291149691100,9.863691162109374,0.01832541823387146,-0.029778804630041122,-0.1388150453567505
1701865291159283200,9.873283203125,0.03176405653357506,-0.020005248486995697,-0.14003673195838928
1701865291168876000,9.8828759765625,0.043981000781059265,-0.010231691412627697,-0.14370182156562805
1701865291178469600,9.8924697265625,0.05375456064939499,0.005650337319821119,-0.14614520967006683
1701865291188062500,9.9020625,0.05986303091049194,0.019088976085186005,-0.14858859777450562
1701865291197654500,9.911654541015626,0.061084724962711334,0.037414394319057465,-0.15469707548618317
1701865291207247400,9.921247314453124,0.07330167293548584,0.0459662564098835,-0.15591876208782196
1701865291216840700,9.9308408203125,0.07452336698770523,0.04352286830544472,-0.1522536724805832
1701865291226433500,9.94043359375,0.07452336698770523,0.039857782423496246,-0.15958385169506073
1701865291236025600,9.950025634765625,0.07452336698770523,0.0325276181101799,-0.17424418032169342
1701865291245618400,9.959618408203125,0.07574506103992462,0.019088976085186005,-0.19256959855556488
1701865291255212000,9.9692119140625,0.0794101431965828,-0.0029015245381742716,-0.21211670339107513
1701865291264804900,9.978804931640624,0.08063183724880219,-0.020005248486995697,-0.23166382312774658
1701865291274397000,9.98839697265625,0.07574506103992462,-0.034665580838918686,-0.24998924136161804
1701865291283989500,9.997989501953125,0.06719319522380829,-0.051769305020570755,-0.2695363461971283
1701865291293583400,10.007583251953125,0.05497625470161438,-0.06520794332027435,-0.28664007782936096
1701865291303176000,10.017176025390626,0.04153761267662048,-0.07742489129304886,-0.30130040645599365
1701865291312768000,10.02676806640625,0.029320668429136276,-0.08964183181524277,-0.31596073508262634
1701865291322360800,10.03636083984375,0.02076880633831024,-0.10308047384023666,-0.3318427801132202
1701865291331954400,10.045954345703125,0.0036650835536420345,-0.10796725004911423,-0.3489464819431305
1701865291341547300,10.05554736328125,-0.0024433890357613564,-0.1250709742307663,-0.3574983477592468
1701865291351139300,10.065139404296875,-0.0024433890357613564,-0.15439164638519287,-0.35627666115760803
1701865291360732000,10.07473193359375,-0.004886778071522713,-0.17027367651462555,-0.3501681983470917
1701865291370325800,10.08432568359375,-0.006108472589403391,-0.18126893043518066,-0.335507869720459
1701865291379918300,10.09391845703125,-0.007330167107284069,-0.188599094748497,-0.3196258246898651
1701865291389510400,10.103510498046875,-0.008551862090826035,-0.19348587095737457,-0.30007871985435486
1701865291399103200,10.113103271484375,-0.010995250195264816,-0.19837264716625214,-0.2805316150188446
1701865291408696800,10.12269677734375,-0.010995250195264816,-0.20814619958400726,-0.26464956998825073
1701865291418289700,10.13228955078125,-0.009773556143045425,-0.22158484160900116,-0.2560977041721344
1701865291427881700,10.1418818359375,-0.009773556143045425,-0.23991025984287262,-0.2548760175704956
1701865291437474300,10.151474365234375,-0.007330167107284069,-0.26190075278282166,-0.2573194205760956
1701865291447068200,10.161068115234375,-0.0036650835536420345,-0.2802261710166931,-0.2670929729938507
1701865291456660700,10.17066064453125,-0.0012216945178806782,-0.2814478874206543,-0.27808821201324463
1701865291466252800,10.180252685546876,-0.0012216945178806782,-0.27411770820617676,-0.28786176443099976
1701865291475845600,10.189845703125,-0.010995250195264816,-0.25212720036506653,-0.30130040645599365
1701865291485439200,10.199439208984375,-0.01954711228609085,-0.22524993121623993,-0.31596073508262634
1701865291495032000,10.209031982421875,-0.010995250195264816,-0.20692451298236847,-0.32817769050598145
1701865291504624000,10.2186240234375,-0.012216945178806782,-0.18004722893238068,-0.3379512429237366
1701865291514217000,10.228217041015625,-0.014660334214568138,-0.14461809396743774,-0.34283801913261414
1701865291523810600,10.237810546875,-0.013438640162348747,-0.11651911586523056,-0.34283801913261414
1701865291533403100,10.247403076171874,-0.01588202826678753,-0.09330692142248154,-0.34283801913261414
1701865291542995200,10.2569951171875,-0.021990500390529633,-0.07375980913639069,-0.3452814221382141
1701865291552588000,10.266588134765625,-0.030542362481355667,-0.06154286116361618,-0.35138988494873047
1701865291562181600,10.276181640625,-0.04153761267662048,-0.050547610968351364,-0.3623851239681244
1701865291571774500,10.2857744140625,-0.05375456064939499,-0.03588727489113808,-0.3721587061882019
1701865291581366500,10.295366455078126,-0.06963659077882767,-0.018783552572131157,-0.3831539452075958
1701865291590959400,10.30495947265625,-0.07696675509214401,-0.004123218823224306,-0.39414918422698975
1701865291600553000,10.314552978515625,-0.07574506103992462,0.01175880990922451,-0.40514445304870605
1701865291610145500,10.3241455078125,-0.07207997888326645,0.04230117425322533,-0.4149180054664612
1701865291619737600,10.333737548828125,-0.06963659077882767,0.0850604772567749,-0.42224815487861633
1701865291629330400,10.343330322265626,-0.06841489672660828,0.12904147803783417,-0.4234698712825775
1701865291638924000,10.352924072265624,-0.061084724962711334,0.16935740411281586,-0.42102646827697754
1701865291648516900,10.362516845703125,-0.05497625470161438,0.19867807626724243,-0.42224815487861633
1701865291658109000,10.37210888671875,-0.042759306728839874,0.22555534541606903,-0.4234698712825775
1701865291667701800,10.38170166015625,-0.030542362481355667,0.25121092796325684,-0.41980478167533875
1701865291677295400,10.39129541015625,-0.01710372418165207,0.2707580327987671,-0.4124746024608612
1701865291686888000,10.400887939453124,-0.0024433890357613564,0.284196674823761,-0.3978142738342285
1701865291696480000,10.41047998046875,0.004886778071522713,0.2964136302471161,-0.3831539452075958
1701865291706072800,10.42007275390625,-0.01588202826678753,0.32573428750038147,-0.36727190017700195
1701865291715666400,10.42966650390625,-0.023212196305394173,0.3342861533164978,-0.3501681983470917
1701865291725259300,10.43925927734375,-0.007330167107284069,0.30252209305763245,-0.3367295563220978
1701865291734851300,10.448851318359376,0,0.2670929729938507,-0.3306210935115814
1701865291744444200,10.458444091796874,-0.007330167107284069,0.23777230083942413,-0.32573428750038147
1701865291754037800,10.468037841796875,-0.01710372418165207,0.2157817929983139,-0.3196258246898651
1701865291763630300,10.47763037109375,-0.025655584409832954,0.19501298666000366,-0.31229567527770996
1701865291773222400,10.487222412109375,-0.03176405653357506,0.17424418032169342,-0.30374380946159363
1701865291782815200,10.496815185546875,-0.04031591862440109,0.15836215019226074,-0.28908345103263855
1701865291792408800,10.506408935546874,-0.043981000781059265,0.14248012006282806,-0.27320143580436707
1701865291802001700,10.516001708984374,-0.045202698558568954,0.13026317954063416,-0.2585411071777344
1701865291811593700,10.52559375,-0.05131116881966591,0.11926792562007904,-0.23899398744106293
1701865291821186600,10.5351865234375,-0.061084724962711334,0.11438114941120148,-0.2157817929983139
1701865291830780200,10.5447802734375,-0.06841489672660828,0.10705098509788513,-0.19501298666000366
1701865291840372700,10.554372802734376,-0.0659715011715889,0.09239064902067184,-0.18646112084388733
1701865291849964800,10.56396484375,-0.07207997888326645,0.07040014863014221,-0.1766875684261322
1701865291859557600,10.5735576171875,-0.07574506103992462,0.056961506605148315,-0.1644706279039383
1701865291869151200,10.583151123046875,-0.0781884491443634,0.04718795046210289,-0.15591876208782196
1701865291878744000,10.592744140625,-0.0794101431965828,0.03130592033267021,-0.14614520967006683
1701865291888336100,10.602336181640625,-0.08063183724880219,0.010537114925682545,-0.1388150453567505
1701865291897929000,10.611928955078126,-0.08185353130102158,-0.009009997360408306,-0.13514995574951172
1701865291907522600,10.6215224609375,-0.08429691940546036,-0.021226942539215088,-0.13026317954063416
1701865291917115100,10.631115234375,-0.08429691940546036,-0.032222192734479904,-0.12293300777673721
1701865291926707200,10.640707275390625,-0.08429691940546036,-0.037108972668647766,-0.11438114941120148
1701865291936300000,10.650300048828125,-0.08918370306491852,-0.02367033064365387,-0.10460758954286575
1701865291945893600,10.6598935546875,-0.08796200156211853,-0.012675080448389053,-0.10216420143842697
1701865291955486500,10.669486572265624,-0.08674030750989914,0.0032069480512291193,-0.10338589549064636
1701865291965078500,10.67907861328125,-0.0794101431965828,0.017867282032966614,-0.11315945535898209
1701865291974671400,10.68867138671875,-0.07207997888326645,0.02886253222823143,-0.12659808993339539
1701865291984265000,10.698264892578125,-0.05375456064939499,0.02641914412379265,-0.1375933438539505
1701865291993857500,10.707857421875,-0.04031591862440109,0.03008422814309597,-0.14736689627170563
1701865292003449600,10.71744970703125,-0.03665083646774292,0.036192700266838074,-0.15714046359062195
1701865292013042400,10.72704248046875,-0.03420744836330414,0.039857782423496246,-0.16813570261001587
1701865292022636000,10.736635986328125,-0.01588202826678753,0.039857782423496246,-0.1913478970527649
1701865292032228900,10.746228759765625,-0.014660334214568138,0.038636088371276855,-0.21211670339107513
1701865292041821000,10.755821044921875,-0.024433890357613564,0.06062658876180649,-0.22066856920719147
1701865292051413800,10.765413818359375,-0.04153761267662048,0.08750387281179428,-0.22677704691886902
1701865292061007400,10.77500732421875,-0.061084724962711334,0.11560284346342087,-0.23410721123218536
1701865292070600000,10.784599853515624,-0.06963659077882767,0.13026317954063416,-0.23777230083942413
1701865292080192000,10.79419189453125,-0.06352811306715012,0.13514995574951172,-0.2438807636499405
1701865292089784800,10.803784912109375,-0.06841489672660828,0.14003673195838928,-0.2426590770483017
1701865292099378400,10.81337841796875,-0.0794101431965828,0.1510319858789444,-0.2304421216249466
1701865292108971300,10.82297119140625,-0.08307522535324097,0.1620272397994995,-0.21822518110275269
1701865292118563300,10.832563232421874,-0.08063183724880219,0.1620272397994995,-0.20967331528663635
1701865292128156200,10.84215625,-0.07085828483104706,0.16080553829669952,-0.20600824058055878
1701865292137749800,10.851749755859375,-0.05986303091049194,0.16935740411281586,-0.20600824058055878
1701865292147342300,10.86134228515625,-0.0525328628718853,0.18401773273944855,-0.20600824058055878
1701865292156934400,10.870934326171875,-0.05375456064939499,0.19745637476444244,-0.2145601063966751
1701865292166527200,10.88052734375,-0.05375456064939499,0.20600824058055878,-0.22555534541606903
1701865292176120800,10.890120849609374,-0.046424392610788345,0.2170034945011139,-0.23899398744106293
1701865292185713700,10.899713623046875,-0.03176405653357506,0.22677704691886902,-0.26098448038101196
1701865292195305700,10.9093056640625,-0.0390942245721817,0.2279987335205078,-0.27197974920272827
1701865292204898300,10.918898193359375,-0.05375456064939499,0.23655059933662415,-0.27197974920272827
1701865292214492200,10.9284921875,-0.062306419014930725,0.23777230083942413,-0.27442312240600586
1701865292224084700,10.938084716796874,-0.06719319522380829,0.23288552463054657,-0.27320143580436707
1701865292233676800,10.9476767578125,-0.0659715011715889,0.2279987335205078,-0.2683146595954895
1701865292243269600,10.95726953125,-0.0647498071193695,0.22433365881443024,-0.26342788338661194
1701865292252863200,10.96686328125,-0.07452336698770523,0.22066856920719147,-0.2573194205760956
1701865292262456000,10.9764560546875,-0.07085828483104706,0.21944688260555267,-0.24632415175437927
1701865292272048000,10.986048095703126,-0.05619794875383377,0.21822518110275269,-0.23532891273498535
1701865292281640700,10.995640625,-0.047646086663007736,0.2145601063966751,-0.22555534541606903
1701865292291234600,11.005234619140625,-0.042759306728839874,0.2047865390777588,-0.2157817929983139
1701865292300827100,11.0148271484375,-0.026877280324697495,0.1901262104511261,-0.21089501678943634
1701865292310419200,11.024419189453125,-0.009773556143045425,0.17302247881889343,-0.21333840489387512
1701865292320012000,11.034011962890625,-0.0036650835536420345,0.16935740411281586,-0.21211670339107513
1701865292329605600,11.043605712890624,-0.007330167107284069,0.16935740411281586,-0.20967331528663635
1701865292339198500,11.053198486328125,-0.012216945178806782,0.16691401600837708,-0.21089501678943634
1701865292348790500,11.06279052734375,-0.014660334214568138,0.15714046359062195,-0.2145601063966751
1701865292358383000,11.072383056640625,-0.01710372418165207,0.14492350816726685,-0.21944688260555267
1701865292367977000,11.08197705078125,-0.026877280324697495,0.1375933438539505,-0.21944688260555267
1701865292377569500,11.091569580078126,-0.045202698558568954,0.13026317954063416,-0.21089501678943634
1701865292387161600,11.10116162109375,-0.07574506103992462,0.11926792562007904,-0.19745637476444244
1701865292396754400,11.11075439453125,-0.08185353130102158,0.1119377613067627,-0.18157434463500977
1701865292406348000,11.12034814453125,-0.07452336698770523,0.1107160672545433,-0.1644706279039383
1701865292415940900,11.12994091796875,-0.06963659077882767,0.1107160672545433,-0.14370182156562805
1701865292425533000,11.139532958984375,-0.06719319522380829,0.10216420143842697,-0.12293300777673721
1701865292435125500,11.14912548828125,-0.0647498071193695,0.08139539510011673,-0.10827267915010452
1701865292444719400,11.15871923828125,-0.061084724962711334,0.06062658876180649,-0.09361234307289124
1701865292454312000,11.16831201171875,-0.05986303091049194,0.037414394319057465,-0.07895200699567795
1701865292463904000,11.177904052734375,-0.05986303091049194,0.015423892997205257,-0.06184828653931618
1701865292473496800,11.187496826171875,-0.05986303091049194,-0.0004581354442052543,-0.04230117425322533
1701865292483090400,11.19709033203125,-0.061084724962711334,-0.017561858519911766,-0.021532366052269936
1701865292492683300,11.206683349609374,-0.062306419014930725,-0.029778804630041122,-0.0007635590736754239
1701865292502275300,11.216275390625,-0.062306419014930725,-0.03833066672086716,0.01511846948415041
1701865292511868000,11.225867919921875,-0.05864133685827255,-0.0456608310341835,0.0261137206107378
1701865292521461800,11.235461669921875,-0.0525328628718853,-0.051769305020570755,0.031000498682260513
1701865292531054300,11.245054443359376,-0.046424392610788345,-0.05787777900695801,0.033443886786699295
1701865292540646400,11.254646484375,-0.03787253051996231,-0.05787777900695801,0.034665580838918686
1701865292550239200,11.2642392578125,-0.028098974376916885,-0.05787777900695801,0.037108972668647766
1701865292559832800,11.273832763671875,-0.01954711228609085,-0.06032116711139679,0.037108972668647766
1701865292569425700,11.28342578125,-0.013438640162348747,-0.06154286116361618,0.03833066672086716
1701865292579017500,11.293017578125,-0.008551862090826035,-0.06154286116361618,0.03955236077308655
1701865292588610300,11.3026103515625,-0.006108472589403391,-0.0590994730591774,0.04077405482530594
1701865292598204200,11.3122041015625,-0.0036650835536420345,-0.06276455521583557,0.04077405482530594
1701865292607796700,11.321796630859374,0,-0.06887302547693253,0.037108972668647766
1701865292617388800,11.331388916015625,0.007330167107284069,-0.07498150318861008,0.031000498682260513
1701865292626981600,11.340981689453125,0.014660334214568138,-0.0859767496585846,0.02244863659143448
1701865292636575200,11.3505751953125,0.021990500390529633,-0.09697200357913971,0.01511846948415041
1701865292646168000,11.36016796875,0.029320668429136276,-0.10674555599689484,0.011453386396169662
1701865292655760000,11.369759765625,0.03420744836330414,-0.11529742181301117,0.012675080448389053
1701865292665352700,11.379352783203124,0.0390942245721817,-0.11896250396966934,0.018783552572131157
1701865292674946300,11.3889462890625,0.043981000781059265,-0.11651911586523056,0.02244863659143448
1701865292684539100,11.3985390625,0.047646086663007736,-0.11529742181301117,0.020005248486995697
1701865292694131200,11.408131103515625,0.05008947476744652,-0.11285403370857239,0.012675080448389053
1701865292703724000,11.41772412109375,0.05131116881966591,-0.10674555599689484,0.0016798300202935934
1701865292713317600,11.427317626953124,0.047646086663007736,-0.10063708573579788,-0.01175880990922451
1701865292722910500,11.436910400390625,0.04153761267662048,-0.09086353331804276,-0.022754060104489326
1701865292732502300,11.446502197265625,0.03176405653357506,-0.07986827939748764,-0.02764083817601204
1701865292742095000,11.45609521484375,0.021990500390529633,-0.06398624926805496,-0.02641914412379265
1701865292751688700,11.465688720703126,0.01588202826678753,-0.052990999072790146,-0.022754060104489326
1701865292761281500,11.475281494140624,0.008551862090826035,-0.034665580838918686,-0.017867282032966614
1701865292770873600,11.48487353515625,0.0012216945178806782,-0.012675080448389053,-0.01175880990922451
1701865292780466400,11.494466552734375,-0.004886778071522713,0.009315420873463154,-0.010537114925682545
1701865292790060000,11.50406005859375,-0.006108472589403391,0.02641914412379265,-0.009315420873463154
1701865292799652900,11.51365283203125,-0.006108472589403391,0.03130592033267021,-0.012980503961443901
1701865292809244700,11.52324462890625,-0.007330167107284069,0.0325276181101799,-0.017867282032966614
1701865292818837500,11.53283740234375,-0.009773556143045425,0.03008422814309597,-0.019088976085186005
1701865292828431000,11.54243115234375,-0.014660334214568138,0.03008422814309597,-0.015423892997205257
1701865292838024000,11.55202392578125,-0.021990500390529633,0.03374931216239929,-0.010537114925682545
1701865292847616000,11.561615966796875,-0.029320668429136276,0.04230117425322533,-0.0068720318377017975
1701865292857208800,11.571208740234376,-0.03298575058579445,0.04474456235766411,-0.005650337319821119
1701865292866802400,11.580802490234374,-0.03420744836330414,0.04474456235766411,-0.0068720318377017975
1701865292876395300,11.590395263671875,-0.03542914241552353,0.04474456235766411,-0.010537114925682545
1701865292885987000,11.599987060546875,-0.03420744836330414,0.04107947647571564,-0.017867282032966614
1701865292895580000,11.609579833984375,-0.03420744836330414,0.036192700266838074,-0.023975754156708717
1701865292905173500,11.619173583984375,-0.03298575058579445,0.02886253222823143,-0.025197450071573257
1701865292914766300,11.628766357421876,-0.026877280324697495,0.025197450071573257,-0.023975754156708717
1701865292924358400,11.6383583984375,-0.02076880633831024,0.020310672000050545,-0.022754060104489326
1701865292933951200,11.647951171875,-0.013438640162348747,0.019088976085186005,-0.020310672000050545
1701865292943544800,11.657544921875,-0.007330167107284069,0.020310672000050545,-0.019088976085186005
1701865292953137400,11.667137451171875,-0.0036650835536420345,0.015423892997205257,-0.020310672000050545
1701865292962729500,11.6767294921875,-0.0036650835536420345,-0.010231691412627697,-0.022754060104489326
1701865292972322300,11.686322265625,-0.0024433890357613564,-0.052990999072790146,-0.03497100621461868
1701865292981916000,11.695916015625,0.009773556143045425,-0.10185877978801727,-0.05329642444849014
1701865292991508700,11.7055087890625,0.03787253051996231,-0.15927842259407043,-0.058183200657367706
1701865293001100800,11.715100830078125,0.014660334214568138,-0.09941539168357849,-0.06551336497068405
1701865293010693600,11.724693603515625,-0.0012216945178806782,-0.011453386396169662,-0.056961506605148315
1701865293020287200,11.734287353515626,0.01832541823387146,0.04352286830544472,-0.03497100621461868
1701865293029879800,11.7438798828125,0.025655584409832954,0.058183200657367706,-0.004428642801940441
1701865293039471900,11.753471923828124,0.029320668429136276,0.04474456235766411,0.016340164467692375
1701865293049064700,11.763064697265625,0.03176405653357506,0.04352286830544472,0.033443886786699295
1701865293058658300,11.772658203125,0.03298575058579445,0.04352286830544472,0.04688252881169319
1701865293068251100,11.782251220703126,0.03665083646774292,0.023975754156708717,0.06276455521583557
1701865293077843200,11.79184326171875,0.0390942245721817,0.014202198944985867,0.0713164210319519
1701865293087435800,11.801435791015624,0.03787253051996231,0.0068720318377017975,0.06765133142471313
1701865293097029600,11.811029541015625,0.03542914241552353,-0.010231691412627697,0.05543438717722893
1701865293106622200,11.820622314453125,0.03420744836330414,-0.02367033064365387,0.034665580838918686
1701865293116214300,11.83021435546875,0.029320668429136276,-0.02244863659143448,0.013896775431931019
1701865293125807000,11.83980712890625,0.023212196305394173,-0.010231691412627697,-0.001985253533348441
1701865293135400700,11.849400634765624,0.01832541823387146,0.0007635590736754239,-0.012980503961443901
1701865293144993500,11.85899365234375,0.009773556143045425,0.014202198944985867,-0.019088976085186005
1701865293154585300,11.86858544921875,-0.009773556143045425,0.015423892997205257,-0.02764083817601204
1701865293164178200,11.87817822265625,-0.009773556143045425,-0.018783552572131157,-0.056961506605148315
1701865293173772000,11.88777197265625,-0.0024433890357613564,-0.03833066672086716,-0.08994726091623306
1701865293183364600,11.897364501953126,-0.023212196305394173,-0.012675080448389053,-0.07528692483901978
1701865293192956700,11.906956787109374,-0.030542362481355667,0.03497100621461868,-0.0459662564098835
1701865293202549500,11.916549560546875,-0.03176405653357506,0.06795676052570343,-0.02886253222823143
