time,seconds_elapsed,z,y,x
1701865281398602200,0.112602294921875,7.352545738220215,6.0125651359558105,-2.2785654067993164
1701865281408195000,0.122195068359375,3.512364625930786,5.986244201660156,-1.550549030303955
1701865281417787100,0.131787109375,4.575376033782959,5.339882850646973,-0.8922237157821655
1701865281427380000,0.1413798828125,4.66869592666626,5.473880767822266,0.12771691381931305
1701865281436973600,0.1509736328125,5.676672458648682,6.1944193840026855,0.2066800594329834
1701865281446566400,0.16056640625,6.200999736785889,6.656533718109131,-0.8659027218818665
1701865281456158500,0.170158447265625,6.258427619934082,7.027719974517822,-1.7470595836639404
1701865281465751300,0.179751220703125,6.227321147918701,7.36032247543335,-2.551347255706787
1701865281475345000,0.189344970703125,6.440282344818115,7.430013179779053,-3.4372897148132324
1701865281484937700,0.198937744140625,7.110571384429932,7.599903583526611,-3.9927237033843994
1701865281494529800,0.20852978515625,8.068299293518066,7.702795028686523,-3.7196428775787354
1701865281504122600,0.21812255859375,9.133703231811523,7.480262756347656,-3.0373892784118652
1701865281513716500,0.227716552734375,9.428020477294922,7.03489875793457,-2.3742783069610596
1701865281523309000,0.23730908203125,8.769695281982422,6.649354934692383,-1.9384855031967163
1701865281532901000,0.246901123046875,7.5774712562561035,6.333502292633057,-1.6055840253829956
1701865281542494200,0.256494140625,5.820241928100586,5.993422508239746,-1.2418749332427979
1701865281552087800,0.266087890625,5.762814044952393,5.995815277099609,-0.9831510186195374
1701865281561680600,0.2756806640625,5.3246283531188965,6.247061729431152,-0.7869395613670349
1701865281571272700,0.285272705078125,5.3940205574035645,6.819245338439941,-0.6122635006904602
1701865281580865500,0.294865478515625,5.3246283531188965,7.1162543296813965,-0.24107688665390015
1701865281590459100,0.304459228515625,5.1188459396362305,6.668497562408447,0.4100699722766876
1701865281600052000,0.314052001953125,4.745266437530518,6.225526332855225,1.42043936252594
1701865281609644000,0.32364404296875,4.34536600112915,5.052444934844971,3.381357431411743
1701865281619236900,0.33323681640625,5.810670852661133,5.172086238861084,3.1130621433258057
1701865281628830500,0.34283056640625,6.809075832366943,5.914459228515625,1.85383939743042
1701865281638423300,0.35242333984375,6.564708709716797,6.7809600830078125,1.1213364601135254
1701865281648015400,0.362015380859375,5.915955066680908,7.741080284118652,0.6352944374084473
1701865281657608200,0.371608154296875,6.823432922363281,7.808079242706299,0.47706902027130127
1701865281667202000,0.3812021484375,7.792825222015381,6.728318214416504,2.0548365116119385
1701865281676794600,0.390794677734375,8.31715202331543,5.49302339553833,3.625425338745117
1701865281686386700,0.40038671875,9.303593635559082,5.42363166809082,3.694817304611206
1701865281695979800,0.409979736328125,10.510174751281738,5.4571309089660645,3.4005000591278076
1701865281705573400,0.419573486328125,11.659327507019043,5.117051124572754,3.355036497116089
1701865281715166200,0.429166259765625,12.447164535522461,4.920839786529541,3.0556344985961914
1701865281724758300,0.43875830078125,12.782159805297852,5.006981372833252,2.5241286754608154
1701865281734351000,0.44835107421875,12.06640625,5.062016487121582,1.8921245336532593
1701865281743944700,0.45794482421875,10.541280746459961,4.540081977844238,2.4308087825775146
1701865281753537500,0.46753759765625,9.004490852355957,4.480261325836182,3.0029923915863037
1701865281763129600,0.477129638671875,6.852146625518799,4.8777689933776855,3.512962818145752
1701865281772722400,0.486722412109375,5.3246283531188965,5.414060115814209,3.5560336112976074
1701865281782316000,0.49631591796875,4.680660247802734,5.8953166007995605,3.2997024059295654
1701865281791908900,0.505908935546875,4.584947109222412,5.983851432800293,3.2446675300598145
1701865281801501000,0.5155009765625,4.6663031578063965,5.878567218780518,3.433999538421631
1701865281811093800,0.52509375,5.008476734161377,5.545665740966797,3.3981072902679443
1701865281820687400,0.534687255859375,5.123631477355957,5.1529436111450195,3.4866416454315186
1701865281830280200,0.5442802734375,5.197809219360352,4.810770034790039,3.4483566284179688
1701865281839872300,0.553872314453125,5.281557559967041,4.413262367248535,3.242274761199951
1701865281849465000,0.563465087890625,5.408377170562744,3.941577196121216,3.2614171504974365
1701865281859058700,0.57305859375,5.7221360206604,3.6568312644958496,3.5153555870056152
1701865281868651500,0.582651611328125,6.315855503082275,3.489034414291382,3.9463627338409424
1701865281878243600,0.59224365234375,6.734898567199707,3.489034414291382,4.822434902191162
1701865281887836700,0.601836669921875,7.072286605834961,3.5850465297698975,5.454439163208008
1701865281897430300,0.61143017578125,7.184749126434326,3.707080364227295,6.02901554107666
1701865281907022800,0.62102294921875,6.433103561401367,3.8458642959594727,6.242276191711426
1701865281916615200,0.630615234375,5.281557559967041,3.9535412788391113,6.27577543258667
1701865281926207700,0.640207763671875,4.520340919494629,4.185944080352783,6.414559364318848
1701865281935801600,0.649801513671875,4.082155227661133,4.700700283050537,6.558128833770752
1701865281945394400,0.65939453125,3.7731821537017822,4.978267669677734,6.879065990447998
1701865281954986500,0.668986572265625,3.691826343536377,4.887340068817139,7.561319351196289
1701865281964579300,0.678579345703125,3.675076484680176,4.698307037353516,8.397012710571289
1701865281974173000,0.6881728515625,3.722932815551758,4.585545539855957,9.206086158752441
1701865281983765800,0.697765869140625,3.75643253326416,4.480261325836182,9.90987491607666
1701865281993357800,0.70735791015625,3.5721850395202637,4.667200565338135,10.455738067626953
1701865282002950700,0.71695068359375,3.191427230834961,4.856233596801758,9.952945709228516
1701865282012544300,0.726544189453125,2.6383860111236572,4.77248477935791,9.53659439086914
1701865282022137000,0.73613720703125,2.456531524658203,4.657629489898682,8.813364028930664
1701865282031729200,0.745729248046875,2.080559253692627,4.657629489898682,7.89422082901001
1701865282041322000,0.755322021484375,2.0709879398345947,4.549653053283691,7.108777046203613
1701865282050915600,0.76491552734375,2.964108943939209,4.19072961807251,6.687341213226318
1701865282060508400,0.77450830078125,3.643969774246216,3.7836508750915527,6.800102710723877
1701865282070100500,0.7841005859375,4.65433931350708,3.2353954315185547,6.704390048980713
1701865282079693300,0.793693359375,5.889633655548096,2.723032236099243,6.814459800720215
1701865282089287000,0.803286865234375,7.050751209259033,2.3662025928497314,7.070491790771484
1701865282098879700,0.812879638671875,7.747361660003662,2.079063892364502,7.147062301635742
1701865282108471800,0.822471923828125,8.001299858093262,1.832603096961975,7.2212395668029785
1701865282118064600,0.832064697265625,8.113762855529785,1.815853238105774,6.998707294464111
1701865282127658500,0.841658447265625,7.881658554077148,1.6480566263198853,6.512664794921875
1701865282137251000,0.8512509765625,7.510472297668457,1.2747762203216553,6.081657886505127
1701865282146843400,0.860843505859375,7.172784805297852,1.1021939516067505,5.80409049987793
1701865282156436000,0.87043603515625,6.720541477203369,1.0710872411727905,5.67966365814209
1701865282166029800,0.88002978515625,6.471388816833496,0.8078767657279968,6.38584566116333
1701865282175622700,0.88962255859375,6.485745906829834,0.8461619019508362,7.70249605178833
1701865282185214700,0.899214599609375,6.385247230529785,0.9418748021125793,8.930612564086914
1701865282194807600,0.9088076171875,6.27278470993042,0.9275178909301758,10.05823040008545
1701865282204401200,0.918401123046875,6.282355785369873,1.150050401687622,10.838888168334961
1701865282213994000,0.927993896484375,6.042774677276611,1.3417752981185913,10.929815292358398
1701865282223586000,0.9375859375,5.472983360290527,1.358525037765503,10.563414573669434
1701865282233179000,0.947178955078125,5.0638108253479,1.4135600328445435,10.242776870727539
1701865282242772500,0.9567724609375,4.78594446182251,1.5547364950180054,10.501201629638672
1701865282252365300,0.966365234375,4.443471431732178,1.6049858331680298,11.128419876098633
1701865282261957400,0.975957275390625,4.216153621673584,1.5379867553710938,11.616854667663574
1701865282271550200,0.98555029296875,4.175475597381592,1.5188441276550293,11.566605567932129
1701865282281143800,0.995143798828125,4.445864677429199,1.4590235948562622,11.061420440673828
1701865282290736600,1.004736572265625,4.812265396118164,1.1859427690505981,10.56820011138916
1701865282300328700,1.01432861328125,5.169095039367676,0.750449001789093,10.120742797851562
1701865282309921500,1.023921630859375,5.525625705718994,0.3074777126312256,9.811769485473633
1701865282319515100,1.03351513671875,5.96381139755249,-0.1091725304722786,9.622735977172852
1701865282329108000,1.04310791015625,6.33499813079834,-0.33409786224365234,9.442975044250488
1701865282338700000,1.052699951171875,6.495316982269287,-0.4612165689468384,9.218050003051758
1701865282348293000,1.062293212890625,6.49770975112915,-0.5784648656845093,8.839685440063477
1701865282357886700,1.07188671875,6.399604320526123,-0.7746763229370117,8.260322570800781
1701865282367479300,1.081479248046875,6.296712875366211,-1.088435173034668,7.805387496948242
1701865282377071400,1.0910712890625,6.220142364501953,-1.2535399198532104,7.518248558044434
1701865282386664400,1.10066455078125,6.358926296234131,-1.423430323600769,7.470392227172852
1701865282396258000,1.110258056640625,6.502495765686035,-1.6103696823120117,7.611568927764893
1701865282405851000,1.119850830078125,6.543173313140869,-1.8903298377990723,7.8918280601501465
1701865282415442700,1.129442626953125,6.538387775421143,-2.021935224533081,7.9612202644348145
1701865282425035800,1.139035888671875,6.461817741394043,-2.0650060176849365,7.829614639282227
1701865282434629400,1.14862939453125,6.289534091949463,-2.1873390674591064,7.87986421585083
1701865282444222200,1.15822216796875,6.002096652984619,-2.292623281478882,8.231609344482422
1701865282453814300,1.167814208984375,5.6671013832092285,-2.302194595336914,8.58604621887207
1701865282463407000,1.177406982421875,5.327021598815918,-2.3835504055023193,8.74636459350586
1701865282473000700,1.187000732421875,5.090131759643555,-2.419442892074585,9.00987434387207
1701865282482593500,1.196593505859375,4.764409065246582,-2.3213369846343994,9.522237777709961
1701865282492185600,1.206185546875,4.175475597381592,-2.144268274307251,9.948160171508789
1701865282501778400,1.2157783203125,3.5075788497924805,-1.9525432586669922,10.166206359863281
1701865282511372000,1.2253720703125,2.954537868499756,-1.698904037475586,10.163813591003418
1701865282520964900,1.23496484375,2.509173631668091,-1.4760724306106567,10.182955741882324
1701865282530557000,1.244556884765625,2.0279171466827393,-1.2990036010742188,10.247562408447266
1701865282540149800,1.254149658203125,1.6399807929992676,-1.2367901802062988,10.223633766174316
1701865282549743400,1.263743408203125,1.532303810119629,-1.210469126701355,10.120742797851562
1701865282559336200,1.273336181640625,1.6857435703277588,-1.2990036010742188,9.859625816345215
1701865282568928300,1.28292822265625,1.9250258207321167,-1.435394525527954,9.555737495422363
1701865282578521000,1.29252099609375,2.2244277000427246,-1.5672988891601562,9.256335258483887
1701865282588114700,1.30211474609375,2.7269206047058105,-1.674975872039795,9.060123443603516
1701865282597707500,1.31170751953125,3.2823543548583984,-1.765903115272522,9.122337341308594
1701865282607299600,1.321299560546875,3.770789384841919,-1.797009825706482,9.308977127075195
1701865282616892400,1.330892333984375,4.1036906242370605,-1.832902193069458,9.426225662231445
1701865282626486000,1.340486083984375,4.295116424560547,-1.825723648071289,9.347262382507324
1701865282636078800,1.350078857421875,4.323830604553223,-1.8161523342132568,9.031410217285156
1701865282645671000,1.3596708984375,4.280759811401367,-1.8664016723632812,8.650651931762695
1701865282655263700,1.369263671875,4.192225456237793,-1.9214365482330322,8.245965957641602
1701865282664857600,1.378857666015625,4.144368648529053,-2.00518536567688,7.8678998947143555
1701865282674450200,1.3884501953125,4.213760852813721,-2.1128623485565186,7.606783390045166
1701865282684042200,1.398042236328125,4.46769905090332,-2.175374984741211,7.369893550872803
1701865282693635300,1.40763525390625,4.72373104095459,-2.1897318363189697,6.991528511047363
1701865282703229000,1.41722900390625,5.085346221923828,-2.208874464035034,6.675376892089844
1701865282712821800,1.42682177734375,5.511268615722656,-2.2184457778930664,6.560521602630615
1701865282722413600,1.43641357421875,5.875277042388916,-2.247159481048584,6.601199626922607
1701865282732006700,1.446006591796875,6.165107727050781,-2.2591235637664795,6.735496520996094
1701865282741600300,1.455600341796875,6.212964057922363,-2.2591235637664795,6.819245338439941
1701865282751193000,1.465193115234375,5.978168487548828,-2.318944215774536,6.7642107009887695
1701865282760785200,1.47478515625,5.679065227508545,-2.4074785709381104,6.728318214416504
1701865282770378000,1.4843779296875,5.358128070831299,-2.371586322784424,6.7331037521362305
1701865282779971600,1.4939716796875,4.982155799865723,-2.4888346195220947,6.883851528167725
1701865282789564400,1.503564453125,4.733302116394043,-2.6036901473999023,7.23798942565918
1701865282799156500,1.513156494140625,4.718945503234863,-2.7140591144561768,7.575676441192627
1701865282808749300,1.522749267578125,4.862514495849609,-2.833700180053711,7.83200740814209
1701865282818343000,1.532343017578125,5.070989608764648,-2.8456642627716064,7.901399612426758
1701865282827935700,1.541935791015625,5.255236625671387,-2.7978079319000244,7.798209190368652
1701865282837527800,1.55152783203125,5.271986484527588,-2.922234535217285,7.683353424072266
1701865282847120600,1.56112060546875,5.396413326263428,-3.0658040046691895,7.9157562255859375
1701865282856714200,1.57071435546875,5.336592674255371,-3.118446111679077,8.107182502746582
1701865282866307000,1.58030712890625,4.931906700134277,-3.2404799461364746,8.052146911621094
1701865282875899100,1.589899169921875,4.503591537475586,-3.3795628547668457,7.822137355804443
1701865282885492000,1.599491943359375,4.115654945373535,-3.5925240516662598,7.465606689453125
1701865282895085600,1.60908544921875,3.6822550296783447,-3.899104595184326,7.190133094787598
1701865282904678400,1.618678466796875,3.440579891204834,-4.18863582611084,7.319644451141357
1701865282914270500,1.6282705078125,3.2967114448547363,-4.329812526702881,7.503891944885254
1701865282923863300,1.63786328125,2.9856443405151367,-4.526323318481445,7.685746192932129
1701865282933457000,1.647456787109375,2.542673110961914,-4.732105731964111,7.853542804718018
1701865282943049700,1.6570498046875,2.11405873298645,-4.8421759605407715,7.877471446990967
1701865282952641800,1.666641845703125,1.470090389251709,-5.062614440917969,8.150253295898438
1701865282962234600,1.676234619140625,0.263509601354599,-5.160720348358154,8.81814956665039
1701865282971828200,1.685828125,-0.18424734473228455,-5.1320061683654785,8.715258598327637
1701865282981421000,1.695421142578125,-0.6296114325523376,-5.158327579498291,9.136693954467773
1701865282991013000,1.70501318359375,-0.6942176818847656,-5.42153787612915,9.730413436889648
1701865283000606000,1.71460595703125,-0.6631109714508057,-5.620441436767578,10.300204277038574
1701865283010199800,1.72419970703125,-0.9311071038246155,-5.9315080642700195,11.2005033493042
1701865283019792400,1.73379248046875,-0.9981061220169067,-5.912365436553955,11.93061351776123
1701865283029384400,1.743384521484375,-0.7588238716125488,-5.92432975769043,12.141181945800781
1701865283038977300,1.752977294921875,-0.3326023519039154,-6.0610198974609375,11.863615036010742
1701865283048571100,1.762571044921875,0.1989033818244934,-6.135197162628174,11.346466064453125
1701865283058163700,1.772163818359375,1.2451651096343994,-6.159125328063965,10.673783302307129
1701865283067755800,1.781755859375,10.196714401245117,-6.738487720489502,9.48365306854248
1701865283077348900,1.791348876953125,7.120142936706543,-6.606583118438721,8.487939834594727
1701865283086942500,1.8009423828125,1.8915263414382935,-6.7049880027771,8.612366676330566
1701865283096535000,1.81053515625,-1.5200406312942505,-6.4510498046875,7.716853141784668
1701865283106127000,1.820127197265625,-1.709073543548584,-6.372086524963379,7.41535758972168
1701865283115720200,1.82972021484375,0.09840483218431473,-5.481358528137207,7.139883518218994
1701865283125313800,1.839313720703125,1.5251253843307495,-5.163113117218018,7.827221870422363
1701865283134906600,1.84890673828125,2.861217737197876,-5.333003520965576,8.281858444213867
1701865283144498400,1.85849853515625,3.3230323791503906,-5.524728298187256,8.633902549743652
1701865283154091500,1.868091552734375,2.9928228855133057,-5.663512229919434,8.420941352844238
1701865283163685000,1.87768505859375,2.7197420597076416,-5.61326265335083,8.071290016174316
1701865283173277700,1.887277587890625,2.446960210800171,-5.445466041564941,7.76470947265625
1701865283182870000,1.8968701171875,2.6407787799835205,-5.409573554992676,7.637889862060547
1701865283192462600,1.906462646484375,3.2584261894226074,-5.603691577911377,7.795815944671631
1701865283202056400,1.916056396484375,4.161118507385254,-5.775974750518799,8.16700267791748
1701865283211649300,1.925649169921875,4.237689018249512,-5.711368560791016,8.064111709594727
1701865283221241300,1.935241455078125,3.6248271465301514,-5.586941719055176,7.7455668449401855
1701865283230834200,1.944834228515625,2.564208507537842,-5.330610752105713,7.594819068908691
1701865283240427800,1.954427734375,1.8460626602172852,-5.170291423797607,7.5708909034729
1701865283250020600,1.9640205078125,1.6498512029647827,-5.0841498374938965,7.434499740600586
1701865283259612700,1.97361279296875,1.7407784461975098,-5.151148796081543,7.317251682281494
1701865283269205500,1.98320556640625,1.9202401638031006,-5.2253265380859375,7.178168773651123
1701865283278799000,1.992799072265625,1.8939191102981567,-5.433502197265625,6.656234264373779
1701865283288392000,2.002391845703125,2.080559253692627,-5.687440395355225,6.088836193084717
1701865283297984000,2.01198388671875,2.612065076828003,-5.833402633666992,6.136693000793457
1701865283307576800,2.021576904296875,2.767897605895996,-5.953043460845947,6.936493873596191
1701865283317170400,2.03117041015625,2.478066921234131,-6.056233882904053,7.606783390045166
1701865283326763300,2.04076318359375,2.059023857116699,-6.0248284339904785,7.334001541137695
1701865283336355300,2.050355224609375,1.450947880744934,-6.080162525177002,6.996314525604248
1701865283345948200,2.0599482421875,0.9888339638710022,-6.166304111480713,6.859923362731934
1701865283355541800,2.069541748046875,0.7447660565376282,-6.393621921539307,6.675376892089844
1701865283365134600,2.079134521484375,0.6035895347595215,-6.69780969619751,6.383452415466309
1701865283374726700,2.0887265625,0.5003990530967712,-6.910770893096924,6.107978820800781
1701865283384319500,2.098319580078125,0.5051847100257874,-6.984948635101318,5.899803161621094
1701865283393913000,2.1079130859375,0.5437689423561096,-6.975377082824707,5.423332691192627
1701865283403506000,2.117505859375,0.45254257321357727,-7.22452974319458,4.954040050506592
1701865283413098000,2.127097900390625,3.040679454803467,-8.265707015991211,10.228419303894043
1701865283422690800,2.13669091796875,4.7931227684021,-7.585845947265625,11.753544807434082
1701865283432284400,2.146284423828125,3.478864908218384,-7.229315280914307,11.753544807434082
1701865283441877200,2.155877197265625,2.2148563861846924,-6.850950241088867,7.829614639282227
1701865283451469300,2.16546923828125,-0.014057832770049572,-7.22452974319458,7.070491790771484
1701865283461062100,2.175062255859375,-1.7018951177597046,-7.097411155700684,5.454439163208008
1701865283470655700,2.18465576171875,-2.0108683109283447,-7.310671329498291,4.963611602783203
1701865283480248600,2.19424853515625,-0.3900300860404968,-7.928318500518799,5.0979084968566895
1701865283489840600,2.203840576171875,2.0446670055389404,-8.768498420715332,5.5983076095581055
1701865283499433500,2.21343359375,3.7444684505462646,-8.89801025390625,5.7873406410217285
1701865283509027000,2.223027099609375,3.01196551322937,-8.129315376281738,5.600700378417969
1701865283518620000,2.232619873046875,1.5227324962615967,-7.044768810272217,5.0907301902771
1701865283528212000,2.2422119140625,0.39990049600601196,-7.451848030090332,5.638985633850098
1701865283537804800,2.2518046875,-0.13639089465141296,-7.439883708953857,6.175277233123779
1701865283547398400,2.2613984375,0.21804596483707428,-7.801498889923096,6.661019802093506
1701865283556991200,2.2709912109375,1.1159526109695435,-8.284849166870117,6.625127792358398
1701865283566583300,2.280583251953125,1.2044870853424072,-8.253742218017578,6.172883987426758
1701865283576176000,2.290176025390625,0.584446907043457,-8.050353050231934,5.880660533905029
1701865283585769700,2.299769775390625,0.12472587823867798,-8.035995483398438,5.789733409881592
1701865283595362600,2.309362548828125,0.22761724889278412,-8.091031074523926,5.67966365814209
1701865283604954600,2.31895458984375,0.5653043389320374,-7.602595806121826,4.695615291595459
1701865283614547500,2.32854736328125,0.2754737138748169,-7.296314239501953,4.271786689758301
1701865283624141000,2.33814111328125,0.263509601354599,-7.564310550689697,4.607080936431885
1701865283633734000,2.34773388671875,0.5557330846786499,-7.514061450958252,4.549653053283691
1701865283643326000,2.357325927734375,0.8380861282348633,-7.435098171234131,4.195216178894043
1701865283652918800,2.366918701171875,0.9146564602851868,-7.394420146942139,3.8407795429229736
1701865283662512400,2.376512451171875,0.8835497498512268,-7.478168964385986,3.790530204772949
1701865283672105200,2.386105224609375,1.2140583992004395,-7.607381343841553,3.8623149394989014
1701865283681697300,2.395697265625,1.233201026916504,-7.581060409545898,4.724328994750977
1701865283691290000,2.4052900390625,0.4860421121120453,-7.370491981506348,5.339583873748779
1701865283700883700,2.4148837890625,-0.20817556977272034,-7.236494064331055,5.6533427238464355
1701865283710476500,2.4244765625,-1.2424731254577637,-7.133303165435791,5.710770130157471
1701865283720068600,2.434068603515625,-2.396411895751953,-7.406384468078613,5.591129302978516
1701865283729661400,2.443661376953125,-2.389233350753784,-7.880462169647217,5.823233127593994
1701865283739255000,2.453255126953125,-1.92951238155365,-8.517251968383789,6.131906986236572
1701865283748847900,2.462847900390625,-1.170688509941101,-9.266505241394043,6.2159552574157715
1701865283758440000,2.47243994140625,-1.287936806678772,-9.807581901550293,6.096014976501465
1701865283768032800,2.48203271484375,-2.192722797393799,-10.209875106811523,5.636592864990234
1701865283777626400,2.49162646484375,-3.3179476261138916,-10.47069263458252,4.798506736755371
1701865283787219200,2.50121923828125,-3.0738797187805176,-10.245767593383789,4.106681823730469
1701865283796811300,2.510811279296875,-1.3956137895584106,-8.196314811706543,2.4308087825775146
1701865283806404000,2.520404052734375,-0.2584248483181,-6.712166786193848,-0.38703906536102295
1701865283815997700,2.529997802734375,1.3097712993621826,-6.7432732582092285,-0.5186443328857422
1701865283825590500,2.539590576171875,2.4445674419403076,-6.616453647613525,1.5687943696975708
1701865283835182600,2.5491826171875,3.5458641052246094,-6.608976364135742,2.1577277183532715
1701865283844775400,2.558775390625,5.252843856811523,-6.111268997192383,1.7389838695526123
1701865283854369000,2.568369140625,4.374079704284668,-4.523930072784424,0.7692924737930298
1701865283863961900,2.5779619140625,-1.0292128324508667,-3.975674867630005,1.8705891370773315
1701865283873554000,2.587553955078125,-0.27756741642951965,-4.562215328216553,2.576770782470703
1701865283883146800,2.597146728515625,2.698206663131714,-4.923531532287598,3.1992039680480957
1701865283892740400,2.606740234375,3.1866414546966553,-5.945865154266357,4.623830795288086
1701865283902333200,2.616333251953125,2.885145902633667,-6.553941249847412,4.7626142501831055
1701865283911925200,2.62592529296875,1.2140583992004395,-6.903592586517334,3.819244146347046
1701865283921518000,2.63551806640625,-5.558825969696045,-9.11575698852539,3.9774694442749023
1701865283931111700,2.645111572265625,-8.633005142211914,-12.721142768859863,4.910969257354736
1701865283940704500,2.65470458984375,-6.803991317749023,-15.68285846710205,2.107478618621826
1701865283950296600,2.664296630859375,-2.575873613357544,-16.707286834716797,0.2832503914833069
1701865283959889400,2.673889404296875,0.6514459848403931,-17.46401596069336,1.0564311742782593
1701865283969483000,2.68348291015625,1.348056435585022,-14.997913360595703,1.1859427690505981
1701865283979075800,2.693075927734375,3.605684518814087,-13.482658386230469,2.4475584030151367
1701865283988668000,2.70266796875,4.369294166564941,-12.795619010925293,2.7299115657806396
1701865283998260700,2.7122607421875,2.1930220127105713,-11.4954195022583,2.370988130569458
1701865284007854300,2.721854248046875,0.37836506962776184,-10.88016414642334,2.6916263103485107
1701865284017447200,2.731447265625,-1.1416754722595215,-11.447562217712402,3.716352701187134
1701865284027039200,2.741039306640625,-2.348555326461792,-12.388540267944336,4.06839656829834
1701865284036632000,2.750632080078125,-2.3365912437438965,-13.834403038024902,4.099503517150879
1701865284046225700,2.7602255859375,-1.2329018115997314,-16.154542922973633,4.848755836486816
1701865284055818500,2.769818603515625,1.4676976203918457,-18.950557708740234,6.766603469848633
1701865284065410600,2.77941064453125,3.849752426147461,-14.933306694030762,5.492724418640137
1701865284075003400,2.78900341796875,2.698206663131714,-9.857831001281738,2.2896320819854736
1701865284084597000,2.798596923828125,0.4812564551830292,-9.048757553100586,-0.12143574655056
1701865284094189800,2.80818994140625,-0.6080760359764099,-9.752547264099121,0.9056833982467651
1701865284103782000,2.817781982421875,-0.4163511395454407,-10.097412109375,1.8131613731384277
1701865284113374700,2.827374755859375,0.17736798524856567,-9.881759643554688,2.0165512561798096
1701865284122968300,2.83696826171875,0.24436701834201813,-9.613762855529785,1.932802438735962
1701865284132561200,2.84656103515625,-0.002093719784170389,-9.616155624389648,1.937588095664978
1701865284142153200,2.8561533203125,-0.13878370821475983,-9.802796363830566,2.0237298011779785
1701865284151746000,2.86574609375,-0.05742774158716202,-9.987342834472656,2.179263114929199
1701865284161339600,2.875339599609375,0.1295115202665329,-10.085448265075684,2.356631278991699
1701865284170932500,2.884932373046875,0.29700911045074463,-10.039984703063965,2.339881420135498
1701865284180524500,2.894524658203125,0.35443684458732605,-9.93679428100586,2.260918378829956
1701865284190117400,2.904117431640625,0.2874378263950348,-9.874580383300781,2.1984057426452637
1701865284199711000,2.9137109375,0.20129621028900146,-9.719047546386719,2.0955145359039307
1701865284209303800,2.9233037109375,0.1701895147562027,-9.635298728942871,2.1960129737854004
1701865284218896000,2.932895751953125,0.17736798524856567,-9.671191215515137,2.332702875137329
1701865284228488700,2.94248876953125,0.15104693174362183,-9.759725570678711,2.440380096435547
1701865284238082300,2.952082275390625,0.11515458673238754,-9.833903312683105,2.3422741889953613
1701865284247675100,2.961675048828125,0.07926224917173386,-9.88415241241455,2.2178475856781006
1701865284257267200,2.97126708984375,0.01704886183142662,-9.90568733215332,2.193620204925537
1701865284266860000,2.980860107421875,0.036191441118717194,-9.93679428100586,2.251347064971924
1701865284276453600,2.99045361328125,0.1701895147562027,-9.879366874694824,2.200798511505127
1701865284286046500,3.00004638671875,0.9074779748916626,-9.414859771728516,2.5025932788848877
1701865284295638500,3.009638427734375,-0.5910272002220154,-9.999306678771973,2.1888344287872314
1701865284305231400,3.0192314453125,0.2228316068649292,-9.992128372192383,1.9471594095230103
1701865284314825000,3.028824951171875,0.9505487680435181,-9.917651176452637,2.2055842876434326
1701865284324417800,3.038417724609375,0.5557330846786499,-9.853045463562012,2.387737989425659
1701865284334009900,3.048009765625,0.17736798524856567,-8.742177963256836,1.693520188331604
1701865284343602700,3.057602783203125,-0.23210379481315613,-6.886842727661133,0.865005373954773
1701865284353196300,3.0671962890625,-0.11006984114646912,-6.546762943267822,0.9559326171875
1701865284362789000,3.0767890625,0.47647079825401306,-7.380063056945801,1.054038405418396
1701865284372381200,3.086381103515625,1.8388842344284058,-6.522834300994873,0.05832505226135254
1701865284381974000,3.09597412109375,0.08404789865016937,-9.7669038772583,1.5281163454055786
1701865284391567600,3.105567626953125,0.6370890140533447,-11.782856941223145,4.456333160400391
1701865284401160400,3.115160400390625,0.5892325639724731,-12.261720657348633,5.607879161834717
1701865284410752500,3.12475244140625,-1.194616675376892,-11.222637176513672,5.076373100280762
1701865284420345300,3.134345458984375,-1.074676513671875,-10.035199165344238,3.927220106124878
1701865284429939000,3.14393896484375,-0.026021946221590042,-9.606584548950195,3.084348440170288
1701865284439531800,3.15353173828125,0.4621138870716095,-9.467801094055176,2.701197624206543
1701865284449123800,3.163123779296875,0.649053156375885,-9.347860336303711,2.5959134101867676
1701865284458716700,3.172716552734375,0.7088736891746521,-9.27129077911377,2.6485555171966553
1701865284468310300,3.182310302734375,0.7639086246490479,-9.27129077911377,2.8043880462646484
1701865284477903000,3.191903076171875,0.7208378314971924,-9.280861854553223,2.8426733016967773
1701865284487495200,3.2014951171875,0.6969096064567566,-9.321539878845215,2.7972097396850586
1701865284497087700,3.211087646484375,0.6753742098808289,-9.441479682922363,2.7514469623565674
1701865284506681600,3.220681640625,0.6442674994468689,-9.589835166931152,2.708376169204712
1701865284516274400,3.2302744140625,0.6131607890129089,-9.719047546386719,2.677269458770752
1701865284525866200,3.2398662109375,0.5724828243255615,-9.814760208129883,2.607877492904663
1701865284535459300,3.249459228515625,0.5413761138916016,-9.874580383300781,2.5408785343170166
1701865284545053000,3.259052978515625,0.41904306411743164,-9.965508460998535,2.5073790550231934
1701865284554645500,3.2686455078125,0.3209373354911804,-10.030413627624512,2.457129716873169
1701865284564237800,3.27823779296875,0.26111677289009094,-10.099804878234863,2.3685953617095947
1701865284573830400,3.287830322265625,0.2587239444255829,-10.181160926818848,2.3135604858398438
1701865284583424300,3.29742431640625,0.3113660514354706,-10.262516975402832,2.292025089263916
1701865284593017000,3.30701708984375,0.39990049600601196,-10.291231155395508,2.292025089263916
1701865284602609000,3.31660888671875,0.49322056770324707,-10.305587768554688,2.275275230407715
1701865284612201700,3.32620166015625,0.5365904569625854,-10.334301948547363,2.3255245685577393
1701865284621795600,3.335795654296875,0.5772684812545776,-10.319945335388184,2.3685953617095947
1701865284631388200,3.34538818359375,0.6538388133049011,-10.288838386535645,2.3973093032836914
1701865284640980200,3.354980224609375,0.7328019142150879,-10.257731437683105,2.48105788230896
1701865284650573000,3.364572998046875,0.8309076428413391,-10.147662162780762,2.5313072204589844
1701865284660167000,3.3741669921875,0.8380861282348633,-10.066306114196777,2.5648066997528076
1701865284669759500,3.383759521484375,0.8213363885879517,-9.941579818725586,2.4834508895874023
1701865284679351600,3.3933515625,0.8165507316589355,-9.80518913269043,2.385344982147217
1701865284688944400,3.4029443359375,0.8428717851638794,-9.723833084106445,2.2872393131256104
1701865284698538200,3.412538330078125,0.8500502705574036,-9.642477035522461,2.186441659927368
1701865284708130800,3.422130859375,0.8763712644577026,-9.601799011230469,2.114656925201416
1701865284717723000,3.431722900390625,0.859621524810791,-9.56351375579834,2.059622049331665
1701865284727315700,3.441315673828125,0.8117650747299194,-9.553942680358887,2.028515338897705
1701865284736909300,3.450909423828125,0.7304090857505798,-9.54915714263916,2.0548365116119385
1701865284746502100,3.460502197265625,0.649053156375885,-9.54197883605957,2.0476579666137695
1701865284756094200,3.47009423828125,0.6203392744064331,-9.534799575805664,2.090728759765625
1701865284765687000,3.47968701171875,0.6131607890129089,-9.537193298339844,2.1026928424835205
1701865284775280600,3.48928076171875,0.617946445941925,-9.54915714263916,2.105085611343384
1701865284784873500,3.49887353515625,0.6705885529518127,-9.585049629211426,2.083550214767456
1701865284794465500,3.508465576171875,0.6681957244873047,-9.637691497802734,2.1026928424835205
1701865284804058400,3.518058349609375,0.6586244106292725,-9.690333366394043,2.0955145359039307
1701865284813652000,3.52765185546875,0.5724828243255615,-9.721440315246582,2.050050735473633
1701865284823244800,3.537244873046875,0.4046861231327057,-9.77408218383789,1.9423737525939941
1701865284832836900,3.5468369140625,0.25393831729888916,-9.881759643554688,1.7533408403396606
1701865284842429700,3.5564296875,0.08404789865016937,-9.994521141052246,1.6453646421432495
1701865284852023300,3.566023193359375,-0.13639089465141296,-10.154840469360352,1.5903297662734985
1701865284861616000,3.5756162109375,-0.363709032535553,-10.310373306274414,1.5520446300506592
1701865284871208200,3.585208251953125,-0.6367899179458618,-10.482656478881836,1.4778671264648438
1701865284880801000,3.594801025390625,-0.8808578252792358,-10.497014045715332,1.4659029245376587
1701865284890394600,3.60439453125,-1.0172487497329712,-10.44915771484375,1.4324034452438354
1701865284899987500,3.613987548828125,-1.1249257326126099,-10.293623924255371,1.3247264623641968
1701865284909579500,3.62357958984375,-1.165902853012085,-10.138090133666992,1.1979068517684937
1701865284919172400,3.63317236328125,-1.1611171960830688,-9.992128372192383,1.0516455173492432
1701865284928766000,3.642765869140625,-1.5415760278701782,-9.881759643554688,0.8051848411560059
1701865284938358800,3.65235888671875,-1.3716856241226196,-9.872187614440918,1.0396814346313477
1701865284947950800,3.661950927734375,-1.6516457796096802,-10.032806396484375,1.1979068517684937
1701865284957543700,3.671543701171875,-1.1273186206817627,-10.154840469360352,1.4730814695358276
1701865284967137300,3.68113720703125,-1.0316057205200195,-10.171589851379395,1.7150555849075317
1701865284976730000,3.690730224609375,-1.4482558965682983,-10.32473087310791,2.44277286529541
1701865284986322200,3.700322265625,-2.0012969970703125,-10.430014610290527,2.7466611862182617
1701865284995915000,3.7099150390625,-2.2764716148376465,-10.537692070007324,3.081955671310425
1701865285005508600,3.719508544921875,-2.6500511169433594,-10.44915771484375,3.012563705444336
1701865285015101400,3.729101318359375,-2.911167860031128,-10.049555778503418,3.0580272674560547
1701865285024693500,3.738693603515625,-2.927917718887329,-9.302396774291992,3.2614171504974365
1701865285034286000,3.7482861328125,-3.250948667526245,-9.249754905700684,3.7067813873291016
1701865285043880000,3.7578798828125,-3.093022346496582,-9.103793144226074,3.8551363945007324
1701865285053472500,3.767472412109375,-3.093022346496582,-8.689535140991211,3.381357431411743
1701865285063064600,3.777064697265625,-3.3705897331237793,-8.677571296691895,4.039682865142822
1701865285072657400,3.786657470703125,-3.272484064102173,-8.866903305053711,4.044468402862549
1701865285082251300,3.796251220703125,-2.843869686126709,-9.053544044494629,4.154538154602051
1701865285091843800,3.80584375,-2.8390841484069824,-8.632107734680176,3.8264224529266357
1701865285101436000,3.815435791015625,-2.465803623199463,-8.644071578979492,3.797708749771118
1701865285111028700,3.82502880859375,-2.506481647491455,-8.605786323547363,3.5081770420074463
1701865285120622300,3.834622314453125,-2.6524438858032227,-8.514859199523926,3.218346357345581
1701865285130215200,3.844215087890625,-2.880061149597168,-8.452646255493164,3.0029923915863037
1701865285139807200,3.85380712890625,-3.0714869499206543,-8.368897438049316,2.8187451362609863
1701865285149400000,3.863400146484375,-3.0978081226348877,-8.323433876037598,2.710768938064575
1701865285158993700,3.87299365234375,-3.05234432220459,-8.28724193572998,2.5959134101867676
1701865285168586500,3.88258642578125,-3.1121649742126465,-8.15563678741455,2.4834508895874023
1701865285178178600,3.892178466796875,-3.0978081226348877,-7.911569118499756,2.354238271713257
1701865285187771400,3.901771484375,-3.0164520740509033,-7.631309509277344,2.246561288833618
1701865285197365000,3.911364990234375,-2.748156785964966,-7.35613489151001,2.1098713874816895
1701865285206957800,3.920957763671875,-2.5160529613494873,-7.1718878746032715,1.9830517768859863
1701865285216550000,3.9305498046875,-2.334198474884033,-7.087839603424072,1.7509479522705078
1701865285226142700,3.940142822265625,-1.965404748916626,-7.106982231140137,1.8945173025131226
1701865285235736300,3.949736328125,-1.677966833114624,-7.238886833190918,2.655734062194824
1701865285245329200,3.9593291015625,-1.4554343223571777,-7.516454219818115,2.6724836826324463
1701865285254921200,3.968921142578125,-1.2137593030929565,-7.75842809677124,2.1960129737854004
1701865285264514000,3.97851416015625,-0.974177896976471,-8.301898002624512,1.8753747940063477
1701865285274107600,3.988107666015625,-0.6870391964912415,-8.941081047058105,1.8418751955032349
1701865285283700500,3.997700439453125,-0.4139583110809326,-9.711869239807129,1.9950158596038818
1701865285293292500,4.00729248046875,-0.11485548317432404,-10.489835739135742,2.2944178581237793
1701865285302885400,4.016885498046875,-0.1052841991186142,-11.29202938079834,2.591127872467041
1701865285312479000,4.02647900390625,-0.3852444589138031,-11.828320503234863,2.7900311946868896
1701865285322071800,4.03607177734375,-0.7444669604301453,-11.981461524963379,3.0652058124542236
1701865285331664000,4.045663818359375,-1.1440683603286743,-11.742178916931152,3.1106693744659424
1701865285341256400,4.05525634765625,-1.378864049911499,-11.414063453674316,3.0628130435943604
1701865285350850300,4.064850341796875,-1.4219348430633545,-11.184351921081543,2.9072794914245605
1701865285360443100,4.074443115234375,-1.3405789136886597,-11.006983757019043,2.6437699794769287
1701865285370035000,4.084034912109375,-1.2329018115997314,-10.85145092010498,2.53609299659729
1701865285379627800,4.093627685546875,-1.1778669357299805,-10.760523796081543,2.5073790550231934
1701865285389221600,4.1032216796875,-1.1201400756835938,-10.755738258361816,2.6437699794769287
1701865285398814200,4.112814208984375,-1.1225329637527466,-10.736595153808594,2.7681965827941895
1701865285408406300,4.12240625,-1.2352946996688843,-10.607382774353027,2.6820549964904785
1701865285417999000,4.1319990234375,-1.036391258239746,-10.336694717407227,2.7538397312164307
1701865285427592700,4.1415927734375,-1.201795220375061,-10.183553695678711,2.837887763977051
1701865285437185500,4.151185546875,-1.2831511497497559,-10.111769676208496,2.9694929122924805
1701865285446777600,4.160777587890625,-1.098604679107666,-10.11416244506836,3.3092737197875977
1701865285456370400,4.170370361328125,-1.1129616498947144,-10.102197647094727,3.417249917984009
1701865285465964000,4.179964111328125,-0.9669994711875916,-9.980164527893066,3.5392837524414062
1701865285475556900,4.189556884765625,-0.9023932218551636,-9.867402076721191,3.6421751976013184
1701865285485149000,4.19914892578125,-0.8353942036628723,-9.644869804382324,3.608675718307495
1701865285494741800,4.20874169921875,-0.6942176818847656,-9.367003440856934,3.491427421569824
1701865285504335400,4.21833544921875,-0.5670989751815796,-9.101400375366211,3.4220354557037354
1701865285513928200,4.22792822265625,-0.2919243574142456,-8.89083194732666,3.6134612560272217
1701865285523520300,4.237520263671875,-0.24406790733337402,-8.790034294128418,3.8264224529266357
1701865285533113000,4.247113037109375,-0.24406790733337402,-8.732605934143066,3.874279022216797
1701865285542706700,4.256706787109375,-0.2273181527853012,-8.689535140991211,3.8862431049346924
1701865285552299500,4.266299560546875,-0.2799602448940277,-8.677571296691895,3.869493246078491
1701865285561891600,4.2758916015625,-0.3517449200153351,-8.656036376953125,3.8072798252105713
1701865285571484400,4.285484375,-0.3732803463935852,-8.629714965820312,3.6756746768951416
1701865285581078000,4.295078125,-0.2679961323738098,-8.615358352661133,3.5895330905914307
1701865285590670800,4.3046708984375,-0.2105683982372284,-8.639286041259766,3.661317825317383
1701865285600263000,4.314262939453125,-0.18903298676013947,-8.593822479248047,3.498605728149414
1701865285609855700,4.323855712890625,-0.1986042857170105,-8.548358917236328,3.31884503364563
1701865285619449300,4.333449462890625,-0.2105683982372284,-8.555537223815918,3.201596736907959
1701865285629042200,4.343042236328125,-0.2799602448940277,-8.660821914672852,3.0652058124542236
1701865285638634000,4.352634033203125,-0.3852444589138031,-8.790034294128418,2.9455647468566895
1701865285648226800,4.362226806640625,-0.25363919138908386,-8.976973533630371,3.046063184738159
1701865285657820700,4.371820556640625,-0.3445664644241333,-9.216255187988281,3.160918712615967
1701865285667413200,4.381413330078125,-0.380458801984787,-9.355039596557617,3.19441819190979
1701865285677005300,4.39100537109375,-0.3565305769443512,-9.467801094055176,3.2518460750579834
1701865285686598100,4.40059814453125,-0.2919243574142456,-9.56351375579834,3.2614171504974365
1701865285696191700,4.410191650390625,-0.16271193325519562,-9.68794059753418,3.2757742404937744
1701865285705784600,4.41978466796875,-0.07417750358581543,-9.778867721557617,3.2470602989196777
1701865285715376600,4.429376708984375,-0.018843477591872215,-9.81236743927002,3.2303106784820557
1701865285724969500,4.438969482421875,0.031405795365571976,-9.833903312683105,3.1968109607696533
1701865285734563000,4.44856298828125,0.055334024131298065,-9.821938514709473,3.187239646911621
1701865285744156000,4.458156005859375,0.057726845145225525,-9.793225288391113,3.139383316040039
1701865285753748000,4.467748046875,0.04336991161108017,-9.759725570678711,3.06999135017395
1701865285763340800,4.4773408203125,-0.03559323772788048,-9.740582466125488,3.0340991020202637
1701865285772934400,4.486934326171875,-0.09092725813388824,-9.750154495239258,3.046063184738159
1701865285782527200,4.49652734375,-0.07417750358581543,-9.807581901550293,3.1034910678863525
1701865285792119300,4.506119384765625,-0.05024927482008934,-9.850652694702148,3.19441819190979
1701865285801712000,4.515712158203125,0.007477570790797472,-9.876974105834961,3.25663161277771
1701865285811305700,4.5253056640625,0.029012974351644516,-9.817152976989746,3.3020951747894287
1701865285820898600,4.534898681640625,0.057726845145225525,-9.754940032958984,3.371786117553711
1701865285830490600,4.54449072265625,0.13668999075889587,-9.678369522094727,3.371786117553711
1701865285840083500,4.55408349609375,0.23718854784965515,-9.57787036895752,3.3382866382598877
1701865285849677000,4.563677001953125,0.27786654233932495,-9.458230018615723,3.2614171504974365
1701865285859270000,4.573269775390625,0.30179476737976074,-9.369396209716797,3.1992039680480957
1701865285868861700,4.58286181640625,0.24915266036987305,-9.323932647705078,3.1680972576141357
1701865285878454500,4.59245458984375,0.18454644083976746,-9.316754341125488,3.177668571472168
1701865285888048400,4.60204833984375,0.09122636169195175,-9.345467567443848,3.1920254230499268
1701865285897641000,4.611640869140625,0.0026919255033135414,-9.393324851989746,3.2039895057678223
1701865285907233000,4.62123291015625,-0.07657032459974289,-9.441479682922363,3.211168050765991
1701865285916825900,4.630825927734375,-0.07896314561367035,-9.474979400634766,3.249453067779541
1701865285926419500,4.64041943359375,-0.05742774158716202,-9.482157707214355,3.2853455543518066
1701865285936012300,4.65001220703125,-0.002093719784170389,-9.496515274047852,3.3092737197875977
1701865285945604400,4.659604248046875,0.05294119939208031,-9.5324068069458,3.2590243816375732
1701865285955197200,4.669197265625,0.07926224917173386,-9.592227935791016,3.1800613403320312
1701865285964790800,4.678790771484375,0.09361918270587921,-9.630513191223145,3.0795626640319824
1701865285974383600,4.688383544921875,0.12711870670318604,-9.697511672973633,2.9551360607147217
1701865285983975700,4.6979755859375,0.1462612897157669,-9.719047546386719,2.8905298709869385
1701865285993568500,4.707568603515625,0.13668999075889587,-9.664012908935547,2.8761727809906006
1701865286003162000,4.717162109375,0.06969095766544342,-9.628120422363281,2.888136863708496
1701865286012755000,4.7267548828125,0.009870393201708794,-9.640084266662598,2.9718856811523438
1701865286022347000,4.736346923828125,-0.08374879509210587,-9.70229721069336,3.0891339778900146
1701865286031939800,4.74593994140625,-0.12203395366668701,-9.77408218383789,3.170490026473999
1701865286041533400,4.755533447265625,-0.11724831163883209,-9.869794845581055,3.22552490234375
1701865286051126300,4.765126220703125,-0.06699903309345245,-9.89133071899414,3.290131092071533
1701865286060718300,4.77471826171875,-0.021236300468444824,-9.879366874694824,3.355036497116089
1701865286070311200,4.784311279296875,0.029012974351644516,-9.817152976989746,3.433999538421631
1701865286079904800,4.79390478515625,0.01944168470799923,-9.759725570678711,3.4866416454315186
1701865286089497600,4.80349755859375,0.03858426585793495,-9.690333366394043,3.5273196697235107
1701865286099089400,4.81308935546875,0.10797612369060516,-9.630513191223145,3.544069528579712
1701865286108682200,4.82268212890625,0.16301104426383972,-9.589835166931152,3.5392837524414062
1701865286118276000,4.832276123046875,0.19172491133213043,-9.506086349487305,3.5584263801574707
1701865286127868700,4.84186865234375,0.19651055335998535,-9.448657989501953,3.4794633388519287
1701865286137460700,4.851460693359375,0.1821536272764206,-9.620942115783691,3.608675718307495
1701865286147053600,4.861053466796875,0.07447660714387894,-9.575477600097656,3.6110684871673584
1701865286156647200,4.870647216796875,0.057726845145225525,-9.43190860748291,3.491427421569824
1701865286166240000,4.880239990234375,0.10319047421216965,-9.35025405883789,3.290131092071533
1701865286175832000,4.88983203125,0.12711870670318604,-9.419944763183594,3.2614171504974365
1701865286185425000,4.8994248046875,0.08404789865016937,-9.46301555633545,3.1800613403320312
1701865286195018500,4.9090185546875,0.029012974351644516,-9.422337532043457,3.022135019302368
1701865286204611300,4.918611328125,0.057726845145225525,-9.419944763183594,2.8737800121307373
1701865286214203400,4.928203369140625,0.08644071966409683,-9.518050193786621,2.9312076568603516
1701865286223796200,4.937796142578125,0.02183450572192669,-9.616155624389648,2.9216363430023193
1701865286233389800,4.947389892578125,-0.062213387340307236,-9.55633544921875,2.8522446155548096
1701865286242982700,4.956982666015625,-0.06699903309345245,-9.530014038085938,2.816352367401123
1701865286252574700,4.96657470703125,-0.08853443711996078,-9.448657989501953,2.749054193496704
1701865286262167600,4.97616748046875,-0.059820566326379776,-9.376574516296387,2.739482879638672
1701865286271761200,4.98576123046875,-0.002093719784170389,-9.35743236541748,2.770589590072632
1701865286281354000,4.99535400390625,-0.06699903309345245,-9.218647956848145,2.6676981449127197
1701865286290946000,5.004946044921875,0.1582254022359848,-9.067900657653809,2.662912607192993
1701865286300538600,5.01453857421875,0.24436701834201813,-9.166006088256836,2.7900311946868896
1701865286310132500,5.024132568359375,0.20608185231685638,-9.034400939941406,2.708376169204712
1701865286319725000,5.03372509765625,0.1534397453069687,-8.902795791625977,2.6413772106170654
1701865286329317000,5.043317138671875,0.06969095766544342,-8.862117767333984,2.5552353858947754
1701865286338910000,5.052909912109375,0.1462612897157669,-9.055936813354492,2.6916263103485107
1701865286348503600,5.062503662109375,0.06251249462366104,-9.249754905700684,2.756232500076294
1701865286358096400,5.072096435546875,-0.04546362906694412,-9.340682029724121,2.741875648498535
1701865286367688400,5.0816884765625,-0.11006984114646912,-9.482157707214355,2.825923442840576
1701865286377281300,5.09128125,-0.17946170270442963,-9.630513191223145,2.854637384414673
1701865286386875000,5.100875,-0.1698904037475586,-9.690333366394043,2.8833513259887695
1701865286396467700,5.1104677734375,-0.13160525262355804,-9.771689414978027,2.9072794914245605
1701865286406059800,5.120059814453125,-0.17706887423992157,-9.80518913269043,2.9359934329986572
1701865286415652600,5.129652587890625,-0.1818545162677765,-9.857831001281738,2.9766714572906494
1701865286425246200,5.13924609375,-0.17228323221206665,-9.88415241241455,2.988635540008545
1701865286434839000,5.148839111328125,-0.16031911969184875,-9.888937950134277,2.988635540008545
1701865286444431000,5.15843115234375,-0.14356936514377594,-9.879366874694824,2.967100143432617
1701865286454024000,5.16802392578125,-0.12442677468061447,-9.900901794433594,2.967100143432617
1701865286463617500,5.177617431640625,-0.07657032459974289,-9.91286563873291,2.933600664138794
1701865286473210400,5.18721044921875,-0.05503492057323456,-9.946365356445312,2.988635540008545
1701865286482802200,5.19680224609375,-0.04546362906694412,-9.91286563873291,2.9168508052825928
1701865286492395000,5.20639501953125,-0.04785645380616188,-9.862616539001465,2.864208698272705
1701865286501988900,5.21598876953125,-0.021236300468444824,-9.738189697265625,2.792423963546753
1701865286511581400,5.22558154296875,-0.021236300468444824,-9.723833084106445,2.775674343109131
1701865286521173500,5.235173583984375,-0.05742774158716202,-9.750154495239258,2.763411045074463
1701865286530766300,5.244766357421875,-0.05503492057323456,-9.707083702087402,2.7538397312164307
1701865286540360000,5.25435986328125,-0.059820566326379776,-9.597013473510742,2.6509482860565186
1701865286549952800,5.263952880859375,-0.04307080805301666,-9.558728218078613,2.5887351036071777
1701865286559544800,5.273544921875,-0.05024927482008934,-9.534799575805664,2.5408785343170166
1701865286569137700,5.2831376953125,-0.07178468257188797,-9.477372169494629,2.466701030731201
1701865286578731300,5.292731201171875,-0.05024927482008934,-9.534799575805664,2.4523441791534424
1701865286588324000,5.302323974609375,-0.0933200865983963,-9.644869804382324,2.5241286754608154
1701865286597916200,5.311916259765625,-0.10289137065410614,-9.54915714263916,2.440380096435547
1701865286607509000,5.321509033203125,-0.064606212079525,-9.518050193786621,2.3901307582855225
1701865286617102600,5.3311025390625,-0.0526420995593071,-9.527621269226074,2.363809585571289
1701865286626695400,5.3406953125,-0.03559323772788048,-9.5324068069458,2.3422741889953613
1701865286636287500,5.35028759765625,-0.03320041298866272,-9.558728218078613,2.3207387924194336
1701865286645880300,5.35988037109375,-0.02841476909816265,-9.587442398071289,2.3135604858398438
1701865286655474000,5.369473876953125,-0.016450656577944756,-9.616155624389648,2.2944178581237793
1701865286665066500,5.37906640625,-0.02841476909816265,-9.632905960083008,2.277667999267578
1701865286674658600,5.388658447265625,-0.009272187948226929,-9.661619186401367,2.284846544265747
1701865286684251400,5.39825146484375,0.005084747914224863,-9.68794059753418,2.306381940841675
1701865286693845000,5.407844970703125,0.01944168470799923,-9.697511672973633,2.3207387924194336
1701865286703437800,5.417437744140625,0.00029910283046774566,-9.697511672973633,2.315953254699707
1701865286713030000,5.42702978515625,0.009870393201708794,-9.685547828674316,2.3207387924194336
1701865286722622700,5.436622802734375,-0.004486542660742998,-9.716654777526855,2.332702875137329
1701865286732216300,5.44621630859375,-0.026021946221590042,-9.742975234985352,2.370988130569458
1701865286741809200,5.45580908203125,-0.05503492057323456,-9.752547264099121,2.418844699859619
1701865286751401200,5.465401123046875,-0.05742774158716202,-9.77408218383789,2.466701030731201
1701865286760994000,5.474994140625,-0.06939185410737991,-9.757332801818848,2.5241286754608154
1701865286770587600,5.484587646484375,-0.08374879509210587,-9.735796928405762,2.581556558609009
1701865286780180500,5.494180419921875,-0.04785645380616188,-9.704689979553223,2.6341986656188965
1701865286789772500,5.5037724609375,-0.06699903309345245,-9.647262573242188,2.684448003768921
1701865286799365400,5.513365478515625,-0.09810572862625122,-9.618548393249512,2.701197624206543
1701865286808959000,5.522958984375,-0.15314064919948578,-9.601799011230469,2.7059834003448486
1701865286818551800,5.5325517578125,-0.16271193325519562,-9.625727653503418,2.7514469623565674
1701865286828143900,5.542143798828125,-0.1579262912273407,-9.661619186401367,2.7900311946868896
1701865286837736400,5.551736328125,-0.17228323221206665,-9.644869804382324,2.837887763977051
1701865286847330300,5.561330322265625,-0.19381862878799438,-9.640084266662598,2.8977081775665283
1701865286856923000,5.5709228515625,-0.17946170270442963,-9.630513191223145,2.9383862018585205
1701865286866515000,5.580514892578125,-0.15074782073497772,-9.647262573242188,2.991028308868408
1701865286876107800,5.590107666015625,-0.15074782073497772,-9.64965534210205,3.0173492431640625
1701865286885701400,5.599701416015625,-0.1339980661869049,-9.625727653503418,3.0484559535980225
1701865286895294200,5.609294189453125,-0.12442677468061447,-9.606584548950195,3.0652058124542236
1701865286904886300,5.61888623046875,-0.11246266216039658,-9.587442398071289,3.036491870880127
1701865286914479000,5.62847900390625,-0.13639089465141296,-9.57069206237793,3.0388846397399902
1701865286924072700,5.63807275390625,-0.1579262912273407,-9.568299293518066,3.0245277881622314
1701865286933665500,5.64766552734375,-0.1986042857170105,-9.561120986938477,2.998206853866577
1701865286943257600,5.657257568359375,-0.23210379481315613,-9.561120986938477,2.9934210777282715
1701865286952850400,5.666850341796875,-0.26081767678260803,-9.54197883605957,2.991028308868408
1701865286962444000,5.676444091796875,-0.2560320198535919,-9.5324068069458,2.9623143672943115
1701865286972036900,5.686036865234375,-0.2584248483181,-9.489336013793945,2.9455647468566895
1701865286981628700,5.695628662109375,-0.2512463629245758,-9.458230018615723,2.919243574142456
1701865286991221500,5.705221435546875,-0.23210379481315613,-9.458230018615723,2.912065267562866
1701865287000815400,5.7148154296875,-0.2225325107574463,-9.472586631774902,2.885744094848633
1701865287010408000,5.724407958984375,-0.23210379481315613,-9.477372169494629,2.871387243270874
1701865287020000000,5.734,-0.24885354936122894,-9.479764938354492,2.8498518466949463
1701865287029592800,5.7435927734375,-0.2560320198535919,-9.484550476074219,2.8498518466949463
1701865287039186400,5.7531865234375,-0.2871387302875519,-9.520442962646484,2.8689942359924316
1701865287048779300,5.762779296875,-0.3038884699344635,-9.55633544921875,2.8809585571289062
1701865287058371300,5.772371337890625,-0.3038884699344635,-9.611370086669922,2.9001009464263916
1701865287067964200,5.781964111328125,-0.2727817893028259,-9.635298728942871,2.9359934329986572
1701865287077557800,5.791557861328125,-0.24646073579788208,-9.637691497802734,2.933600664138794
1701865287087150600,5.801150634765625,-0.24885354936122894,-9.632905960083008,2.9312076568603516
1701865287096742700,5.81074267578125,-0.21774685382843018,-9.671191215515137,2.950350284576416
1701865287106335500,5.82033544921875,-0.18424734473228455,-9.683155059814453,2.912065267562866
1701865287115929000,5.82992919921875,-0.17946170270442963,-9.692726135253906,2.9288148880004883
1701865287125522000,5.83952197265625,-0.1866401731967926,-9.704689979553223,2.943171739578247
1701865287135113700,5.84911376953125,-0.1698904037475586,-9.697511672973633,2.9359934329986572
1701865287144706600,5.85870654296875,-0.16271193325519562,-9.68794059753418,2.9168508052825928
1701865287154300400,5.868300537109375,-0.16510476171970367,-9.66640567779541,2.888136863708496
1701865287163893000,5.87789306640625,-0.1746760457754135,-9.65683364868164,2.8761727809906006
1701865287173485000,5.887485107421875,-0.15074782073497772,-9.644869804382324,2.825923442840576
1701865287183078000,5.897077880859375,-0.1746760457754135,-9.620942115783691,2.8426733016967773
1701865287192671500,5.90667138671875,-0.17706887423992157,-9.5802640914917,2.7972097396850586
1701865287202264300,5.916264404296875,-0.1866401731967926,-9.54915714263916,2.7442684173583984
1701865287211856400,5.9258564453125,-0.21296121180057526,-9.539586067199707,2.7131617069244385
1701865287221449200,5.93544921875,-0.21774685382843018,-9.539586067199707,2.6988048553466797
1701865287231042800,5.945042724609375,-0.2153540402650833,-9.551549911499023,2.694019079208374
1701865287240635600,5.9546357421875,-0.2153540402650833,-9.594620704650879,2.710768938064575
1701865287250227700,5.964227783203125,-0.1986042857170105,-9.637691497802734,2.765803813934326
1701865287259820500,5.973820556640625,-0.1698904037475586,-9.640084266662598,2.7876384258270264
1701865287269414100,5.9834140625,-0.10289137065410614,-9.5802640914917,2.785245656967163
1701865287279007000,5.993007080078125,-0.06939185410737991,-9.501300811767578,2.7804598808288574
1701865287288598800,6.002598876953125,-0.05742774158716202,-9.484550476074219,2.778067111968994
1701865287298191600,6.012191650390625,-0.009272187948226929,-9.470193862915039,2.7275187969207764
1701865287307785500,6.021785400390625,-0.002093719784170389,-9.482157707214355,2.710768938064575
1701865287317378000,6.0313779296875,-0.03798605874180794,-9.479764938354492,2.686840772628784
1701865287326970000,6.04097021484375,-0.09810572862625122,-9.508479118347168,2.646162748336792
1701865287336563000,6.05056298828125,-0.17706887423992157,-9.537193298339844,2.646162748336792
1701865287346156500,6.060156494140625,-0.23688943684101105,-9.604191780090332,2.653341293334961
1701865287355749400,6.069749267578125,-0.2632105052471161,-9.675976753234863,2.6916263103485107
1701865287365341400,6.079341552734375,-0.24167509377002716,-9.723833084106445,2.7275187969207764
1701865287374934300,6.088934326171875,-0.1866401731967926,-9.731011390686035,2.763411045074463
1701865287384528000,6.09852783203125,-0.11964113265275955,-9.723833084106445,2.765803813934326
1701865287394120700,6.10812060546875,-0.040677983313798904,-9.711869239807129,2.770589590072632
1701865287403712800,6.117712646484375,0.007477570790797472,-9.692726135253906,2.7876384258270264
1701865287413305300,6.127305419921875,0.012263216078281403,-9.68076229095459,2.809173822402954
1701865287422899200,6.136899169921875,0.007477570790797472,-9.685547828674316,2.7972097396850586
1701865287432491800,6.14649169921875,-0.002093719784170389,-9.699904441833496,2.785245656967163
1701865287442083800,6.156083740234375,-0.040677983313798904,-9.721440315246582,2.765803813934326
1701865287451676700,6.1656767578125,-0.05503492057323456,-9.719047546386719,2.7442684173583984
1701865287461270300,6.175270263671875,-0.06939185410737991,-9.721440315246582,2.732304334640503
1701865287470863000,6.184863037109375,-0.09092725813388824,-9.685547828674316,2.701197624206543
1701865287480455200,6.194455078125,-0.1052841991186142,-9.659226417541504,2.7035903930664062
1701865287490048000,6.204048095703125,-0.09571290761232376,-9.642477035522461,2.6964120864868164
1701865287499641600,6.2136416015625,-0.07178468257188797,-9.640084266662598,2.694019079208374
1701865287509234400,6.223234375,-0.0526420995593071,-9.628120422363281,2.7035903930664062
1701865287518826500,6.232826416015625,0.005084747914224863,-9.625727653503418,2.739482879638672
1701865287528419300,6.24241943359375,0.04576273262500763,-9.613762855529785,2.765803813934326
1701865287538013000,6.252012939453125,0.036191441118717194,-9.582656860351562,2.8115665912628174
1701865287547605800,6.261605712890625,0.04336991161108017,-9.54915714263916,2.8450660705566406
1701865287557197800,6.27119775390625,0.03858426585793495,-9.515657424926758,2.825923442840576
1701865287566790400,6.280790283203125,0.033798620104789734,-9.518050193786621,2.8187451362609863
1701865287576384300,6.29038427734375,0.04576273262500763,-9.522835731506348,2.816352367401123
1701865287585976800,6.299976806640625,0.04097708687186241,-9.54197883605957,2.7900311946868896
1701865287595569000,6.30956884765625,0.03858426585793495,-9.54915714263916,2.792423963546753
1701865287605161700,6.31916162109375,0.057726845145225525,-9.561120986938477,2.792423963546753
1701865287614755300,6.32875537109375,0.057726845145225525,-9.537193298339844,2.801995277404785
1701865287624348200,6.33834814453125,0.05054837837815285,-9.525228500366211,2.8139593601226807
1701865287633940200,6.347940185546875,0.05054837837815285,-9.510871887207031,2.806781053543091
1701865287643533000,6.357532958984375,0.04815555736422539,-9.498908042907715,2.806781053543091
1701865287653126700,6.367126708984375,0.08404789865016937,-9.510871887207031,2.7876384258270264
1701865287662719500,6.376719482421875,0.09840483218431473,-9.513264656066895,2.792423963546753
1701865287672311600,6.3863115234375,0.08165507018566132,-9.525228500366211,2.785245656967163
1701865287681904400,6.395904296875,0.06251249462366104,-9.530014038085938,2.7732813358306885
1701865287691498000,6.405498046875,0.0649053156375885,-9.546764373779297,2.7732813358306885
1701865287701090600,6.415090576171875,0.08165507018566132,-9.544371604919434,2.7370901107788086
1701865287710682600,6.4246826171875,0.07926224917173386,-9.561120986938477,2.7227330207824707
1701865287720275500,6.434275390625,0.07926224917173386,-9.575477600097656,2.732304334640503
1701865287729869000,6.443869140625,0.05294119939208031,-9.568299293518066,2.7514469623565674
1701865287739462000,6.4534619140625,0.055334024131298065,-9.558728218078613,2.7610182762145996
1701865287749054000,6.463053955078125,0.0649053156375885,-9.561120986938477,2.7538397312164307
1701865287758646800,6.472646728515625,0.08404789865016937,-9.537193298339844,2.7514469623565674
1701865287768240400,6.482240478515625,0.08883354067802429,-9.530014038085938,2.7586255073547363
1701865287777833200,6.491833251953125,0.11994023621082306,-9.520442962646484,2.7828526496887207
1701865287787425300,6.50142529296875,0.10797612369060516,-9.534799575805664,2.775674343109131
1701865287797018000,6.51101806640625,0.10797612369060516,-9.534799575805664,2.7972097396850586
1701865287806611700,6.52061181640625,0.11276176571846008,-9.561120986938477,2.792423963546753
1701865287816204500,6.53020458984375,0.12711870670318604,-9.57787036895752,2.792423963546753
1701865287825796400,6.53979638671875,0.1295115202665329,-9.608977317810059,2.7900311946868896
1701865287835389200,6.54938916015625,0.15104693174362183,-9.613762855529785,2.775674343109131
1701865287844982800,6.558982666015625,0.15104693174362183,-9.599406242370605,2.7442684173583984
1701865287854575600,6.56857568359375,0.16061821579933167,-9.582656860351562,2.7466611862182617
1701865287864167700,6.578167724609375,0.17258232831954956,-9.573084831237793,2.725125789642334
1701865287873760500,6.587760498046875,0.17976079881191254,-9.544371604919434,2.7059834003448486
1701865287883354000,6.59735400390625,0.18933209776878357,-9.518050193786621,2.6820549964904785
1701865287892947000,6.606947021484375,0.19651055335998535,-9.484550476074219,2.662912607192993
1701865287902539000,6.6165390625,0.19172491133213043,-9.45583724975586,2.646162748336792
1701865287912131800,6.6261318359375,0.1821536272764206,-9.448657989501953,2.6341986656188965
1701865287921725400,6.635725341796875,0.1869392693042755,-9.465408325195312,2.622234582901001
1701865287931318300,6.645318359375,0.16779668629169464,-9.458230018615723,2.6126632690429688
1701865287940910000,6.65491015625,0.13668999075889587,-9.470193862915039,2.591127872467041
1701865287950503000,6.6645029296875,0.11515458673238754,-9.508479118347168,2.552842617034912
1701865287960096800,6.6740966796875,0.09361918270587921,-9.539586067199707,2.5552353858947754
1701865287969689300,6.683689453125,0.09122636169195175,-9.589835166931152,2.54327130317688
1701865287979281400,6.693281494140625,0.1295115202665329,-9.632905960083008,2.521735906600952
1701865287988874200,6.702874267578125,0.1534397453069687,-9.647262573242188,2.54327130317688
1701865287998467800,6.7124677734375,0.15583257377147675,-9.616155624389648,2.5552353858947754
1701865288008060700,6.722060791015625,0.1869392693042755,-9.575477600097656,2.552842617034912
1701865288017652700,6.73165283203125,0.22761724889278412,-9.534799575805664,2.53609299659729
1701865288027245600,6.74124560546875,0.24915266036987305,-9.465408325195312,2.545664072036743
1701865288036839200,6.750839111328125,0.28504499793052673,-9.41755199432373,2.48105788230896
1701865288046432000,6.760431884765625,0.26590242981910706,-9.393324851989746,2.466701030731201
1701865288056024000,6.770024169921875,0.2922234535217285,-9.355039596557617,2.435594320297241
1701865288065616600,6.77961669921875,0.3161516785621643,-9.345467567443848,2.4140589237213135
1701865288075210500,6.78921044921875,0.2946162819862366,-9.316754341125488,2.3685953617095947
1701865288084803000,6.798802978515625,0.30658039450645447,-9.323932647705078,2.370988130569458
1701865288094395100,6.80839501953125,0.31854450702667236,-9.37178897857666,2.3207387924194336
1701865288103988000,6.817988037109375,0.3400799036026001,-9.44626522064209,2.282453775405884
1701865288113581600,6.82758154296875,0.3233301639556885,-9.472586631774902,2.160120725631714
1701865288123174400,6.83717431640625,0.23240290582180023,-9.259325981140137,2.1505494117736816
1701865288132766500,6.846766357421875,0.2874378263950348,-9.180362701416016,1.7437695264816284
1701865288142359300,6.856359375,0.5341976284980774,-9.608977317810059,1.908874273300171
1701865288151953000,6.865952880859375,0.6705885529518127,-9.5324068069458,1.8203397989273071
1701865288161545700,6.875545654296875,0.9266205430030823,-9.37896728515625,1.5687943696975708
1701865288171137800,6.8851376953125,1.0510473251342773,-9.28564739227295,1.2409776449203491
1701865288180730600,6.894730712890625,1.0968101024627686,-9.297611236572266,1.114158034324646
1701865288190324200,6.90432421875,1.0247262716293335,-9.316754341125488,0.7836494445800781
1701865288199916800,6.913916748046875,1.074975609779358,-9.42473030090332,0.49621158838272095
1701865288209508900,6.9235087890625,1.2738789319992065,-9.470193862915039,0.17318053543567657
1701865288219101700,6.933101806640625,1.5753746032714844,-9.328718185424805,0.005682953633368015
1701865288228695300,6.9426953125,1.8963119983673096,-9.13011360168457,0.09900303930044174
1701865288238288100,6.9522880859375,1.9489539861679077,-8.876474380493164,0.3478565812110901
1701865288247880200,6.961880126953125,1.9657038450241089,-8.34736156463623,0.4124628007411957
1701865288257473000,6.97147314453125,2.0063817501068115,-7.748857021331787,0.2641077935695648
1701865288267066600,6.981066650390625,2.0829520225524902,-7.166802883148193,0.247358039021492
1701865288276659500,6.990659423828125,2.1930220127105713,-6.614060878753662,0.28564319014549255
1701865288286251500,7.00025146484375,2.4828526973724365,-5.988935947418213,0.3239283561706543
1701865288295844000,7.009843994140625,2.6790640354156494,-5.354538917541504,0.6281159520149231
1701865288305438000,7.01943798828125,2.2531416416168213,-4.892425060272217,1.0926226377487183
1701865288315030500,7.029030517578125,1.163809061050415,-4.488038063049316,1.475474238395691
1701865288324622600,7.03862255859375,1.0992028713226318,-4.526323318481445,2.5552353858947754
1701865288334215400,7.04821533203125,-0.9000003933906555,-6.051448345184326,4.417748928070068
1701865288343809000,7.05780908203125,-4.890929698944092,-8.842676162719727,7.015456676483154
1701865288353401900,7.06740185546875,-5.939583778381348,-11.287243843078613,10.393524169921875
1701865288362994000,7.076993896484375,-1.934298038482666,-12.768999099731445,11.624032974243164
1701865288372586800,7.086586669921875,4.177868366241455,-13.290933609008789,11.003993034362793
1701865288382180400,7.096180419921875,5.059025287628174,-12.848260879516602,9.289834976196289
1701865288391773200,7.105773193359375,1.9106688499450684,-11.196316719055176,6.603592395782471
1701865288401365200,7.115365234375,0.859621524810791,-8.337790489196777,4.7697930335998535
1701865288410958000,7.1249580078125,-0.004486542660742998,-6.465406894683838,3.6206398010253906
1701865288420551700,7.1345517578125,-0.9095717072486877,-5.692225933074951,3.1585259437561035
1701865288430144300,7.144144287109375,-1.414756417274475,-5.7424750328063965,3.31884503364563
1701865288439736300,7.153736328125,-1.6947166919708252,-5.960222244262695,3.7785661220550537
1701865288449329200,7.1633291015625,-2.061117649078369,-6.4079790115356445,4.202394962310791
1701865288458922800,7.1729228515625,-1.3645070791244507,-6.683452606201172,3.2829527854919434
1701865288468515600,7.182515625,-0.13878370821475983,-7.059125900268555,1.2242279052734375
1701865288478107600,7.192107666015625,-0.9837492108345032,-7.0902323722839355,-0.39900317788124084
1701865288487700500,7.201700439453125,-2.647658348083496,-6.800701141357422,-0.4013960063457489
1701865288497294000,7.211294189453125,-5.6330037117004395,-5.6563334465026855,-0.02063809521496296
1701865288506887000,7.220886962890625,-7.313662528991699,-3.350848913192749,0.6137589812278748
1701865288516479000,7.23047900390625,-5.702694416046143,-3.413062334060669,1.2481560707092285
1701865288526071600,7.240071533203125,-2.5782663822174072,-5.215754985809326,2.2489542961120605
1701865288535665400,7.24966552734375,-1.4003994464874268,-4.811069011688232,2.277667999267578
1701865288545258000,7.259258056640625,-1.5463616847991943,-2.771486759185791,1.5448660850524902
1701865288554850000,7.26885009765625,-1.256830096244812,-2.555833578109741,1.5305092334747314
1701865288564443000,7.27844287109375,-1.201795220375061,-3.4010982513427734,0.48424747586250305
1701865288574036500,7.288036376953125,-0.8712865710258484,-4.6770710945129395,0.4052843451499939
1701865288583629300,7.29762939453125,0.14386846125125885,-6.527620315551758,3.9176487922668457
1701865288593221400,7.307221435546875,3.4046874046325684,-6.276373863220215,5.950052738189697
1701865288602814200,7.316814208984375,3.79471755027771,-5.7017974853515625,6.625127792358398
1701865288612407800,7.32640771484375,1.8077775239944458,-4.945366382598877,4.345963954925537
1701865288622000600,7.336000732421875,0.385543555021286,-5.416752338409424,2.176870346069336
1701865288631592700,7.3455927734375,-0.5359922647476196,-7.03998327255249,1.6839489936828613
1701865288641185500,7.355185546875,-1.8505492210388184,-8.636893272399902,1.5616158246994019
1701865288650779100,7.364779052734375,-1.953440546989441,-8.806783676147461,-0.00867398176342249
1701865288660371700,7.374371826171875,-1.0962119102478027,-8.251349449157715,-2.230409860610962
1701865288669963800,7.3839638671875,0.9529415965080261,-8.136494636535645,-3.7220356464385986
1701865288679556600,7.393556640625,2.2148563861846924,-9.110971450805664,-4.322933197021484
1701865288689150200,7.403150146484375,4.266402721405029,-10.34626579284668,-5.041079044342041
1701865288698743000,7.412742919921875,5.74606466293335,-11.785249710083008,-6.199803352355957
1701865288708335000,7.422335205078125,6.4666032791137695,-13.935200691223145,-6.645167350769043
1701865288717928000,7.431927978515625,7.488936901092529,-14.715559959411621,-9.070592880249023
1701865288727521500,7.441521484375,7.012465953826904,-16.257434844970703,-8.8740816116333
1701865288737114400,7.4511142578125,5.123631477355957,-17.76790428161621,-6.9206414222717285
1701865288746706200,7.4607060546875,1.7407784461975098,-20.777477264404297,-4.3779683113098145
1701865288756299000,7.470299072265625,-1.6013965606689453,-25.433910369873047,-2.0629122257232666
1701865288765892900,7.479892822265625,-3.607778310775757,-30.102306365966797,-0.5210371017456055
1701865288775485400,7.4894853515625,-2.6500511169433594,-34.78296661376953,0.26889345049858093
1701865288785077500,7.499077392578125,0.3329014480113983,-38.58695602416992,0.9631111025810242
1701865288794670300,7.50867041015625,4.218546390533447,-38.33092498779297,-1.2921242713928223
1701865288804264000,7.518263916015625,6.433103561401367,-34.07648468017578,-0.3200400173664093
1701865288813856800,7.527856689453125,7.254140853881836,-26.671598434448242,6.910172462463379
1701865288823448800,7.53744873046875,6.153143405914307,-19.661823272705078,13.570594787597656
1701865288833041700,7.547041748046875,3.399901866912842,-15.900605201721191,17.453845977783203
1701865288842635300,7.55663525390625,0.7136593461036682,-13.671690940856934,17.54477310180664
1701865288852227800,7.566227783203125,-1.323829174041748,-10.532906532287598,13.977374076843262
1701865288861820000,7.57581982421875,-2.2142581939697266,-7.3058857917785645,9.998409271240234
1701865288871412700,7.585412841796875,-3.3538401126861572,-5.447858810424805,6.0385870933532715
1701865288881006300,7.59500634765625,-4.512564182281494,-5.706583023071289,3.060420274734497
1701865288890599200,7.60459912109375,-4.443172454833984,-7.310671329498291,1.5305092334747314
1701865288900191200,7.614191162109375,-2.9398818016052246,-8.88125991821289,1.2888340950012207
1701865288909784000,7.6237841796875,-2.2621147632598877,-9.582656860351562,1.7676976919174194
1701865288919377700,7.633377685546875,-2.11615252494812,-9.747760772705078,2.2800607681274414
1701865288928970500,7.642970458984375,-1.7620147466659546,-9.635298728942871,2.490629196166992
1701865288938562600,7.6525625,-1.414756417274475,-8.85224723815918,2.306381940841675
1701865288948155400,7.6621552734375,-1.4243277311325073,-7.7007012367248535,1.7270197868347168
1701865288957749000,7.6717490234375,-1.8481563329696655,-6.654738903045654,0.8075776696205139
1701865288967341600,7.681341552734375,-2.013261079788208,-5.933900833129883,-0.052043892443180084
1701865288976933600,7.69093359375,-1.6468602418899536,-5.505585670471191,-0.789332389831543
1701865288986526500,7.7005263671875,-1.0244271755218506,-5.14875602722168,-1.5026925802230835
1701865288996120000,7.7101201171875,-0.20099709928035736,-5.026721954345703,-2.098804473876953
1701865289005713000,7.719712890625,0.6107679605484009,-4.933402061462402,-2.3670997619628906
1701865289015305000,7.729304931640625,1.2954143285751343,-4.5598225593566895,-2.4939193725585938
1701865289024897800,7.738897705078125,1.9513468742370605,-4.033102512359619,-2.369492530822754
1701865289034491400,7.748491455078125,2.3895325660705566,-3.5757744312286377,-2.184946060180664
1701865289044084200,7.758084228515625,2.597707986831665,-3.334099292755127,-1.8954145908355713
1701865289053676300,7.76767626953125,2.8013970851898193,-3.0562326908111572,-2.0940189361572266
1701865289063269000,7.77726904296875,3.1316065788269043,-3.2093734741210938,-2.7427730560302734
1701865289072862700,7.78686279296875,3.347259759902954,-3.820141315460205,-3.9589250087738037
1701865289082455300,7.796455322265625,4.06540584564209,-4.844568729400635,-4.701298236846924
1701865289092047400,7.80604736328125,6.4905314445495605,-6.056233882904053,-5.634798049926758
1701865289101640200,7.81564013671875,9.507282257080078,-7.277172088623047,-7.349255561828613
1701865289111233800,7.82523388671875,12.078370094299316,-8.691927909851074,-9.628418922424316
1701865289120826600,7.83482666015625,13.263416290283203,-9.888937950134277,-12.795619010925293
1701865289130418700,7.844418701171875,12.013764381408691,-10.652846336364746,-15.800406455993652
1701865289140011500,7.854011474609375,10.562816619873047,-11.29920768737793,-17.124235153198242
1701865289149605000,7.863605224609375,7.773682594299316,-11.40927791595459,-17.289339065551758
1701865289159198000,7.873197998046875,3.08135724067688,-11.129317283630371,-16.063615798950195
1701865289168789800,7.882789794921875,0.00029910283046774566,-11.356635093688965,-13.446765899658203
1701865289178382600,7.892382568359375,-0.1818545162677765,-11.205887794494629,-11.88604736328125
1701865289187976200,7.90197607421875,1.0968101024627686,-9.731011390686035,-11.806785583496094
1701865289197569000,7.911569091796875,2.830111026763916,-6.8533430099487305,-12.76211929321289
1701865289207161000,7.9211611328125,3.9385859966278076,-5.237290382385254,-12.987343788146973
1701865289216754000,7.93075390625,5.286343574523926,-4.3417768478393555,-13.147663116455078
1701865289226347500,7.940347412109375,5.920740604400635,-3.9421753883361816,-12.625728607177734
1701865289235940400,7.9499404296875,6.265605926513672,-3.992424488067627,-11.70867919921875
1701865289245532400,7.959532470703125,6.1241302490234375,-4.18863582611084,-10.739287376403809
1701865289255125200,7.969125244140625,5.702993869781494,-4.459323883056641,-9.783952713012695
1701865289264718800,7.97871875,5.386841773986816,-4.705784797668457,-8.665905952453613
1701865289274311400,7.9883115234375,5.085346221923828,-4.892425060272217,-7.411468982696533
1701865289283903500,7.997903564453125,4.852943420410156,-4.933402061462402,-6.135197162628174
1701865289293496300,8.007496337890625,4.520340919494629,-4.77756929397583,-4.871188640594482
1701865289303090000,8.01708984375,4.304687976837158,-4.4258246421813965,-3.7531423568725586
1701865289312682800,8.026682861328124,4.2281174659729,-3.9565322399139404,-3.092424154281616
1701865289322274800,8.03627490234375,4.304687976837158,-3.602095365524292,-2.8914270401000977
1701865289331867600,8.04586767578125,4.773980140686035,-3.4489548206329346,-3.0397820472717285
1701865289341461200,8.055461181640625,5.030311584472656,-3.537489175796509,-3.381955623626709
1701865289351054000,8.06505419921875,5.286343574523926,-3.817748546600342,-3.6358940601348877
1701865289360646000,8.07464599609375,5.4179487228393555,-4.25084924697876,-3.841676712036133
1701865289370238700,8.08423876953125,5.3246283531188965,-4.76321268081665,-4.059722900390625
1701865289379832300,8.093832275390625,5.293521881103516,-5.280361175537109,-4.351646900177002
1701865289389425200,8.103425048828125,5.31984281539917,-5.864509105682373,-4.6989054679870605
1701865289399017200,8.113017333984375,5.310271739959717,-6.491727828979492,-5.137091159820557
1701865289408610000,8.122610107421876,5.19541597366333,-7.080661296844482,-5.773880958557129
1701865289418203600,8.13220361328125,5.082953453063965,-7.571488857269287,-6.456134796142578
1701865289427796500,8.14179638671875,4.864907741546631,-7.87567663192749,-7.016354084014893
1701865289437388500,8.151388427734375,4.572983264923096,-8.007282257080078,-7.4449687004089355
1701865289446981000,8.160981201171875,4.40757942199707,-8.0383882522583,-7.7440714836120605
1701865289456575000,8.170574951171876,4.342973232269287,-8.007282257080078,-7.909475326538086
1701865289466167600,8.18016748046875,4.328616142272949,-7.801498889923096,-7.945367813110352
1701865289475759600,8.189759521484374,4.319045066833496,-7.526025295257568,-8.033902168273926
1701865289485352400,8.1993525390625,4.3310089111328125,-7.16441011428833,-8.234899520874023
1701865289494946000,8.208946044921875,4.455734729766846,-6.848557472229004,-8.411968231201172
1701865289504539000,8.218538818359375,4.639982223510742,-6.649953365325928,-8.438288688659668
1701865289514131000,8.228130859375,4.919942378997803,-6.534798622131348,-8.373682975769043
1701865289523723800,8.237723876953124,5.240880012512207,-6.439085960388184,-8.266005516052246
1701865289533317400,8.2473173828125,5.4418768882751465,-6.300302028656006,-8.10807991027832
1701865289542910200,8.25691015625,5.420341491699219,-6.199803352355957,-7.909475326538086
1701865289552502000,8.266501953125,5.135595798492432,-6.144768714904785,-7.669893741607666
1701865289562094800,8.2760947265625,4.8792643547058105,-6.065805435180664,-7.404290676116943
1701865289571688700,8.285688720703124,4.718945503234863,-5.996114253997803,-7.095317363739014
1701865289581281300,8.29528125,4.568197727203369,-5.965007781982422,-6.781857490539551
1701865289590873300,8.304873291015625,4.453341960906982,-5.950650691986084,-6.410670757293701
1701865289600466200,8.314466064453125,4.35254430770874,-5.948257923126221,-6.068198204040527
1701865289610059800,8.324059814453125,4.297509670257568,-5.957829475402832,-5.740381717681885
1701865289619652600,8.333652587890626,4.321437835693359,-5.9075798988342285,-5.572584629058838
1701865289629244700,8.34324462890625,4.328616142272949,-5.826223850250244,-5.455336570739746
1701865289638837500,8.35283740234375,4.328616142272949,-5.804688453674316,-5.3883376121521
1701865289648431000,8.36243115234375,4.338187217712402,-5.787939071655273,-5.328516960144043
1701865289658023700,8.372023681640625,4.374079704284668,-5.787939071655273,-5.328516960144043
1701865289667615700,8.38161572265625,4.4243292808532715,-5.845366477966309,-5.32612419128418
1701865289677208600,8.39120849609375,4.472484588623047,-5.91715145111084,-5.340480804443359
1701865289686802200,8.40080224609375,4.46769905090332,-6.0176496505737305,-5.3572306632995605
1701865289696395000,8.41039501953125,4.477270126342773,-6.120840549468994,-5.3572306632995605
1701865289705987000,8.419987060546875,4.494019985198975,-6.20219612121582,-5.414658546447754
1701865289715580000,8.429579833984375,4.510769844055176,-6.247660160064697,-5.472086429595947
1701865289725173500,8.439173583984376,4.534698009490967,-6.293123722076416,-5.531907081604004
1701865289734766300,8.448766357421874,4.553840637207031,-6.374479293823242,-5.60608434677124
1701865289744358400,8.4583583984375,4.601696968078613,-6.455835342407227,-5.649454116821289
1701865289753951000,8.467950927734375,4.659124851226807,-6.585047721862793,-5.685346603393555
1701865289763544600,8.477544677734375,4.702195644378662,-6.728916168212891,-5.702096462249756
1701865289773137400,8.487137451171876,4.7931227684021,-6.8772711753845215,-5.730810165405273
1701865289782729500,8.4967294921875,4.900799751281738,-7.016055107116699,-5.771488189697266
1701865289792322300,8.506322265625,4.958227634429932,-7.169195652008057,-5.78345251083374
1701865289801916000,8.515916015625,5.051846981048584,-7.291528701782227,-5.747560024261475
1701865289811508700,8.5255087890625,5.099703311920166,-7.363313674926758,-5.726024627685547
1701865289821100800,8.535100830078125,5.161916732788086,-7.365706443786621,-5.711667537689209
1701865289830693400,8.544693359375,5.226522922515869,-7.322635650634766,-5.680561065673828
1701865289840287200,8.554287353515624,5.298307418823242,-7.262814998626709,-5.702096462249756
1701865289849879800,8.5638798828125,5.322235584259033,-7.179066181182861,-5.711667537689209
1701865289859472000,8.573471923828125,5.310271739959717,-7.075875759124756,-5.730810165405273
1701865289869064700,8.583064697265625,5.317450046539307,-6.980162620544434,-5.735595703125
1701865289878658300,8.592658203125,5.288736343383789,-6.8772711753845215,-5.690132141113281
1701865289888251100,8.602251220703126,5.281557559967041,-6.788736820220947,-5.634798049926758
1701865289897843200,8.61184326171875,5.281557559967041,-6.693024158477783,-5.572584629058838
1701865289907436000,8.62143603515625,5.264808177947998,-6.599404811859131,-5.510371208190918
1701865289917029600,8.631029541015625,5.274379253387451,-6.544369697570801,-5.476871967315674
1701865289926622500,8.64062255859375,5.260022163391113,-6.479763507843018,-5.445765018463135
1701865289936214300,8.65021435546875,5.264808177947998,-6.436692714691162,-5.376373291015625
1701865289945807000,8.65980712890625,5.293521881103516,-6.39601469039917,-5.338088035583496
1701865289955400700,8.669400634765625,5.315057277679443,-6.398407936096191,-5.25673246383667
1701865289964993500,8.67899365234375,5.360520839691162,-6.436692714691162,-5.223232746124268
1701865289974585600,8.688585693359375,5.360520839691162,-6.446264266967773,-5.094020366668701
1701865289984178400,8.698178466796875,5.362913608551025,-6.503692150115967,-5.005186557769775
1701865289993772000,8.70777197265625,5.343770980834961,-6.565905570983887,-4.887938499450684
1701865290003364900,8.71736474609375,5.327021598815918,-6.626025199890137,-4.835296154022217
1701865290012957000,8.72695703125,5.315057277679443,-6.666703224182129,-4.806582450866699
1701865290022549500,8.736549560546875,5.3078789710998535,-6.7432732582092285,-4.799404144287109
1701865290032143000,8.74614306640625,5.295914649963379,-6.793522357940674,-4.799404144287109
1701865290041736000,8.75573583984375,5.224130153656006,-6.848557472229004,-4.787439823150635
1701865290051328000,8.765327880859376,5.281557559967041,-6.956234455108643,-4.775475978851318
1701865290060920800,8.7749208984375,5.286343574523926,-6.958627223968506,-4.794618606567383
1701865290070514400,8.784514404296875,5.264808177947998,-6.961019992828369,-4.806582450866699
1701865290080107300,8.794107177734375,5.245665550231934,-6.982555389404297,-4.794618606567383
1701865290089699300,8.80369921875,5.248058319091797,-7.0328049659729,-4.7850470542907715
1701865290099292000,8.8132919921875,5.24327278137207,-7.099803924560547,-4.770689964294434
1701865290108885800,8.8228857421875,5.264808177947998,-7.181458950042725,-4.770689964294434
1701865290118478300,8.832478271484375,5.274379253387451,-7.262814998626709,-4.749154567718506
1701865290128070400,8.8420703125,5.295914649963379,-7.320242881774902,-4.720440864562988
1701865290137663200,8.851663330078125,5.30548620223999,-7.332206726074219,-4.682155609130859
1701865290147256800,8.8612568359375,5.317450046539307,-7.34895658493042,-4.665405750274658
1701865290156849700,8.870849609375,5.31984281539917,-7.315456867218018,-4.701298236846924
1701865290166441700,8.880441650390624,5.295914649963379,-7.2676005363464355,-4.715655326843262
1701865290176034600,8.89003466796875,5.3007001876831055,-7.214958667755127,-4.744369029998779
1701865290185628200,8.899628173828125,5.322235584259033,-7.154839038848877,-4.758726119995117
1701865290195221000,8.909220947265625,5.336592674255371,-7.111767768859863,-4.780261516571045
1701865290204812800,8.918812744140626,5.358128070831299,-7.0663042068481445,-4.794618606567383
1701865290214405600,8.928405517578126,5.391627788543701,-7.030412197113037,-4.8233323097229
1701865290223999200,8.937999267578125,5.408377170562744,-7.023233413696289,-4.844867706298828
1701865290233592000,8.947592041015625,5.4179487228393555,-7.016055107116699,-4.844867706298828
1701865290243184000,8.95718408203125,5.434698581695557,-7.016055107116699,-4.847260475158691
1701865290252777000,8.96677685546875,5.43709135055542,-7.0184478759765625,-4.854438781738281
1701865290262370600,8.97637060546875,5.43709135055542,-7.008876800537109,-4.8568315505981445
1701865290271963400,8.98596337890625,5.425127029418945,-6.999305248260498,-4.8233323097229
1701865290281555500,8.995555419921875,5.4179487228393555,-6.992126941680908,-4.835296154022217
1701865290291148000,9.00514794921875,5.429912567138672,-6.97776985168457,-4.852046012878418
1701865290300742000,9.014741943359375,5.439484119415283,-6.963412761688232,-4.88554573059082
1701865290310334500,9.02433447265625,5.468197822570801,-6.953841686248779,-4.875974178314209
1701865290319926500,9.033926513671876,5.487340450286865,-6.958627223968506,-4.868795871734619
1701865290329519400,9.043519287109374,5.458626747131348,-6.951448917388916,-4.847260475158691
1701865290339113000,9.053113037109375,5.456233978271484,-6.951448917388916,-4.840082168579102
1701865290348705800,9.062705810546875,5.484947681427002,-6.934699058532715,-4.83051061630249
1701865290358297900,9.0722978515625,5.508875846862793,-6.913163661956787,-4.844867706298828
1701865290367890700,9.081890625,5.525625705718994,-6.901199817657471,-4.83051061630249
1701865290377484300,9.091484375,5.523232936859131,-6.9083781242370605,-4.8161540031433105
1701865290387076900,9.101076904296875,5.492125988006592,-6.913163661956787,-4.787439823150635
1701865290396669000,9.1106689453125,5.492125988006592,-6.929913520812988,-4.8233323097229
1701865290406261800,9.12026171875,5.477769374847412,-6.9705915451049805,-4.775475978851318
1701865290415855400,9.12985546875,5.427519798278809,-6.972984313964844,-4.744369029998779
1701865290425448200,9.1394482421875,5.38205623626709,-6.932306289672852,-4.76829719543457
1701865290435040300,9.149040283203124,5.377270698547363,-6.982555389404297,-4.689334392547607
1701865290444633000,9.158633056640625,5.271986484527588,-7.061518669128418,-4.66779899597168
1701865290454226700,9.168226806640625,5.291129112243652,-7.1285176277160645,-4.629513740539551
1701865290463819300,9.1778193359375,5.271986484527588,-7.154839038848877,-4.6271209716796875
1701865290473411300,9.187411376953126,5.298307418823242,-7.104589462280273,-4.629513740539551
1701865290483004200,9.197004150390624,5.281557559967041,-7.04716157913208,-4.852046012878418
1701865290492597800,9.20659765625,5.315057277679443,-7.083054065704346,-4.773082733154297
1701865290502190600,9.216190673828125,5.298307418823242,-7.123732089996338,-4.720440864562988
1701865290511782700,9.22578271484375,5.25762939453125,-7.133303165435791,-4.660620212554932
1701865290521375500,9.23537548828125,5.228915691375732,-7.147660255432129,-4.6199421882629395
1701865290530969000,9.244968994140624,5.233701229095459,-7.142874717712402,-4.588835716247559
1701865290540562000,9.25456201171875,5.207380294799805,-7.049554824829102,-4.722833633422852
1701865290550153700,9.26415380859375,5.262415409088135,-6.872485637664795,-4.847260475158691
1701865290559746600,9.27374658203125,5.267200946807861,-7.099803924560547,-4.466502666473389
1701865290569340200,9.283340087890625,5.226522922515869,-7.1958160400390625,-4.334897518157959
1701865290578933000,9.29293310546875,5.202594757080078,-7.186244487762451,-4.36600399017334
1701865290588525000,9.302525146484374,5.221737384796143,-7.147660255432129,-4.3085761070251465
1701865290598118000,9.312117919921874,5.252843856811523,-7.176673412322998,-4.248755931854248
1701865290607711500,9.32171142578125,5.233701229095459,-7.179066181182861,-4.3085761070251465
1701865290617304300,9.33130419921875,5.2384867668151855,-7.1524457931518555,-4.418646335601807
1701865290626896100,9.340896240234375,5.248058319091797,-7.111767768859863,-4.516751766204834
1701865290636489000,9.350489013671876,5.248058319091797,-7.181458950042725,-4.54337215423584
1701865290646082800,9.360082763671874,5.245665550231934,-7.2676005363464355,-4.576871395111084
1701865290655675400,9.36967529296875,5.262415409088135,-7.289135932922363,-4.596014022827148
1701865290665267500,9.379267333984375,5.2767720222473145,-7.315456867218018,-4.636692047119141
1701865290674860300,9.3888603515625,5.279164791107178,-7.284350395202637,-4.660620212554932
1701865290684454000,9.398453857421876,5.31266450881958,-7.214958667755127,-4.663012981414795
1701865290694046700,9.408046630859374,5.322235584259033,-7.0663042068481445,-4.7371907234191895
1701865290703638800,9.417638671875,5.3557353019714355,-6.953841686248779,-4.8568315505981445
1701865290713231600,9.427231689453125,5.386841773986816,-6.841379165649414,-4.995615482330322
1701865290722825200,9.4368251953125,5.410770416259766,-6.7672014236450195,-5.065007209777832
1701865290732417800,9.446417724609375,5.408377170562744,-6.709774017333984,-5.1514482498168945
1701865290742009900,9.456009765625,5.389235019683838,-6.661917209625244,-5.165804862976074
1701865290751602700,9.465602783203124,5.4179487228393555,-6.616453647613525,-5.149055004119873
1701865290761196300,9.4751962890625,5.449055194854736,-6.592226505279541,-5.117948532104492
1701865290770789000,9.4847890625,5.4897332191467285,-6.661917209625244,-5.0602216720581055
1701865290780381200,9.494381103515625,5.470590591430664,-6.736094951629639,-4.983651161193848
1701865290789974000,9.50397412109375,5.4418768882751465,-6.843771934509277,-4.897509574890137
1701865290799567600,9.513567626953124,5.3940205574035645,-6.980162620544434,-4.813760757446289
1701865290809160200,9.52316015625,5.336592674255371,-7.116553783416748,-4.749154567718506
1701865290818752300,9.532752197265625,5.31984281539917,-7.241279602050781,-4.684548377990723
1701865290828345000,9.542344970703125,5.31984281539917,-7.334599494934082,-4.658227443695068
1701865290837938700,9.551938720703125,5.288736343383789,-7.41834831237793,-4.634299278259277
1701865290847531500,9.561531494140626,5.279164791107178,-7.4709906578063965,-4.596014022827148
1701865290857123600,9.57112353515625,5.255236625671387,-7.506882667541504,-4.567300319671631
1701865290866716400,9.58071630859375,5.219344615936279,-7.497311592102051,-4.524229526519775
1701865290876310000,9.59031005859375,5.19541597366333,-7.47338342666626,-4.509573459625244
1701865290885902600,9.599902587890625,5.183452129364014,-7.48056173324585,-4.500001907348633
1701865290895494700,9.60949462890625,5.178666591644287,-7.4709906578063965,-4.524229526519775
1701865290905087500,9.61908740234375,5.19541597366333,-7.490133285522461,-4.524229526519775
1701865290914681000,9.62868115234375,5.221737384796143,-7.516454219818115,-4.529015064239502
1701865290924274000,9.63827392578125,5.231308460235596,-7.547560691833496,-4.531407833099365
1701865290933866000,9.647865966796875,5.255236625671387,-7.559525012969971,-4.531407833099365
1701865290943458800,9.657458740234375,5.2839508056640625,-7.593024253845215,-4.500001907348633
1701865290953052400,9.667052490234376,5.295914649963379,-7.609774112701416,-4.442574501037598
1701865290962645200,9.676645263671874,5.269593715667725,-7.600203037261963,-4.4018964767456055
1701865290972237000,9.686237060546874,5.25762939453125,-7.614559650421143,-4.354039669036865
1701865290981830000,9.695829833984375,5.31266450881958,-7.633702278137207,-4.361218452453613
1701865290991423500,9.705423583984375,5.386841773986816,-7.626523971557617,-4.36600399017334
1701865291001016300,9.715016357421876,5.410770416259766,-7.523632526397705,-4.389932155609131
1701865291010608400,9.7246083984375,5.458626747131348,-7.2197442054748535,-4.5215373039245605
1701865291020201200,9.734201171875,5.549553871154785,-7.6049885749816895,-4.382753849029541
1701865291029794800,9.743794921875,5.449055194854736,-7.624131202697754,-4.394717693328857
1701865291039387600,9.7533876953125,5.446662425994873,-7.4949188232421875,-4.399503707885742
1701865291048979500,9.7629794921875,5.425127029418945,-7.334599494934082,-4.387539386749268
1701865291058572300,9.772572265625,5.3748779296875,-7.176673412322998,-4.387539386749268
1701865291068166100,9.782166259765624,5.336592674255371,-7.080661296844482,-4.404289245605469
1701865291077758700,9.7917587890625,5.353342533111572,-7.054340362548828,-4.404289245605469
1701865291087350800,9.801350830078125,5.353342533111572,-6.925127983093262,-4.485645294189453
1701865291096943600,9.810943603515625,5.415555953979492,-6.903592586517334,-4.562514781951904
1701865291106537200,9.820537109375,5.391627788543701,-6.934699058532715,-4.629513740539551
1701865291116130000,9.830130126953126,5.346164226531982,-6.968198776245117,-4.677370071411133
1701865291125721900,9.839721923828124,5.3078789710998535,-7.0328049659729,-4.715655326843262
1701865291135314700,9.849314697265624,5.2767720222473145,-7.073482990264893,-4.744369029998779
1701865291144908500,9.858908447265625,5.274379253387451,-7.104589462280273,-4.753940582275391
1701865291154501000,9.868501220703125,5.248058319091797,-7.1356964111328125,-4.744369029998779
1701865291164093200,9.87809326171875,5.252843856811523,-7.154839038848877,-4.734797954559326
1701865291173686000,9.88768603515625,5.252843856811523,-7.181458950042725,-4.684548377990723
1701865291183279600,9.897279541015624,5.25045108795166,-7.207779884338379,-4.646263599395752
1701865291192872400,9.90687255859375,5.200201988220215,-7.111767768859863,-4.536193370819092
1701865291202464500,9.916464599609375,5.219344615936279,-7.080661296844482,-4.756333351135254
1701865291212057300,9.926057373046875,5.267200946807861,-7.387241840362549,-4.617549419403076
1701865291221651000,9.93565087890625,5.097310543060303,-7.475776195526123,-4.629513740539551
1701865291231243500,9.945243408203124,5.042275428771973,-7.523632526397705,-4.629513740539551
1701865291240835600,9.954835693359374,5.078167915344238,-7.540382385253906,-4.691727161407471
1701865291250428400,9.964428466796875,5.169095039367676,-7.595417499542236,-4.756333351135254
1701865291260022000,9.97402197265625,5.221737384796143,-7.612166881561279,-4.753940582275391
1701865291269614800,9.98361474609375,5.2145586013793945,-7.657630443572998,-4.732405185699463
1701865291279207000,9.99320703125,5.169095039367676,-7.707880020141602,-4.696512699127197
1701865291288799700,10.0027998046875,5.090131759643555,-7.7440714836120605,-4.6438703536987305
1701865291298393300,10.012393310546875,5.020740032196045,-7.748857021331787,-4.648656368255615
1701865291307986000,10.02198583984375,4.955834865570068,-7.731808185577393,-4.6510491371154785
1701865291317578000,10.031577880859375,4.867300510406494,-7.707880020141602,-4.607978343963623
1701865291327170800,10.0411708984375,4.735694885253906,-7.540382385253906,-4.411467552185059
1701865291336764400,10.050764404296874,4.735694885253906,-7.521239757537842,-4.461717128753662
1701865291346357200,10.060357177734375,4.797908306121826,-7.6839518547058105,-4.354039669036865
1701865291355949300,10.06994921875,4.716552734375,-7.621738433837891,-4.160221099853516
1701865291365542100,10.079542236328125,4.72373104095459,-7.490133285522461,-4.071686744689941
1701865291375135700,10.0891357421875,4.699802875518799,-7.368099212646484,-3.9879379272460938
1701865291384728300,10.098728271484376,4.711766719818115,-7.258029460906982,-3.9493536949157715
1701865291394320400,10.1083203125,4.738088130950928,-7.236494064331055,-3.937389612197876
1701865291403913200,10.117913330078125,4.7596235275268555,-7.2867431640625,-3.9927237033843994
1701865291413506800,10.1275068359375,4.752444744110107,-7.365706443786621,-4.028615951538086
1701865291423099600,10.137099609375,4.745266437530518,-7.48056173324585,-4.074079513549805
1701865291432691700,10.146691650390625,4.747659206390381,-7.585845947265625,-4.1745781898498535
1701865291442284500,10.156284423828126,4.709373950958252,-7.734499931335449,-4.23439884185791
1701865291451878100,10.165878173828125,4.663910388946533,-7.779963493347168,-4.243969917297363
1701865291461470700,10.175470703125,4.680660247802734,-7.81346321105957,-4.3325042724609375
1701865291471062800,10.185062744140625,4.59930419921875,-7.808677673339844,-4.263112545013428
1701865291480655600,10.194655517578125,4.5323052406311035,-7.772785186767578,-4.253541469573975
1701865291490249200,10.204249267578126,4.52991247177124,-7.8684983253479,-4.4976091384887695
1701865291499842000,10.213842041015624,4.52991247177124,-7.947461128234863,-4.349254131317139
1701865291509434000,10.22343408203125,4.546662330627441,-7.968996524810791,-4.36600399017334
1701865291519027000,10.23302685546875,4.594518661499023,-8.012067794799805,-4.444967269897461
1701865291528620500,10.24262060546875,4.644767761230469,-8.08385181427002,-4.416253089904785
1701865291538213000,10.252213134765626,4.637589454650879,-8.146065711975098,-4.3779683113098145
1701865291547805200,10.26180517578125,4.632803916931152,-8.210671424865723,-4.416253089904785
1701865291557398000,10.27139794921875,4.647160530090332,-8.265707015991211,-4.43539571762085
1701865291566991600,10.28099169921875,4.678267478942871,-8.328219413757324,-4.447360038757324
1701865291576584400,10.29058447265625,4.678267478942871,-8.36411190032959,-4.442574501037598
1701865291586176500,10.300176513671875,4.6663031578063965,-8.400003433227539,-4.564907550811768
1701865291595769300,10.309769287109376,4.651946544647217,-8.459824562072754,-4.641477584838867
1701865291605363000,10.319363037109374,4.561018943786621,-8.4502534866333,-4.648656368255615
1701865291614955500,10.32895556640625,4.505984306335449,-8.421539306640625,-4.586442947387695
1701865291624547600,10.338547607421875,4.5011982917785645,-8.397610664367676,-4.514358997344971
1701865291634140400,10.348140380859375,4.450949192047119,-8.34736156463623,-4.55055046081543
1701865291643734000,10.357734130859376,4.350151538848877,-8.289634704589844,-4.468895435333252
1701865291653326800,10.367326904296876,4.261617183685303,-8.236992835998535,-4.468895435333252
1701865291662919000,10.3769189453125,4.256831645965576,-8.203493118286133,-4.354039669036865
1701865291672511700,10.38651171875,4.297509670257568,-8.153244018554688,-4.3779683113098145
1701865291682105300,10.396105224609375,4.388436794281006,-8.091031074523926,-4.320540428161621
1701865291691698000,10.405697998046875,4.429114818572998,-8.043173789978027,-4.193720817565918
1701865291701290000,10.4152900390625,4.333401679992676,-7.906783103942871,-3.7770705223083496
1701865291710882800,10.4248828125,4.285545349121094,-7.933104515075684,-3.8536407947540283
1701865291720476400,10.434476318359375,4.237689018249512,-7.947461128234863,-4.002295017242432
1701865291730069200,10.4440693359375,4.120440483093262,-7.885247707366943,-3.8775691986083984
1701865291739661300,10.453661376953125,3.9984066486358643,-7.827820301055908,-3.6885361671447754
1701865291749254100,10.463254150390625,3.91705060005188,-7.849355697631836,-3.6741790771484375
1701865291758847700,10.47284765625,3.85693097114563,-7.887640953063965,-3.6047873497009277
1701865291768440600,10.482440673828124,3.866502285003662,-7.93071174621582,-3.62153697013855
1701865291778032400,10.492032470703125,3.8473596572875977,-7.980960845947266,-3.52103853225708
1701865291787625200,10.501625244140625,3.8162529468536377,-7.954639911651611,-3.5066816806793213
1701865291797218800,10.51121875,3.7444684505462646,-7.9259257316589355,-3.5090744495391846
1701865291806811600,10.520811767578126,3.715754508972168,-7.942675590515137,-3.3939197063446045
1701865291816403700,10.53040380859375,3.6966118812561035,-8.002495765686035,-3.3532419204711914
1701865291825996500,10.53999658203125,3.6583266258239746,-8.028817176818848,-3.410968780517578
1701865291835590100,10.549590087890625,3.533900022506714,-8.040781021118164,-3.597608804702759
1701865291845183000,10.559182861328125,3.629612922668457,-8.126922607421875,-3.5258240699768066
1701865291854774800,10.56877490234375,3.653541088104248,-8.20827865600586,-3.6023945808410645
1701865291864367600,10.57836767578125,3.6822550296783447,-8.251349449157715,-3.6287155151367188
1701865291873961200,10.587961181640624,3.708575963973999,-8.289634704589844,-3.741178274154663
1701865291883554000,10.597553955078125,3.7348971366882324,-8.330612182617188,-3.7698919773101807
1701865291893146000,10.60714599609375,3.6870405673980713,-8.349754333496094,-3.817748546600342
1701865291902739000,10.616739013671875,3.670290946960449,-8.397610664367676,-3.8225340843200684
1701865291912332500,10.62633251953125,3.7061831951141357,-8.428717613220215,-3.8799619674682617
1701865291921925400,10.63592529296875,3.7516467571258545,-8.373682975769043,-3.997509241104126
1701865291931517200,10.64551708984375,3.715754508972168,-8.395217895507812,-3.966402530670166
1701865291941110000,10.655110107421875,3.6655051708221436,-8.414361000061035,-4.143471717834473
1701865291950703600,10.66470361328125,3.660719633102417,-8.445467948913574,-4.186542510986328
1701865291960296400,10.67429638671875,3.6583266258239746,-8.440681457519531,-4.299005031585693
1701865291969888500,10.683888427734376,3.6391842365264893,-8.411968231201172,-4.356432914733887
1701865291979481300,10.6934814453125,3.6343984603881836,-8.4502534866333,-4.610371112823486
1701865291989075000,10.703074951171875,3.5458641052246094,-8.5100736618042,-4.569693088531494
1701865291998667800,10.712667724609375,3.450151205062866,-8.572287559509277,-4.504787921905518
1701865292008259600,10.722259521484375,3.423830032348633,-8.636893272399902,-4.507180690765381
1701865292017852400,10.731852294921875,3.3592238426208496,-8.6033935546875,-4.732405185699463
1701865292027446000,10.741446044921876,3.4549367427825928,-8.624929428100586,-4.504787921905518
1701865292037038800,10.751038818359374,3.4669008255004883,-8.689535140991211,-4.330111503601074
1701865292046631000,10.760630859375,3.4286158084869385,-8.6967134475708,-4.186542510986328
1701865292056223700,10.7702236328125,3.416651725769043,-8.72064208984375,-4.081258296966553
1701865292065817300,10.7798173828125,3.447758436203003,-8.663214683532715,-4.133900165557861
1701865292075410000,10.789409912109376,3.481257915496826,-8.524430274963379,-4.35882568359375
1701865292085002000,10.799001953125,3.4908292293548584,-8.522037506103516,-4.220041751861572
1701865292094594800,10.8085947265625,3.543471336364746,-8.598608016967773,-4.121936321258545
1701865292104188400,10.8181884765625,3.471686601638794,-8.62732219696045,-4.1985063552856445
1701865292113781200,10.82778125,3.4381871223449707,-8.670392990112305,-4.294219493865967
1701865292123373300,10.837373291015625,3.3640096187591553,-8.73499870300293,-4.399503707885742
1701865292132966100,10.846966064453126,3.294318675994873,-8.773283958435059,-4.3779683113098145
1701865292142559700,10.856559814453124,3.177070379257202,-8.809176445007324,-4.3325042724609375
1701865292152152300,10.86615234375,3.0239295959472656,-8.82114028930664,-4.232006072998047
1701865292161744400,10.875744384765625,2.9114668369293213,-8.825926780700684,-4.138685703277588
1701865292171337200,10.885337158203125,2.7870402336120605,-8.811569213867188,-4.114757537841797
1701865292180930800,10.894930908203126,2.6383860111236572,-8.715856552124023,-4.243969917297363
1701865292190523600,10.904523681640624,2.7702903747558594,-8.718249320983887,-3.913461446762085
1701865292200115700,10.91411572265625,2.806182861328125,-8.746963500976562,-3.803391695022583
1701865292209708500,10.92370849609375,2.7652056217193604,-8.708678245544434,-3.865604877471924
1701865292219302100,10.93330224609375,2.7942185401916504,-8.677571296691895,-3.9397823810577393
1701865292228894700,10.942894775390625,2.861217737197876,-8.658429145812988,-4.007080554962158
1701865292238486800,10.95248681640625,2.837289333343506,-8.636893272399902,-4.0334014892578125
1701865292248079600,10.96207958984375,2.8037898540496826,-8.577073097229004,-4.002295017242432
1701865292257673200,10.971673095703125,2.791825771331787,-8.598608016967773,-4.035794258117676
1701865292267266000,10.98126611328125,2.7029922008514404,-8.577073097229004,-4.119543075561523
1701865292276858000,10.990858154296875,2.6479573249816895,-8.586644172668457,-4.014258861541748
1701865292286451000,11.000450927734375,2.6192433834075928,-8.658429145812988,-3.9759738445281982
1701865292296044500,11.01004443359375,2.5761725902557373,-8.749356269836426,-4.045365810394287
1701865292305637000,11.01963720703125,2.525923490524292,-8.780462265014648,-4.17936372756958
1701865292315229200,11.029229248046875,2.5307090282440186,-8.886046409606934,-4.035794258117676
1701865292324822000,11.038822021484375,2.487638235092163,-8.945866584777832,-3.8919260501861572
1701865292334415600,11.04841552734375,2.4062821865081787,-8.938688278198242,-3.937389612197876
1701865292344008400,11.058008544921876,2.346461772918701,-8.914759635925293,-3.980759620666504
1701865292353600500,11.0676005859375,2.312962293624878,-8.886046409606934,-3.9879379272460938
1701865292363193300,11.077193359375,2.2938196659088135,-8.83071231842041,-3.8703906536102295
1701865292372787000,11.086786865234375,2.3488545417785645,-8.809176445007324,-3.741178274154663
1701865292382379500,11.096379638671875,2.4062821865081787,-8.732605934143066,-3.5952160358428955
1701865292391971600,11.1059716796875,2.4445674419403076,-8.691927909851074,-3.817748546600342
1701865292401564400,11.115564453125,2.4445674419403076,-8.687142372131348,-3.8297126293182373
1701865292411158000,11.125157958984374,2.487638235092163,-8.648857116699219,-3.765106439590454
1701865292420750800,11.134750732421875,2.5043880939483643,-8.62732219696045,-3.7603209018707275
1701865292430343000,11.144343017578125,2.509173631668091,-8.605786323547363,-3.779463291168213
1701865292439935700,11.153935791015625,2.4756741523742676,-8.591429710388184,-3.7603209018707275
1701865292449529300,11.163529296875,2.4684956073760986,-8.562715530395508,-3.7292141914367676
1701865292459122000,11.173121826171876,2.4684956073760986,-8.541180610656738,-3.686143398284912
1701865292468714000,11.1827138671875,2.470888376235962,-8.534002304077148,-3.6837503910064697
1701865292478306800,11.192306884765625,2.480459690093994,-8.531609535217285,-3.6885361671447754
1701865292487900400,11.201900390625,2.4900310039520264,-8.545966148376465,-3.7220356464385986
1701865292497493200,11.2114931640625,2.4900310039520264,-8.545966148376465,-3.757927894592285
1701865292507085300,11.221085205078126,2.456531524658203,-8.560322761535645,-3.8560338020324707
1701865292516678000,11.230677978515626,2.4134607315063477,-8.577073097229004,-3.937389612197876
1701865292526271700,11.240271728515625,2.3727827072143555,-8.636893272399902,-4.002295017242432
1701865292535864300,11.2498642578125,2.3656044006347656,-8.71346378326416,-4.035794258117676
1701865292545456400,11.259456298828125,2.384746789932251,-8.746963500976562,-4.0788655281066895
1701865292555049200,11.26904931640625,2.346461772918701,-8.768498420715332,-4.064508438110352
1701865292564642800,11.278642822265626,2.3177478313446045,-8.792427062988281,-4.038187503814697
1701865292574235600,11.288235595703124,2.2938196659088135,-8.835497856140137,-4.007080554962158
1701865292583827700,11.29782763671875,2.2698912620544434,-8.871688842773438,-3.9879379272460938
1701865292593420300,11.307420166015625,2.3105692863464355,-8.909974098205566,-3.9589250087738037
1701865292603014100,11.31701416015625,2.3512473106384277,-8.91236686706543,-3.923032760620117
1701865292612606700,11.326606689453126,2.39192533493042,-8.88365364074707,-3.867997884750366
1701865292622198800,11.33619873046875,2.4062821865081787,-8.83071231842041,-3.8560338020324707
1701865292631791600,11.34579150390625,2.377568483352661,-8.806783676147461,-3.793820381164551
1701865292641385200,11.35538525390625,2.4038894176483154,-8.811569213867188,-3.7914273738861084
1701865292650978000,11.36497802734375,2.4421746730804443,-8.823533058166504,-3.803391695022583
1701865292660570000,11.374570068359375,2.4900310039520264,-8.864510536193848,-3.8632121086120605
1701865292670162700,11.38416259765625,2.509173631668091,-8.90518856048584,-3.9687955379486084
1701865292679756300,11.39375634765625,2.5211377143859863,-8.945866584777832,-4.057330131530762
1701865292689349000,11.40334912109375,2.5139594078063965,-8.99133014678955,-4.129114627838135
1701865292698941200,11.412941162109375,2.4756741523742676,-9.010472297668457,-4.160221099853516
1701865292708534000,11.422533935546875,2.4589242935180664,-8.996115684509277,-4.1745781898498535
1701865292718127600,11.432127685546876,2.480459690093994,-8.953044891357422,-4.169792652130127
1701865292727720400,11.441720458984374,2.5043880939483643,-8.914759635925293,-4.155435562133789
1701865292737312500,11.4513125,2.511566400527954,-8.893224716186523,-4.176970958709717
1701865292746905000,11.460905029296875,2.5307090282440186,-8.888439178466797,-4.272684097290039
1701865292756498700,11.470498779296875,2.4900310039520264,-8.90518856048584,-4.3325042724609375
1701865292766091500,11.480091552734375,2.525923490524292,-8.933902740478516,-4.394717693328857
1701865292775683600,11.48968359375,2.5211377143859863,-8.914759635925293,-4.42103910446167
1701865292785276400,11.4992763671875,2.535494804382324,-8.89801025390625,-4.466502666473389
1701865292794870000,11.5088701171875,2.5522444248199463,-8.89083194732666,-4.444967269897461
1701865292804462800,11.518462890625,2.5546371936798096,-8.907581329345703,-4.404289245605469
1701865292814055000,11.528054931640625,2.580958366394043,-8.900403022766113,-4.356432914733887
1701865292823647500,11.5376474609375,2.5953152179718018,-8.886046409606934,-4.30379056930542
1701865292833241000,11.547240966796876,2.6264219284057617,-8.833105087280273,-4.277469635009766
1701865292842834000,11.556833984375,2.628814697265625,-8.787641525268555,-4.294219493865967
1701865292852426000,11.566426025390625,2.6168506145477295,-8.73499870300293,-4.289433479309082
1701865292862018800,11.576018798828125,2.5929224491119385,-8.684749603271484,-4.294219493865967
1701865292871612400,11.5856123046875,2.5618157386779785,-8.658429145812988,-4.255934238433838
1701865292881205200,11.595205322265626,2.535494804382324,-8.653642654418945,-4.208077907562256
1701865292890797000,11.604797119140626,2.5163521766662598,-8.648857116699219,-4.184149265289307
1701865292900390000,11.614389892578124,2.511566400527954,-8.632107734680176,-4.141078472137451
1701865292909983500,11.6239833984375,2.511566400527954,-8.62014389038086,-4.131507396697998
1701865292919576300,11.633576416015625,2.5067808628082275,-8.61057186126709,-4.11715030670166
1701865292929168400,11.64316845703125,2.494816780090332,-8.622536659240723,-4.083651065826416
1701865292938761200,11.65276123046875,2.494816780090332,-8.648857116699219,-4.066901206970215
1701865292948354800,11.662354736328124,2.518744945526123,-8.663214683532715,-4.021437644958496
1701865292957947400,11.671947509765625,2.6503500938415527,-8.689535140991211,-4.038187503814697
1701865292967539500,11.68153955078125,2.7197420597076416,-8.708678245544434,-4.0405802726745605
1701865292977132300,11.69113232421875,3.026322364807129,-8.742177963256836,-4.1506500244140625
1701865292986726000,11.700725830078126,3.584149122238159,-8.459824562072754,-4.744369029998779
1701865292996318700,11.710318603515624,1.8939191102981567,-7.837391376495361,-3.64546537399292
1701865293005910800,11.719910888671874,1.9800606966018677,-8.766105651855469,-3.319742202758789
1701865293015503600,11.729503662109375,2.652743101119995,-8.85224723815918,-3.55214524269104
1701865293025097200,11.73909716796875,2.5378875732421875,-8.538787841796875,-3.7052857875823975
1701865293034689800,11.748689697265625,2.5378875732421875,-8.756534576416016,-3.8009986877441406
1701865293044281900,11.75828173828125,2.705385208129883,-8.91954517364502,-3.882354736328125
1701865293053874700,11.767874755859374,2.8277182579040527,-8.917152404785156,-4.066901206970215
1701865293063468300,11.77746826171875,2.9377880096435547,-8.869296073913574,-4.2918267250061035
1701865293073061000,11.78706103515625,2.806182861328125,-8.974580764770508,-4.30379056930542
1701865293082653200,11.796653076171875,2.635993242263794,-9.034400939941406,-4.272684097290039
1701865293092245800,11.806245849609375,2.5211377143859863,-9.048757553100586,-4.229613304138184
1701865293101839600,11.815839599609374,2.4278175830841064,-8.943473815917969,-4.217648983001709
1701865293111432200,11.82543212890625,2.418246269226074,-8.89083194732666,-4.17218542098999
1701865293121024300,11.835024169921875,2.4589242935180664,-8.900403022766113,-4.205684661865234
1701865293130617000,11.8446171875,2.478066921234131,-8.857332229614258,-4.275076866149902
1701865293140210700,11.854210693359375,2.4924237728118896,-8.90518856048584,-4.301397800445557
1701865293149803500,11.863803466796876,2.4924237728118896,-9.170791625976562,-4.248755931854248
1701865293159395600,11.8733955078125,2.566601276397705,-9.311968803405762,-4.370789527893066
1701865293168988200,11.88298828125,2.430210590362549,-8.806783676147461,-4.5215373039245605
1701865293178582000,11.89258203125,2.322533369064331,-8.833105087280273,-4.11715030670166
1701865293188174600,11.902174560546875,2.3727827072143555,-8.837890625,-4.2607197761535645
1701865293197766700,11.9117666015625,2.3632113933563232,-8.81396198272705,-4.17936372756958
1701865293207359500,11.921359375,2.4589242935180664,-8.316255569458008,-4.416253089904785
1701865293216953000,11.930953125,2.6192433834075928,-8.021638870239258,-4.665405750274658
1701865293226546000,11.9405458984375,2.6407787799835205,-7.959425449371338,-4.6989054679870605
1701865293236138000,11.950137939453125,2.6383860111236572,-8.04796028137207,-4.689334392547607
1701865293245730600,11.95973046875,2.518744945526123,-8.28724193572998,-4.622334957122803
1701865293255324200,11.96932421875,2.4661028385162354,-8.512466430664062,-4.466502666473389
1701865293264917000,11.9789169921875,2.3871397972106934,-8.61057186126709,-4.413860321044922
1701865293274509000,11.988509033203124,2.281855583190918,-8.790034294128418,-4.229613304138184
1701865293284102000,11.998101806640625,2.2220349311828613,-9.03679370880127,-4.04775857925415
1701865293293695500,12.007695556640625,2.17627215385437,-8.972187995910645,-4.0788655281066895
1701865293303288300,12.017288330078125,2.181057929992676,-8.58903694152832,-4.313362121582031
1701865293312880000,12.026880126953126,2.241177558898926,-8.313861846923828,-4.392324924468994
1701865293322473000,12.036472900390624,2.2220349311828613,-8.751749038696289,-4.1745781898498535
1701865293332066600,12.046066650390625,2.401496648788452,-9.032008171081543,-4.145864486694336
1701865293341659400,12.055659423828125,2.5378875732421875,-8.996115684509277,-4.169792652130127
1701865293351251500,12.06525146484375,2.549851655960083,-9.060722351074219,-4.277469635009766
1701865293360844300,12.07484423828125,2.5235304832458496,-8.972187995910645,-4.23439884185791
1701865293370438000,12.08443798828125,2.6551358699798584,-8.948259353637695,-4.346861362457275
1701865293380030500,12.094030517578124,2.4278175830841064,-8.857332229614258,-4.346861362457275
1701865293389622500,12.10362255859375,2.5929224491119385,-8.849854469299316,-4.057330131530762
1701865293399215400,12.11321533203125,2.533101797103882,-8.83071231842041,-4.160221099853516
1701865293408809000,12.12280908203125,2.6072793006896973,-8.849854469299316,-4.272684097290039
1701865293418401800,12.13240185546875,2.6336004734039307,-8.770891189575195,-4.361218452453613
1701865293427993900,12.141993896484376,2.5953152179718018,-8.840283393859863,-4.31096887588501
1701865293437586700,12.151586669921874,2.614457845687866,-8.926724433898926,-4.299005031585693
1701865293447180300,12.16118017578125,2.6407787799835205,-8.84506893157959,-4.322933197021484
1701865293456772900,12.17077294921875,2.6407787799835205,-8.799605369567871,-4.368396759033203
1701865293466365000,12.180364990234375,2.635993242263794,-8.58903694152832,-4.536193370819092
1701865293475957800,12.189957763671876,2.5163521766662598,-8.57468032836914,-4.452145576477051
1701865293485551400,12.19955126953125,2.580958366394043,-8.622536659240723,-4.399503707885742
1701865293495144200,12.209144287109375,2.6407787799835205,-8.622536659240723,-4.334897518157959
1701865293504736300,12.218736328125,2.4732813835144043,-8.823533058166504,-4.593621253967285
1701865293514328800,12.228328857421875,2.4900310039520264,-8.792427062988281,-4.586442947387695
1701865293523922700,12.237922607421876,2.480459690093994,-8.823533058166504,-4.679762840270996
1701865293533515300,12.247515380859374,2.6623141765594482,-8.811569213867188,-4.42103910446167
1701865293543107300,12.257107421875,2.533101797103882,-8.605786323547363,-4.9740800857543945
1701865293552700200,12.2667001953125,2.674278497695923,-7.669594764709473,-5.8097734451293945
1701865293562293800,12.276293701171875,2.5307090282440186,-7.753642559051514,-5.1681976318359375
1701865293571886600,12.285886474609375,2.509173631668091,-9.206684112548828,-4.011866092681885
1701865293581478700,12.295478759765626,2.312962293624878,-10.185946464538574,-3.638286828994751
1701865293591071200,12.3050712890625,2.059023857116699,-9.92243766784668,-3.8081772327423096
1701865293600665000,12.3146650390625,2.018345832824707,-9.427123069763184,-4.153042793273926
1701865293610257700,12.324257568359375,2.166700839996338,-9.221040725708008,-4.385146617889404
1701865293619849700,12.333849609375,2.2483558654785156,-9.199505805969238,-4.416253089904785
1701865293629442600,12.343442626953125,2.250748872756958,-9.15404224395752,-4.35882568359375
1701865293639036200,12.3530361328125,2.2962124347686768,-9.13968563079834,-4.3779683113098145
1701865293648629000,12.36262890625,2.377568483352661,-9.221040725708008,-4.404289245605469
