time,seconds_elapsed,z,y,x
1698072006693597200,0.08459716796875,-0.14813046157360077,-0.26190075278282166,-0.26999449729919434
1698072006703190000,0.09418994140625,-0.2238755226135254,-0.2020377367734909,-0.130721315741539
1698072006712782000,0.103781982421875,-0.275186687707901,-0.1507265567779541,0.0036650835536420345
1698072006722375000,0.113375,-0.30572906136512756,-0.08964183181524277,0.11361759155988693
1698072006731968500,0.122968505859375,-0.3179459869861603,-0.0004581354442052543,0.18569757044315338
1698072006741561300,0.132561279296875,-0.3118375241756439,0.07650861889123917,0.2089097648859024
1698072006751153400,0.1421533203125,-0.2886253297328949,0.08628217875957489,0.18814095854759216
1698072006760746500,0.15174658203125,-0.2495311051607132,-0.0004581354442052543,0.13560809195041656
1698072006770340000,0.161340087890625,-0.2092151790857315,-0.1763821393251419,0.06963659077882767
1698072006779932700,0.1709326171875,-0.17256435751914978,-0.3755183517932892,0
1698072006789525000,0.18052490234375,-0.15179555118083954,-0.5442649126052856,-0.06963659077882767
1698072006799117800,0.190117919921875,-0.16279079020023346,-0.6456655263900757,-0.1429382562637329
1698072006808711400,0.19971142578125,-0.19088977575302124,-0.6676560640335083,-0.21990501880645752
1698072006818304300,0.20930419921875,-0.21532365679740906,-0.6224533319473267,-0.29565006494522095
1698072006827896300,0.218896240234375,-0.2238755226135254,-0.5257867574691772,-0.36162158846855164
1698072006837489200,0.2284892578125,-0.22754059731960297,-0.40972578525543213,-0.4092676639556885
1698072006847082800,0.238082763671875,-0.2360924631357193,-0.2973299026489258,-0.42637139558792114
1698072006856675600,0.247675537109375,-0.24464432895183563,-0.2166980654001236,-0.4080459773540497
1698072006866267600,0.257267578125,-0.25319617986679077,-0.20692451298236847,-0.36039987206459045
1698072006875860500,0.266860595703125,-0.2593046724796295,-0.2435753494501114,-0.28343313932418823
1698072006885454000,0.2764541015625,-0.25563958287239075,-0.2948864996433258,-0.1820324808359146
1698072006895047000,0.286046875,-0.24220094084739685,-0.35474956035614014,-0.061084724962711334
1698072006904639000,0.295638916015625,-0.22021043300628662,-0.39384377002716064,0.07085828483104706
1698072006914231800,0.305231689453125,-0.19944162666797638,-0.3987305462360382,0.19058434665203094
1698072006923825400,0.314825439453125,-0.17500774562358856,-0.3840702176094055,0.28343313932418823
1698072006933418200,0.324418212890625,-0.144465371966362,-0.36696648597717285,0.34696123003959656
1698072006943010300,0.33401025390625,-0.10781454294919968,-0.35597124695777893,0.3823903799057007
1698072006952603100,0.34360302734375,-0.07360709458589554,-0.34253260493278503,0.4190412163734436
1698072006962197000,0.353197021484375,-0.033291175961494446,-0.2948864996433258,0.49234288930892944
1698072006971789800,0.362789794921875,0.019241688773036003,-0.2435753494501114,0.6206207871437073
1698072006981381600,0.372381591796875,0.07055285573005676,-0.25090551376342773,0.7855495810508728
1698072006990974700,0.381974609375,0.10353861004114151,-0.34253260493278503,0.9455915689468384
1698072007000568300,0.391568359375,0.10231691598892212,-0.4805840849876404,1.0677610635757446
1698072007010161200,0.4011611328125,0.060779303312301636,-0.6139014959335327,1.1202938556671143
1698072007019753200,0.410753173828125,-0.007635590620338917,-0.6835380792617798,1.0958600044250488
1698072007029346000,0.420345947265625,-0.07971556484699249,-0.6835380792617798,1.0103414058685303
1698072007038939600,0.429939697265625,-0.1298050433397293,-0.6322268843650818,0.8820634484291077
1698072007048532500,0.439532470703125,-0.13591352105140686,-0.5050179958343506,0.7293516397476196
1698072007058124500,0.44912451171875,-0.08826743066310883,-0.28877803683280945,0.5754181146621704
1698072007067717400,0.45871728515625,0.009468132629990578,0.001985253533348441,0.4581354558467865
1698072007077311000,0.46831103515625,0.13896775245666504,0.3318427801132202,0.41171106696128845
1698072007086903800,0.47790380859375,0.25380703806877136,0.6152759194374084,0.4092676639556885
1698072007096495900,0.487495849609375,0.31977853178977966,0.7423321604728699,0.4031592011451721
1698072007106088700,0.497088623046875,0.34421244263648987,0.6983511447906494,0.38483378291130066
1698072007115682300,0.506682373046875,0.3258870244026184,0.5273138880729675,0.3555130958557129
1698072007125275100,0.516275146484375,0.2770192325115204,0.3306210935115814,0.30664533376693726
1698072007134867200,0.5258671875,0.22937314212322235,0.16691401600837708,0.23945212364196777
1698072007144460300,0.535460205078125,0.21349111199378967,0.072843536734581,0.15515519678592682
1698072007154054000,0.545053955078125,0.22570806741714478,0.07650861889123917,0.04886778071522713
1698072007163646700,0.554646728515625,0.2476985603570938,0.15958385169506073,-0.07085828483104706
1698072007173238500,0.564238525390625,0.2721324563026428,0.2964136302471161,-0.19180603325366974
1698072007182831600,0.57383154296875,0.30756160616874695,0.45523393154144287,-0.29320669174194336
1698072007192425200,0.58342529296875,0.3381039500236511,0.5810684561729431,-0.3567348122596741
1698072007202018000,0.59301806640625,0.33566057682037354,0.6079457402229309,-0.3897205591201782
1698072007211610000,0.602610107421875,0.3014531135559082,0.5163186192512512,-0.390942245721817
1698072007221203000,0.612202880859375,0.24647687375545502,0.35261157155036926,-0.3640649616718292
1698072007230796500,0.621796630859375,0.1817270666360855,0.20234315097332,-0.32130566239356995
1698072007240389400,0.631389404296875,0.11942064017057419,0.08261708915233612,-0.2895416021347046
1698072007249981400,0.6409814453125,0.060779303312301636,-0.037108972668647766,-0.29442837834358215
1698072007259574300,0.65057421875,0.007024743594229221,-0.14461809396743774,-0.3249707520008087
1698072007269167900,0.66016796875,-0.033291175961494446,-0.16538690030574799,-0.3542914092540741
1698072007278760700,0.6697607421875,-0.0528382882475853,-0.07009471952915192,-0.367730051279068
1698072007288352800,0.679352783203125,-0.04184303805232048,0.10827267915010452,-0.3542914092540741
1698072007297945600,0.688945556640625,-0.00519220158457756,0.3061871826648712,-0.29687178134918213
1698072007307539200,0.698539306640625,0.04734066128730774,0.465007483959198,-0.19180603325366974
1698072007317132000,0.708132080078125,0.10109522193670273,0.571294903755188,-0.05375456064939499
1698072007326724000,0.71772412109375,0.1450762301683426,0.6287145614624023,0.10384403169155121
1698072007336317000,0.72731689453125,0.16217994689941406,0.6152759194374084,0.261442631483078
1698072007345910500,0.73691064453125,0.1450762301683426,0.5187620520591736,0.39827242493629456
1698072007355503400,0.74650341796875,0.10842538625001907,0.36360684037208557,0.5033381581306458
1698072007365095400,0.756095458984375,0.07055285573005676,0.22433365881443024,0.5803049206733704
1698072007374688500,0.7656884765625,0.04489727318286896,0.15591876208782196,0.6316160559654236
1698072007384282000,0.7752822265625,0.03268032893538475,0.1522536724805832,0.6548282504081726
1698072007393875000,0.784875,0.041232191026210785,0.17913095653057098,0.6316160559654236
1698072007403466800,0.794466796875,0.058335911482572556,0.2536543309688568,0.582748293876648
1698072007413059800,0.804059814453125,0.091321662068367,0.35383328795433044,0.5338805317878723
1698072007422653400,0.8136533203125,0.13896775245666504,0.4283566474914551,0.4984513521194458
1698072007432246300,0.823246337890625,0.19027891755104065,0.4491254389286041,0.4679090082645416
1698072007441838000,0.832838134765625,0.23303823173046112,0.38071054220199585,0.4324798583984375
1698072007451431200,0.84243115234375,0.26724568009376526,0.20722992718219757,0.38483378291130066
1698072007461024800,0.852024658203125,0.28068432211875916,-0.03833066672086716,0.33596599102020264
1698072007470617600,0.86161767578125,0.26724568009376526,-0.2667875289916992,0.29320669174194336
1698072007480209700,0.871209716796875,0.22570806741714478,-0.3962871730327606,0.25411245226860046
1698072007489802500,0.880802490234375,0.1585148572921753,-0.4268295168876648,0.20280128717422485
1698072007499396000,0.89039599609375,0.07421794533729553,-0.3901786804199219,0.13438639044761658
1698072007508989000,0.899989013671875,-0.014965757727622986,-0.30343836545944214,0.06719319522380829
1698072007518581000,0.9095810546875,-0.08704573661088943,-0.23624517023563385,0.008551862090826035
1698072007528173800,0.919173828125,-0.1310267299413681,-0.23502348363399506,-0.043981000781059265
1698072007537767400,0.928767333984375,-0.15546062588691711,-0.30221667885780334,-0.09773556143045425
1698072007547360300,0.9383603515625,-0.15912571549415588,-0.4121691882610321,-0.15149012207984924
1698072007556952300,0.947952392578125,-0.15057384967803955,-0.47325390577316284,-0.1832541823387146
1698072007566545200,0.957545166015625,-0.12736165523529053,-0.40850409865379333,-0.1820324808359146
1698072007576138800,0.967138671875,-0.09681928902864456,-0.2301367074251175,-0.15393351018428802
1698072007585731600,0.976731689453125,-0.07116370648145676,-0.07375980913639069,-0.12583453953266144
1698072007595323600,0.98632373046875,-0.06016845628619194,-0.028557108715176582,-0.1185043677687645
1698072007604916500,0.99591650390625,-0.07482878863811493,-0.06887302547693253,-0.13560809195041656
1698072007614510000,1.005510009765625,-0.10781454294919968,-0.16172181069850922,-0.17348061501979828
1698072007624103200,1.015103271484375,-0.13469181954860687,-0.2692309319972992,-0.21868331730365753
1698072007633695000,1.024695068359375,-0.14813046157360077,-0.33886751532554626,-0.25289076566696167
1698072007643288000,1.0342880859375,-0.15057384967803955,-0.3755183517932892,-0.2638860046863556
1698072007652881400,1.04388134765625,-0.15057384967803955,-0.3962871730327606,-0.2516690790653229
1698072007662474500,1.053474609375,-0.15423893928527832,-0.39384377002716064,-0.21990501880645752
1698072007672066300,1.06306640625,-0.16156910359859467,-0.3730749487876892,-0.17836740612983704
1698072007681659400,1.072659423828125,-0.16767756640911102,-0.3474193811416626,-0.14660334587097168
1698072007691253000,1.0822529296875,-0.1701209545135498,-0.32665055990219116,-0.13805148005485535
1698072007700845800,1.091845703125,-0.16645587980747223,-0.30099499225616455,-0.16004198789596558
1698072007710438000,1.10143798828125,-0.15546062588691711,-0.25945737957954407,-0.20768806338310242
1698072007720030700,1.11103076171875,-0.1298050433397293,-0.20814619958400726,-0.2736595869064331
1698072007729624300,1.120624267578125,-0.09804098308086395,-0.18126893043518066,-0.34818294644355774
1698072007739217200,1.130217041015625,-0.07482878863811493,-0.19348587095737457,-0.41293275356292725
1698072007748809200,1.139809326171875,-0.07727217674255371,-0.22036315500736237,-0.45447036623954773
1698072007758402000,1.149402099609375,-0.10781454294919968,-0.2533488869667053,-0.4727957844734192
1698072007767995600,1.15899560546875,-0.16401249170303345,-0.296108216047287,-0.4727957844734192
1698072007777588500,1.16858837890625,-0.2360924631357193,-0.32542887330055237,-0.4556920528411865
1698072007787180500,1.1781806640625,-0.3155026137828827,-0.30343836545944214,-0.42392799258232117
1698072007796773400,1.1877734375,-0.3924693763256073,-0.22647161781787872,-0.38849884271621704
1698072007806367000,1.197366943359375,-0.45477578043937683,-0.12018419802188873,-0.3542914092540741
1698072007815959800,1.206959716796875,-0.4987567961215973,-0.009009997360408306,-0.32130566239356995
1698072007825552000,1.2165517578125,-0.5268557667732239,0.10094250738620758,-0.28098973631858826
1698072007835144700,1.226144775390625,-0.5439594984054565,0.2047865390777588,-0.22723518311977386
1698072007844738300,1.23573828125,-0.5610632300376892,0.28786176443099976,-0.15515519678592682
1698072007854331100,1.2453310546875,-0.5781669020652771,0.3379512429237366,-0.06719319522380829
1698072007863923200,1.254923095703125,-0.591605544090271,0.3465031087398529,0.03542914241552353
1698072007873516000,1.26451611328125,-0.6038225293159485,0.31596073508262634,0.14049486815929413
1698072007883109600,1.274109619140625,-0.6062659025192261,0.2536543309688568,0.22967857122421265
1698072007892702500,1.283702392578125,-0.5891621708869934,0.1644706279039383,0.2907632887363434
1698072007902294500,1.29329443359375,-0.5525113344192505,0.06673506647348404,0.31886225938796997
1698072007911887400,1.302887451171875,-0.49264830350875854,-0.02367033064365387,0.31886225938796997
1698072007921481000,1.31248095703125,-0.41079479455947876,-0.09086353331804276,0.3017585575580597
1698072007931073800,1.32207373046875,-0.31916770339012146,-0.12995775043964386,0.28221142292022705
1698072007940665900,1.331665771484375,-0.22509720921516418,-0.1495048701763153,0.28098973631858826
1698072007950258700,1.3412587890625,-0.13713520765304565,-0.16660858690738678,0.30664533376693726
1698072007959852500,1.3508525390625,-0.0662769302725792,-0.2020377367734909,0.3530697226524353
1698072007969445000,1.360445068359375,-0.02473931387066841,-0.2777827978134155,0.4056025743484497
1698072007979037200,1.370037109375,-0.01252236869186163,-0.38162681460380554,0.4434750974178314
1698072007988630000,1.379630126953125,-0.03451287001371384,-0.47081053256988525,0.4556920528411865
1698072007998224000,1.389223876953125,-0.08460234850645065,-0.5282301902770996,0.4324798583984375
1698072008007816400,1.39881640625,-0.144465371966362,-0.5306735634803772,0.37506023049354553
1698072008017408500,1.408408447265625,-0.19088977575302124,-0.4634803533554077,0.2870981991291046
1698072008027001600,1.418001708984375,-0.2104368805885315,-0.296108216047287,0.17714570462703705
1698072008036595200,1.42759521484375,-0.18966807425022125,-0.005344913341104984,0.07452336698770523
1698072008046187800,1.437187744140625,-0.1175880953669548,0.3599417507648468,0.007330167107284069
1698072008055780000,1.446780029296875,-0.017409147694706917,0.6910209655761719,-0.03420744836330414
1698072008065373000,1.456373046875,0.05100574716925621,0.8779402375221252,-0.06719319522380829
1698072008074966500,1.465966552734375,0.059557609260082245,0.8425110578536987,-0.09040539711713791
1698072008084559400,1.475559326171875,0.018019994720816612,0.617719292640686,-0.10750912129878998
1698072008094151400,1.4851513671875,-0.07482878863811493,0.2658712565898895,-0.15393351018428802
1698072008103744300,1.494744140625,-0.19088977575302124,-0.12995775043964386,-0.25289076566696167
1698072008113337900,1.504337890625,-0.2910687327384949,-0.4524851143360138,-0.3958290219306946
1698072008122930700,1.5139306640625,-0.3374931216239929,-0.6041279435157776,-0.5534276366233826
1698072008132522800,1.523522705078125,-0.3130592107772827,-0.5662553906440735,-0.6963658928871155
1698072008142115600,1.533115478515625,-0.22754059731960297,-0.37796175479888916,-0.8014315962791443
1698072008151709200,1.542709228515625,-0.10903623700141907,-0.11774080991744995,-0.8478559851646423
1698072008161302000,1.552302001953125,0.010689826682209969,0.1253764033317566,-0.8197570443153381
1698072008170894000,1.56189404296875,0.10598199814558029,0.2951919436454773,-0.7220214605331421
1698072008180487000,1.57148681640625,0.1707318127155304,0.35138988494873047,-0.5790832042694092
1698072008190080500,1.58108056640625,0.20738264918327332,0.2939702570438385,-0.4214846193790436
1698072008199673300,1.59067333984375,0.21349111199378967,0.1498102843761444,-0.28098973631858826
1698072008209265400,1.600265380859375,0.18661384284496307,-0.052990999072790146,-0.17592400312423706
1698072008218858200,1.609858154296875,0.1328592747449875,-0.2777827978134155,-0.11483928561210632
1698072008228451800,1.619451904296875,0.0778830274939537,-0.4903576374053955,-0.10750912129878998
1698072008238044700,1.629044677734375,0.040010496973991394,-0.6407787799835205,-0.14171656966209412
1698072008247636700,1.63863671875,0.01435491070151329,-0.6896465420722961,-0.19302773475646973
1698072008257229600,1.6482294921875,0.013133215717971325,-0.6114581227302551,-0.23945212364196777
1698072008266823200,1.6578232421875,0.041232191026210785,-0.4158342778682709,-0.2638860046863556
1698072008276416000,1.667416015625,0.0925433561205864,-0.14095300436019897,-0.2602209448814392
1698072008286008000,1.677008056640625,0.16095824539661407,0.1632489264011383,-0.23334364593029022
1698072008295601000,1.686600830078125,0.2244863659143448,0.41980478167533875,-0.19058434665203094
1698072008305194500,1.696194580078125,0.2757975459098816,0.566408097743988,-0.129499614238739
1698072008314787300,1.705787353515625,0.3161134421825409,0.5932853817939758,-0.04886778071522713
1698072008324379400,1.71537939453125,0.34909921884536743,0.51998370885849,0.05131116881966591
1698072008333972200,1.72497216796875,0.3637595474720001,0.36727190017700195,0.1563768982887268
1698072008343565800,1.73456591796875,0.36131614446640015,0.1644706279039383,0.2602209448814392
1698072008353158700,1.74415869140625,0.351542592048645,-0.028557108715176582,0.34940463304519653
1698072008362750700,1.753750732421875,0.3393256664276123,-0.164165198802948,0.4178195297718048
1698072008372343600,1.763343505859375,0.31855684518814087,-0.21303297579288483,0.4556920528411865
1698072008381937200,1.772937255859375,0.2904578745365143,-0.16783028841018677,0.4569137394428253
1698072008391530000,1.782530029296875,0.2623589038848877,-0.04077405482530594,0.42637139558792114
1698072008401122000,1.7921220703125,0.24403348565101624,0.10949437320232391,0.3787252902984619
1698072008410715000,1.80171484375,0.23914669454097748,0.21944688260555267,0.33596599102020264
1698072008420308500,1.81130859375,0.25747212767601013,0.2536543309688568,0.3127537965774536
1698072008429901300,1.8209013671875,0.2916795611381531,0.2011214643716812,0.3261924386024475
1698072008439493400,1.830493408203125,0.3246653079986572,0.08383878320455551,0.37506023049354553
1698072008449086200,1.840086181640625,0.3271087110042572,-0.050547610968351364,0.4471401870250702
1698072008458679800,1.8496796875,0.2916795611381531,-0.17882554233074188,0.5277720093727112
1698072008468272600,1.859272705078125,0.2208212912082672,-0.28999972343444824,0.605960488319397
1698072008477864700,1.86886474609375,0.12797249853610992,-0.37796175479888916,0.6670452356338501
1698072008487457500,1.87845751953125,0.024128466844558716,-0.43538138270378113,0.7012526392936707
1698072008497051100,1.888051025390625,-0.07482878863811493,-0.45737189054489136,0.7012526392936707
1698072008506644000,1.89764404296875,-0.16645587980747223,-0.4805840849876404,0.6597150564193726
1698072008516236000,1.907236083984375,-0.23975755274295807,-0.5147915482521057,0.5839699506759644
1698072008525828900,1.916828857421875,-0.27885177731513977,-0.5086830258369446,0.4874561131000519
1698072008535422500,1.92642236328125,-0.28129515051841736,-0.402395635843277,0.38605546951293945
1698072008545015600,1.936015625,-0.26907822489738464,-0.2032594233751297,0.2761029601097107
1698072008554607400,1.945607421875,-0.25686126947402954,0.0032069480512291193,0.1429382562637329
1698072008564200200,1.9552001953125,-0.251974493265152,0.1253764033317566,-0.010995250195264816
1698072008573794000,1.9647939453125,-0.24342262744903564,0.1119377613067627,-0.18691925704479218
1698072008583386600,1.97438671875,-0.21776704490184784,-0.04688252881169319,-0.37261682748794556
1698072008592978700,1.983978759765625,-0.16034740209579468,-0.3339807391166687,-0.5558710098266602
1698072008602571500,1.993571533203125,-0.07482878863811493,-0.7091936469078064,-0.7256865501403809
1698072008612165000,2.0031650390625,0.022906772792339325,-1.0598199367523193,-0.8600729703903198
1698072008621758200,2.01275830078125,0.11209046840667725,-1.276059865951538,-0.9407047629356384
1698072008631350000,2.02235009765625,0.18905723094940186,-1.3579134941101074,-0.962695300579071
1698072008640943000,2.031943115234375,0.26602399349212646,-1.3139324188232422,-0.9199360013008118
1698072008650536700,2.04153662109375,0.33199548721313477,-1.1270132064819336,-0.813648521900177
1698072008660129300,2.05112939453125,0.3649812340736389,-0.8044858574867249,-0.6474980711936951
1698072008669721300,2.060721435546875,0.35765108466148376,-0.40361732244491577,-0.44103172421455383
1698072008679314200,2.070314208984375,0.30878329277038574,-0.03588727489113808,-0.21990501880645752
1698072008688908000,2.079907958984375,0.24281178414821625,0.1889045089483261,-0.01710372418165207
1698072008698500600,2.08950048828125,0.18539214134216309,0.24754585325717926,0.1441599577665329
1698072008708092700,2.0990927734375,0.1438545286655426,0.1913478970527649,0.25533416867256165
1698072008717685800,2.108685791015625,0.10964708030223846,0.06551336497068405,0.3139754831790924
1698072008727279400,2.118279296875,0.08643488585948944,-0.111632339656353,0.32008397579193115
1698072008736872000,2.127871826171875,0.0791047215461731,-0.30343836545944214,0.27854636311531067
1698072008746464000,2.137464111328125,0.07421794533729553,-0.45737189054489136,0.20280128717422485
1698072008756056800,2.147056884765625,0.058335911482572556,-0.5306735634803772,0.10628741979598999
1698072008765650700,2.156650634765625,0.015576604753732681,-0.5086830258369446,0.0012216945178806782
1698072008775243300,2.1662431640625,-0.05650337040424347,-0.39506545662879944,-0.11606097966432571
1698072008784835300,2.17583544921875,-0.145687073469162,-0.21791976690292358,-0.23823043704032898
1698072008794428400,2.185428466796875,-0.23853585124015808,-0.004123218823224306,-0.3408527672290802
1698072008804022000,2.19502197265625,-0.324054479598999,0.21211670339107513,-0.4080459773540497
1698072008813614800,2.20461474609375,-0.3936910629272461,0.3880407214164734,-0.4337015450000763
1698072008823206700,2.21420654296875,-0.4474456310272217,0.48455458879470825,-0.42514967918395996
1698072008832799500,2.223799560546875,-0.4828747510910034,0.5102101564407349,-0.38605546951293945
1698072008842393300,2.233393310546875,-0.5012001991271973,0.4808894991874695,-0.32374903559684753
1698072008851986000,2.24298583984375,-0.4999784827232361,0.41980478167533875,-0.24556060135364532
1698072008861578000,2.252577880859375,-0.4853181540966034,0.3452814221382141,-0.16248537600040436
1698072008871171000,2.262171142578125,-0.45477578043937683,0.29030516743659973,-0.08307522535324097
1698072008880764700,2.2717646484375,-0.41323816776275635,0.27564483880996704,-0.012216945178806782
1698072008890357500,2.281357421875,-0.3668137788772583,0.29885703325271606,0.04153761267662048
1698072008899949300,2.29094921875,-0.3155026137828827,0.3306210935115814,0.08185353130102158
1698072008909542100,2.300542236328125,-0.2654131352901459,0.35505497455596924,0.10995250940322876
1698072008919136000,2.310135986328125,-0.2214321345090866,0.36605021357536316,0.13316470384597778
1698072008928728600,2.319728515625,-0.18111620843410492,0.3367295563220978,0.15026842057704926
1698072008938320600,2.329320556640625,-0.14202198386192322,0.23532891273498535,0.16859383881092072
1698072008947913700,2.338913818359375,-0.11025793105363846,0.056961506605148315,0.1966928243637085
1698072008957507300,2.34850732421875,-0.09804098308086395,-0.15439164638519287,0.23334364593029022
1698072008967100000,2.358099853515625,-0.10659284889698029,-0.3352024257183075,0.26632940769195557
1698072008976692000,2.36769189453125,-0.12491826713085175,-0.4268295168876648,0.2870981991291046
1698072008986284800,2.377284912109375,-0.144465371966362,-0.39506545662879944,0.2748812735080719
1698072008995878700,2.386878662109375,-0.16401249170303345,-0.23746687173843384,0.21379654109477997
1698072009005471200,2.39647119140625,-0.18600298464298248,0.0594048947095871,0.10873081535100937
1698072009015063300,2.406063232421875,-0.18600298464298248,0.48455458879470825,-0.014660334214568138
1698072009024656400,2.415656494140625,-0.12613995373249054,0.9316948056221008,-0.13316470384597778
1698072009034250000,2.42525,-0.00519220158457756,1.2713258266448975,-0.23945212364196777
1698072009043842600,2.434842529296875,0.1438545286655426,1.4154858589172363,-0.3274141252040863
1698072009053434600,2.4444345703125,0.29290124773979187,1.3140851259231567,-0.3823903799057007
1698072009063027500,2.45402734375,0.4309527277946472,0.9952229261398315,-0.4080459773540497
1698072009072621000,2.46362109375,0.5482354164123535,0.5297572612762451,-0.42637139558792114
1698072009082214100,2.473214111328125,0.6337540149688721,0.02886253222823143,-0.4679090082645416
1698072009091806000,2.482805908203125,0.6777350306510925,-0.37918344140052795,-0.546097457408905
1698072009101398800,2.492398681640625,0.6911736726760864,-0.5992411375045776,-0.6560499668121338
1698072009110992600,2.50199267578125,0.6826218366622925,-0.6200099587440491,-0.7794411182403564
1698072009120585200,2.511585205078125,0.6679614782333374,-0.4695888161659241,-0.8820634484291077
1698072009130177300,2.52117724609375,0.6594096422195435,-0.21058958768844604,-0.9382613897323608
1698072009139770000,2.53077001953125,0.661853015422821,0.08261708915233612,-0.9333745837211609
1698072009149363700,2.54036376953125,0.6789567470550537,0.32573428750038147,-0.8661814332008362
1698072009158956500,2.54995654296875,0.6923953890800476,0.45889899134635925,-0.7501204609870911
1698072009168548600,2.559548583984375,0.6765133142471313,0.465007483959198,-0.6071822047233582
1698072009178141400,2.569141357421875,0.6252021789550781,0.39048412442207336,-0.474017471075058
1698072009187735000,2.578735107421875,0.5396835803985596,0.2707580327987671,-0.37506023049354553
1698072009197328000,2.588327880859375,0.42850935459136963,0.11926792562007904,-0.3274141252040863
1698072009206920000,2.597919921875,0.31122666597366333,-0.04077405482530594,-0.3286358118057251
1698072009216512800,2.6075126953125,0.20127417147159576,-0.14706148207187653,-0.3640649616718292
1698072009226106400,2.6171064453125,0.12552911043167114,-0.14095300436019897,-0.4056025743484497
1698072009235699200,2.62669921875,0.09376505762338638,-0.010231691412627697,-0.43858832120895386
1698072009245291300,2.636291259765625,0.08643488585948944,0.22433365881443024,-0.45324867963790894
1698072009254884000,2.645884033203125,0.09376505762338638,0.5224271416664124,-0.4446968138217926
1698072009264477700,2.655477783203125,0.09620844572782516,0.835180938243866,-0.41293275356292725
1698072009274070500,2.665070556640625,0.10231691598892212,1.1088404655456543,-0.36039987206459045
1698072009283662600,2.67466259765625,0.12552911043167114,1.2823210954666138,-0.2895416021347046
1698072009293255400,2.68425537109375,0.16584503650665283,1.3226370811462402,-0.20280128717422485
1698072009302849000,2.69384912109375,0.21959958970546722,1.2420052289962769,-0.10262233763933182
1698072009312441900,2.70344189453125,0.2782409191131592,1.0795198678970337,0.012216945178806782
1698072009322034000,2.713033935546875,0.33199548721313477,0.8730534315109253,0.13316470384597778
1698072009331626800,2.722626708984375,0.377198189496994,0.6580352187156677,0.2626643180847168
1698072009341220400,2.732220458984375,0.41507071256637573,0.4662291705608368,0.3946073353290558
1698072009350813200,2.741813232421875,0.4431696832180023,0.30374380946159363,0.5204418897628784
1698072009360405200,2.7514052734375,0.457830011844635,0.17302247881889343,0.6389462351799011
1698072009369998000,2.760998046875,0.4553866386413574,0.06184828653931618,0.735460102558136
1698072009379591700,2.770591796875,0.42850935459136963,-0.06154286116361618,0.8050966858863831
1698072009389184500,2.7801845703125,0.3820849657058716,-0.1910424828529358,0.8551861643791199
1698072009398776600,2.789776611328125,0.31000497937202454,-0.293664813041687,0.888171911239624
1698072009408369400,2.799369384765625,0.20616094768047333,-0.37796175479888916,0.8893936276435852
1698072009417963000,2.808962890625,0.07299624383449554,-0.45981526374816895,0.8380824327468872
1698072009427555800,2.818555908203125,-0.08215895295143127,-0.5135698318481445,0.7342383861541748
1698072009437148000,2.82814794921875,-0.2373141646385193,-0.48424917459487915,0.5974085927009583
1698072009446740700,2.83774072265625,-0.3802524209022522,-0.3633013963699341,0.4605788290500641
1698072009456334300,2.847334228515625,-0.5097520351409912,-0.18126893043518066,0.34696123003959656
1698072009465927200,2.85692724609375,-0.6331431865692139,-0.0004581354442052543,0.25655585527420044
1698072009475519200,2.866519287109375,-0.7394306063652039,0.12171131372451782,0.1710372269153595
1698072009485112000,2.876112060546875,-0.8212841153144836,0.20600824058055878,0.07330167293548584
1698072009494705700,2.88570556640625,-0.8628217577934265,0.2964136302471161,-0.0390942245721817
1698072009504298500,2.895298583984375,-0.8603783845901489,0.37948885560035706,-0.17225892841815948
1698072009513890600,2.904890625,-0.8347227573394775,0.41736137866973877,-0.3432961702346802
1698072009523483400,2.9144833984375,-0.7919634580612183,0.38071054220199585,-0.5534276366233826
1698072009533077000,2.924076904296875,-0.72599196434021,0.22189027070999146,-0.8197570443153381
1698072009542669800,2.933669921875,-0.634364902973175,-0.0713164210319519,-1.1410627365112305
1698072009552262000,2.943261962890625,-0.5170822143554688,-0.4366030693054199,-1.494132399559021
1698072009561854700,2.952854736328125,-0.3826957941055298,-0.739736020565033,-1.8351378440856934
1698072009571448300,2.9624482421875,-0.23853585124015808,-0.9144383668899536,-2.1197926998138428
1698072009581041200,2.972041259765625,-0.08582404255867004,-0.9706363081932068,-2.305490255355835
1698072009590633200,2.98163330078125,0.08154810965061188,-0.91566002368927,-2.358023166656494
1698072009600226000,2.99122607421875,0.2599155008792877,-0.7336275577545166,-2.2554008960723877
1698072009609819600,3.000819580078125,0.41507071256637573,-0.4610369801521301,-2.007396697998047
1698072009619412500,3.01041259765625,0.517693042755127,-0.17882554233074188,-1.659213900566101
1698072009629004300,3.02000439453125,0.5519005060195923,0.0459662564098835,-1.2534586191177368
1698072009638597400,3.029597412109375,0.5274665951728821,0.14736689627170563,-0.8356390595436096
1698072009648191000,3.03919091796875,0.47615543007850647,0.06795676052570343,-0.4300364851951599
1698072009657783600,3.048783447265625,0.4419479966163635,-0.12262758612632751,-0.05375456064939499
1698072009667375600,3.058375732421875,0.4456130862236023,-0.2716743052005768,0.2870981991291046
1698072009676968700,3.06796875,0.4590517282485962,-0.32909396290779114,0.5717530250549316
1698072009686562300,3.077562255859375,0.4480564594268799,-0.33764582872390747,0.7782194018363953
1698072009696155000,3.08715478515625,0.39796698093414307,-0.3229855000972748,0.8979454636573792
1698072009705747000,3.096746826171875,0.3173351585865021,-0.3071034550666809,0.9345963001251221
1698072009715340000,3.106340087890625,0.21226942539215088,-0.2985515892505646,0.8955020904541016
1698072009724933600,3.11593359375,0.0791047215461731,-0.2948864996433258,0.7977665066719055
1698072009734526200,3.125526123046875,-0.07238540053367615,-0.2851129472255707,0.6719319820404053
1698072009744118300,3.1351181640625,-0.2226538211107254,-0.2435753494501114,0.5522059202194214
1698072009753711000,3.144711181640625,-0.37047886848449707,-0.164165198802948,0.46302223205566406
1698072009763304700,3.1543046875,-0.5109737515449524,-0.10308047384023666,0.4068242609500885
1698072009772897500,3.1638974609375,-0.6331431865692139,-0.08108997344970703,0.38849884271621704
1698072009782489600,3.173489501953125,-0.7345438003540039,-0.08108997344970703,0.40071579813957214
1698072009792082400,3.18308251953125,-0.8102889060974121,-0.08231166750192642,0.43614494800567627
1698072009801676000,3.192676025390625,-0.8493831157684326,-0.08353336155414581,0.48012593388557434
1698072009811268900,3.202268798828125,-0.8567132949829102,-0.07375980913639069,0.5289937257766724
1698072009820861000,3.21186083984375,-0.8420529365539551,-0.0456608310341835,0.5851916670799255
1698072009830453800,3.221453857421875,-0.818840742111206,-0.0004581354442052543,0.6487197875976562
1698072009840047400,3.23104736328125,-0.7907418012619019,0.055739812552928925,0.7146912813186646
1698072009849640200,3.24064013671875,-0.7675296068191528,0.10338589549064636,0.7684458494186401
1698072009859232300,3.250232177734375,-0.7504258751869202,0.12904147803783417,0.8038749694824219
1698072009868825000,3.2598251953125,-0.7369872331619263,0.1510319858789444,0.8209787011146545
1698072009878418700,3.269418701171875,-0.7284353375434875,0.16080553829669952,0.8209787011146545
1698072009888011500,3.279011474609375,-0.7272136807441711,0.12781979143619537,0.8112051486968994
1698072009897603600,3.288603515625,-0.7308787703514099,0.04718795046210289,0.7916580438613892
1698072009907196400,3.298196533203125,-0.7430956959724426,-0.08842013776302338,0.7598940134048462
1698072009916790000,3.3077900390625,-0.7565343379974365,-0.30343836545944214,0.7098045349121094
1698072009926382800,3.3173828125,-0.7553126215934753,-0.5430431962013245,0.6511631608009338
1698072009935975000,3.326974853515625,-0.7113316059112549,-0.6786513328552246,0.5900784730911255
1698072009945567700,3.336567626953125,-0.6221479177474976,-0.656660795211792,0.5021164417266846
1698072009955161300,3.346161376953125,-0.50853031873703,-0.4928010404109955,0.3530697226524353
1698072009964754200,3.355754150390625,-0.37414395809173584,-0.20692451298236847,0.12583453953266144
1698072009974346200,3.36534619140625,-0.2079934924840927,0.18157434463500977,-0.15271180868148804
1698072009983939000,3.37493896484375,-0.010078979656100273,0.5957288146018982,-0.45080527663230896
1698072009993532700,3.38453271484375,0.20249587297439575,0.9378032684326172,-0.7379034757614136
1698072010003125500,3.39412548828125,0.43950459361076355,1.1699252128601074,-0.962695300579071
1698072010012717300,3.40371728515625,0.6887302994728088,1.19191575050354,-1.1117420196533203
1698072010022310400,3.413310302734375,0.8854231238365173,0.9121476411819458,-1.2143644094467163
1698072010031904000,3.422904052734375,0.9880454540252686,0.39292749762535095,-1.2864443063735962
1698072010041496600,3.43249658203125,1.0222529172897339,-0.18737739324569702,-1.2998830080032349
1698072010051088600,3.442088623046875,1.0332481861114502,-0.6529957056045532,-1.2412415742874146
1698072010060681500,3.451681396484375,1.0405782461166382,-0.9083298444747925,-1.1129636764526367
1698072010070275000,3.461275146484375,1.0393565893173218,-0.8765658140182495,-0.9321529269218445
1698072010079868200,3.4708681640625,1.0283613204956055,-0.5491516590118408,-0.7110261917114258
1698072010089460000,3.4804599609375,1.0014840364456177,-0.04077405482530594,-0.4569137394428253
1698072010099052800,3.490052734375,0.9465078115463257,0.45645561814308167,-0.19058434665203094
1698072010108646400,3.499646484375,0.8805363178253174,0.7728744745254517,0.05497625470161438
1698072010118239200,3.5092392578125,0.8255600929260254,0.8742751479148865,0.2761029601097107
1698072010127831300,3.518831298828125,0.7913526296615601,0.8021951913833618,0.47890424728393555
1698072010137424100,3.528424072265625,0.7644753456115723,0.6360446810722351,0.6621584296226501
1698072010147017700,3.538017822265625,0.7351546883583069,0.4527905285358429,0.8038749694824219
1698072010156610600,3.547610595703125,0.6887302994728088,0.252432644367218,0.8845068216323853
1698072010166202600,3.55720263671875,0.5848862528800964,-0.010231691412627697,0.8991671800613403
1698072010175795500,3.56679541015625,0.41018393635749817,-0.31199023127555847,0.8686248064041138
1698072010185389000,3.57638916015625,0.19272230565547943,-0.6077930331230164,0.818535327911377
1698072010194982000,3.58598193359375,-0.046729814261198044,-0.9071081876754761,0.7366818189620972
1698072010204574000,3.595573974609375,-0.27029991149902344,-1.1856545209884644,0.6181774139404297
1698072010214166800,3.605166748046875,-0.45477578043937683,-1.4373235702514648,0.4727957844734192
1698072010223760400,3.614760498046875,-0.49142661690711975,-1.568044900894165,0.32130566239356995
1698072010233353200,3.624353271484375,-0.33627140522003174,-1.4263283014297485,0.17225892841815948
1698072010242945300,3.6339453125,-0.04428642615675926,-1.096470832824707,0.0012216945178806782
1698072010252538000,3.6435380859375,0.29290124773979187,-0.7067502737045288,-0.20157960057258606
1698072010262131700,3.653131591796875,0.5812211632728577,-0.2985515892505646,-0.38483378291130066
1698072010271724500,3.662724609375,0.8145648241043091,0.0594048947095871,-0.497229665517807
1698072010281316400,3.67231640625,0.925739049911499,0.4112529158592224,-0.5717530250549316
1698072010290909400,3.681909423828125,0.9452861547470093,0.7337802648544312,-0.5937435626983643
1698072010300503000,3.6915029296875,0.9452861547470093,1.0355387926101685,-0.5448757410049438
1698072010310096000,3.701095947265625,0.9098569750785828,1.381278395652771,-0.4727957844734192
1698072010319687700,3.710687744140625,0.8084563612937927,1.5669759511947632,-0.3897205591201782
1698072010329280800,3.72028076171875,0.6215370893478394,1.4753488302230835,-0.2870981991291046
1698072010338874400,3.729874267578125,0.34665581583976746,1.185807228088379,-0.16615045070648193
1698072010348467000,3.739467041015625,0.059557609260082245,0.8021951913833618,-0.008551862090826035
1698072010358059000,3.74905908203125,-0.1823379099369049,0.4503471553325653,0.15515519678592682
1698072010367651800,3.75865185546875,-0.3387148082256317,0.1766875684261322,0.23823043704032898
1698072010377245400,3.768245361328125,-0.38513919711112976,0.07650861889123917,0.1844758689403534
1698072010386838300,3.77783837890625,-0.3423798978328705,0.1779092699289322,0.042759306728839874
1698072010396430300,3.787430419921875,-0.25686126947402954,0.4124746024608612,-0.14904673397541046
1698072010406023200,3.797023193359375,-0.1579040139913559,0.6238277554512024,-0.3970507085323334
1698072010415616800,3.80661669921875,-0.06749862432479858,0.7435538172721863,-0.6878139972686768
1698072010425209600,3.816209716796875,-0.006413896102458239,0.8437327742576599,-0.9101623892784119
1698072010434801700,3.8258017578125,-0.05405998229980469,0.9158127307891846,-0.8820634484291077
1698072010444394500,3.83539453125,-0.15057384967803955,0.7569924592971802,-0.7171346545219421
1698072010453988000,3.844988037109375,-0.16279079020023346,0.4662291705608368,-0.4324798583984375
1698072010463581000,3.854580810546875,-0.15179555118083954,0.17302247881889343,-0.046424392610788345
1698072010473173000,3.864173095703125,-0.11147962510585785,-0.07009471952915192,0.37261682748794556
1698072010482765800,3.873765869140625,0.03145863488316536,-0.15683503448963165,0.7769976854324341
1698072010492359400,3.883359375,0.31855684518814087,-0.05787777900695801,0.9443698525428772
1698072010501952300,3.8929521484375,0.540905237197876,-0.037108972668647766,0.8344173431396484
1698072010511544000,3.9025439453125,0.6948387622833252,-0.0029015245381742716,0.5522059202194214
1698072010521137200,3.91213720703125,0.8145648241043091,0.1241547018289566,0.14171656966209412
1698072010530730800,3.921730712890625,0.9098569750785828,0.2304421216249466,-0.2907632887363434
1698072010540323600,3.931323486328125,0.9501729011535645,0.3245126008987427,-0.6890357136726379
1698072010549915400,3.940915283203125,0.929404079914093,0.3965925872325897,-0.9907942414283752
1698072010559508500,3.950508544921875,0.8548807501792908,0.488219678401947,-1.1642749309539795
1698072010569101800,3.960101806640625,0.744928240776062,0.6055023670196533,-1.2192511558532715
1698072010578694700,3.969694580078125,0.5885513424873352,0.7215633392333984,-1.1606098413467407
1698072010588286700,3.97928662109375,0.3918585181236267,0.7850914597511292,-0.9920159578323364
1698072010597879600,3.988879638671875,0.17928366363048553,0.7411104440689087,-0.7550072073936462
1698072010607473200,3.99847314453125,0.01435491070151329,0.5871769189834595,-0.4715740978717804
1698072010617066000,4.00806591796875,-0.1053711548447609,0.4112529158592224,-0.1844758689403534
1698072010626658000,4.017657958984375,-0.24708771705627441,0.22433365881443024,0.0647498071193695
1698072010636251000,4.0272509765625,-0.3924693763256073,-0.0016798300202935934,0.2516690790653229
1698072010645844500,4.036844482421875,-0.5146388411521912,-0.25945737957954407,0.365286648273468
1698072010655437300,4.046437255859375,-0.5989357233047485,-0.5160132050514221,0.3946073353290558
1698072010665029400,4.056029296875,-0.6331431865692139,-0.7238540053367615,0.36284327507019043
1698072010674622200,4.065622314453125,-0.6245913505554199,-0.8472451567649841,0.3054236173629761
1698072010684215800,4.0752158203125,-0.6087092757225037,-0.8912261724472046,0.24556060135364532
1698072010693808600,4.08480859375,-0.6319214701652527,-0.9132166504859924,0.19913621246814728
1698072010703400700,4.094400634765625,-0.72599196434021,-0.9535325765609741,0.17225892841815948
1698072010712993500,4.10399365234375,-0.8616000413894653,-1.032942771911621,0.1429382562637329
1698072010722587100,4.113587158203125,-0.9947647452354431,-1.1392301321029663,0.09773556143045425
1698072010732180000,4.123179931640625,-1.109604001045227,-1.254069447517395,0.0525328628718853
1698072010741771800,4.132771728515625,-1.206117868423462,-1.349361538887024,0.03665083646774292
1698072010751364900,4.14236474609375,-1.2818629741668701,-1.3908991813659668,0.05131116881966591
1698072010760958500,4.15195849609375,-1.336839199066162,-1.3676869869232178,0.08429691940546036
1698072010770551000,4.161551025390625,-1.3600513935089111,-1.277281641960144,0.13560809195041656
1698072010780143000,4.17114306640625,-1.3331741094589233,-1.1245697736740112,0.2223484069108963
1698072010789736000,4.18073583984375,-1.2635375261306763,-0.9352071285247803,0.342074453830719
1698072010799329500,4.19032958984375,-1.1816840171813965,-0.7104153633117676,0.4679090082645416
1698072010808922400,4.19992236328125,-1.1157125234603882,-0.48424917459487915,0.5583143830299377
1698072010818514400,4.209514404296875,-1.077839970588684,-0.2814478874206543,0.5888567566871643
1698072010828107300,4.219107177734375,-1.0570712089538574,-0.07009471952915192,0.5619794726371765
1698072010837700900,4.228700927734375,-1.0033166408538818,0.09605573117733002,0.5057815313339233
1698072010847293700,4.238293701171875,-0.9385668039321899,0.20600824058055878,0.4715740978717804
1698072010856885800,4.2478857421875,-0.823727548122406,0.32573428750038147,0.4862344264984131
1698072010866478600,4.257478515625,-0.6649072170257568,0.45645561814308167,0.47890424728393555
1698072010876072200,4.267072265625,-0.5183038711547852,0.488219678401947,0.3970507085323334
1698072010885665000,4.2766650390625,-0.3387148082256317,0.23166382312774658,0.1966928243637085
1698072010895257000,4.286257080078125,-0.11392301321029663,-0.2582356929779053,-0.11483928561210632
1698072010904850000,4.295849853515625,0.06200099736452103,-0.6578825116157532,-0.4349232614040375
1698072010914443500,4.305443603515625,0.17439688742160797,-0.754396378993988,-0.6817055344581604
1698072010924036000,4.3150361328125,0.31000497937202454,-0.6297835111618042,-0.8600729703903198
1698072010933628200,4.324628173828125,0.509141206741333,-0.42194274067878723,-1.007897973060608
1698072010943221000,4.334220947265625,0.7009472250938416,-0.09330692142248154,-1.1264023780822754
1698072010952814600,4.343814697265625,0.8341119289398193,0.40636613965034485,-1.2094775438308716
1698072010962407400,4.353407470703125,0.925739049911499,0.7484406232833862,-1.2363548278808594
1698072010971999500,4.36299951171875,1.0014840364456177,1.004996418952942,-1.2363548278808594
1698072010981592300,4.37259228515625,1.091889500617981,1.042868971824646,-1.2192511558532715
1698072010991186000,4.38218603515625,1.138313889503479,0.7704311013221741,-1.1630531549453735
1698072011000778800,4.39177880859375,1.0540169477462769,0.27808821201324463,-1.0738694667816162
1698072011010370800,4.401370849609375,0.8707627654075623,-0.14461809396743774,-0.9321529269218445
1698072011019963600,4.410963623046875,0.6838434934616089,-0.3229855000972748,-0.730573296546936
1698072011029557200,4.42055712890625,0.5372401475906372,-0.32542887330055237,-0.4862344264984131
1698072011039150000,4.430150146484375,0.4321744441986084,-0.25212720036506653,-0.23212195932865143
1698072011048742100,4.4397421875,0.36253786087036133,-0.07375980913639069,0.012216945178806782
1698072011058335000,4.4493349609375,0.2904578745365143,0.17057909071445465,0.22723518311977386
1698072011067928600,4.458928466796875,0.19883078336715698,0.33917292952537537,0.40071579813957214
1698072011077521400,4.468521484375,0.08765657991170883,0.36360684037208557,0.5338805317878723
1698072011087113500,4.478113525390625,0.0009162708884105086,0.23410721123218536,0.6487197875976562
1698072011096706300,4.487706298828125,-0.07727217674255371,-0.018783552572131157,0.7476770281791687
1698072011106300000,4.4972998046875,-0.168899267911911,-0.3315373361110687,0.8112051486968994
1698072011115892500,4.506892578125,-0.25686126947402954,-0.6261184215545654,0.8405258059501648
1698072011125484500,4.516484619140625,-0.34848836064338684,-0.8069292306900024,0.8466343283653259
1698072011135077400,4.526077392578125,-0.4608842432498932,-0.8386932611465454,0.8283088803291321
1698072011144671000,4.5356708984375,-0.5818319916725159,-0.7336275577545166,0.7879929542541504
1698072011154263800,4.545263916015625,-0.6807892918586731,-0.4903576374053955,0.7403468489646912
1698072011163856000,4.55485595703125,-0.7308787703514099,-0.15316994488239288,0.6853706240653992
1698072011173448700,4.56444873046875,-0.7321004271507263,0.21089501678943634,0.624285876750946
1698072011183042300,4.574042236328125,-0.694227933883667,0.5322006940841675,0.5729747414588928
1698072011192635100,4.58363525390625,-0.6184828281402588,0.7655443549156189,0.5375455617904663
1698072011202227200,4.593227294921875,-0.5109737515449524,0.9060391783714294,0.5106683373451233
1698072011211820000,4.602820068359375,-0.3765873312950134,0.9659022092819214,0.5057815313339233
1698072011221413600,4.61241357421875,-0.24708771705627441,0.9756757616996765,0.5375455617904663
1698072011231006500,4.62200634765625,-0.11636640131473541,0.9756757616996765,0.5925218462944031
1698072011240598500,4.6315986328125,0.03023693896830082,0.9988879561424255,0.6536065936088562
1698072011250191400,4.64119140625,0.1963873952627182,1.145491361618042,0.7171346545219421
1698072011259785000,4.650784912109375,0.38575005531311035,1.3849434852600098,0.7721109390258789
1698072011269377500,4.66037744140625,0.5738909840583801,1.6683765649795532,0.7941014170646667
1698072011278969600,4.669969482421875,0.7351546883583069,1.9835737943649292,0.758672297000885
1698072011288562400,4.6795625,0.8585458397865295,2.2608983516693115,0.6633801460266113
1698072011298156000,4.689156005859375,0.9184088706970215,2.458812952041626,0.5363239049911499
1698072011307748900,4.698748779296875,0.8854231238365173,2.4221620559692383,0.45202696323394775
1698072011317341000,4.7083408203125,0.7559235095977783,2.014116048812866,0.45202696323394775
1698072011326933800,4.717933837890625,0.5751127004623413,1.3079767227172852,0.5399889945983887
1698072011336527400,4.72752734375,0.41384902596473694,0.5224271416664124,0.6927008032798767
1698072011346120200,4.7371201171875,0.27091076970100403,-0.18004722893238068,0.8600729703903198
1698072011355712300,4.746712158203125,0.1585148572921753,-0.7678350210189819,0.9895725846290588
1698072011365305000,4.75630517578125,0.11575555801391602,-1.199093222618103,1.0531007051467896
1698072011374898700,4.765898681640625,0.13530266284942627,-1.4238849878311157,1.0384403467178345
1698072011384491500,4.775491455078125,0.18783552944660187,-1.4922997951507568,0.948034942150116
1698072011394083600,4.78508349609375,0.24525517225265503,-1.4727526903152466,0.7855495810508728
1698072011403676400,4.794676513671875,0.2855710983276367,-1.3481398820877075,0.5754181146621704
1698072011413270000,4.80427001953125,0.29778802394866943,-1.1172395944595337,0.3310792148113251
1698072011422862600,4.813862548828125,0.2782409191131592,-0.7776085734367371,0.07085828483104706
1698072011432454700,4.82345458984375,0.24647687375545502,-0.4390464723110199,-0.1979145109653473
1698072011442047500,4.833047607421875,0.20493926107883453,-0.2435753494501114,-0.4874561131000519
1698072011451641000,4.84264111328125,0.1426328420639038,-0.2545706033706665,-0.790436327457428
1698072011461234000,4.85223388671875,0.06810946762561798,-0.4133908748626709,-1.0787562131881714
1698072011470826000,4.861825927734375,0.013133215717971325,-0.5870242118835449,-1.321873426437378
1698072011480418800,4.871418701171875,0.02901524491608143,-0.6835380792617798,-1.502684235572815
1698072011490012400,4.881012451171875,0.11575555801391602,-0.6395570635795593,-1.586981177330017
1698072011499605200,4.890605224609375,0.22815145552158356,-0.44515493512153625,-1.5478869676589966
1698072011509197300,4.900197265625,0.33321717381477356,-0.11529742181301117,-1.382958173751831
1698072011518789600,4.90978955078125,0.41384902596473694,0.27686652541160583,-1.1031901836395264
1698072011528383200,4.91938330078125,0.4700469672679901,0.6067240238189697,-0.7440119385719299
1698072011537976000,4.92897607421875,0.509141206741333,0.8021951913833618,-0.3567348122596741
1698072011547568000,4.938568115234375,0.5311316847801208,0.8461761474609375,0.013438640162348747
1698072011557161000,4.948160888671875,0.5506787896156311,0.7411104440689087,0.33230090141296387
1698072011566754600,4.957754638671875,0.5543438792228699,0.5163186192512512,0.5803049206733704
1698072011576347100,4.96734716796875,0.5299099683761597,0.21944688260555267,0.7623373866081238
1698072011585939200,4.976939208984375,0.46516019105911255,-0.08842013776302338,0.8906152844429016
1698072011595532000,4.986531982421875,0.37231141328811646,-0.3694098889827728,0.9749122262001038
1698072011605125600,4.996125732421875,0.2611372172832489,-0.5833591222763062,1.0164498090744019
1698072011614718500,5.005718505859375,0.09376505762338638,-0.7434011101722717,1.0274450778961182
1698072011624310500,5.015310546875,-0.1175880953669548,-0.7519529461860657,1.045770525932312
1698072011633903400,5.0249033203125,-0.2996205687522888,-0.5245651006698608,1.0714260339736938
1698072011643497000,5.0344970703125,-0.46454933285713196,-0.31687700748443604,1.0640959739685059
1698072011653089800,5.04408984375,-0.634364902973175,-0.20081603527069092,1.0176715850830078
1698072011662681900,5.053681884765625,-0.8151756525039673,-0.01511846948415041,0.9761339426040649
1698072011672274700,5.063274658203125,-0.9862129092216492,0.2047865390777588,0.9468132257461548
1698072011681868300,5.072868408203125,-1.1157125234603882,0.3477247953414917,0.9077190160751343
1698072011691461000,5.082461181640625,-1.1902358531951904,0.4039227366447449,0.8551861643791199
1698072011701053000,5.092052978515625,-1.2281084060668945,0.40758782625198364,0.7989882230758667
1698072011710646000,5.10164599609375,-1.230551838874817,0.39292749762535095,0.7537854909896851
1698072011720239600,5.111239501953125,-1.1865707635879517,0.3599417507648468,0.7330167293548584
1698072011729832200,5.120832275390625,-1.0851701498031616,0.3367295563220978,0.7488987445831299
1698072011739424300,5.13042431640625,-0.9275715351104736,0.35383328795433044,0.8014315962791443
1698072011749017000,5.14001708984375,-0.7626428008079529,0.3623851239681244,0.8515210747718811
1698072011758610700,5.149610595703125,-0.6135960817337036,0.31473904848098755,0.8796200752258301
1698072011768203500,5.15920361328125,-0.4559974670410156,0.17180079221725464,0.8832851648330688
1698072011777795600,5.168795654296875,-0.29717719554901123,-0.01511846948415041,0.8710681796073914
1698072011787388400,5.178388427734375,-0.15546062588691711,-0.1763821393251419,0.8576295375823975
1698072011796982000,5.18798193359375,-0.050394900143146515,-0.3364241421222687,0.8429692387580872
1698072011806574800,5.197574951171875,0.004581354558467865,-0.47325390577316284,0.833195686340332
1698072011816167000,5.2071669921875,0.040010496973991394,-0.5674771070480347,0.8295305967330933
1698072011825759700,5.216759765625,0.07421794533729553,-0.6542174220085144,0.8050966858863831
1698072011835353300,5.226353271484375,0.09376505762338638,-0.7446228265762329,0.726908266544342
1698072011844946200,5.2359462890625,0.0778830274939537,-0.8557969927787781,0.569309651851654
1698072011854538000,5.2455380859375,0.027793550863862038,-0.9290986657142639,0.3310792148113251
1698072011864131000,5.255131103515625,-0.02229592576622963,-0.8435800671577454,0.04153761267662048
1698072011873724400,5.264724365234375,-0.03573456406593323,-0.5625903010368347,-0.28343313932418823
1698072011883317200,5.274317138671875,-0.02229592576622963,-0.16538690030574799,-0.629172682762146
1698072011892909300,5.283909423828125,0.0021379655227065086,0.2548760175704956,-0.948034942150116
1698072011902502100,5.293502197265625,0.024128466844558716,0.5761816501617432,-1.2143644094467163
1698072011912095700,5.303095703125,0.041232191026210785,0.6714738607406616,-1.4354910850524902
1698072011921688600,5.3126884765625,0.057114217430353165,0.5358657836914062,-1.6140111684799194
1698072011931280600,5.32228076171875,0.0791047215461731,0.2927485406398773,-1.7422890663146973
1698072011940873500,5.33187353515625,0.10964708030223846,0.04963133856654167,-1.8265860080718994
1698072011950467000,5.341467041015625,0.14141114056110382,-0.1385096162557602,-1.8681236505508423
1698072011960060000,5.351059814453125,0.15362808108329773,-0.2301367074251175,-1.8669019937515259
1698072011969651700,5.360651611328125,0.1450762301683426,-0.22402822971343994,-1.8449114561080933
1698072011979244800,5.370244873046875,0.1291942000389099,-0.16905197501182556,-1.8278076648712158
1698072011988838400,5.37983837890625,0.11942064017057419,-0.12751436233520508,-1.833916187286377
1698072011998431000,5.389430908203125,0.13774605095386505,-0.14828316867351532,-1.857128381729126
1698072012008023000,5.39902294921875,0.19883078336715698,-0.2166980654001236,-1.857128381729126
1698072012017616000,5.408615966796875,0.27946263551712036,-0.29977330565452576,-1.777718186378479
1698072012027209500,5.41820947265625,0.37597647309303284,-0.3461976945400238,-1.5930896997451782
1698072012036802300,5.42780224609375,0.483485609292984,-0.3339807391166687,-1.3145432472229004
1698072012046394400,5.437394287109375,0.5604523420333862,-0.2826695740222931,-0.9663603901863098
1698072012055987200,5.4469873046875,0.5738909840583801,-0.23624517023563385,-0.5900784730911255
1698072012065580800,5.456580810546875,0.5225798487663269,-0.22524993121623993,-0.2345653474330902
1698072012075173600,5.466173583984375,0.4480564594268799,-0.19837264716625214,0.05741964280605316
1698072012084765700,5.475765625,0.3955236077308655,-0.10674555599689484,0.2651077210903168
1698072012094358500,5.485358642578125,0.3808632791042328,0.06551336497068405,0.393385648727417
1698072012103952000,5.494951904296875,0.38452833890914917,0.31229567527770996,0.4618005156517029
1698072012113545000,5.504544921875,0.3808632791042328,0.5896202921867371,0.5008947253227234
1698072012123136800,5.51413671875,0.3686463236808777,0.8498412370681763,0.5351021885871887
1698072012132729600,5.5237294921875,0.3527642786502838,1.0501991510391235,0.5680879354476929
1698072012142323200,5.5333232421875,0.3405473530292511,1.1564866304397583,0.601073682308197
1698072012151916000,5.542916015625,0.33199548721313477,1.167481780052185,0.6426113247871399
1698072012161508000,5.552508056640625,0.31977853178977966,1.0966235399246216,0.6988092660903931
1698072012171101000,5.562100830078125,0.3026748299598694,0.9683456420898438,0.7696675658226013
1698072012180694500,5.571694580078125,0.2904578745365143,0.8192988634109497,0.8502993583679199
1698072012190287400,5.581287353515625,0.2757975459098816,0.6568135023117065,0.9309312105178833
1698072012199879200,5.590879150390625,0.2586938142776489,0.5004366040229797,1.0017894506454468
1698072012209472300,5.60047216796875,0.24647687375545502,0.3489464819431305,1.0518789291381836
1698072012219065900,5.61006591796875,0.23792500793933868,0.19745637476444244,1.086086392402649
1698072012228658400,5.619658447265625,0.2244863659143448,0.02886253222823143,1.0897514820098877
1698072012238250500,5.62925048828125,0.21471281349658966,-0.14828316867351532,1.0665392875671387
1698072012247843300,5.63884326171875,0.19883078336715698,-0.30099499225616455,1.0323318243026733
1698072012257437000,5.64843701171875,0.16706672310829163,-0.41949936747550964,1.0005677938461304
1698072012267029800,5.65802978515625,0.1169772520661354,-0.5221216678619385,0.9724688529968262
1698072012276621800,5.667621826171875,0.04734066128730774,-0.6151232123374939,0.9407047629356384
1698072012286214700,5.677214599609375,-0.032069481909275055,-0.6749862432479858,0.8942803740501404
1698072012295808300,5.686808349609375,-0.11392301321029663,-0.6957550048828125,0.8222004175186157
1698072012305401000,5.696401123046875,-0.19821994006633759,-0.6896465420722961,0.707361102104187
1698072012314993200,5.7059931640625,-0.28373855352401733,-0.6725428104400635,0.5424323678016663
1698072012324586000,5.7155859375,-0.36192700266838074,-0.6420004963874817,0.3396310806274414
1698072012334179600,5.7251796875,-0.4181249439716339,-0.5760289430618286,0.12705622613430023
1698072012343772200,5.734772216796875,-0.4437805414199829,-0.45859357714653015,-0.0659715011715889
1698072012353364200,5.7443642578125,-0.43767204880714417,-0.2790044844150543,-0.2113531529903412
1698072012362957000,5.75395703125,-0.41079479455947876,-0.0456608310341835,-0.3005368411540985
1698072012372550700,5.763550537109375,-0.3643703758716583,0.14858859777450562,-0.3640649616718292
1698072012382143500,5.7731435546875,-0.29229041934013367,0.2670929729938507,-0.42514967918395996
1698072012391735600,5.782735595703125,-0.2238755226135254,0.27442312240600586,-0.4960079789161682
1698072012401330000,5.792329833984375,-0.1969982385635376,0.11682453751564026,-0.5900784730911255
1698072012410923500,5.801923583984375,-0.22631891071796417,-0.18126893043518066,-0.7110261917114258
1698072012420516400,5.811516357421875,-0.3106158375740051,-0.5491516590118408,-0.8539644479751587
1698072012430108400,5.8211083984375,-0.4095730781555176,-0.9144383668899536,-1.0176715850830078
1698072012439701200,5.830701171875,-0.47798797488212585,-1.1648857593536377,-1.180156946182251
1698072012449294800,5.840294921875,-0.5036435723304749,-1.2418525218963623,-1.296217918395996
1698072012458887700,5.8498876953125,-0.4853181540966034,-1.12823486328125,-1.3304253816604614
1698072012468479500,5.8594794921875,-0.4181249439716339,-0.8203678727149963,-1.273005723953247
1698072012478072600,5.869072509765625,-0.324054479598999,-0.3975088596343994,-1.132510781288147
1698072012487666200,5.878666259765625,-0.22631891071796417,0.017867282032966614,-0.9297095537185669
1698072012497258800,5.8882587890625,-0.1432436853647232,0.32573428750038147,-0.6878139972686768
1698072012506850800,5.897850830078125,-0.06872031837701797,0.5041016936302185,-0.4337015450000763
1698072012516443600,5.907443603515625,0.005803049076348543,0.5798467397689819,-0.19302773475646973
1698072012526037200,5.917037353515625,0.06810946762561798,0.5346440672874451,0.01954711228609085
1698072012535630000,5.926630126953125,0.10964708030223846,0.37704548239707947,0.18814095854759216
1698072012545222100,5.93622216796875,0.1291942000389099,0.14248012006282806,0.3029802441596985
1698072012554815000,5.94581494140625,0.12797249853610992,-0.14339639246463776,0.3555130958557129
1698072012564408600,5.95540869140625,0.10964708030223846,-0.4414898455142975,0.34451785683631897
1698072012574001200,5.965001220703125,0.08276980370283127,-0.6933116316795349,0.28343313932418823
1698072012583593200,5.97459326171875,0.05100574716925621,-0.8203678727149963,0.1954711228609085
1698072012593186000,5.98418603515625,0.0009162708884105086,-0.8044858574867249,0.10262233763933182
1698072012602779600,5.993779541015625,-0.0662769302725792,-0.6810947060585022,0.01710372418165207
1698072012612372500,6.00337255859375,-0.13469181954860687,-0.5086830258369446,-0.06719319522380829
1698072012621964500,6.012964599609375,-0.19333316385746002,-0.32665055990219116,-0.14782503247261047
1698072012631557400,6.022557373046875,-0.23853585124015808,-0.1629435122013092,-0.2101314514875412
1698072012641151000,6.03215087890625,-0.2739650011062622,-0.028557108715176582,-0.237008735537529
1698072012650743800,6.041743896484375,-0.3020639717578888,0.058183200657367706,-0.23212195932865143
1698072012660335900,6.0513359375,-0.324054479598999,0.09361234307289124,-0.20157960057258606
1698072012669928400,6.060928466796875,-0.3423798978328705,0.08261708915233612,-0.15271180868148804
1698072012679522300,6.070522216796875,-0.3521534502506256,0.04474456235766411,-0.08796200156211853
1698072012689115000,6.080114990234375,-0.3509317636489868,-0.009009997360408306,-0.028098974376916885
1698072012698707000,6.08970703125,-0.324054479598999,-0.07742489129304886,0.014660334214568138
1698072012708299800,6.0992998046875,-0.28007346391677856,-0.16905197501182556,0.04886778071522713
1698072012717893400,6.108893310546875,-0.23242738842964172,-0.2973299026489258,0.0781884491443634
1698072012727486200,6.118486328125,-0.17867282032966614,-0.4414898455142975,0.1050657257437706
1698072012737078300,6.128078369140625,-0.1188097894191742,-0.5430431962013245,0.15149012207984924
1698072012746671000,6.137671142578125,-0.06749862432479858,-0.6077930331230164,0.2211267054080963
1698072012756264700,6.1472646484375,-0.028404397889971733,-0.7043069005012512,0.3017585575580597
1698072012765857500,6.156857421875,0.011911521665751934,-0.7800519466400146,0.3958290219306946
1698072012775449600,6.16644970703125,0.04611896723508835,-0.7800519466400146,0.5033381581306458
1698072012785042200,6.176042236328125,0.04856235533952713,-0.7495095729827881,0.6071822047233582
1698072012794635800,6.1856357421875,0.018019994720816612,-0.7153021693229675,0.6939224600791931
1698072012804228600,6.195228515625,-0.03817795217037201,-0.6542174220085144,0.7342383861541748
1698072012813820700,6.204820556640625,-0.12125317752361298,-0.5147915482521057,0.7159129977226257
1698072012823413500,6.21441357421875,-0.2079934924840927,-0.24479703605175018,0.6377245187759399
1698072012833007000,6.224007080078125,-0.25319617986679077,0.14736689627170563,0.5082249045372009
1698072012842600000,6.233599853515625,-0.24097923934459686,0.5627430081367493,0.3396310806274414
1698072012852192000,6.24319189453125,-0.21165858209133148,0.8730534315109253,0.15149012207984924
1698072012861784800,6.252784912109375,-0.17256435751914978,1.0221002101898193,-0.01710372418165207
1698072012871378400,6.26237841796875,-0.12613995373249054,0.9659022092819214,-0.1563768982887268
1698072012880971000,6.271970947265625,-0.10659284889698029,0.6507050395011902,-0.2870981991291046
1698072012890563000,6.28156298828125,-0.14080029726028442,0.10949437320232391,-0.4214846193790436
1698072012900156000,6.291156005859375,-0.20310671627521515,-0.47203221917152405,-0.5448757410049438
1698072012909749500,6.30074951171875,-0.23975755274295807,-0.8582404255867004,-0.6365028619766235
1698072012919342300,6.31034228515625,-0.23364907503128052,-0.9889616966247559,-0.6707102656364441
1698072012928934400,6.319934326171875,-0.18844637274742126,-0.860683798789978,-0.6267293095588684
1698072012938527200,6.32952734375,-0.12003148347139359,-0.5306735634803772,-0.5143333673477173
1698072012948120800,6.339120849609375,-0.050394900143146515,-0.12751436233520508,-0.36162158846855164
1698072012957713700,6.348713623046875,0.004581354558467865,0.19623468816280365,-0.19302773475646973
1698072012967305500,6.358305419921875,0.03512371703982353,0.3342861533164978,-0.028098974376916885
1698072012976898600,6.367898681640625,0.05344913527369499,0.32939937710762024,0.13805148005485535
1698072012986492200,6.3774921875,0.07177454978227615,0.2793098986148834,0.31031039357185364
1698072012996084700,6.387084716796875,0.08276980370283127,0.21211670339107513,0.4825693368911743
1698072013005676800,6.3966767578125,0.06810946762561798,0.1253764033317566,0.6413896083831787
1698072013015269600,6.40626953125,0.038788799196481705,0.010537114925682545,0.7550072073936462
1698072013024863200,6.41586328125,0.004581354558467865,-0.15561333298683167,0.7953231334686279
1698072013034456000,6.4254560546875,-0.03451287001371384,-0.33764582872390747,0.7623373866081238
1698072013044048100,6.435048095703125,-0.08215895295143127,-0.4549284875392914,0.6707102656364441
1698072013053641000,6.444640869140625,-0.13469181954860687,-0.44393324851989746,0.5412106513977051
1698072013063234600,6.454234619140625,-0.18722468614578247,-0.30099499225616455,0.39827242493629456
1698072013072827100,6.4638271484375,-0.24464432895183563,-0.05421269312500954,0.26877278089523315
1698072013082419200,6.473419189453125,-0.3032856583595276,0.26342788338661194,0.1575985997915268
1698072013092012000,6.483011962890625,-0.34482327103614807,0.5847335457801819,0.07207997888326645
1698072013101605600,6.492605712890625,-0.35826191306114197,0.8632798790931702,0.01954711228609085
1698072013111198500,6.502198486328125,-0.33504971861839294,1.0782980918884277,0.004886778071522713
1698072013120790500,6.51179052734375,-0.2739650011062622,1.2273448705673218,0.03787253051996231
1698072013130383400,6.52138330078125,-0.19821994006633759,1.2835427522659302,0.12216944992542267
1698072013139977000,6.53097705078125,-0.1188097894191742,1.2420052289962769,0.24433889985084534
1698072013149569800,6.54056982421875,-0.03695625811815262,1.107618808746338,0.3921639323234558
1698072013159161900,6.550161865234375,0.04611896723508835,0.8974873423576355,0.5448757410049438
1698072013168754700,6.559754638671875,0.12430741637945175,0.6201626658439636,0.6853706240653992
1698072013178348000,6.56934814453125,0.19272230565547943,0.30007871985435486,0.8063184022903442
1698072013187940900,6.57894091796875,0.24647687375545502,-0.013896775431931019,0.8991671800613403
1698072013197533000,6.588532958984375,0.2867927849292755,-0.28633466362953186,0.9517000317573547
1698072013207125800,6.598125732421875,0.3246653079986572,-0.5050179958343506,0.9700254201889038
1698072013216719400,6.60771923828125,0.34909921884536743,-0.6676560640335083,0.9907942414283752
1698072013226312200,6.617312255859375,0.3405473530292511,-0.7678350210189819,1.0506572723388672
1698072013235904000,6.626904052734375,0.2782409191131592,-0.8191461563110352,1.147171139717102
1698072013245497000,6.6364970703125,0.15973655879497528,-0.8411366939544678,1.2387982606887817
1698072013255090700,6.646090576171875,0.0021379655227065086,-0.8594620823860168,1.2717839479446411
1698072013264683300,6.655683349609375,-0.16156910359859467,-0.8753440976142883,1.1984822750091553
1698072013274275300,6.665275390625,-0.3118375241756439,-0.869235634803772,1.0030112266540527
1698072013283868200,6.6748681640625,-0.4291202127933502,-0.8240329623222351,0.7024743556976318
1698072013293461800,6.684461669921875,-0.5024218559265137,-0.7214106321334839,0.3567348122596741
1698072013303054600,6.6940546875,-0.531742513179779,-0.5270084738731384,0.05497625470161438
1698072013312646700,6.703646728515625,-0.5415160655975342,-0.18615570664405823,-0.12094775587320328
1698072013322239500,6.713239501953125,-0.5390726923942566,0.21333840489387512,-0.1710372269153595
1698072013331833000,6.7228330078125,-0.5244123935699463,0.4906630516052246,-0.13438639044761658
1698072013341425700,6.73242578125,-0.4963133931159973,0.5590779781341553,-0.05619794875383377
1698072013351017700,6.742017822265625,-0.4462239146232605,0.4039227366447449,0.01832541823387146
1698072013360610600,6.751610595703125,-0.38513919711112976,0.08139539510011673,0.06352811306715012
1698072013370204200,6.7612041015625,-0.3142809271812439,-0.2802261710166931,0.08185353130102158
1698072013379797000,6.770796875,-0.2226538211107254,-0.5564818382263184,0.0916270911693573
1698072013389389000,6.78038916015625,-0.1175880953669548,-0.6835380792617798,0.1050657257437706
1698072013398982000,6.78998193359375,-0.016187451779842377,-0.6884248852729797,0.130721315741539
1698072013408575500,6.799575439453125,0.07055285573005676,-0.6310052275657654,0.1698155403137207
1698072013418168000,6.80916796875,0.13408097624778748,-0.5442649126052856,0.2223484069108963
1698072013427760000,6.818760009765625,0.1719534993171692,-0.4414898455142975,0.2883199155330658
1698072013437353000,6.82835302734375,0.19150061905384064,-0.3229855000972748,0.35795649886131287
1698072013446946600,6.837946533203125,0.19883078336715698,-0.21181128919124603,0.41171106696128845
1698072013456539400,6.847539306640625,0.1963873952627182,-0.11896250396966934,0.42514967918395996
1698072013466131500,6.85713134765625,0.1951656937599182,-0.04077405482530594,0.393385648727417
1698072013475724300,6.866724365234375,0.18783552944660187,0.009315420873463154,0.3176405727863312
1698072013485318000,6.87631787109375,0.16706672310829163,0.03008422814309597,0.21257483959197998
1698072013494910700,6.88591064453125,0.13530266284942627,0.001985253533348441,0.09284878522157669
1698072013504502800,6.895502685546875,0.09498675167560577,-0.07009471952915192,-0.01832541823387146
1698072013514095600,6.905095703125,0.05100574716925621,-0.12995775043964386,-0.09407047927379608
1698072013523689000,6.91468896484375,0.0021379655227065086,-0.14828316867351532,-0.12216944992542267
1698072013533281800,6.92428173828125,-0.05528167635202408,-0.10552386194467545,-0.10384403169155121
1698072013542873900,6.933873779296875,-0.11147962510585785,-0.013896775431931019,-0.05008947476744652
1698072013552466700,6.943466796875,-0.17256435751914978,0.07528692483901978,0.025655584409832954
1698072013562060300,6.953060302734375,-0.24464432895183563,0.10338589549064636,0.10628741979598999
1698072013571653000,6.962653076171875,-0.324054479598999,0.08139539510011673,0.18081079423427582
1698072013581245200,6.9722451171875,-0.3924693763256073,0.06429167091846466,0.23823043704032898
1698072013590838000,6.981838134765625,-0.4327852725982666,0.07528692483901978,0.2748812735080719
1698072013600431600,6.991431640625,-0.4572191834449768,0.1241547018289566,0.2980934679508209
1698072013610024200,7.001024169921875,-0.4718795120716095,0.21089501678943634,0.3054236173629761
1698072013619616300,7.0106162109375,-0.48043137788772583,0.3171824514865875,0.2993151545524597
1698072013629209000,7.020208984375,-0.487761527299881,0.3978142738342285,0.27976804971694946
1698072013638802700,7.029802734375,-0.4975350797176361,0.4100312292575836,0.24556060135364532
1698072013648395500,7.0393955078125,-0.48898324370384216,0.36605021357536316,0.1979145109653473
1698072013657987600,7.048987548828125,-0.43767204880714417,0.24998924136161804,0.12827792763710022
1698072013667580200,7.058580078125,-0.34971004724502563,0.04963133856654167,0.05986303091049194
1698072013677174000,7.068174072265625,-0.24097923934459686,-0.20570281147956848,0.030542362481355667
1698072013686766600,7.0777666015625,-0.10903623700141907,-0.43538138270378113,0.05131116881966591
1698072013696358700,7.087358642578125,0.026571854948997498,-0.5772506594657898,0.1172826737165451
1698072013705951500,7.096951416015625,0.13896775245666504,-0.648108959197998,0.21501824259757996
1698072013715545000,7.106545166015625,0.21715620160102844,-0.6872031688690186,0.3249707520008087
1698072013725138000,7.116137939453125,0.25625041127204895,-0.7666133046150208,0.42392799258232117
1698072013734730000,7.12572998046875,0.26602399349212646,-0.8948912620544434,0.4825693368911743
1698072013744322800,7.13532275390625,0.2757975459098816,-1.0256125926971436,0.47890424728393555
1698072013753916400,7.14491650390625,0.30878329277038574,-1.0952491760253906,0.4080459773540497
1698072013763509000,7.154509033203125,0.37475478649139404,-1.0048437118530273,0.29687178134918213
1698072013773101000,7.16410107421875,0.460273414850235,-0.7385143637657166,0.17225892841815948
1698072013782694000,7.17369384765625,0.532353401184082,-0.39384377002716064,0.05619794875383377
1698072013792287500,7.18328759765625,0.5738909840583801,-0.08964183181524277,-0.02076880633831024
1698072013801880300,7.19288037109375,0.5934380888938904,0.1375933438539505,-0.05619794875383377
1698072013811472400,7.202472412109375,0.6044333577156067,0.32695600390434265,-0.06352811306715012
1698072013821065200,7.212065185546875,0.6117635369300842,0.4515688419342041,-0.04886778071522713
1698072013830658800,7.221658935546875,0.5983248949050903,0.4100312292575836,-0.03298575058579445
1698072013840251400,7.23125146484375,0.5592306852340698,0.19256959855556488,-0.04886778071522713
1698072013849843500,7.240843505859375,0.509141206741333,-0.10918894410133362,-0.1172826737165451
1698072013859436300,7.250436279296875,0.457830011844635,-0.3608580231666565,-0.23212195932865143
1698072013869030000,7.26002978515625,0.39918869733810425,-0.45615020394325256,-0.37383851408958435
1698072013878622700,7.269622802734375,0.33321717381477356,-0.3718532621860504,-0.5326588153839111
1698072013888214800,7.27921484375,0.2757975459098816,-0.12995775043964386,-0.712247908115387
1698072013897807600,7.2888076171875,0.23914669454097748,0.1498102843761444,-0.916270911693573
1698072013907401200,7.298401123046875,0.2367033064365387,0.3611634373664856,-1.1251806020736694
1698072013916993800,7.307993896484375,0.26602399349212646,0.48333290219306946,-1.2778924703598022
1698072013926585900,7.3175859375,0.30878329277038574,0.5444176197052002,-1.3194301128387451
1698072013936178700,7.3271787109375,0.3503209054470062,0.5456393361091614,-1.2449066638946533
1698072013945772300,7.336772216796875,0.3784198760986328,0.48455458879470825,-1.0811996459960938
1698072013955365000,7.346365234375,0.37353309988975525,0.37704548239707947,-0.8625163435935974
1698072013964957200,7.355957275390625,0.328330397605896,0.25121092796325684,-0.629172682762146
1698072013974550000,7.365550048828125,0.2489202618598938,0.12659808993339539,-0.4337015450000763
1698072013984143600,7.3751435546875,0.16095824539661407,0.019088976085186005,-0.32130566239356995
1698072013993736200,7.384736083984375,0.091321662068367,-0.04077405482530594,-0.30908870697021484
1698072014003328300,7.394328369140625,0.04367557913064957,-0.029778804630041122,-0.367730051279068
1698072014012921000,7.403921142578125,0.0021379655227065086,0.06306997686624527,-0.4556920528411865
1698072014022514700,7.4135146484375,-0.0393996499478817,0.23777230083942413,-0.5412106513977051
1698072014032107500,7.423107421875,-0.08338065445423126,0.4491254389286041,-0.6035171151161194
1698072014041699600,7.432699462890625,-0.1322484314441681,0.6372663974761963,-0.6328377723693848
1698072014051292400,7.44229248046875,-0.17745113372802734,0.7850914597511292,-0.6230642199516296
1698072014060886000,7.451885986328125,-0.20310671627521515,0.8864920735359192,-0.5717530250549316
1698072014070478600,7.461478515625,-0.1957765519618988,0.9426900148391724,-0.4825693368911743
1698072014080070700,7.471070556640625,-0.15546062588691711,0.9561286568641663,-0.34940463304519653
1698072014089663500,7.48066357421875,-0.08338065445423126,0.9549070000648499,-0.16248537600040436
1698072014099257000,7.490257080078125,-0.01252236869186163,0.8913788795471191,0.05375456064939499
1698072014108850000,7.499849853515625,0.05344913527369499,0.7411104440689087,0.2761029601097107
1698072014118442000,7.50944189453125,0.14018943905830383,0.5554128885269165,0.4960079789161682
1698072014128034800,7.519034912109375,0.22692975401878357,0.30374380946159363,0.6792621612548828
1698072014137628400,7.52862841796875,0.3002314269542694,0.017867282032966614,0.8148702383041382
1698072014147221000,7.538220947265625,0.3637595474720001,-0.270452618598938,0.9101623892784119
1698072014156813000,7.54781298828125,0.4162923991680145,-0.5355603098869324,0.9724688529968262
1698072014166406000,7.557406005859375,0.45416492223739624,-0.7458444833755493,0.999346137046814
1698072014175999500,7.56699951171875,0.4688252806663513,-0.8936695456504822,0.9907942414283752
1698072014185592300,7.57659228515625,0.4443913698196411,-0.9706363081932068,0.948034942150116
1698072014195184400,7.586184326171875,0.3820849657058716,-0.9571976661682129,0.8832851648330688
1698072014204777200,7.595777099609375,0.305118203163147,-0.8729007244110107,0.8063184022903442
1698072014214370800,7.605370849609375,0.222042977809906,-0.7140804529190063,0.7085828185081482
1698072014223963400,7.61496337890625,0.1328592747449875,-0.5111264586448669,0.5632011890411377
1698072014233555500,7.624555419921875,0.05467082932591438,-0.3364241421222687,0.3555130958557129
1698072014243148300,7.634148193359375,-0.0015271181473508477,-0.21303297579288483,0.09895725548267365
1698072014252742000,7.643741943359375,-0.032069481909275055,-0.08719844371080399,-0.17714570462703705
1698072014262334700,7.653334716796875,-0.02473931387066841,0.0325276181101799,-0.45080527663230896
1698072014271926800,7.6629267578125,0.015576604753732681,0.09239064902067184,-0.6963658928871155
1698072014281519600,7.67251953125,0.0522274412214756,0.08017370104789734,-0.9016105532646179
1698072014291113200,7.68211328125,0.07177454978227615,0.0068720318377017975,-1.0677610635757446
1698072014300705800,7.691705810546875,0.07543963938951492,-0.12995775043964386,-1.202147364616394
1698072014310297900,7.7012978515625,0.05344913527369499,-0.2985515892505646,-1.3120999336242676
1698072014319890700,7.710890625,0.0021379655227065086,-0.4756973087787628,-1.3976185321807861
1698072014329484300,7.720484375,-0.06872031837701797,-0.6505523324012756,-1.4464863538742065
1698072014339077000,7.7300771484375,-0.14080029726028442,-0.7873821258544922,-1.4403778314590454
1698072014348669200,7.739669189453125,-0.19333316385746002,-0.8228112459182739,-1.3487507104873657
1698072014358261800,7.74926171875,-0.21532365679740906,-0.7275190949440002,-1.1593880653381348
1698072014367855600,7.758855712890625,-0.21410197019577026,-0.5515950918197632,-0.893058717250824
1698072014377448200,7.7684482421875,-0.20432840287685394,-0.36452311277389526,-0.5961869359016418
1698072014387040300,7.778040283203125,-0.20432840287685394,-0.20570281147956848,-0.32130566239356995
1698072014396633000,7.787633056640625,-0.18600298464298248,-0.03833066672086716,-0.10384403169155121
1698072014406226700,7.797226806640625,-0.13591352105140686,0.06551336497068405,0.0012216945178806782
1698072014415819500,7.806819580078125,-0.11147962510585785,0.0032069480512291193,-0.029320668429136276
1698072014425411600,7.81641162109375,-0.08948912471532822,-0.12873606383800507,-0.12827792763710022
1698072014435004400,7.82600439453125,-0.06994201242923737,-0.21791976690292358,-0.23823043704032898
1698072014444598000,7.835597900390625,-0.050394900143146515,-0.2777827978134155,-0.33474430441856384
1698072014454190600,7.845190673828125,-0.06139015033841133,-0.32909396290779114,-0.41415444016456604
1698072014463782700,7.85478271484375,-0.08215895295143127,-0.3217637836933136,-0.45202696323394775
1698072014473375500,7.86437548828125,-0.08704573661088943,-0.30343836545944214,-0.4825693368911743
1698072014482969000,7.873968994140625,-0.08338065445423126,-0.20081603527069092,-0.5656445622444153
1698072014492562000,7.88356201171875,-0.12003148347139359,-0.16660858690738678,-0.6890357136726379
1698072014502154000,7.893154052734375,-0.20188501477241516,-0.15805672109127045,-0.818535327911377
1698072014511746800,7.902746826171875,-0.3313846290111542,-0.14461809396743774,-0.9272661209106445
1698072014521340200,7.912340087890625,-0.4608842432498932,-0.10063708573579788,-0.9651386737823486
1698072014530933000,7.92193310546875,-0.5354076027870178,-0.017561858519911766,-0.888171911239624
1698072014540525000,7.931525146484375,-0.5305208563804626,0.1375933438539505,-0.7293516397476196
1698072014550118000,7.941117919921875,-0.4694361090660095,0.3220692276954651,-0.546097457408905
1698072014559711500,7.95071142578125,-0.38391751050949097,0.46012070775032043,-0.3836120665073395
1698072014569304300,7.96030419921875,-0.2861819267272949,0.5370874404907227,-0.2602209448814392
1698072014578896400,7.969896484375,-0.17745113372802734,0.6152759194374084,-0.1832541823387146
1698072014588489000,7.979489013671875,-0.06872031837701797,0.8168554902076721,-0.15026842057704926
1698072014598082600,7.98908251953125,0.026571854948997498,0.9622371196746826,-0.13316470384597778
1698072014607675400,7.99867529296875,0.06810946762561798,0.73255854845047,-0.1172826737165451
1698072014617267500,8.008267333984374,0.042453885078430176,0.26220619678497314,-0.07207997888326645
1698072014626860300,8.0178603515625,-0.028404397889971733,-0.09452861547470093,0.02076880633831024
1698072014636454000,8.027453857421875,-0.10903623700141907,-0.22647161781787872,0.16737215220928192
1698072014646046700,8.037046630859376,-0.1835595965385437,-0.19348587095737457,0.3506263196468353
1698072014655638500,8.046638427734376,-0.2373141646385193,-0.07986827939748764,0.5583143830299377
1698072014665231400,8.0562314453125,-0.29717719554901123,0.03374931216239929,0.7537854909896851
1698072014674825000,8.065824951171875,-0.37170055508613586,0.10216420143842697,0.9126058220863342
1698072014684417800,8.075417724609375,-0.40468630194664,0.13148486614227295,1.0188932418823242
1698072014694009900,8.085009765625,-0.3668137788772583,0.11682453751564026,1.0384403467178345
1698072014703602700,8.094602783203126,-0.2910687327384949,0.02764083817601204,0.9553651213645935
1698072014713196300,8.1041962890625,-0.22754059731960297,-0.11285403370857239,0.7892146706581116
1698072014722788900,8.113788818359374,-0.1823379099369049,-0.09941539168357849,0.5803049206733704
1698072014732381000,8.123380859375,-0.12003148347139359,0.1754658818244934,0.34696123003959656
1698072014741973800,8.132973876953125,0.016798298805952072,0.603058934211731,0.13805148005485535
1698072014751567400,8.1425673828125,0.24281178414821625,1.0453124046325684,-0.006108472589403391
1698072014761160200,8.15216015625,0.5018110275268555,1.395938754081726,-0.08796200156211853
1698072014770752300,8.161752197265624,0.7058340311050415,1.491230845451355,-0.12216944992542267
1698072014780344800,8.1713447265625,0.8328902125358582,1.2627739906311035,-0.12216944992542267
1698072014789938700,8.180938720703125,0.8964183330535889,0.8046385645866394,-0.09040539711713791
1698072014799531300,8.19053125,0.9074136018753052,0.252432644367218,-0.05619794875383377
1698072014809123300,8.200123291015625,0.8768712282180786,-0.2851129472255707,-0.047646086663007736
1698072014818716200,8.209716064453126,0.8170081973075867,-0.6627692580223083,-0.08307522535324097
1698072014828309800,8.219309814453124,0.7461498975753784,-0.7715001106262207,-0.1563768982887268
1698072014837902600,8.228902587890625,0.6740699410438538,-0.6762079000473022,-0.24067382514476776
1698072014847494700,8.23849462890625,0.615428626537323,-0.42072105407714844,-0.3017585575580597
1698072014857087500,8.24808740234375,0.5653391480445862,-0.07620319724082947,-0.3396310806274414
1698072014866681000,8.25768115234375,0.5030327439308167,0.24998924136161804,-0.36284327507019043
1698072014876273700,8.267273681640624,0.4553866386413574,0.5004366040229797,-0.37261682748794556
1698072014885865700,8.27686572265625,0.4175141155719757,0.6360446810722351,-0.367730051279068
1698072014895458600,8.28645849609375,0.38941511511802673,0.6348230242729187,-0.3555130958557129
1698072014905052200,8.29605224609375,0.35765108466148376,0.5175403356552124,-0.34818294644355774
1698072014914645000,8.30564501953125,0.2904578745365143,0.3171824514865875,-0.3689517378807068
1698072014924237000,8.315237060546876,0.1829487532377243,0.06429167091846466,-0.4312581717967987
1698072014933829600,8.32482958984375,0.05344913527369499,-0.17027367651462555,-0.5338805317878723
1698072014943423200,8.33442333984375,-0.07360709458589554,-0.2912214398384094,-0.6658235192298889
1698072014953016000,8.34401611328125,-0.16767756640911102,-0.23502348363399506,-0.8087617754936218
1698072014962608000,8.353608154296875,-0.16034740209579468,-0.018783552572131157,-0.9517000317573547
1698072014972201000,8.363200927734376,-0.09559759497642517,0.2585411071777344,-1.0934165716171265
1698072014981794600,8.372794677734374,-0.04428642615675926,0.5358657836914062,-1.2216944694519043
1698072014991387100,8.38238720703125,-0.002748812548816204,0.8254073858261108,-1.2949961423873901
1698072015000979200,8.391979248046875,0.037567105144262314,1.1320526599884033,-1.2937744855880737
1698072015010572000,8.401572021484375,0.07666133344173431,1.3996037244796753,-1.226581335067749
1698072015020165600,8.41116552734375,0.12552911043167114,1.5559806823730469,-1.1056334972381592
1698072015029758500,8.420758544921876,0.20493926107883453,1.5804145336151123,-0.9431481957435608
1698072015039350500,8.4303505859375,0.3148917555809021,1.514443039894104,-0.7537854909896851
1698072015048943400,8.439943359375,0.434617817401886,1.40449059009552,-0.5497625470161438
1698072015058537000,8.449536865234375,0.5262449383735657,1.26399564743042,-0.35795649886131287
1698072015068129500,8.459129638671875,0.5751127004623413,1.0795198678970337,-0.19913621246814728
1698072015077721600,8.4687216796875,0.587329626083374,0.987892746925354,-0.021990500390529633
1698072015087314400,8.478314453125,0.5861079692840576,0.775317907333374,0.10628741979598999
1698072015096908000,8.487907958984374,0.6044333577156067,0.44790375232696533,0.18081079423427582
1698072015106500900,8.4975009765625,0.6300889253616333,0.1498102843761444,0.2516690790653229
1698072015116093000,8.507093017578125,0.638640820980072,-0.12873606383800507,0.29442837834358215
1698072015125685800,8.516685791015625,0.6080984473228455,-0.40483900904655457,0.26632940769195557
1698072015135279400,8.526279296875,0.4871506989002228,-0.5992411375045776,0.20646637678146362
1698072015144872000,8.535871826171874,0.305118203163147,-0.5894675850868225,0.17836740612983704
1698072015154464000,8.545464111328124,0.1047603040933609,-0.3718532621860504,0.1710372269153595
1698072015164056800,8.555056884765625,-0.09681928902864456,-0.17149536311626434,0.13438639044761658
1698072015173650400,8.564650390625,-0.28373855352401733,-0.11896250396966934,0.05497625470161438
1698072015183243300,8.5742431640625,-0.4352286756038666,-0.22280654311180115,-0.0525328628718853
1698072015192835300,8.58383544921875,-0.545181155204773,-0.4695888161659241,-0.16492876410484314
1698072015202428000,8.593427978515624,-0.591605544090271,-0.7287407517433167,-0.261442631483078
1698072015212021500,8.603021484375,-0.5610632300376892,-0.8399149775505066,-0.31886225938796997
1698072015221614300,8.6126142578125,-0.47554460167884827,-0.7666133046150208,-0.3298575282096863
1698072015231206400,8.622206298828125,-0.3802524209022522,-0.5833591222763062,-0.3151971995830536
1698072015240799200,8.63179931640625,-0.3155026137828827,-0.38162681460380554,-0.3164188861846924
1698072015250392800,8.641392822265624,-0.30695074796676636,-0.2545706033706665,-0.36162158846855164
1698072015259985400,8.6509853515625,-0.3521534502506256,-0.270452618598938,-0.46424391865730286
1698072015269577500,8.660577392578125,-0.430341899394989,-0.41827765107154846,-0.6230642199516296
1698072015279170300,8.67017041015625,-0.4963133931159973,-0.6090146899223328,-0.8087617754936218
1698072015288764000,8.679763916015625,-0.50853031873703,-0.7348492741584778,-0.971247136592865
1698072015298356700,8.689356689453126,-0.48043137788772583,-0.7678350210189819,-1.0531007051467896
1698072015307948800,8.69894873046875,-0.44011545181274414,-0.7067502737045288,-1.0201148986816406
1698072015317541600,8.708541748046875,-0.38880428671836853,-0.5467082858085632,-0.8722898960113525
1698072015327135200,8.71813525390625,-0.33260634541511536,-0.29977330565452576,-0.6316160559654236
1698072015336727800,8.727727783203125,-0.29351210594177246,-0.01511846948415041,-0.3249707520008087
1698072015346320000,8.73731982421875,-0.28373855352401733,0.2047865390777588,-0.007330167107284069
1698072015355912700,8.74691259765625,-0.30939415097236633,0.30740886926651,0.26999449729919434
1698072015365506300,8.75650634765625,-0.3509317636489868,0.30007871985435486,0.4715740978717804
1698072015375099100,8.76609912109375,-0.38880428671836853,0.2157817929983139,0.5888567566871643
1698072015384691200,8.775691162109375,-0.4169032573699951,0.0850604772567749,0.6328377723693848
1698072015394284000,8.785283935546875,-0.43767204880714417,-0.06398624926805496,0.6193991303443909
1698072015403877600,8.794877685546876,-0.4437805414199829,-0.1751604527235031,0.5717530250549316
1698072015413470200,8.80447021484375,-0.43889376521110535,-0.20692451298236847,0.5082249045372009
1698072015423062300,8.814062255859374,-0.4291202127933502,-0.164165198802948,0.4422534108161926
1698072015432655000,8.823655029296875,-0.4291202127933502,-0.07620319724082947,0.3775036036968231
1698072015442248700,8.833248779296875,-0.44133713841438293,0.02641914412379265,0.3176405727863312
1698072015451841500,8.842841552734376,-0.46454933285713196,0.12659808993339539,0.27121618390083313
1698072015461433600,8.85243359375,-0.4950917065143585,0.22677704691886902,0.23823043704032898
1698072015471026200,8.862026123046874,-0.5244123935699463,0.30007871985435486,0.21501824259757996
1698072015480620000,8.8716201171875,-0.5415160655975342,0.3061871826648712,0.20035789906978607
1698072015490212600,8.881212646484375,-0.536629319190979,0.25121092796325684,0.20157960057258606
1698072015499804700,8.8908046875,-0.51341712474823,0.1644706279039383,0.21868331730365753
1698072015509397500,8.9003974609375,-0.46454933285713196,0.08994726091623306,0.258999228477478
1698072015518991000,8.9099912109375,-0.3936910629272461,0.03008422814309597,0.32252734899520874
1698072015528584000,8.919583984375,-0.3045073449611664,-0.0004581354442052543,0.40193748474121094
1698072015538175700,8.92917578125,-0.21532365679740906,-0.004123218823224306,0.4874561131000519
1698072015547768800,8.938768798828125,-0.14202198386192322,0.005650337319821119,0.5595360994338989
1698072015557362200,8.948362060546875,-0.08338065445423126,0.0032069480512291193,0.6047387719154358
1698072015566955000,8.957955078125,-0.03451287001371384,-0.017561858519911766,0.6230642199516296
1698072015576547000,8.967547119140624,0.007024743594229221,-0.06520794332027435,0.6218425035476685
1698072015586140000,8.977139892578125,0.04367557913064957,-0.15805672109127045,0.605960488319397
1698072015595733500,8.9867333984375,0.08276980370283127,-0.2777827978134155,0.5851916670799255
1698072015605326000,8.996326171875,0.11942064017057419,-0.39262208342552185,0.5766398310661316
1698072015614918100,9.005918212890625,0.1426328420639038,-0.48791423439979553,0.5790832042694092
1698072015624511000,9.015510986328126,0.1426328420639038,-0.5674771070480347,0.5888567566871643
1698072015634104600,9.0251044921875,0.12552911043167114,-0.6212316751480103,0.6071822047233582
1698072015643697400,9.034697509765625,0.09376505762338638,-0.6420004963874817,0.6230642199516296
1698072015653289500,9.04428955078125,0.04978405311703682,-0.6261184215545654,0.6206207871437073
1698072015662882300,9.05388232421875,-0.00030542362947016954,-0.5686988234519958,0.5864133834838867
1698072015672476000,9.063475830078126,-0.04550812020897865,-0.48302745819091797,0.5094466209411621
1698072015682068500,9.073068359375,-0.0650552362203598,-0.34253260493278503,0.3970507085323334
1698072015691660500,9.08266064453125,-0.0528382882475853,-0.11529742181301117,0.2626643180847168
1698072015701253400,9.09225341796875,-0.006413896102458239,0.20234315097332,0.12461283802986145
1698072015710847000,9.101846923828125,0.09865183383226395,0.571294903755188,0.012216945178806782
1698072015720439800,9.111439697265626,0.2501419484615326,0.8889354467391968,-0.062306419014930725
1698072015730031600,9.121031494140626,0.3967452943325043,1.057529330253601,-0.11361759155988693
1698072015739624700,9.130624755859374,0.5079194903373718,1.0440906286239624,-0.14171656966209412
1698072015749218300,9.14021826171875,0.5836645364761353,0.8559496998786926,-0.14904673397541046
1698072015758811000,9.149810791015625,0.610541820526123,0.49677154421806335,-0.15393351018428802
1698072015768403000,9.15940283203125,0.6032116413116455,0.04230117425322533,-0.17470231652259827
1698072015777995800,9.168995849609376,0.5946598052978516,-0.3352024257183075,-0.21501824259757996
1698072015787589400,9.17858935546875,0.5995466113090515,-0.529451847076416,-0.2602209448814392
1698072015797182200,9.18818212890625,0.6178719997406006,-0.529451847076416,-0.29442837834358215
1698072015806774000,9.19777392578125,0.6520794630050659,-0.3596363365650177,-0.3029802441596985
1698072015816366800,9.207366943359375,0.6948387622833252,-0.06642963737249374,-0.28343313932418823
1698072015825960400,9.21696044921875,0.7412631511688232,0.27320143580436707,-0.24556060135364532
1698072015835553300,9.22655322265625,0.7889092564582825,0.5370874404907227,-0.19424942135810852
1698072015845145300,9.236145263671874,0.8341119289398193,0.6580352187156677,-0.129499614238739
1698072015854738200,9.24573828125,0.8707627654075623,0.6568135023117065,-0.05008947476744652
1698072015864331800,9.255331787109375,0.8854231238365173,0.5456393361091614,0.04031591862440109
1698072015873924400,9.26492431640625,0.8609892129898071,0.335507869720459,0.13560809195041656
1698072015883516400,9.274516357421875,0.7937960028648376,0.10216420143842697,0.2345653474330902
1698072015893109200,9.284109130859376,0.6814001202583313,-0.1372879147529602,0.33474430441856384
1698072015902702800,9.293702880859374,0.5128062963485718,-0.3449759781360626,0.41415444016456604
1698072015912295700,9.303295654296875,0.3148917555809021,-0.44637662172317505,0.45324867963790894
1698072015921887700,9.3128876953125,0.1450762301683426,-0.40606072545051575,0.43858832120895386
1698072015931480300,9.322480224609375,0.02901524491608143,-0.22280654311180115,0.3811686933040619
1698072015941074200,9.33207421875,-0.033291175961494446,0.06795676052570343,0.29565006494522095
1698072015950666800,9.341666748046874,-0.04428642615675926,0.41858309507369995,0.18814095854759216
1698072015960258800,9.3512587890625,-0.01252236869186163,0.7777612805366516,0.07574506103992462
1698072015969851600,9.3608515625,0.037567105144262314,1.0856282711029053,-0.028098974376916885
1698072015979445200,9.3704453125,0.07666133344173431,1.2896512746810913,-0.10873081535100937
1698072015989038000,9.3800380859375,0.09009996801614761,1.3788349628448486,-0.1588202863931656
1698072015998630000,9.3896298828125,0.08765657991170883,1.3739482164382935,-0.18814095854759216
1698072016008222700,9.39922265625,0.09009996801614761,1.2737692594528198,-0.20524467527866364
1698072016017816300,9.40881640625,0.1047603040933609,1.097845196723938,-0.21379654109477997
1698072016027409200,9.4184091796875,0.13530266284942627,0.8803836107254028,-0.20157960057258606
1698072016037001200,9.428001220703125,0.17439688742160797,0.6372663974761963,-0.15149012207984924
1698072016046594000,9.437593994140625,0.2208212912082672,0.3978142738342285,-0.05008947476744652
1698072016056187600,9.447187744140624,0.2599155008792877,0.19623468816280365,0.09895725548267365
1698072016065780200,9.4567802734375,0.2733541429042816,0.04963133856654167,0.26755109429359436
1698072016075372300,9.466372314453125,0.25625041127204895,-0.06398624926805496,0.4178195297718048
1698072016084965000,9.475965087890625,0.21959958970546722,-0.15805672109127045,0.53143709897995
1698072016094558700,9.485558837890625,0.17806197702884674,-0.21791976690292358,0.5961869359016418
1698072016104151600,9.495151611328126,0.13652436435222626,-0.23502348363399506,0.6218425035476685
1698072016113743600,9.50474365234375,0.08032641559839249,-0.21058958768844604,0.6096255779266357
1698072016123336200,9.514336181640624,0.005803049076348543,-0.1763821393251419,0.5570927262306213
1698072016132930000,9.523929931640625,-0.06994201242923737,-0.1898207813501358,0.46668729186058044
1698072016142522600,9.533522705078125,-0.13469181954860687,-0.28755635023117065,0.3396310806274414
1698072016152114700,9.54311474609375,-0.1835595965385437,-0.4756973087787628,0.19913621246814728
1698072016161707500,9.55270751953125,-0.2092151790857315,-0.6884248852729797,0.08307522535324097
1698072016171301000,9.562301025390624,-0.21776704490184784,-0.8386932611465454,0.01710372418165207
1698072016180894000,9.57189404296875,-0.20066332817077637,-0.8643488883972168,0.013438640162348747
1698072016190486000,9.581486083984375,-0.1432436853647232,-0.7091936469078064,0.07085828483104706
1698072016200078600,9.59107861328125,-0.04550812020897865,-0.4133908748626709,0.1588202863931656
1698072016209672200,9.600672119140626,0.058335911482572556,-0.10308047384023666,0.22845686972141266
1698072016219265000,9.61026513671875,0.13530266284942627,0.08872556686401367,0.24067382514476776
1698072016228857000,9.619857177734374,0.1841704547405243,0.06551336497068405,0.18814095854759216
1698072016238450000,9.629449951171875,0.19027891755104065,-0.1763821393251419,0.08551861345767975
1698072016248043500,9.63904345703125,0.1304158866405487,-0.5650337338447571,-0.042759306728839874
1698072016257636000,9.648635986328125,0.011911521665751934,-0.9535325765609741,-0.1710372269153595
1698072016267228200,9.658228271484376,-0.1175880953669548,-1.2125318050384521,-0.2736595869064331
1698072016276821000,9.667821044921874,-0.2079934924840927,-1.2675080299377441,-0.33230090141296387
1698072016286414600,9.67741455078125,-0.24586601555347443,-1.1013575792312622,-0.3298575282096863
1698072016296007400,9.68700732421875,-0.24097923934459686,-0.7641699314117432,-0.2626643180847168
1698072016305599500,9.696599609375,-0.2079934924840927,-0.33764582872390747,-0.13560809195041656
1698072016315192300,9.7061923828125,-0.1579040139913559,0.0594048947095871,0.030542362481355667
1698072016324786000,9.715785888671874,-0.12003148347139359,0.3599417507648468,0.21257483959197998
1698072016334378500,9.72537841796875,-0.1053711548447609,0.5322006940841675,0.393385648727417
1698072016343970600,9.734970458984375,-0.11025793105363846,0.5322006940841675,0.5387672781944275
1698072016353563400,9.7445634765625,-0.14080029726028442,0.42102646827697754,0.6328377723693848
1698072016363157000,9.754156982421875,-0.19211146235466003,0.2438807636499405,0.6719319820404053
1698072016372749800,9.763749755859376,-0.25319617986679077,0.017867282032966614,0.6413896083831787
1698072016382341600,9.773341552734376,-0.30084228515625,-0.2301367074251175,0.5399889945983887
1698072016391934500,9.7829345703125,-0.32038938999176025,-0.4280512034893036,0.39827242493629456
1698072016401528000,9.792528076171875,-0.3374931216239929,-0.3486410677433014,0.2870981991291046
1698072016411121000,9.802120849609375,-0.35948359966278076,-0.0065666078589856625,0.22845686972141266
1698072016420713000,9.811712890625,-0.38758260011672974,0.3990359604358673,0.16492876410484314
1698072016430305800,9.821305908203126,-0.4156815707683563,0.8388460278511047,0.08551861345767975
1698072016439899400,9.8308994140625,-0.43767204880714417,1.1894723176956177,-0.0036650835536420345
1698072016449492000,9.840491943359375,-0.44133713841438293,1.419150948524475,-0.11117420345544815
1698072016459084000,9.850083984375,-0.4022429287433624,1.4790139198303223,-0.22601348161697388
1698072016468676900,9.8596767578125,-0.31916770339012146,1.3385190963745117,-0.32374903559684753
1698072016478270500,9.8692705078125,-0.23975755274295807,1.0929584503173828,-0.3689517378807068
1698072016487863300,9.87886328125,-0.1847812980413437,0.7911999225616455,-0.3555130958557129
1698072016497455400,9.888455322265624,-0.15301723778247833,0.441795289516449,-0.3384093940258026
1698072016507048000,9.8980478515625,-0.10292776674032211,0.14858859777450562,-0.33718767762184143
1698072016516641800,9.907641845703125,-0.016187451779842377,0.04474456235766411,-0.33230090141296387
1698072016526234400,9.917234375,0.06933116167783737,0.1388150453567505,-0.26999449729919434
1698072016535826400,9.926826416015626,0.0791047215461731,0.1754658818244934,-0.1453816443681717
1698072016545419300,9.936419189453124,0.008246437646448612,-0.04321744292974472,-0.021990500390529633
1698072016555012900,9.946012939453125,-0.08215895295143127,-0.3461976945400238,0.09407047927379608
1698072016564605700,9.955605712890625,-0.1310267299413681,-0.506239652633667,0.22601348161697388
1698072016574197500,9.965197509765625,-0.145687073469162,-0.5209000110626221,0.37139514088630676
1698072016583790300,9.974790283203125,-0.15057384967803955,-0.47081053256988525,0.5118899941444397
1698072016593384000,9.984384033203124,-0.16523417830467224,-0.4378247857093811,0.6316160559654236
1698072016602976800,9.993976806640624,-0.1957765519618988,-0.4610369801521301,0.712247908115387
1698072016612568800,10.00356884765625,-0.2348707765340805,-0.5233433842658997,0.7366818189620972
1698072016622161700,10.01316162109375,-0.2739650011062622,-0.5723638534545898,0.7098045349121094
1698072016631755300,10.02275537109375,-0.30084228515625,-0.5393781065940857,0.6328377723693848
1698072016641347800,10.032347900390626,-0.30572906136512756,-0.3828485310077667,0.5155550837516785
1698072016650940000,10.04193994140625,-0.26663482189178467,-0.08842013776302338,0.37261682748794556
1698072016660532700,10.05153271484375,-0.15546062588691711,0.2829749882221222,0.2345653474330902
1698072016670126300,10.061126220703125,0.03512371703982353,0.6116108298301697,0.1185043677687645
1698072016679719200,10.07071923828125,0.25625041127204895,0.8119687438011169,0.029320668429136276
1698072016689311000,10.08031103515625,0.4468347728252411,0.8473978638648987,-0.03298575058579445
1698072016698903800,10.08990380859375,0.5738909840583801,0.7154548764228821,-0.07452336698770523
1698072016708497400,10.099497314453124,0.6313106417655945,0.43080002069473267,-0.11117420345544815
1698072016718090200,10.10909033203125,0.638640820980072,0.022754060104489326,-0.16248537600040436
1698072016727682300,10.118682373046875,0.6361974477767944,-0.3840702176094055,-0.24067382514476776
1698072016737275100,10.128275146484375,0.6325323581695557,-0.6517740488052368,-0.3384093940258026
1698072016746868700,10.13786865234375,0.6288672685623169,-0.7715001106262207,-0.4300364851951599
1698072016756461300,10.14746142578125,0.6313106417655945,-0.7360709309577942,-0.4850127100944519
1698072016766053400,10.157053466796874,0.6374191045761108,-0.5393781065940857,-0.4813476502895355
1698072016775646200,10.166646240234375,0.6423059105873108,-0.2313583940267563,-0.4178195297718048
1698072016785239800,10.17623974609375,0.6313106417655945,0.09483403712511063,-0.30786702036857605
1698072016794832600,10.18583251953125,0.6068767309188843,0.36360684037208557,-0.17592400312423706
1698072016804424700,10.1954248046875,0.5787777900695801,0.5150969624519348,-0.0390942245721817
1698072016814017300,10.205017333984374,0.5506787896156311,0.5334223508834839,0.08429691940546036
1698072016823611000,10.21461083984375,0.5164713859558105,0.4405735731124878,0.17470231652259827
1698072016833203700,10.22420361328125,0.4749337434768677,0.2670929729938507,0.21257483959197998
1698072016842795800,10.233795654296875,0.42850935459136963,0.03374931216239929,0.20157960057258606
1698072016852388600,10.243388671875,0.37597647309303284,-0.21791976690292358,0.15515519678592682
1698072016861982200,10.252982177734374,0.31000497937202454,-0.4158342778682709,0.09773556143045425
1698072016871574800,10.26257470703125,0.24036839604377747,-0.4781406819820404,0.0525328628718853
1698072016881166800,10.272166748046875,0.17317520081996918,-0.35352784395217896,0.025655584409832954
1698072016890759700,10.281759765625,0.11331216990947723,-0.06154286116361618,0.006108472589403391
1698072016900353300,10.291353271484375,0.055892523378133774,0.31473904848098755,-0.01954711228609085
1698072016909946000,10.300946044921876,-0.0015271181473508477,0.6934643387794495,-0.05986303091049194
1698072016919538200,10.3105380859375,-0.050394900143146515,1.0001096725463867,-0.11117420345544815
1698072016929130800,10.320130859375,-0.09071081876754761,1.1992459297180176,-0.16492876410484314
1698072016938724600,10.329724609375,-0.12125317752361298,1.3030898571014404,-0.20768806338310242
1698072016948317200,10.339317138671875,-0.13469181954860687,1.3128634691238403,-0.2345653474330902
1698072016957909200,10.3489091796875,-0.1298050433397293,1.232231616973877,-0.24189551174640656
1698072016967502000,10.358502197265626,-0.11392301321029663,1.0856282711029053,-0.23334364593029022
1698072016977095700,10.368095703125,-0.08460234850645065,0.9097042679786682,-0.22601348161697388
1698072016986688300,10.377688232421875,-0.04306473210453987,0.728893518447876,-0.23334364593029022
1698072016996280300,10.3872802734375,0.0021379655227065086,0.5602996349334717,-0.25655585527420044
1698072017005873200,10.396873046875,0.05100574716925621,0.4124746024608612,-0.2919849753379822
1698072017015466800,10.406466796875,0.1047603040933609,0.30007871985435486,-0.31886225938796997
1698072017025059600,10.4160595703125,0.15240639448165894,0.19501298666000366,-0.3176405727863312
1698072017034651400,10.4256513671875,0.1841704547405243,0.08628217875957489,-0.27854636311531067
1698072017044244500,10.435244384765625,0.197609081864357,0.010537114925682545,-0.20768806338310242
1698072017053837800,10.444837890625,0.19027891755104065,-0.009009997360408306,-0.11972606182098389
1698072017063430700,10.4544306640625,0.1695101112127304,0.02641914412379265,-0.03665083646774292
1698072017073022700,10.464022705078126,0.1585148572921753,0.11560284346342087,0.03298575058579445
1698072017082615600,10.473615478515624,0.1719534993171692,0.2414373755455017,0.08796200156211853
1698072017092209200,10.483209228515625,0.19150061905384064,0.49677154421806335,0.21257483959197998
1698072017101801700,10.4928017578125,0.19394400715827942,0.5896202921867371,0.34818294644355774
1698072017111393800,10.502393798828125,0.20493926107883453,0.4161396920681,0.38605546951293945
1698072017120986600,10.511986572265625,0.21349111199378967,0.18768282234668732,0.3836120665073395
1698072017130580200,10.521580322265624,0.2208212912082672,-0.11529742181301117,0.33596599102020264
1698072017140173000,10.531173095703124,0.24647687375545502,-0.3584146201610565,0.2235700935125351
1698072017149765000,10.54076513671875,0.30633988976478577,-0.4769189953804016,0.02076880633831024
1698072017159357700,10.550357666015625,0.3918585181236267,-0.4524851143360138,-0.27121618390083313
1698072017168951300,10.559951416015625,0.47982051968574524,-0.33764582872390747,-0.6193991303443909
1698072017178544000,10.569544189453126,0.532353401184082,-0.2411319613456726,-0.9578084945678711
1698072017188136200,10.57913623046875,0.5286883115768433,-0.2044811248779297,-1.2082558870315552
1698072017197729000,10.58872900390625,0.4566083252429962,-0.19348587095737457,-1.3120999336242676
1698072017207322600,10.598322509765625,0.31122666597366333,-0.3046600818634033,-1.313321590423584
1698072017216915200,10.607915283203125,0.10720369219779968,-0.6383354067802429,-1.2717839479446411
1698072017226507300,10.61750732421875,-0.11636640131473541,-1.0366077423095703,-1.1813786029815674
1698072017236100000,10.62710009765625,-0.3301629424095154,-1.349361538887024,-1.0445488691329956
1698072017245693700,10.636693603515624,-0.5036435723304749,-1.544832706451416,-0.8906152844429016
1698072017255286500,10.64628662109375,-0.6074876189231873,-1.614469289779663,-0.7293516397476196
1698072017264878300,10.65587841796875,-0.6600204706192017,-1.5228421688079834,-0.5558710098266602
1698072017274471400,10.665471435546875,-0.6820109486579895,-1.254069447517395,-0.3762819170951843
1698072017284064800,10.675064697265626,-0.6832326650619507,-0.9095515608787537,-0.21868331730365753
1698072017293657600,10.68465771484375,-0.671015739440918,-0.5833591222763062,-0.10017894953489304
1698072017303249700,10.694249755859374,-0.6453601121902466,-0.28755635023117065,-0.025655584409832954
1698072017312842500,10.703842529296875,-0.6184828281402588,-0.06032116711139679,0
1698072017322436000,10.71343603515625,-0.6062659025192261,0.055739812552928925,-0.01710372418165207
1698072017332028700,10.723028564453125,-0.6209262609481812,0.06673506647348404,-0.05864133685827255
1698072017341620700,10.732620849609376,-0.6514685750007629,-0.004123218823224306,-0.10384403169155121
1698072017351213600,10.742213623046876,-0.6917845010757446,-0.12629267573356628,-0.1441599577665329
1698072017360807200,10.75180712890625,-0.7321004271507263,-0.2790044844150543,-0.17714570462703705
1698072017370400000,10.76139990234375,-0.7577560544013977,-0.43415969610214233,-0.20524467527866364
1698072017379992000,10.770991943359375,-0.7663078904151917,-0.5748072862625122,-0.22723518311977386
1698072017389584600,10.780584716796875,-0.7638645172119141,-0.6688777208328247,-0.22845686972141266
1698072017399178200,10.79017822265625,-0.7614210844039917,-0.6713211536407471,-0.20768806338310242
1698072017408771000,10.79977099609375,-0.7626428008079529,-0.5870242118835449,-0.17714570462703705
1698072017418363100,10.809363037109375,-0.7638645172119141,-0.4634803533554077,-0.1441599577665329
1698072017427956000,10.8189560546875,-0.7553126215934753,-0.32542887330055237,-0.10873081535100937
1698072017437549600,10.828549560546875,-0.7345438003540039,-0.20081603527069092,-0.06719319522380829
1698072017447142100,10.83814208984375,-0.7076665759086609,-0.11651911586523056,-0.01832541823387146
1698072017456734200,10.847734130859376,-0.6795675754547119,-0.07375980913639069,0.029320668429136276
1698072017466327000,10.8573271484375,-0.647803544998169,-0.07009471952915192,0.0794101431965828
1698072017475920600,10.866920654296875,-0.6160394549369812,-0.0981936976313591,0.13560809195041656
1698072017485513200,10.87651318359375,-0.6001574397087097,-0.14095300436019897,0.1954711228609085
1698072017495105300,10.886105224609375,-0.5989357233047485,-0.1910424828529358,0.2504473626613617
1698072017504698000,10.895697998046876,-0.596492350101471,-0.25945737957954407,0.29565006494522095
1698072017514291700,10.905291748046874,-0.5854970812797546,-0.3498627543449402,0.3298575282096863
1698072017523884500,10.914884521484375,-0.5745018720626831,-0.44637662172317505,0.34573954343795776
1698072017533476600,10.9244765625,-0.5720584392547607,-0.506239652633667,0.3432961702346802
1698072017543069200,10.934069091796875,-0.5769452452659607,-0.5025745630264282,0.3286358118057251
1698072017552663000,10.9436630859375,-0.5903838872909546,-0.4524851143360138,0.3029802441596985
1698072017562255600,10.953255615234376,-0.6123743653297424,-0.40972578525543213,0.2651077210903168
1698072017571847700,10.96284765625,-0.6306998133659363,-0.3962871730327606,0.21257483959197998
1698072017581440500,10.9724404296875,-0.6306998133659363,-0.402395635843277,0.14049486815929413
1698072017591034000,10.9820341796875,-0.5928272604942322,-0.4146125912666321,0.05497625470161438
1698072017600626700,10.991626708984375,-0.5146388411521912,-0.40850409865379333,-0.03787253051996231
1698072017610218800,11.00121875,-0.4193466305732727,-0.3718532621860504,-0.14049486815929413
1698072017619811600,11.0108115234375,-0.33382803201675415,-0.30221667885780334,-0.2480039894580841
1698072017629405200,11.0204052734375,-0.27152159810066223,-0.20081603527069092,-0.3542914092540741
1698072017638998000,11.029998046875,-0.21532365679740906,-0.06398624926805496,-0.44958359003067017
1698072017648590000,11.039590087890625,-0.16645587980747223,0.07528692483901978,-0.5302154421806335
1698072017658182700,11.0491826171875,-0.13957859575748444,0.14248012006282806,-0.5790832042694092
1698072017667776300,11.0587763671875,-0.14202198386192322,0.07406523078680038,-0.5570927262306213
1698072017677369000,11.068369140625,-0.1579040139913559,-0.1385096162557602,-0.474017471075058
1698072017686961200,11.077961181640624,-0.10903623700141907,-0.40972578525543213,-0.35917818546295166
1698072017696554000,11.087553955078125,-0.05528167635202408,-0.6529957056045532,-0.2907632887363434
1698072017706147600,11.097147705078125,0.04611896723508835,-1.1880979537963867,-0.44958359003067017
1698072017715740200,11.106740234375,0.19027891755104065,-1.8099404573440552,-0.7550072073936462
1698072017725332200,11.116332275390626,0.328330397605896,-1.8575865030288696,-1.1398409605026245
1698072017734925000,11.125925048828124,0.4065188467502594,-1.22963547706604,-1.51734459400177
1698072017744518700,11.1355185546875,0.4553866386413574,-0.3315373361110687,-1.7288504838943481
1698072017754111500,11.145111572265625,0.5628957748413086,0.47233763337135315,-1.8278076648712158
1698072017763703300,11.154703369140625,0.7314895987510681,1.034317135810852,-1.890114188194275
1698072017773296000,11.164296142578126,0.882979691028595,1.4081556797027588,-1.912104606628418
1698072017782889700,11.1738896484375,0.957503080368042,1.5987399816513062,-1.8827840089797974
1698072017792482600,11.183482666015625,0.9733850955963135,1.5205515623092651,-1.8033738136291504
1698072017802074600,11.19307470703125,1.0014840364456177,1.2688825130462646,-1.6628789901733398
1698072017811667200,11.202667236328125,1.082115888595581,1.0098832845687866,-1.4574815034866333
1698072017821261000,11.212260986328126,1.1969552040100098,0.7765395641326904,-1.243685007095337
1698072017830853600,11.221853515625,1.2702568769454956,0.5700731873512268,-1.037218689918518
1698072017840445700,11.23144580078125,1.2641483545303345,0.4540122151374817,-0.813648521900177
1698072017850038500,11.24103857421875,1.1712995767593384,0.36849361658096313,-0.5900784730911255
1698072017859632000,11.250632080078125,1.012479305267334,0.2548760175704956,-0.3921639323234558
1698072017869224700,11.260224609375,0.823116660118103,0.1901262104511261,-0.21990501880645752
1698072017878816800,11.269816650390625,0.6215370893478394,0.2573194205760956,-0.05864133685827255
1698072017888409600,11.27940966796875,0.41140562295913696,0.4259132444858551,0.08185353130102158
1698072017898003200,11.289003173828124,0.20127417147159576,0.6018372774124146,0.1844758689403534
1698072017907596000,11.298595947265625,0.03390202298760414,0.724006712436676,0.2504473626613617
1698072017917188000,11.30818798828125,-0.05772506445646286,0.8192988634109497,0.29320669174194336
1698072017926780700,11.31778076171875,-0.07116370648145676,0.9231429100036621,0.30908870697021484
1698072017936374300,11.327374267578126,-0.02351761981844902,0.9952229261398315,0.2919849753379822
1698072017945967000,11.336967041015624,0.06688777357339859,1.0098832845687866,0.258999228477478
1698072017955559200,11.34655908203125,0.19027891755104065,0.9707890152931213,0.237008735537529
1698072017965152000,11.356152099609375,0.33199548721313477,0.8754968047142029,0.24189551174640656
1698072017974745600,11.36574560546875,0.457830011844635,0.705681324005127,0.26999449729919434
1698072017984338200,11.375338134765625,0.540905237197876,0.4747810363769531,0.30908870697021484
1698072017993930200,11.38493017578125,0.5775560736656189,0.2304421216249466,0.3689517378807068
1698072018003523000,11.394523193359374,0.5787777900695801,0.0459662564098835,0.4691306948661804
1698072018013116700,11.40411669921875,0.555565595626831,-0.033443886786699295,0.6169557571411133
1698072018022709500,11.41370947265625,0.5115845799446106,-0.051769305020570755,0.7941014170646667
1698072018032301300,11.42330126953125,0.43706122040748596,-0.0456608310341835,0.9859074950218201
1698072018041894100,11.43289404296875,0.3271087110042572,-0.028557108715176582,1.1581664085388184
1698072018051487700,11.44248779296875,0.1817270666360855,0.015423892997205257,1.2473500967025757
1698072018061080600,11.45208056640625,0.041232191026210785,0.0068720318377017975,1.336533784866333
1698072018070672400,11.46167236328125,-0.06139015033841133,-0.0725381150841713,1.4025052785873413
1698072018080265500,11.471265380859375,-0.15546062588691711,-0.2154763638973236,1.3890666961669922
1698072018089858800,11.48085888671875,-0.23364907503128052,-0.3889569938182831,1.3267602920532227
1698072018099451600,11.49045166015625,-0.3045073449611664,-0.5318952798843384,1.2302464246749878
1698072018109043700,11.500043701171874,-0.37170055508613586,-0.5760289430618286,1.1080769300460815
1698072018118636500,11.509636474609374,-0.4291202127933502,-0.47325390577316284,0.9797990322113037
1698072018128230100,11.519230224609375,-0.46454933285713196,-0.2692309319972992,0.8527427911758423
1698072018137822700,11.52882275390625,-0.47798797488212585,-0.06887302547693253,0.7207997441291809
1698072018147414800,11.538414794921875,-0.4743228852748871,0.11560284346342087,0.5803049206733704
1698072018157007600,11.548007568359376,-0.46577104926109314,0.23410721123218536,0.4324798583984375
1698072018166601200,11.557601318359374,-0.44133713841438293,0.21089501678943634,0.26999449729919434
1698072018176194000,11.567194091796875,-0.4181249439716339,0.05207473039627075,0.09284878522157669
1698072018185785900,11.576785888671875,-0.4340069890022278,-0.1507265567779541,-0.06352811306715012
1698072018195378700,11.586378662109375,-0.48898324370384216,-0.3571929335594177,-0.1575985997915268
1698072018204972300,11.59597216796875,-0.5525113344192505,-0.550373375415802,-0.19180603325366974
1698072018214565000,11.605565185546874,-0.6013791561126709,-0.6762079000473022,-0.16492876410484314
1698072018224157200,11.6151572265625,-0.6221479177474976,-0.7421793937683105,-0.08307522535324097
1698072018233749800,11.624749755859375,-0.6172611713409424,-0.7702783942222595,0.03787253051996231
1698072018243343600,11.634343505859375,-0.6001574397087097,-0.7482879161834717,0.1954711228609085
1698072018252936200,11.643936279296875,-0.5806103348731995,-0.6981984376907349,0.37139514088630676
1698072018262528300,11.6535283203125,-0.559841513633728,-0.6652126908302307,0.5326588153839111
1698072018272121000,11.66312109375,-0.531742513179779,-0.656660795211792,0.6548282504081726
1698072018281714700,11.672714599609375,-0.4938700199127197,-0.648108959197998,0.7366818189620972
1698072018291307300,11.682307373046875,-0.4450022280216217,-0.6139014959335327,0.7831062078475952
1698072018300899300,11.6918994140625,-0.40468630194664,-0.5515950918197632,0.8112051486968994
1698072018310492200,11.7014921875,-0.3961344361305237,-0.5037962794303894,0.8234221339225769
1698072018320085800,11.711085693359376,-0.42423340678215027,-0.49768781661987305,0.8124268651008606
1698072018329678600,11.7206787109375,-0.4853181540966034,-0.5418215394020081,0.7757760286331177
1698072018339270400,11.7302705078125,-0.564728319644928,-0.6126797795295715,0.7098045349121094
1698072018348863200,11.73986328125,-0.6453601121902466,-0.6872031688690186,0.6193991303443909
1698072018358456800,11.749456787109375,-0.7186617851257324,-0.7458444833755493,0.5082249045372009
1698072018368049700,11.759049560546876,-0.7797465324401855,-0.7702783942222595,0.38483378291130066
1698072018377641700,11.768641845703126,-0.8261709213256836,-0.7446228265762329,0.26632940769195557
1698072018387234600,11.778234619140624,-0.8567132949829102,-0.6603258848190308,0.16126367449760437
1698072018396828000,11.787827880859375,-0.883590579032898,-0.529451847076416,0.07085828483104706
1698072018406420700,11.797420654296875,-0.9043593406677246,-0.3755183517932892,-0.01710372418165207
1698072018416012800,11.8070126953125,-0.9190196990966797,-0.21791976690292358,-0.10017894953489304
1698072018425605600,11.816605712890626,-0.9190196990966797,-0.05543438717722893,-0.17836740612983704
1698072018435199200,11.82619921875,-0.8725953102111816,0.09972081333398819,-0.24311721324920654
1698072018444791800,11.835791748046875,-0.7907418012619019,0.2011214643716812,-0.29442837834358215
1698072018454383900,11.8453837890625,-0.6868977546691895,0.2279987335205078,-0.32374903559684753
1698072018463976700,11.854976806640625,-0.5708367824554443,0.1779092699289322,-0.31886225938796997
1698072018473570300,11.8645703125,-0.4437805414199829,0.06184828653931618,-0.2626643180847168
1698072018483163100,11.8741630859375,-0.31916770339012146,-0.09330692142248154,-0.16126367449760437
1698072018492755000,11.8837548828125,-0.2214321345090866,-0.26434415578842163,-0.026877280324697495
1698072018502347800,11.89334765625,-0.1566823273897171,-0.4133908748626709,0.130721315741539
1698072018511941400,11.90294140625,-0.12369657307863235,-0.49646610021591187,0.3139754831790924
1698072018521534200,11.9125341796875,-0.12003148347139359,-0.5282301902770996,0.497229665517807
1698072018531126300,11.922126220703126,-0.144465371966362,-0.5257867574691772,0.652384877204895
1698072018540719000,11.931718994140626,-0.18844637274742126,-0.529451847076416,0.7550072073936462
1698072018550312400,11.9413125,-0.24220094084739685,-0.5882459282875061,0.781884491443634
1698072018559905300,11.9509052734375,-0.28007346391677856,-0.6652126908302307,0.7244648337364197
