time,seconds_elapsed,z,y,x
1698072006751153400,0.1421533203125,-0.2980934679508209,0.08872556686401367,0.18615570664405823
1698072006760746500,0.15174658203125,-0.258999228477478,0.001985253533348441,0.13362284004688263
1698072006770340000,0.161340087890625,-0.21868331730365753,-0.17393875122070312,0.06765133142471313
1698072006779932700,0.1709326171875,-0.1820324808359146,-0.3730749487876892,-0.001985253533348441
1698072006789525000,0.18052490234375,-0.16126367449760437,-0.5418215394020081,-0.0716218426823616
1698072006799117800,0.190117919921875,-0.17225892841815948,-0.6432221531867981,-0.14492350816726685
1698072006808711400,0.19971142578125,-0.20035789906978607,-0.6652126908302307,-0.22189027070999146
1698072006818304300,0.20930419921875,-0.22479179501533508,-0.6200099587440491,-0.2976353168487549
1698072006827896300,0.218896240234375,-0.23334364593029022,-0.5234960913658142,-0.36360684037208557
1698072006837489200,0.2284892578125,-0.237008735537529,-0.40728241205215454,-0.4112529158592224
1698072006847082800,0.238082763671875,-0.24556060135364532,-0.2948864996433258,-0.4283566474914551
1698072006856675600,0.247675537109375,-0.25411245226860046,-0.21425467729568481,-0.4100312292575836
1698072006866267600,0.257267578125,-0.2626643180847168,-0.2044811248779297,-0.3623851239681244
1698072006875860500,0.266860595703125,-0.26877278089523315,-0.2411319613456726,-0.28541839122772217
1698072006885454000,0.2764541015625,-0.2651077210903168,-0.2924431264400482,-0.18401773273944855
1698072006895047000,0.286046875,-0.2516690790653229,-0.35230615735054016,-0.06306997686624527
1698072006904639000,0.295638916015625,-0.22967857122421265,-0.39140036702156067,0.06887302547693253
1698072006914231800,0.305231689453125,-0.2089097648859024,-0.3962871730327606,0.188599094748497
1698072006923825400,0.314825439453125,-0.1844758689403534,-0.38162681460380554,0.2814478874206543
1698072006933418200,0.324418212890625,-0.15393351018428802,-0.36452311277389526,0.3449759781360626
1698072006943010300,0.33401025390625,-0.1172826737165451,-0.35352784395217896,0.38040512800216675
1698072006952603100,0.34360302734375,-0.08307522535324097,-0.34008920192718506,0.41705596446990967
1698072006962197000,0.353197021484375,-0.042759306728839874,-0.2924431264400482,0.4903576374053955
1698072006971789800,0.362789794921875,0.009773556143045425,-0.2411319613456726,0.6187883019447327
1698072006981381600,0.372381591796875,0.061084724962711334,-0.24846212565898895,0.7837170362472534
1698072006990974700,0.381974609375,0.09407047927379608,-0.34008920192718506,0.943759024143219
1698072007000568300,0.391568359375,0.09284878522157669,-0.47829338908195496,1.0659284591674805
1698072007010161200,0.4011611328125,0.05131116881966591,-0.6114581227302551,1.1184613704681396
1698072007019753200,0.410753173828125,-0.01710372418165207,-0.6810947060585022,1.0940274000167847
1698072007029346000,0.420345947265625,-0.08918370306491852,-0.6810947060585022,1.0085088014602661
1698072007038939600,0.429939697265625,-0.13927318155765533,-0.6297835111618042,0.8802309036254883
1698072007048532500,0.439532470703125,-0.1453816443681717,-0.5027272701263428,0.7275190949440002
1698072007058124500,0.44912451171875,-0.09773556143045425,-0.28633466362953186,0.573585569858551
1698072007067717400,0.45871728515625,0,0.004428642801940441,0.45615020394325256
1698072007077311000,0.46831103515625,0.129499614238739,0.3342861533164978,0.40972578525543213
1698072007086903800,0.47790380859375,0.24433889985084534,0.617719292640686,0.40728241205215454
1698072007096495900,0.487495849609375,0.31031039357185364,0.7447755336761475,0.4011739492416382
1698072007106088700,0.497088623046875,0.33474430441856384,0.700794517993927,0.3828485310077667
1698072007115682300,0.506682373046875,0.3164188861846924,0.5297572612762451,0.35352784395217896
1698072007125275100,0.516275146484375,0.26755109429359436,0.333064466714859,0.3046600818634033
1698072007134867200,0.5258671875,0.21990501880645752,0.16935740411281586,0.23746687173843384
1698072007144460300,0.535460205078125,0.20402298867702484,0.07528692483901978,0.15316994488239288
1698072007154054000,0.545053955078125,0.21623992919921875,0.07895200699567795,0.04688252881169319
1698072007163646700,0.554646728515625,0.23823043704032898,0.1620272397994995,-0.072843536734581
1698072007173238500,0.564238525390625,0.2626643180847168,0.29885703325271606,-0.19379130005836487
1698072007182831600,0.57383154296875,0.2980934679508209,0.45767730474472046,-0.2951919436454773
1698072007192425200,0.58342529296875,0.3286358118057251,0.5835118293762207,-0.358720064163208
1698072007202018000,0.59301806640625,0.3261924386024475,0.6103891134262085,-0.39170581102371216
1698072007211610000,0.602610107421875,0.2919849753379822,0.5187620520591736,-0.39292749762535095
1698072007221203000,0.612202880859375,0.237008735537529,0.35505497455596924,-0.36605021357536316
1698072007230796500,0.621796630859375,0.17225892841815948,0.2047865390777588,-0.3232909142971039
1698072007240389400,0.631389404296875,0.10995250940322876,0.0850604772567749,-0.2915268540382385
1698072007249981400,0.6409814453125,0.05131116881966591,-0.034665580838918686,-0.2964136302471161
1698072007259574300,0.65057421875,-0.0024433890357613564,-0.14217470586299896,-0.32695600390434265
1698072007269167900,0.66016796875,-0.042759306728839874,-0.1629435122013092,-0.35627666115760803
1698072007278760700,0.6697607421875,-0.062306419014930725,-0.06765133142471313,-0.36971530318260193
1698072007288352800,0.679352783203125,-0.05131116881966591,0.1107160672545433,-0.35627666115760803
1698072007297945600,0.688945556640625,-0.014660334214568138,0.3086305856704712,-0.29885703325271606
1698072007307539200,0.698539306640625,0.03787253051996231,0.4674508571624756,-0.19379130005836487
1698072007317132000,0.708132080078125,0.0916270911693573,0.5737382769584656,-0.055739812552928925
1698072007326724000,0.71772412109375,0.13560809195041656,0.6311579346656799,0.10185877978801727
1698072007336317000,0.72731689453125,0.15271180868148804,0.617719292640686,0.25945737957954407
1698072007345910500,0.73691064453125,0.13560809195041656,0.5212054252624512,0.3962871730327606
1698072007355503400,0.74650341796875,0.09895725548267365,0.36605021357536316,0.5013529062271118
1698072007365095400,0.756095458984375,0.061084724962711334,0.22677704691886902,0.578472375869751
1698072007374688500,0.7656884765625,0.03542914241552353,0.15836215019226074,0.6297835111618042
1698072007384282000,0.7752822265625,0.023212196305394173,0.15469707548618317,0.6529957056045532
1698072007393875000,0.784875,0.03176405653357506,0.18157434463500977,0.6297835111618042
1698072007403466800,0.794466796875,0.04886778071522713,0.2560977041721344,0.5809157490730286
1698072007413059800,0.804059814453125,0.08185353130102158,0.35627666115760803,0.5320479869842529
1698072007422653400,0.8136533203125,0.129499614238739,0.43080002069473267,0.49646610021591187
1698072007432246300,0.823246337890625,0.18081079423427582,0.4515688419342041,0.4659237563610077
1698072007441838000,0.832838134765625,0.2235700935125351,0.3831539452075958,0.43049460649490356
1698072007451431200,0.84243115234375,0.25777754187583923,0.20967331528663635,0.3828485310077667
1698072007461024800,0.852024658203125,0.27121618390083313,-0.03588727489113808,0.3339807391166687
1698072007470617600,0.86161767578125,0.25777754187583923,-0.26434415578842163,0.2912214398384094
1698072007480209700,0.871209716796875,0.21623992919921875,-0.39384377002716064,0.25212720036506653
1698072007489802500,0.880802490234375,0.14904673397541046,-0.42453885078430176,0.20081603527069092
1698072007499396000,0.89039599609375,0.0647498071193695,-0.3877353072166443,0.13240113854408264
1698072007508989000,0.899989013671875,-0.024433890357613564,-0.30099499225616455,0.06520794332027435
1698072007518581000,0.9095810546875,-0.09651386737823486,-0.23380178213119507,0.0065666078589856625
1698072007528173800,0.919173828125,-0.14049486815929413,-0.23258009552955627,-0.0459662564098835
1698072007537767400,0.928767333984375,-0.16492876410484314,-0.29977330565452576,-0.09972081333398819
1698072007547360300,0.9383603515625,-0.16859383881092072,-0.40972578525543213,-0.15347537398338318
1698072007556952300,0.947952392578125,-0.16004198789596558,-0.4709632396697998,-0.18523943424224854
1698072007566545200,0.957545166015625,-0.13682979345321655,-0.40606072545051575,-0.18401773273944855
1698072007576138800,0.967138671875,-0.10628741979598999,-0.2276933193206787,-0.15591876208782196
1698072007585731600,0.976731689453125,-0.08063183724880219,-0.0713164210319519,-0.12781979143619537
1698072007595323600,0.98632373046875,-0.06963659077882767,-0.0261137206107378,-0.12048961967229843
1698072007604916500,0.99591650390625,-0.08429691940546036,-0.06642963737249374,-0.1375933438539505
1698072007614510000,1.005510009765625,-0.1172826737165451,-0.15927842259407043,-0.1754658818244934
1698072007624103200,1.015103271484375,-0.1441599577665329,-0.2667875289916992,-0.22066856920719147
1698072007633695000,1.024695068359375,-0.1575985997915268,-0.3364241421222687,-0.2548760175704956
1698072007643288000,1.0342880859375,-0.16004198789596558,-0.3730749487876892,-0.2658712565898895
1698072007652881400,1.04388134765625,-0.16004198789596558,-0.39384377002716064,-0.2536543309688568
1698072007662474500,1.053474609375,-0.16370706260204315,-0.39140036702156067,-0.22189027070999146
1698072007672066300,1.06306640625,-0.1710372269153595,-0.3706315755844116,-0.18035265803337097
1698072007681659400,1.072659423828125,-0.17714570462703705,-0.3449759781360626,-0.14858859777450562
1698072007691253000,1.0822529296875,-0.17958909273147583,-0.3242071866989136,-0.14003673195838928
1698072007700845800,1.091845703125,-0.17592400312423706,-0.2985515892505646,-0.1620272397994995
1698072007710438000,1.10143798828125,-0.16492876410484314,-0.2570139765739441,-0.20967331528663635
1698072007720030700,1.11103076171875,-0.13927318155765533,-0.20570281147956848,-0.27564483880996704
1698072007729624300,1.120624267578125,-0.10750912129878998,-0.17882554233074188,-0.3501681983470917
1698072007739217200,1.130217041015625,-0.08429691940546036,-0.1910424828529358,-0.4149180054664612
1698072007748809200,1.139809326171875,-0.08674030750989914,-0.21791976690292358,-0.45645561814308167
1698072007758402000,1.149402099609375,-0.1172826737165451,-0.25090551376342773,-0.4747810363769531
1698072007767995600,1.15899560546875,-0.17348061501979828,-0.293664813041687,-0.4747810363769531
1698072007777588500,1.16858837890625,-0.24556060135364532,-0.3229855000972748,-0.45767730474472046
1698072007787180500,1.1781806640625,-0.3249707520008087,-0.30099499225616455,-0.4259132444858551
1698072007796773400,1.1877734375,-0.40193748474121094,-0.22402822971343994,-0.39048412442207336
1698072007806367000,1.197366943359375,-0.46424391865730286,-0.11774080991744995,-0.35627666115760803
1698072007815959800,1.206959716796875,-0.5082249045372009,-0.0065666078589856625,-0.3232909142971039
1698072007825552000,1.2165517578125,-0.5363239049911499,0.10338589549064636,-0.2829749882221222
1698072007835144700,1.226144775390625,-0.5534276366233826,0.20722992718219757,-0.2292204350233078
1698072007844738300,1.23573828125,-0.5705313682556152,0.29030516743659973,-0.15714046359062195
1698072007854331100,1.2453310546875,-0.5876350402832031,0.34039464592933655,-0.06917845457792282
1698072007863923200,1.254923095703125,-0.601073682308197,0.3489464819431305,0.033443886786699295
1698072007873516000,1.26451611328125,-0.6132906675338745,0.3184041380882263,0.1385096162557602
1698072007883109600,1.274109619140625,-0.6157340407371521,0.2560977041721344,0.2276933193206787
1698072007892702500,1.283702392578125,-0.5986303091049194,0.16691401600837708,0.28877803683280945
1698072007902294500,1.29329443359375,-0.5619794726371765,0.06917845457792282,0.31687700748443604
1698072007911887400,1.302887451171875,-0.5021164417266846,-0.021226942539215088,0.31687700748443604
1698072007921481000,1.31248095703125,-0.4202629029750824,-0.08842013776302338,0.29977330565452576
1698072007931073800,1.32207373046875,-0.3286358118057251,-0.12751436233520508,0.2802261710166931
1698072007940665900,1.331665771484375,-0.2345653474330902,-0.14706148207187653,0.2790044844150543
1698072007950258700,1.3412587890625,-0.14660334587097168,-0.164165198802948,0.3046600818634033
1698072007959852500,1.3508525390625,-0.07574506103992462,-0.19959434866905212,0.35108447074890137
1698072007969445000,1.360445068359375,-0.03420744836330414,-0.27533939480781555,0.40361732244491577
1698072007979037200,1.370037109375,-0.021990500390529633,-0.37918344140052795,0.4414898455142975
1698072007988630000,1.379630126953125,-0.043981000781059265,-0.46851983666419983,0.4537068009376526
1698072007998224000,1.389223876953125,-0.09407047927379608,-0.5259394645690918,0.43049460649490356
1698072008007816400,1.39881640625,-0.15393351018428802,-0.5283828973770142,0.3730749487876892
1698072008017408500,1.408408447265625,-0.20035789906978607,-0.4611896872520447,0.2851129472255707
1698072008027001600,1.418001708984375,-0.21990501880645752,-0.293664813041687,0.1751604527235031
1698072008036595200,1.42759521484375,-0.19913621246814728,-0.0029015245381742716,0.0725381150841713
1698072008046187800,1.437187744140625,-0.12705622613430023,0.3623851239681244,0.005344913341104984
1698072008055780000,1.446780029296875,-0.026877280324697495,0.6934643387794495,-0.036192700266838074
1698072008065373000,1.456373046875,0.04153761267662048,0.8803836107254028,-0.06917845457792282
1698072008074966500,1.465966552734375,0.05008947476744652,0.8449544906616211,-0.09239064902067184
1698072008084559400,1.475559326171875,0.008551862090826035,0.6201626658439636,-0.10949437320232391
1698072008094151400,1.4851513671875,-0.08429691940546036,0.2683146595954895,-0.15591876208782196
1698072008103744300,1.494744140625,-0.20035789906978607,-0.12751436233520508,-0.2548760175704956
1698072008113337900,1.504337890625,-0.3005368411540985,-0.45019441843032837,-0.3978142738342285
1698072008122930700,1.5139306640625,-0.34696123003959656,-0.6016845703125,-0.5554128885269165
1698072008132522800,1.523522705078125,-0.32252734899520874,-0.5638120174407959,-0.6983511447906494
1698072008142115600,1.533115478515625,-0.237008735537529,-0.3755183517932892,-0.8034168481826782
1698072008151709200,1.542709228515625,-0.1185043677687645,-0.11529742181301117,-0.8498412370681763
1698072008161302000,1.552302001953125,0.0012216945178806782,0.12781979143619537,-0.8217422962188721
1698072008170894000,1.56189404296875,0.09651386737823486,0.2976353168487549,-0.724006712436676
1698072008180487000,1.57148681640625,0.16126367449760437,0.35383328795433044,-0.5810684561729431
1698072008190080500,1.58108056640625,0.1979145109653473,0.2964136302471161,-0.4234698712825775
1698072008199673300,1.59067333984375,0.20402298867702484,0.1522536724805832,-0.2829749882221222
1698072008209265400,1.600265380859375,0.17714570462703705,-0.050547610968351364,-0.1779092699289322
1698072008218858200,1.609858154296875,0.12339114397764206,-0.27533939480781555,-0.11682453751564026
1698072008228451800,1.619451904296875,0.06841489672660828,-0.48806697130203247,-0.10949437320232391
1698072008238044700,1.629044677734375,0.030542362481355667,-0.6383354067802429,-0.14370182156562805
1698072008247636700,1.63863671875,0.004886778071522713,-0.6872031688690186,-0.19501298666000366
1698072008257229600,1.6482294921875,0.0036650835536420345,-0.6090146899223328,-0.2414373755455017
1698072008266823200,1.6578232421875,0.03176405653357506,-0.4133908748626709,-0.2658712565898895
1698072008276416000,1.667416015625,0.08307522535324097,-0.1385096162557602,-0.26220619678497314
1698072008286008000,1.677008056640625,0.15149012207984924,0.1656923145055771,-0.23532891273498535
1698072008295601000,1.686600830078125,0.21501824259757996,0.42224815487861633,-0.19256959855556488
1698072008305194500,1.696194580078125,0.26632940769195557,0.5688515305519104,-0.13148486614227295
1698072008314787300,1.705787353515625,0.30664533376693726,0.5957288146018982,-0.05085303261876106
1698072008324379400,1.71537939453125,0.3396310806274414,0.5224271416664124,0.04932591691613197
1698072008333972200,1.72497216796875,0.3542914092540741,0.36971530318260193,0.15439164638519287
1698072008343565800,1.73456591796875,0.3518480062484741,0.16691401600837708,0.2582356929779053
1698072008353158700,1.74415869140625,0.342074453830719,-0.0261137206107378,0.3474193811416626
1698072008362750700,1.753750732421875,0.3298575282096863,-0.16172181069850922,0.4158342778682709
1698072008372343600,1.763343505859375,0.30908870697021484,-0.21058958768844604,0.4537068009376526
1698072008381937200,1.772937255859375,0.28098973631858826,-0.16538690030574799,0.4549284875392914
1698072008391530000,1.782530029296875,0.25289076566696167,-0.03833066672086716,0.4243861436843872
1698072008401122000,1.7921220703125,0.2345653474330902,0.1119377613067627,0.376740038394928
1698072008410715000,1.80171484375,0.22967857122421265,0.22189027070999146,0.3339807391166687
1698072008420308500,1.81130859375,0.2480039894580841,0.2560977041721344,0.3107685446739197
1698072008429901300,1.8209013671875,0.28221142292022705,0.20356485247612,0.3242071866989136
1698072008439493400,1.830493408203125,0.3151971995830536,0.08628217875957489,0.3730749487876892
1698072008449086200,1.840086181640625,0.3176405727863312,-0.04810422286391258,0.44515493512153625
1698072008458679800,1.8496796875,0.28221142292022705,-0.1763821393251419,0.5259394645690918
1698072008468272600,1.859272705078125,0.2113531529903412,-0.28755635023117065,0.6041279435157776
1698072008477864700,1.86886474609375,0.1185043677687645,-0.3755183517932892,0.6652126908302307
1698072008487457500,1.87845751953125,0.014660334214568138,-0.4330907166004181,0.6994200944900513
1698072008497051100,1.888051025390625,-0.08429691940546036,-0.45508119463920593,0.6994200944900513
1698072008506644000,1.89764404296875,-0.17592400312423706,-0.47829338908195496,0.6578825116157532
1698072008516236000,1.907236083984375,-0.2492256760597229,-0.5125008225440979,0.5821374654769897
1698072008525828900,1.916828857421875,-0.2883199155330658,-0.5063923597335815,0.48547086119651794
1698072008535422500,1.92642236328125,-0.2907632887363434,-0.399952232837677,0.3840702176094055
1698072008545015600,1.936015625,-0.27854636311531067,-0.20081603527069092,0.27411770820617676
1698072008554607400,1.945607421875,-0.26632940769195557,0.005650337319821119,0.14095300436019897
1698072008564200200,1.9552001953125,-0.261442631483078,0.12781979143619537,-0.012980503961443901
1698072008573794000,1.9647939453125,-0.25289076566696167,0.11438114941120148,-0.1889045089483261
1698072008583386600,1.97438671875,-0.22723518311977386,-0.04443913698196411,-0.3746020793914795
1698072008592978700,1.983978759765625,-0.1698155403137207,-0.3315373361110687,-0.5578562617301941
1698072008602571500,1.993571533203125,-0.08429691940546036,-0.7067502737045288,-0.7276718020439148
1698072008612165000,2.0031650390625,0.013438640162348747,-1.0573766231536865,-0.8620582222938538
1698072008621758200,2.01275830078125,0.10262233763933182,-1.2736165523529053,-0.9426900148391724
1698072008631350000,2.02235009765625,0.17958909273147583,-1.355470061302185,-0.964680552482605
1698072008640943000,2.031943115234375,0.25655585527420044,-1.3114891052246094,-0.9219212532043457
1698072008650536700,2.04153662109375,0.32252734899520874,-1.1245697736740112,-0.8156337738037109
1698072008660129300,2.05112939453125,0.3555130958557129,-0.8020424246788025,-0.649483323097229
1698072008669721300,2.060721435546875,0.34818294644355774,-0.4011739492416382,-0.44301697611808777
1698072008679314200,2.070314208984375,0.2993151545524597,-0.033443886786699295,-0.22189027070999146
1698072008688908000,2.079907958984375,0.23334364593029022,0.1913478970527649,-0.019088976085186005
1698072008698500600,2.08950048828125,0.17592400312423706,0.24998924136161804,0.14217470586299896
1698072008708092700,2.0990927734375,0.13438639044761658,0.19379130005836487,0.2533488869667053
1698072008717685800,2.108685791015625,0.10017894953489304,0.06795676052570343,0.31199023127555847
1698072008727279400,2.118279296875,0.07696675509214401,-0.10918894410133362,0.3180987238883972
1698072008736872000,2.127871826171875,0.06963659077882767,-0.30099499225616455,0.27656111121177673
1698072008746464000,2.137464111328125,0.0647498071193695,-0.45508119463920593,0.20081603527069092
1698072008756056800,2.147056884765625,0.04886778071522713,-0.5283828973770142,0.10430216789245605
1698072008765650700,2.156650634765625,0.006108472589403391,-0.5063923597335815,-0.0007635590736754239
1698072008775243300,2.1662431640625,-0.0659715011715889,-0.39262208342552185,-0.11804623156785965
1698072008784835300,2.17583544921875,-0.15515519678592682,-0.2154763638973236,-0.24021568894386292
1698072008794428400,2.185428466796875,-0.2480039894580841,-0.0016798300202935934,-0.34283801913261414
1698072008804022000,2.19502197265625,-0.33352261781692505,0.2145601063966751,-0.4100312292575836
1698072008813614800,2.20461474609375,-0.4031592011451721,0.39048412442207336,-0.43568679690361023
1698072008823206700,2.21420654296875,-0.4569137394428253,0.4869979918003082,-0.4271349310874939
1698072008832799500,2.223799560546875,-0.49234288930892944,0.5126535892486572,-0.3880407214164734
1698072008842393300,2.233393310546875,-0.5106683373451233,0.48333290219306946,-0.32573428750038147
1698072008851986000,2.24298583984375,-0.5094466209411621,0.42224815487861633,-0.24754585325717926
1698072008861578000,2.252577880859375,-0.4947862923145294,0.3477247953414917,-0.1644706279039383
1698072008871171000,2.262171142578125,-0.46424391865730286,0.2927485406398773,-0.0850604772567749
1698072008880764700,2.2717646484375,-0.4227063059806824,0.27808821201324463,-0.014202198944985867
1698072008890357500,2.281357421875,-0.3762819170951843,0.30130040645599365,0.03955236077308655
1698072008899949300,2.29094921875,-0.3249707520008087,0.333064466714859,0.07986827939748764
1698072008909542100,2.300542236328125,-0.2748812735080719,0.3574983477592468,0.10796725004911423
1698072008919136000,2.310135986328125,-0.23090025782585144,0.36849361658096313,0.13117945194244385
1698072008928728600,2.319728515625,-0.19058434665203094,0.33917292952537537,0.14828316867351532
1698072008938320600,2.329320556640625,-0.15149012207984924,0.23777230083942413,0.16660858690738678
1698072008947913700,2.338913818359375,-0.11972606182098389,0.0594048947095871,0.19470755755901337
1698072008957507300,2.34850732421875,-0.10750912129878998,-0.1519482582807541,0.2313583940267563
1698072008967100000,2.358099853515625,-0.11606097966432571,-0.3327590525150299,0.26434415578842163
1698072008976692000,2.36769189453125,-0.13438639044761658,-0.42453885078430176,0.2851129472255707
1698072008986284800,2.377284912109375,-0.15393351018428802,-0.39262208342552185,0.27289602160453796
1698072008995878700,2.386878662109375,-0.17348061501979828,-0.23502348363399506,0.21181128919124603
1698072009005471200,2.39647119140625,-0.1954711228609085,0.06184828653931618,0.10674555599689484
1698072009015063300,2.406063232421875,-0.1954711228609085,0.4869979918003082,-0.016645587980747223
1698072009024656400,2.415656494140625,-0.13560809195041656,0.9341381788253784,-0.13514995574951172
1698072009034250000,2.42525,-0.014660334214568138,1.2737692594528198,-0.2414373755455017
1698072009043842600,2.434842529296875,0.13438639044761658,1.4179291725158691,-0.32939937710762024
1698072009053434600,2.4444345703125,0.28343313932418823,1.316528558731079,-0.3843756318092346
1698072009063027500,2.45402734375,0.4214846193790436,0.9976662993431091,-0.4100312292575836
1698072009072621000,2.46362109375,0.5387672781944275,0.5322006940841675,-0.4283566474914551
1698072009082214100,2.473214111328125,0.624285876750946,0.03130592033267021,-0.46989426016807556
1698072009091806000,2.482805908203125,0.6682668924331665,-0.376740038394928,-0.548082709312439
1698072009101398800,2.492398681640625,0.6817055344581604,-0.5967977643013,-0.6580352187156677
1698072009110992600,2.50199267578125,0.6731536984443665,-0.6175665855407715,-0.7814263701438904
1698072009120585200,2.511585205078125,0.6584933400154114,-0.46729815006256104,-0.8840487003326416
1698072009130177300,2.52117724609375,0.6499415040016174,-0.20814619958400726,-0.9402466416358948
1698072009139770000,2.53077001953125,0.652384877204895,0.0850604772567749,-0.9353598356246948
1698072009149363700,2.54036376953125,0.6694886088371277,0.32817769050598145,-0.8681666851043701
1698072009158956500,2.54995654296875,0.6829272508621216,0.46134239435195923,-0.752105712890625
1698072009168548600,2.559548583984375,0.6670452356338501,0.4674508571624756,-0.6091674566268921
1698072009178141400,2.569141357421875,0.6157340407371521,0.39292749762535095,-0.4760027229785919
1698072009187735000,2.578735107421875,0.5302154421806335,0.27320143580436707,-0.37704548239707947
1698072009197328000,2.588327880859375,0.4190412163734436,0.12171131372451782,-0.32939937710762024
1698072009206920000,2.597919921875,0.3017585575580597,-0.03833066672086716,-0.3306210935115814
1698072009216512800,2.6075126953125,0.19180603325366974,-0.14461809396743774,-0.36605021357536316
1698072009226106400,2.6171064453125,0.11606097966432571,-0.1385096162557602,-0.40758782625198364
1698072009235699200,2.62669921875,0.08429691940546036,-0.007788302376866341,-0.4405735731124878
1698072009245291300,2.636291259765625,0.07696675509214401,0.22677704691886902,-0.45523393154144287
1698072009254884000,2.645884033203125,0.08429691940546036,0.5248705148696899,-0.44668206572532654
1698072009264477700,2.655477783203125,0.08674030750989914,0.8376243114471436,-0.4149180054664612
1698072009274070500,2.665070556640625,0.09284878522157669,1.1112838983535767,-0.3623851239681244
1698072009283662600,2.67466259765625,0.11606097966432571,1.2847645282745361,-0.2915268540382385
1698072009293255400,2.68425537109375,0.1563768982887268,1.325080394744873,-0.2047865390777588
1698072009302849000,2.69384912109375,0.2101314514875412,1.2444485425949097,-0.10460758954286575
1698072009312441900,2.70344189453125,0.26877278089523315,1.0819631814956665,0.010231691412627697
1698072009322034000,2.713033935546875,0.32252734899520874,0.8754968047142029,0.13117945194244385
1698072009331626800,2.722626708984375,0.367730051279068,0.6604785919189453,0.26067906618118286
1698072009341220400,2.732220458984375,0.4056025743484497,0.46867257356643677,0.39262208342552185
1698072009350813200,2.741813232421875,0.4337015450000763,0.3061871826648712,0.5184566378593445
1698072009360405200,2.7514052734375,0.448361873626709,0.1754658818244934,0.6371136903762817
1698072009369998000,2.760998046875,0.4459185004234314,0.06429167091846466,0.7336275577545166
1698072009379591700,2.770591796875,0.4190412163734436,-0.0590994730591774,0.8032641410827637
1698072009389184500,2.7801845703125,0.37261682748794556,-0.188599094748497,0.8533536195755005
1698072009398776600,2.789776611328125,0.3005368411540985,-0.2912214398384094,0.8863393664360046
1698072009408369400,2.799369384765625,0.1966928243637085,-0.3755183517932892,0.8875610828399658
1698072009417963000,2.808962890625,0.06352811306715012,-0.4575245976448059,0.8362498879432678
1698072009427555800,2.818555908203125,-0.0916270911693573,-0.5112791657447815,0.7324058413505554
1698072009437148000,2.82814794921875,-0.24678228795528412,-0.4819584786891937,0.5955760478973389
1698072009446740700,2.83774072265625,-0.3897205591201782,-0.3608580231666565,0.45859357714653015
1698072009456334300,2.847334228515625,-0.5192201733589172,-0.17882554233074188,0.3449759781360626
1698072009465927200,2.85692724609375,-0.6426113247871399,0.001985253533348441,0.2545706033706665
1698072009475519200,2.866519287109375,-0.7488987445831299,0.1241547018289566,0.16905197501182556
1698072009485112000,2.876112060546875,-0.8307522535324097,0.20845162868499756,0.0713164210319519
1698072009494705700,2.88570556640625,-0.8722898960113525,0.29885703325271606,-0.04107947647571564
1698072009504298500,2.895298583984375,-0.869846522808075,0.38193225860595703,-0.17424418032169342
1698072009513890600,2.904890625,-0.8441908955574036,0.41980478167533875,-0.3452814221382141
1698072009523483400,2.9144833984375,-0.8014315962791443,0.3831539452075958,-0.5554128885269165
1698072009533077000,2.924076904296875,-0.735460102558136,0.22433365881443024,-0.8217422962188721
1698072009542669800,2.933669921875,-0.6438329815864563,-0.06887302547693253,-1.1430479288101196
1698072009552262000,2.943261962890625,-0.5265503525733948,-0.4343124032020569,-1.4961175918579102
1698072009561854700,2.952854736328125,-0.3921639323234558,-0.7372926473617554,-1.8369704484939575
1698072009571448300,2.9624482421875,-0.2480039894580841,-0.9119949340820312,-2.1216251850128174
1698072009581041200,2.972041259765625,-0.09529217332601547,-0.9681929349899292,-2.3073227405548096
1698072009590633200,2.98163330078125,0.07207997888326645,-0.9132166504859924,-2.3598556518554688
1698072009600226000,2.99122607421875,0.2504473626613617,-0.731184184551239,-2.2572333812713623
1698072009609819600,3.000819580078125,0.4056025743484497,-0.4587462842464447,-2.0092294216156006
1698072009619412500,3.01041259765625,0.5082249045372009,-0.1763821393251419,-1.6610463857650757
1698072009629004300,3.02000439453125,0.5424323678016663,0.04840964451432228,-1.255443811416626
1698072009638597400,3.029597412109375,0.517998456954956,0.1498102843761444,-0.8376243114471436
1698072009648191000,3.03919091796875,0.46668729186058044,0.07040014863014221,-0.43202173709869385
1698072009657783600,3.048783447265625,0.4324798583984375,-0.12018419802188873,-0.055739812552928925
1698072009667375600,3.058375732421875,0.43614494800567627,-0.2692309319972992,0.2851129472255707
1698072009676968700,3.06796875,0.44958359003067017,-0.32665055990219116,0.5699204802513123
1698072009686562300,3.077562255859375,0.43858832120895386,-0.3352024257183075,0.7763868570327759
1698072009696155000,3.08715478515625,0.38849884271621704,-0.3205420970916748,0.8961129188537598
1698072009705747000,3.096746826171875,0.30786702036857605,-0.3046600818634033,0.9327637553215027
1698072009715340000,3.106340087890625,0.20280128717422485,-0.296108216047287,0.8936695456504822
1698072009724933600,3.11593359375,0.06963659077882767,-0.2924431264400482,0.7959339618682861
1698072009734526200,3.125526123046875,-0.08185353130102158,-0.2826695740222931,0.6700994372367859
1698072009744118300,3.1351181640625,-0.23212195932865143,-0.2411319613456726,0.550373375415802
1698072009753711000,3.144711181640625,-0.3799470067024231,-0.16172181069850922,0.4610369801521301
1698072009763304700,3.1543046875,-0.5204418897628784,-0.10063708573579788,0.40483900904655457
1698072009772897500,3.1638974609375,-0.6426113247871399,-0.07864658534526825,0.3865135908126831
1698072009782489600,3.173489501953125,-0.7440119385719299,-0.07864658534526825,0.3987305462360382
1698072009792082400,3.18308251953125,-0.8197570443153381,-0.07986827939748764,0.43415969610214233
1698072009801676000,3.192676025390625,-0.8588512539863586,-0.08108997344970703,0.4781406819820404
1698072009811268900,3.202268798828125,-0.8661814332008362,-0.0713164210319519,0.527161180973053
1698072009820861000,3.21186083984375,-0.8515210747718811,-0.04321744292974472,0.5833591222763062
1698072009830453800,3.221453857421875,-0.8283088803291321,0.001985253533348441,0.6468872427940369
1698072009840047400,3.23104736328125,-0.8002098798751831,0.058183200657367706,0.7128587365150452
1698072009849640200,3.24064013671875,-0.7769976854324341,0.10582929104566574,0.7666133046150208
1698072009859232300,3.250232177734375,-0.7598940134048462,0.13148486614227295,0.8020424246788025
1698072009868825000,3.2598251953125,-0.7464553713798523,0.15347537398338318,0.8191461563110352
1698072009878418700,3.269418701171875,-0.7379034757614136,0.1632489264011383,0.8191461563110352
1698072009888011500,3.279011474609375,-0.7366818189620972,0.13026317954063416,0.80937260389328
1698072009897603600,3.288603515625,-0.7403468489646912,0.04963133856654167,0.7898254990577698
1698072009907196400,3.298196533203125,-0.7525638341903687,-0.0859767496585846,0.7580614686012268
1698072009916790000,3.3077900390625,-0.7660024762153625,-0.30099499225616455,0.70797199010849
1698072009926382800,3.3173828125,-0.7647807598114014,-0.5405998229980469,0.6493306159973145
1698072009935975000,3.326974853515625,-0.7207997441291809,-0.6762079000473022,0.5882459282875061
1698072009945567700,3.336567626953125,-0.6316160559654236,-0.6542174220085144,0.5001311898231506
1698072009955161300,3.346161376953125,-0.517998456954956,-0.49051034450531006,0.35108447074890137
1698072009964754200,3.355754150390625,-0.3836120665073395,-0.2044811248779297,0.1238492801785469
1698072009974346200,3.36534619140625,-0.21746163070201874,0.18401773273944855,-0.15469707548618317
1698072009983939000,3.37493896484375,-0.01954711228609085,0.5981721878051758,-0.4527905285358429
1698072009993532700,3.38453271484375,0.19302773475646973,0.9402466416358948,-0.7398887276649475
1698072010003125500,3.39412548828125,0.4300364851951599,1.1723686456680298,-0.964680552482605
1698072010012717300,3.40371728515625,0.6792621612548828,1.1943590641021729,-1.1137272119522095
1698072010022310400,3.413310302734375,0.8759549856185913,0.9145910739898682,-1.2163496017456055
1698072010031904000,3.422904052734375,0.9785773158073425,0.3953709006309509,-1.288429617881775
1698072010041496600,3.43249658203125,1.012784719467163,-0.18493400514125824,-1.301868200302124
1698072010051088600,3.442088623046875,1.0237799882888794,-0.6505523324012756,-1.2432268857955933
1698072010060681500,3.451681396484375,1.031110167503357,-0.9058864712715149,-1.1149489879608154
1698072010070275000,3.461275146484375,1.0298885107040405,-0.8741224408149719,-0.9341381788253784
1698072010079868200,3.4708681640625,1.0188932418823242,-0.5467082858085632,-0.7130114436149597
1698072010089460000,3.4804599609375,0.9920159578323364,-0.03833066672086716,-0.45889899134635925
1698072010099052800,3.490052734375,0.9370396733283997,0.45889899134635925,-0.19256959855556488
1698072010108646400,3.499646484375,0.8710681796073914,0.775317907333374,0.052990999072790146
1698072010118239200,3.5092392578125,0.8160919547080994,0.8767185211181641,0.27411770820617676
1698072010127831300,3.518831298828125,0.781884491443634,0.8046385645866394,0.4769189953804016
1698072010137424100,3.528424072265625,0.7550072073936462,0.6384881138801575,0.6603258848190308
1698072010147017700,3.538017822265625,0.7256865501403809,0.45523393154144287,0.8020424246788025
1698072010156610600,3.547610595703125,0.6792621612548828,0.2548760175704956,0.8826742768287659
1698072010166202600,3.55720263671875,0.5754181146621704,-0.007788302376866341,0.897334635257721
1698072010175795500,3.56679541015625,0.40071579813957214,-0.3095468580722809,0.8667922616004944
1698072010185389000,3.57638916015625,0.1832541823387146,-0.6053496599197388,0.8167027831077576
1698072010194982000,3.58598193359375,-0.05619794875383377,-0.9046648144721985,0.7348492741584778
1698072010204574000,3.595573974609375,-0.27976804971694946,-1.183211088180542,0.6163448691368103
1698072010214166800,3.605166748046875,-0.46424391865730286,-1.434880256652832,0.47081053256988525
1698072010223760400,3.614760498046875,-0.5008947253227234,-1.5656014680862427,0.319320410490036
1698072010233353200,3.624353271484375,-0.34573954343795776,-1.4238849878311157,0.17027367651462555
1698072010242945300,3.6339453125,-0.05375456064939499,-1.0940274000167847,-0.0007635590736754239
1698072010252538000,3.6435380859375,0.28343313932418823,-0.7043069005012512,-0.20356485247612
1698072010262131700,3.653131591796875,0.5717530250549316,-0.296108216047287,-0.3868190348148346
1698072010271724500,3.662724609375,0.8050966858863831,0.06184828653931618,-0.49921491742134094
1698072010281316400,3.67231640625,0.916270911693573,0.4136963188648224,-0.5737382769584656
1698072010290909400,3.681909423828125,0.9358180165290833,0.7362236380577087,-0.5957288146018982
1698072010300503000,3.6915029296875,0.9358180165290833,1.0379822254180908,-0.5468609929084778
1698072010310096000,3.701095947265625,0.9003888368606567,1.3837217092514038,-0.4747810363769531
1698072010319687700,3.710687744140625,0.7989882230758667,1.569419264793396,-0.39170581102371216
1698072010329280800,3.72028076171875,0.6120689511299133,1.4777922630310059,-0.28908345103263855
1698072010338874400,3.729874267578125,0.33718767762184143,1.1882506608963013,-0.16813570261001587
1698072010348467000,3.739467041015625,0.05008947476744652,0.8046385645866394,-0.010537114925682545
1698072010358059000,3.74905908203125,-0.19180603325366974,0.4527905285358429,0.15316994488239288
1698072010367651800,3.75865185546875,-0.34818294644355774,0.17913095653057098,0.23624517023563385
1698072010377245400,3.768245361328125,-0.3946073353290558,0.07895200699567795,0.18249061703681946
1698072010386838300,3.77783837890625,-0.3518480062484741,0.18035265803337097,0.04077405482530594
1698072010396430300,3.787430419921875,-0.26632940769195557,0.4149180054664612,-0.1510319858789444
1698072010406023200,3.797023193359375,-0.16737215220928192,0.62627112865448,-0.3990359604358673
1698072010415616800,3.80661669921875,-0.07696675509214401,0.7459971904754639,-0.6897992491722107
1698072010425209600,3.816209716796875,-0.01588202826678753,0.8461761474609375,-0.9121476411819458
1698072010434801700,3.8258017578125,-0.06352811306715012,0.9182561635971069,-0.8840487003326416
1698072010444394500,3.83539453125,-0.16004198789596558,0.7594358325004578,-0.7191199064254761
1698072010453988000,3.844988037109375,-0.17225892841815948,0.46867257356643677,-0.43446511030197144
1698072010463581000,3.854580810546875,-0.16126367449760437,0.1754658818244934,-0.04840964451432228
1698072010473173000,3.864173095703125,-0.12094775587320328,-0.06765133142471313,0.3706315755844116
1698072010482765800,3.873765869140625,0.021990500390529633,-0.15439164638519287,0.7751652002334595
1698072010492359400,3.883359375,0.30908870697021484,-0.05543438717722893,0.9425373077392578
1698072010501952300,3.8929521484375,0.53143709897995,-0.034665580838918686,0.832584798336029
1698072010511544000,3.9025439453125,0.6853706240653992,-0.0004581354442052543,0.550373375415802
1698072010521137200,3.91213720703125,0.8050966858863831,0.12659808993339539,0.13973131775856018
1698072010530730800,3.921730712890625,0.9003888368606567,0.23288552463054657,-0.2927485406398773
1698072010540323600,3.931323486328125,0.9407047629356384,0.32695600390434265,-0.6910209655761719
1698072010549915400,3.940915283203125,0.9199360013008118,0.3990359604358673,-0.9927794933319092
1698072010559508500,3.950508544921875,0.8454126119613647,0.4906630516052246,-1.1662601232528687
1698072010569101800,3.960101806640625,0.735460102558136,0.6079457402229309,-1.2212363481521606
1698072010578694700,3.969694580078125,0.5790832042694092,0.724006712436676,-1.1625950336456299
1698072010588286700,3.97928662109375,0.3823903799057007,0.7875348329544067,-0.9940012097358704
1698072010597879600,3.988879638671875,0.1698155403137207,0.7435538172721863,-0.7569924592971802
1698072010607473200,3.99847314453125,0.004886778071522713,0.5896202921867371,-0.47355934977531433
1698072010617066000,4.00806591796875,-0.11483928561210632,0.4136963188648224,-0.18646112084388733
1698072010626658000,4.017657958984375,-0.25655585527420044,0.22677704691886902,0.06276455521583557
1698072010636251000,4.0272509765625,-0.40193748474121094,0.0007635590736754239,0.24968381226062775
1698072010645844500,4.036844482421875,-0.5241069197654724,-0.2570139765739441,0.3633013963699341
1698072010655437300,4.046437255859375,-0.6084038615226746,-0.5137225389480591,0.39262208342552185
1698072010665029400,4.056029296875,-0.6426113247871399,-0.7214106321334839,0.3608580231666565
1698072010674622200,4.065622314453125,-0.6340594291687012,-0.8448017835617065,0.30343836545944214
1698072010684215800,4.0752158203125,-0.6181774139404297,-0.8887827396392822,0.2435753494501114
1698072010693808600,4.08480859375,-0.6413896083831787,-0.9107732772827148,0.19715094566345215
1698072010703400700,4.094400634765625,-0.735460102558136,-0.9510892033576965,0.17027367651462555
1698072010712993500,4.10399365234375,-0.8710681796073914,-1.0304993391036987,0.14095300436019897
1698072010722587100,4.113587158203125,-1.0042328834533691,-1.136786699295044,0.09575030952692032
1698072010732180000,4.123179931640625,-1.1190721988677979,-1.2516260147094727,0.050547610968351364
1698072010741771800,4.132771728515625,-1.2157387733459473,-1.3469182252883911,0.034665580838918686
1698072010751364900,4.14236474609375,-1.291483759880066,-1.388455867767334,0.04932591691613197
1698072010760958500,4.15195849609375,-1.3464601039886475,-1.365243673324585,0.08231166750192642
1698072010770551000,4.161551025390625,-1.3696722984313965,-1.2748382091522217,0.13362284004688263
1698072010780143000,4.17114306640625,-1.3427950143814087,-1.1221264600753784,0.22036315500736237
1698072010789736000,4.18073583984375,-1.2731584310531616,-0.9327637553215027,0.34008920192718506
1698072010799329500,4.19032958984375,-1.1913049221038818,-0.70797199010849,0.4659237563610077
1698072010808922400,4.19992236328125,-1.1251806020736694,-0.4819584786891937,0.5564818382263184
1698072010818514400,4.209514404296875,-1.0873081684112549,-0.2790044844150543,0.5870242118835449
1698072010828107300,4.219107177734375,-1.0665392875671387,-0.06765133142471313,0.5601469278335571
1698072010837700900,4.228700927734375,-1.012784719467163,0.0984991192817688,0.5037962794303894
1698072010847293700,4.238293701171875,-0.948034942150116,0.20845162868499756,0.4695888161659241
1698072010856885800,4.2478857421875,-0.833195686340332,0.32817769050598145,0.48424917459487915
1698072010866478600,4.257478515625,-0.6743753552436829,0.45889899134635925,0.4769189953804016
1698072010876072200,4.267072265625,-0.5277720093727112,0.4906630516052246,0.39506545662879944
1698072010885665000,4.2766650390625,-0.34818294644355774,0.23410721123218536,0.19470755755901337
1698072010895257000,4.286257080078125,-0.12339114397764206,-0.2557922899723053,-0.11682453751564026
1698072010904850000,4.295849853515625,0.0525328628718853,-0.6554391384124756,-0.4369085133075714
1698072010914443500,4.305443603515625,0.16492876410484314,-0.7519529461860657,-0.6836907863616943
1698072010924036000,4.3150361328125,0.3005368411540985,-0.6273401379585266,-0.8620582222938538
1698072010933628200,4.324628173828125,0.499673068523407,-0.41949936747550964,-1.0098832845687866
1698072010943221000,4.334220947265625,0.6914790868759155,-0.09086353331804276,-1.1283875703811646
1698072010952814600,4.343814697265625,0.8246437907218933,0.4088095426559448,-1.2114628553390503
1698072010962407400,4.353407470703125,0.916270911693573,0.7508839964866638,-1.238340139389038
1698072010971999500,4.36299951171875,0.9920159578323364,1.0074398517608643,-1.238340139389038
1698072010981592300,4.37259228515625,1.0824213027954102,1.0453124046325684,-1.2212363481521606
1698072010991186000,4.38218603515625,1.1288456916809082,0.7728744745254517,-1.1650384664535522
1698072011000778800,4.39177880859375,1.0445488691329956,0.2805316150188446,-1.075854778289795
1698072011010370800,4.401370849609375,0.8612946271896362,-0.14217470586299896,-0.9341381788253784
1698072011019963600,4.410963623046875,0.6743753552436829,-0.3205420970916748,-0.73255854845047
1698072011029557200,4.42055712890625,0.5277720093727112,-0.3229855000972748,-0.488219678401947
1698072011039150000,4.430150146484375,0.4227063059806824,-0.24968381226062775,-0.23410721123218536
1698072011048742100,4.4397421875,0.3530697226524353,-0.0713164210319519,0.010231691412627697
1698072011058335000,4.4493349609375,0.28098973631858826,0.17302247881889343,0.22524993121623993
1698072011067928600,4.458928466796875,0.18936264514923096,0.34161633253097534,0.3987305462360382
1698072011077521400,4.468521484375,0.0781884491443634,0.36605021357536316,0.5320479869842529
1698072011087113500,4.478113525390625,-0.008551862090826035,0.23655059933662415,0.6468872427940369
1698072011096706300,4.487706298828125,-0.08674030750989914,-0.016340164467692375,0.7458444833755493
1698072011106300000,4.4972998046875,-0.17836740612983704,-0.32909396290779114,0.80937260389328
1698072011115892500,4.506892578125,-0.26632940769195557,-0.6236750483512878,0.8386932611465454
1698072011125484500,4.516484619140625,-0.35795649886131287,-0.8044858574867249,0.8448017835617065
1698072011135077400,4.526077392578125,-0.4703523814678192,-0.8362498879432678,0.8264763355255127
1698072011144671000,4.5356708984375,-0.5913001298904419,-0.731184184551239,0.786160409450531
1698072011154263800,4.545263916015625,-0.6902574300765991,-0.48806697130203247,0.7385143637657166
1698072011163856000,4.55485595703125,-0.7403468489646912,-0.1507265567779541,0.6835380792617798
1698072011173448700,4.56444873046875,-0.7415685653686523,0.21333840489387512,0.6224533319473267
1698072011183042300,4.574042236328125,-0.7036960124969482,0.5346440672874451,0.5711421966552734
1698072011192635100,4.58363525390625,-0.6279509663581848,0.7679877281188965,0.5357130169868469
1698072011202227200,4.593227294921875,-0.5204418897628784,0.9084826111793518,0.5086830258369446
1698072011211820000,4.602820068359375,-0.38605546951293945,0.9683456420898438,0.5037962794303894
1698072011221413600,4.61241357421875,-0.25655585527420044,0.9781191945075989,0.5357130169868469
1698072011231006500,4.62200634765625,-0.12583453953266144,0.9781191945075989,0.5906893014907837
1698072011240598500,4.6315986328125,0.02076880633831024,1.0013313293457031,0.6517740488052368
1698072011250191400,4.64119140625,0.18691925704479218,1.1479346752166748,0.7153021693229675
1698072011259785000,4.650784912109375,0.3762819170951843,1.3873867988586426,0.7702783942222595
1698072011269377500,4.66037744140625,0.5644228458404541,1.6708199977874756,0.7922688722610474
1698072011278969600,4.669969482421875,0.7256865501403809,1.986017107963562,0.7568397521972656
1698072011288562400,4.6795625,0.8490777015686035,2.2633419036865234,0.6615476012229919
1698072011298156000,4.689156005859375,0.9089407324790955,2.461256265640259,0.5344913601875305
1698072011307748900,4.698748779296875,0.8759549856185913,2.424605369567871,0.4500417113304138
1698072011317341000,4.7083408203125,0.7464553713798523,2.016559600830078,0.4500417113304138
1698072011326933800,4.717933837890625,0.5656445622444153,1.310420036315918,0.5381564497947693
1698072011336527400,4.72752734375,0.4043808877468109,0.5248705148696899,0.6908682584762573
1698072011346120200,4.7371201171875,0.261442631483078,-0.1776038408279419,0.8582404255867004
1698072011355712300,4.746712158203125,0.14904673397541046,-0.7653915882110596,0.9877400398254395
1698072011365305000,4.75630517578125,0.10628741979598999,-1.1966497898101807,1.0512681007385254
1698072011374898700,4.765898681640625,0.12583453953266144,-1.4214415550231934,1.0366077423095703
1698072011384491500,4.775491455078125,0.17836740612983704,-1.489856481552124,0.9462023973464966
1698072011394083600,4.78508349609375,0.2357870489358902,-1.4703093767166138,0.7837170362472534
1698072011403676400,4.794676513671875,0.2761029601097107,-1.3456965684890747,0.573585569858551
1698072011413270000,4.80427001953125,0.2883199155330658,-1.1147962808609009,0.32909396290779114
1698072011422862600,4.813862548828125,0.26877278089523315,-0.7751652002334595,0.06887302547693253
1698072011432454700,4.82345458984375,0.237008735537529,-0.4367557764053345,-0.19989976286888123
1698072011442047500,4.833047607421875,0.1954711228609085,-0.2411319613456726,-0.4894413650035858
1698072011451641000,4.84264111328125,0.13316470384597778,-0.25212720036506653,-0.7924215793609619
1698072011461234000,4.85223388671875,0.05864133685827255,-0.4109475016593933,-1.08074152469635
1698072011470826000,4.861825927734375,0.0036650835536420345,-0.5845808386802673,-1.3238587379455566
1698072011480418800,4.871418701171875,0.01954711228609085,-0.6810947060585022,-1.5046695470809937
1698072011490012400,4.881012451171875,0.10628741979598999,-0.6371136903762817,-1.5889664888381958
1698072011499605200,4.890605224609375,0.21868331730365753,-0.4428642690181732,-1.5498721599578857
1698072011509197300,4.900197265625,0.32374903559684753,-0.11285403370857239,-1.3849434852600098
1698072011518789600,4.90978955078125,0.4043808877468109,0.2793098986148834,-1.1051753759384155
1698072011528383200,4.91938330078125,0.4605788290500641,0.6091674566268921,-0.7459971904754639
1698072011537976000,4.92897607421875,0.499673068523407,0.8046385645866394,-0.358720064163208
1698072011547568000,4.938568115234375,0.5216635465621948,0.8486195802688599,0.011453386396169662
1698072011557161000,4.948160888671875,0.5412106513977051,0.7435538172721863,0.33031564950942993
1698072011566754600,4.957754638671875,0.5448757410049438,0.5187620520591736,0.578472375869751
1698072011576347100,4.96734716796875,0.5204418897628784,0.22189027070999146,0.7605048418045044
1698072011585939200,4.976939208984375,0.4556920528411865,-0.0859767496585846,0.8887827396392822
1698072011595532000,4.986531982421875,0.36284327507019043,-0.36696648597717285,0.9730796813964844
1698072011605125600,4.996125732421875,0.2516690790653229,-0.5809157490730286,1.0146173238754272
1698072011614718500,5.005718505859375,0.08429691940546036,-0.7409577369689941,1.0256125926971436
1698072011624310500,5.015310546875,-0.12705622613430023,-0.7495095729827881,1.0439379215240479
1698072011633903400,5.0249033203125,-0.30908870697021484,-0.5222744345664978,1.0695935487747192
1698072011643497000,5.0344970703125,-0.474017471075058,-0.31443363428115845,1.0622633695602417
1698072011653089800,5.04408984375,-0.6438329815864563,-0.19837264716625214,1.0158389806747437
1698072011662681900,5.053681884765625,-0.8246437907218933,-0.012675080448389053,0.9743013978004456
1698072011672274700,5.063274658203125,-0.9956810474395752,0.20722992718219757,0.9449806809425354
1698072011681868300,5.072868408203125,-1.1251806020736694,0.3501681983470917,0.9058864712715149
1698072011691461000,5.082461181640625,-1.1998567581176758,0.40636613965034485,0.8533536195755005
1698072011701053000,5.092052978515625,-1.2377293109893799,0.4100312292575836,0.7971556782722473
1698072011710646000,5.10164599609375,-1.2401726245880127,0.3953709006309509,0.7519529461860657
1698072011720239600,5.111239501953125,-1.196191668510437,0.3623851239681244,0.731184184551239
1698072011729832200,5.120832275390625,-1.0946383476257324,0.33917292952537537,0.7470661997795105
1698072011739424300,5.13042431640625,-0.9370396733283997,0.35627666115760803,0.7995990514755249
1698072011749017000,5.14001708984375,-0.7721109390258789,0.36482852697372437,0.8496885299682617
1698072011758610700,5.149610595703125,-0.6230642199516296,0.3171824514865875,0.8777875304222107
1698072011768203500,5.15920361328125,-0.46546560525894165,0.17424418032169342,0.8814526200294495
1698072011777795600,5.168795654296875,-0.30664533376693726,-0.012675080448389053,0.869235634803772
1698072011787388400,5.178388427734375,-0.16492876410484314,-0.17393875122070312,0.8557969927787781
1698072011796982000,5.18798193359375,-0.05986303091049194,-0.3339807391166687,0.8411366939544678
1698072011806574800,5.197574951171875,-0.004886778071522713,-0.4709632396697998,0.8313631415367126
1698072011816167000,5.2071669921875,0.030542362481355667,-0.5650337338447571,0.8276980519294739
1698072011825759700,5.216759765625,0.0647498071193695,-0.6517740488052368,0.8032641410827637
1698072011835353300,5.226353271484375,0.08429691940546036,-0.7421793937683105,0.7250757217407227
1698072011844946200,5.2359462890625,0.06841489672660828,-0.8533536195755005,0.5674771070480347
1698072011854538000,5.2455380859375,0.01832541823387146,-0.9266552925109863,0.32909396290779114
1698072011864131000,5.255131103515625,-0.03176405653357506,-0.8411366939544678,0.03955236077308655
1698072011873724400,5.264724365234375,-0.045202698558568954,-0.5601469278335571,-0.28541839122772217
1698072011883317200,5.274317138671875,-0.03176405653357506,-0.1629435122013092,-0.6311579346656799
1698072011892909300,5.283909423828125,-0.007330167107284069,0.2573194205760956,-0.9500201940536499
1698072011902502100,5.293502197265625,0.014660334214568138,0.5786250829696655,-1.2163496017456055
1698072011912095700,5.303095703125,0.03176405653357506,0.6739172339439392,-1.4374762773513794
1698072011921688600,5.3126884765625,0.047646086663007736,0.5383091568946838,-1.615843653678894
1698072011931280600,5.32228076171875,0.06963659077882767,0.2951919436454773,-1.7441216707229614
1698072011940873500,5.33187353515625,0.10017894953489304,0.05207473039627075,-1.8284186124801636
1698072011950467000,5.341467041015625,0.1319430023431778,-0.1360662281513214,-1.869956135749817
1698072011960060000,5.351059814453125,0.1441599577665329,-0.2276933193206787,-1.8687344789505005
1698072011969651700,5.360651611328125,0.13560809195041656,-0.22158484160900116,-1.8467439413070679
1698072011979244800,5.370244873046875,0.11972606182098389,-0.16660858690738678,-1.82964026927948
1698072011988838400,5.37983837890625,0.10995250940322876,-0.1250709742307663,-1.8357486724853516
1698072011998431000,5.389430908203125,0.12827792763710022,-0.14583978056907654,-1.8589608669281006
1698072012008023000,5.39902294921875,0.18936264514923096,-0.21425467729568481,-1.8589608669281006
1698072012017616000,5.408615966796875,0.26999449729919434,-0.2973299026489258,-1.7795507907867432
1698072012027209500,5.41820947265625,0.3665083646774292,-0.34375429153442383,-1.5950748920440674
1698072012036802300,5.42780224609375,0.474017471075058,-0.3315373361110687,-1.316528558731079
1698072012046394400,5.437394287109375,0.5509842038154602,-0.2802261710166931,-0.9683456420898438
1698072012055987200,5.4469873046875,0.5644228458404541,-0.23380178213119507,-0.5920637249946594
1698072012065580800,5.456580810546875,0.5131117105484009,-0.22280654311180115,-0.23655059933662415
1698072012075173600,5.466173583984375,0.43858832120895386,-0.19592925906181335,0.05543438717722893
1698072012084765700,5.475765625,0.38605546951293945,-0.10430216789245605,0.26312246918678284
1698072012094358500,5.485358642578125,0.37139514088630676,0.06795676052570343,0.39140036702156067
1698072012103952000,5.494951904296875,0.37506023049354553,0.31473904848098755,0.45981526374816895
1698072012113545000,5.504544921875,0.37139514088630676,0.5920637249946594,0.49890950322151184
1698072012123136800,5.51413671875,0.35917818546295166,0.8522846102714539,0.5332696437835693
1698072012132729600,5.5237294921875,0.3432961702346802,1.052642583847046,0.5662553906440735
1698072012142323200,5.5333232421875,0.3310792148113251,1.1589299440383911,0.5992411375045776
1698072012151916000,5.542916015625,0.32252734899520874,1.1699252128601074,0.6407787799835205
1698072012161508000,5.552508056640625,0.31031039357185364,1.099066972732544,0.6969767212867737
1698072012171101000,5.562100830078125,0.29320669174194336,0.9707890152931213,0.7678350210189819
1698072012180694500,5.571694580078125,0.28098973631858826,0.8217422962188721,0.8484668135643005
1698072012190287400,5.581287353515625,0.26632940769195557,0.6592568755149841,0.9290986657142639
1698072012199879200,5.590879150390625,0.2492256760597229,0.5028799772262573,0.9999569654464722
1698072012209472300,5.60047216796875,0.237008735537529,0.35138988494873047,1.050046443939209
1698072012219065900,5.61006591796875,0.22845686972141266,0.19989976286888123,1.0842539072036743
1698072012228658400,5.619658447265625,0.21501824259757996,0.03130592033267021,1.087918996810913
1698072012238250500,5.62925048828125,0.20524467527866364,-0.14583978056907654,1.064706802368164
1698072012247843300,5.63884326171875,0.18936264514923096,-0.2985515892505646,1.0304993391036987
1698072012257437000,5.64843701171875,0.1575985997915268,-0.41705596446990967,0.998735249042511
1698072012267029800,5.65802978515625,0.10750912129878998,-0.5198310017585754,0.9706363081932068
1698072012276621800,5.667621826171875,0.03787253051996231,-0.6126797795295715,0.938872218132019
1698072012286214700,5.677214599609375,-0.04153761267662048,-0.6725428104400635,0.892447829246521
1698072012295808300,5.686808349609375,-0.12339114397764206,-0.6933116316795349,0.8203678727149963
1698072012305401000,5.696401123046875,-0.20768806338310242,-0.6872031688690186,0.7055285573005676
1698072012314993200,5.7059931640625,-0.29320669174194336,-0.6700994372367859,0.5405998229980469
1698072012324586000,5.7155859375,-0.37139514088630676,-0.6395570635795593,0.33764582872390747
1698072012334179600,5.7251796875,-0.42759308218955994,-0.573585569858551,0.1250709742307663
1698072012343772200,5.734772216796875,-0.45324867963790894,-0.4563029110431671,-0.06795676052570343
1698072012353364200,5.7443642578125,-0.4471401870250702,-0.27656111121177673,-0.21333840489387512
1698072012362957000,5.75395703125,-0.4202629029750824,-0.04321744292974472,-0.30252209305763245
1698072012372550700,5.763550537109375,-0.37383851408958435,0.1510319858789444,-0.36605021357536316
1698072012382143500,5.7731435546875,-0.3017585575580597,0.2695363461971283,-0.4271349310874939
1698072012391735600,5.782735595703125,-0.23334364593029022,0.27686652541160583,-0.49799323081970215
1698072012401330000,5.792329833984375,-0.20646637678146362,0.11926792562007904,-0.5920637249946594
1698072012410923500,5.801923583984375,-0.2357870489358902,-0.17882554233074188,-0.7130114436149597
1698072012420516400,5.811516357421875,-0.32008397579193115,-0.5467082858085632,-0.8559496998786926
1698072012430108400,5.8211083984375,-0.4190412163734436,-0.9119949340820312,-1.019656777381897
1698072012439701200,5.830701171875,-0.4874561131000519,-1.1624423265457153,-1.1821421384811401
1698072012449294800,5.840294921875,-0.5131117105484009,-1.23940908908844,-1.2982031106948853
1698072012458887700,5.8498876953125,-0.4947862923145294,-1.1257915496826172,-1.3324105739593506
1698072012468479500,5.8594794921875,-0.42759308218955994,-0.8179244995117188,-1.2749909162521362
1698072012478072600,5.869072509765625,-0.33352261781692505,-0.39506545662879944,-1.1344960927963257
1698072012487666200,5.878666259765625,-0.2357870489358902,0.020310672000050545,-0.9316948056221008
1698072012497258800,5.8882587890625,-0.15271180868148804,0.32817769050598145,-0.6897992491722107
1698072012506850800,5.897850830078125,-0.0781884491443634,0.5065450668334961,-0.43568679690361023
1698072012516443600,5.907443603515625,-0.0036650835536420345,0.5822901725769043,-0.19501298666000366
1698072012526037200,5.917037353515625,0.05864133685827255,0.5370874404907227,0.017561858519911766
1698072012535630000,5.926630126953125,0.10017894953489304,0.37948885560035706,0.18615570664405823
1698072012545222100,5.93622216796875,0.11972606182098389,0.14492350816726685,0.30099499225616455
1698072012554815000,5.94581494140625,0.1185043677687645,-0.14095300436019897,0.35352784395217896
1698072012564408600,5.95540869140625,0.10017894953489304,-0.43919917941093445,0.34253260493278503
1698072012574001200,5.965001220703125,0.07330167293548584,-0.6908682584762573,0.2814478874206543
1698072012583593200,5.97459326171875,0.04153761267662048,-0.8179244995117188,0.19348587095737457
1698072012593186000,5.98418603515625,-0.008551862090826035,-0.8020424246788025,0.10063708573579788
1698072012602779600,5.993779541015625,-0.07574506103992462,-0.6786513328552246,0.01511846948415041
1698072012612372500,6.00337255859375,-0.1441599577665329,-0.5063923597335815,-0.06917845457792282
1698072012621964500,6.012964599609375,-0.20280128717422485,-0.3242071866989136,-0.1498102843761444
1698072012631557400,6.022557373046875,-0.2480039894580841,-0.16050012409687042,-0.21211670339107513
1698072012641151000,6.03215087890625,-0.28343313932418823,-0.0261137206107378,-0.23899398744106293
1698072012650743800,6.041743896484375,-0.3115321099758148,0.06062658876180649,-0.23410721123218536
1698072012660335900,6.0513359375,-0.33352261781692505,0.09605573117733002,-0.20356485247612
1698072012669928400,6.060928466796875,-0.3518480062484741,0.0850604772567749,-0.15469707548618317
1698072012679522300,6.070522216796875,-0.36162158846855164,0.04718795046210289,-0.08994726091623306
1698072012689115000,6.080114990234375,-0.36039987206459045,-0.0065666078589856625,-0.03008422814309597
1698072012698707000,6.08970703125,-0.33352261781692505,-0.07498150318861008,0.012675080448389053
1698072012708299800,6.0992998046875,-0.2895416021347046,-0.16660858690738678,0.04688252881169319
1698072012717893400,6.108893310546875,-0.24189551174640656,-0.2948864996433258,0.07620319724082947
1698072012727486200,6.118486328125,-0.18814095854759216,-0.43919917941093445,0.10308047384023666
1698072012737078300,6.128078369140625,-0.12827792763710022,-0.5405998229980469,0.1495048701763153
1698072012746671000,6.137671142578125,-0.07696675509214401,-0.6053496599197388,0.21914145350456238
1698072012756264700,6.1472646484375,-0.03787253051996231,-0.7018635272979736,0.29977330565452576
1698072012765857500,6.156857421875,0.0024433890357613564,-0.7776085734367371,0.39384377002716064
1698072012775449600,6.16644970703125,0.03665083646774292,-0.7776085734367371,0.5013529062271118
1698072012785042200,6.176042236328125,0.0390942245721817,-0.7470661997795105,0.6053496599197388
1698072012794635800,6.1856357421875,0.008551862090826035,-0.7128587365150452,0.6920899152755737
1698072012804228600,6.195228515625,-0.047646086663007736,-0.6517740488052368,0.7324058413505554
1698072012813820700,6.204820556640625,-0.130721315741539,-0.5125008225440979,0.7140804529190063
1698072012823413500,6.21441357421875,-0.21746163070201874,-0.2423536479473114,0.6358919739723206
1698072012833007000,6.224007080078125,-0.2626643180847168,0.1498102843761444,0.506239652633667
1698072012842600000,6.233599853515625,-0.2504473626613617,0.5651864409446716,0.33764582872390747
1698072012852192000,6.24319189453125,-0.2211267054080963,0.8754968047142029,0.1495048701763153
1698072012861784800,6.252784912109375,-0.1820324808359146,1.0245435237884521,-0.019088976085186005
1698072012871378400,6.26237841796875,-0.13560809195041656,0.9683456420898438,-0.15836215019226074
1698072012880971000,6.271970947265625,-0.11606097966432571,0.6531484127044678,-0.28908345103263855
1698072012890563000,6.28156298828125,-0.15026842057704926,0.1119377613067627,-0.4234698712825775
1698072012900156000,6.291156005859375,-0.21257483959197998,-0.469741553068161,-0.5468609929084778
1698072012909749500,6.30074951171875,-0.2492256760597229,-0.8557969927787781,-0.6384881138801575
1698072012919342300,6.31034228515625,-0.24311721324920654,-0.9865183234214783,-0.672695517539978
1698072012928934400,6.319934326171875,-0.1979145109653473,-0.8582404255867004,-0.6287145614624023
1698072012938527200,6.32952734375,-0.129499614238739,-0.5283828973770142,-0.5163186192512512
1698072012948120800,6.339120849609375,-0.05986303091049194,-0.1250709742307663,-0.36360684037208557
1698072012957713700,6.348713623046875,-0.004886778071522713,0.19867807626724243,-0.19501298666000366
1698072012967305500,6.358305419921875,0.025655584409832954,0.3367295563220978,-0.03008422814309597
1698072012976898600,6.367898681640625,0.043981000781059265,0.3318427801132202,0.1360662281513214
1698072012986492200,6.3774921875,0.062306419014930725,0.2817533016204834,0.3083251416683197
1698072012996084700,6.387084716796875,0.07330167293548584,0.2145601063966751,0.4805840849876404
1698072013005676800,6.3966767578125,0.05864133685827255,0.12781979143619537,0.6395570635795593
1698072013015269600,6.40626953125,0.029320668429136276,0.012980503961443901,0.7531746625900269
1698072013024863200,6.41586328125,-0.004886778071522713,-0.15316994488239288,0.7934905886650085
1698072013034456000,6.4254560546875,-0.043981000781059265,-0.3352024257183075,0.7605048418045044
1698072013044048100,6.435048095703125,-0.0916270911693573,-0.45263782143592834,0.6688777208328247
1698072013053641000,6.444640869140625,-0.1441599577665329,-0.4416425824165344,0.5393781065940857
1698072013063234600,6.454234619140625,-0.1966928243637085,-0.2985515892505646,0.3962871730327606
1698072013072827100,6.4638271484375,-0.25411245226860046,-0.051769305020570755,0.2667875289916992
1698072013082419200,6.473419189453125,-0.3127537965774536,0.2658712565898895,0.15561333298683167
1698072013092012000,6.483011962890625,-0.3542914092540741,0.5871769189834595,0.07009471952915192
1698072013101605600,6.492605712890625,-0.367730051279068,0.8657232522964478,0.017561858519911766
1698072013111198500,6.502198486328125,-0.34451785683631897,1.08074152469635,0.0029015245381742716
1698072013120790500,6.51179052734375,-0.28343313932418823,1.2297883033752441,0.03588727489113808
1698072013130383400,6.52138330078125,-0.20768806338310242,1.2859861850738525,0.12018419802188873
1698072013139977000,6.53097705078125,-0.12827792763710022,1.2444485425949097,0.2423536479473114
1698072013149569800,6.54056982421875,-0.046424392610788345,1.1100621223449707,0.3901786804199219
1698072013159161900,6.550161865234375,0.03665083646774292,0.8999307155609131,0.5430431962013245
1698072013168754700,6.559754638671875,0.11483928561210632,0.6226060390472412,0.6835380792617798
1698072013178348000,6.56934814453125,0.1832541823387146,0.30252209305763245,0.8044858574867249
1698072013187940900,6.57894091796875,0.237008735537529,-0.011453386396169662,0.897334635257721
1698072013197533000,6.588532958984375,0.2773246467113495,-0.2838912606239319,0.9498674869537354
1698072013207125800,6.598125732421875,0.3151971995830536,-0.5027272701263428,0.9681929349899292
1698072013216719400,6.60771923828125,0.3396310806274414,-0.6652126908302307,0.9889616966247559
1698072013226312200,6.617312255859375,0.3310792148113251,-0.7653915882110596,1.0488247871398926
1698072013235904000,6.626904052734375,0.26877278089523315,-0.8167027831077576,1.1453386545181274
1698072013245497000,6.6364970703125,0.15026842057704926,-0.8386932611465454,1.2369656562805176
1698072013255090700,6.646090576171875,-0.007330167107284069,-0.8570187091827393,1.2699514627456665
1698072013264683300,6.655683349609375,-0.1710372269153595,-0.8729007244110107,1.1966497898101807
1698072013274275300,6.665275390625,-0.32130566239356995,-0.8667922616004944,1.0011786222457886
1698072013283868200,6.6748681640625,-0.43858832120895386,-0.8215895891189575,0.7006418108940125
1698072013293461800,6.684461669921875,-0.5118899941444397,-0.7189671993255615,0.35474956035614014
1698072013303054600,6.6940546875,-0.5412106513977051,-0.5247178077697754,0.052990999072790146
1698072013312646700,6.703646728515625,-0.5509842038154602,-0.18371231853961945,-0.12293300777673721
1698072013322239500,6.713239501953125,-0.5485408306121826,0.2157817929983139,-0.17302247881889343
1698072013331833000,6.7228330078125,-0.5338805317878723,0.4931064546108246,-0.1363716572523117
1698072013341425700,6.73242578125,-0.5057815313339233,0.5615213513374329,-0.058183200657367706
1698072013351017700,6.742017822265625,-0.4556920528411865,0.40636613965034485,0.016340164467692375
1698072013360610600,6.751610595703125,-0.3946073353290558,0.08383878320455551,0.06154286116361618
1698072013370204200,6.7612041015625,-0.32374903559684753,-0.2777827978134155,0.07986827939748764
1698072013379797000,6.770796875,-0.23212195932865143,-0.5540384650230408,0.08964183181524277
1698072013389389000,6.78038916015625,-0.12705622613430023,-0.6810947060585022,0.10308047384023666
1698072013398982000,6.78998193359375,-0.025655584409832954,-0.6859814524650574,0.12873606383800507
1698072013408575500,6.799575439453125,0.061084724962711334,-0.6285618543624878,0.16783028841018677
1698072013418168000,6.80916796875,0.12461283802986145,-0.5418215394020081,0.22036315500736237
1698072013427760000,6.818760009765625,0.16248537600040436,-0.43919917941093445,0.28633466362953186
1698072013437353000,6.82835302734375,0.1820324808359146,-0.3205420970916748,0.35597124695777893
1698072013446946600,6.837946533203125,0.18936264514923096,-0.20936790108680725,0.40972578525543213
1698072013456539400,6.847539306640625,0.18691925704479218,-0.11651911586523056,0.423164427280426
1698072013466131500,6.85713134765625,0.18569757044315338,-0.03833066672086716,0.39140036702156067
1698072013475724300,6.866724365234375,0.17836740612983704,0.01175880990922451,0.31565532088279724
1698072013485318000,6.87631787109375,0.1575985997915268,0.0325276181101799,0.21058958768844604
1698072013494910700,6.88591064453125,0.12583453953266144,0.004428642801940441,0.09086353331804276
1698072013504502800,6.895502685546875,0.08551861345767975,-0.06765133142471313,-0.020310672000050545
1698072013514095600,6.905095703125,0.04153761267662048,-0.12751436233520508,-0.09605573117733002
1698072013523689000,6.91468896484375,-0.007330167107284069,-0.14583978056907654,-0.1241547018289566
1698072013533281800,6.92428173828125,-0.0647498071193695,-0.10308047384023666,-0.10582929104566574
1698072013542873900,6.933873779296875,-0.12094775587320328,-0.011453386396169662,-0.05207473039627075
1698072013552466700,6.943466796875,-0.1820324808359146,0.07773031294345856,0.02367033064365387
1698072013562060300,6.953060302734375,-0.25411245226860046,0.10582929104566574,0.10430216789245605
1698072013571653000,6.962653076171875,-0.33352261781692505,0.08383878320455551,0.17882554233074188
1698072013581245200,6.9722451171875,-0.40193748474121094,0.06673506647348404,0.23624517023563385
1698072013590838000,6.981838134765625,-0.4422534108161926,0.07773031294345856,0.27289602160453796
1698072013600431600,6.991431640625,-0.46668729186058044,0.12659808993339539,0.296108216047287
1698072013610024200,7.001024169921875,-0.4813476502895355,0.21333840489387512,0.30343836545944214
1698072013619616300,7.0106162109375,-0.48989951610565186,0.3196258246898651,0.2973299026489258
1698072013629209000,7.020208984375,-0.497229665517807,0.4002576768398285,0.2777827978134155
1698072013638802700,7.029802734375,-0.5070032477378845,0.4124746024608612,0.2435753494501114
1698072013648395500,7.0393955078125,-0.4984513521194458,0.36849361658096313,0.19592925906181335
1698072013657987600,7.048987548828125,-0.4471401870250702,0.252432644367218,0.12629267573356628
1698072013667580200,7.058580078125,-0.35917818546295166,0.05207473039627075,0.05787777900695801
1698072013677174000,7.068174072265625,-0.2504473626613617,-0.2032594233751297,0.028557108715176582
1698072013686766600,7.0777666015625,-0.1185043677687645,-0.4330907166004181,0.04932591691613197
1698072013696358700,7.087358642578125,0.01710372418165207,-0.5748072862625122,0.11529742181301117
1698072013705951500,7.096951416015625,0.129499614238739,-0.6456655263900757,0.21303297579288483
1698072013715545000,7.106545166015625,0.20768806338310242,-0.684759795665741,0.3229855000972748
1698072013725138000,7.116137939453125,0.24678228795528412,-0.7641699314117432,0.42194274067878723
1698072013734730000,7.12572998046875,0.25655585527420044,-0.892447829246521,0.4805840849876404
1698072013744322800,7.13532275390625,0.26632940769195557,-1.0231691598892212,0.4769189953804016
1698072013753916400,7.14491650390625,0.2993151545524597,-1.0928057432174683,0.40606072545051575
1698072013763509000,7.154509033203125,0.365286648273468,-1.0024003982543945,0.2948864996433258
1698072013773101000,7.16410107421875,0.45080527663230896,-0.7360709309577942,0.17027367651462555
1698072013782694000,7.17369384765625,0.522885262966156,-0.39140036702156067,0.05421269312500954
1698072013792287500,7.18328759765625,0.5644228458404541,-0.08719844371080399,-0.022754060104489326
1698072013801880300,7.19288037109375,0.5839699506759644,0.14003673195838928,-0.058183200657367706
1698072013811472400,7.202472412109375,0.5949652194976807,0.32939937710762024,-0.06551336497068405
1698072013821065200,7.212065185546875,0.6022953987121582,0.4540122151374817,-0.05085303261876106
1698072013830658800,7.221658935546875,0.5888567566871643,0.4124746024608612,-0.03497100621461868
1698072013840251400,7.23125146484375,0.5497625470161438,0.19501298666000366,-0.05085303261876106
1698072013849843500,7.240843505859375,0.499673068523407,-0.10674555599689484,-0.11926792562007904
1698072013859436300,7.250436279296875,0.448361873626709,-0.3584146201610565,-0.23410721123218536
1698072013869030000,7.26002978515625,0.3897205591201782,-0.45385950803756714,-0.3758237659931183
1698072013878622700,7.269622802734375,0.32374903559684753,-0.3694098889827728,-0.5346440672874451
1698072013888214800,7.27921484375,0.26632940769195557,-0.12751436233520508,-0.7142331600189209
1698072013897807600,7.2888076171875,0.22967857122421265,0.1522536724805832,-0.9182561635971069
1698072013907401200,7.298401123046875,0.22723518311977386,0.36360684037208557,-1.1271659135818481
1698072013916993800,7.307993896484375,0.25655585527420044,0.48577627539634705,-1.2798776626586914
1698072013926585900,7.3175859375,0.2993151545524597,0.5468609929084778,-1.3214153051376343
1698072013936178700,7.3271787109375,0.3408527672290802,0.548082709312439,-1.246891975402832
1698072013945772300,7.336772216796875,0.3689517378807068,0.4869979918003082,-1.0831849575042725
1698072013955365000,7.346365234375,0.3640649616718292,0.37948885560035706,-0.8645015954971313
1698072013964957200,7.355957275390625,0.31886225938796997,0.2536543309688568,-0.6311579346656799
1698072013974550000,7.365550048828125,0.23945212364196777,0.12904147803783417,-0.43568679690361023
1698072013984143600,7.3751435546875,0.15149012207984924,0.021532366052269936,-0.3232909142971039
1698072013993736200,7.384736083984375,0.08185353130102158,-0.03833066672086716,-0.3110739588737488
1698072014003328300,7.394328369140625,0.03420744836330414,-0.02733541466295719,-0.36971530318260193
1698072014012921000,7.403921142578125,-0.007330167107284069,0.06551336497068405,-0.45767730474472046
1698072014022514700,7.4135146484375,-0.04886778071522713,0.24021568894386292,-0.543195903301239
1698072014032107500,7.423107421875,-0.09284878522157669,0.4515688419342041,-0.6055023670196533
1698072014041699600,7.432699462890625,-0.14171656966209412,0.6397097706794739,-0.6348230242729187
1698072014051292400,7.44229248046875,-0.18691925704479218,0.7875348329544067,-0.6250494718551636
1698072014060886000,7.451885986328125,-0.21257483959197998,0.8889354467391968,-0.5737382769584656
1698072014070478600,7.461478515625,-0.20524467527866364,0.9451334476470947,-0.48455458879470825
1698072014080070700,7.471070556640625,-0.16492876410484314,0.9585720896720886,-0.35138988494873047
1698072014089663500,7.48066357421875,-0.09284878522157669,0.9573503732681274,-0.1644706279039383
1698072014099257000,7.490257080078125,-0.021990500390529633,0.8938222527503967,0.051769305020570755
1698072014108850000,7.499849853515625,0.043981000781059265,0.7435538172721863,0.27411770820617676
1698072014118442000,7.50944189453125,0.130721315741539,0.5578562617301941,0.4940227270126343
1698072014128034800,7.519034912109375,0.21746163070201874,0.3061871826648712,0.6774296164512634
1698072014137628400,7.52862841796875,0.2907632887363434,0.020310672000050545,0.8130376935005188
1698072014147221000,7.538220947265625,0.3542914092540741,-0.2680092453956604,0.9083298444747925
1698072014156813000,7.54781298828125,0.4068242609500885,-0.5332696437835693,0.9706363081932068
1698072014166406000,7.557406005859375,0.4446968138217926,-0.7434011101722717,0.9975135922431946
1698072014175999500,7.56699951171875,0.4593571424484253,-0.8912261724472046,0.9889616966247559
1698072014185592300,7.57659228515625,0.4349232614040375,-0.9681929349899292,0.9462023973464966
1698072014195184400,7.586184326171875,0.37261682748794556,-0.9547542929649353,0.8814526200294495
1698072014204777200,7.595777099609375,0.29565006494522095,-0.8704573512077332,0.8044858574867249
1698072014214370800,7.605370849609375,0.21257483959197998,-0.7116370797157288,0.7067502737045288
1698072014223963400,7.61496337890625,0.12339114397764206,-0.5088357925415039,0.5613686442375183
1698072014233555500,7.624555419921875,0.045202698558568954,-0.3339807391166687,0.35352784395217896
1698072014243148300,7.634148193359375,-0.010995250195264816,-0.21058958768844604,0.09697200357913971
1698072014252742000,7.643741943359375,-0.04153761267662048,-0.0847550556063652,-0.17913095653057098
1698072014262334700,7.653334716796875,-0.03420744836330414,0.03497100621461868,-0.4527905285358429
1698072014271926800,7.6629267578125,0.006108472589403391,0.09483403712511063,-0.6983511447906494
1698072014281519600,7.67251953125,0.042759306728839874,0.08261708915233612,-0.9035958051681519
1698072014291113200,7.68211328125,0.062306419014930725,0.009315420873463154,-1.0697462558746338
1698072014300705800,7.691705810546875,0.0659715011715889,-0.12751436233520508,-1.2041326761245728
1698072014310297900,7.7012978515625,0.043981000781059265,-0.296108216047287,-1.3140851259231567
1698072014319890700,7.710890625,-0.007330167107284069,-0.4734066128730774,-1.3996037244796753
1698072014329484300,7.720484375,-0.0781884491443634,-0.648108959197998,-1.4484715461730957
1698072014339077000,7.7300771484375,-0.15026842057704926,-0.7849387526512146,-1.4423631429672241
1698072014348669200,7.739669189453125,-0.20280128717422485,-0.8203678727149963,-1.3507360219955444
1698072014358261800,7.74926171875,-0.22479179501533508,-0.7250757217407227,-1.1613733768463135
1698072014367855600,7.758855712890625,-0.2235700935125351,-0.5491516590118408,-0.8950439691543579
1698072014377448200,7.7684482421875,-0.21379654109477997,-0.3620797097682953,-0.5981721878051758
1698072014387040300,7.778040283203125,-0.21379654109477997,-0.2032594233751297,-0.3232909142971039
1698072014396633000,7.787633056640625,-0.1954711228609085,-0.03588727489113808,-0.10582929104566574
1698072014406226700,7.797226806640625,-0.1453816443681717,0.06795676052570343,-0.0007635590736754239
1698072014415819500,7.806819580078125,-0.12094775587320328,0.005650337319821119,-0.03130592033267021
1698072014425411600,7.81641162109375,-0.09895725548267365,-0.12629267573356628,-0.13026317954063416
1698072014435004400,7.82600439453125,-0.0794101431965828,-0.2154763638973236,-0.24021568894386292
1698072014444598000,7.835597900390625,-0.05986303091049194,-0.27533939480781555,-0.3367295563220978
1698072014454190600,7.845190673828125,-0.07085828483104706,-0.32665055990219116,-0.4161396920681
1698072014463782700,7.85478271484375,-0.0916270911693573,-0.319320410490036,-0.4540122151374817
1698072014473375500,7.86437548828125,-0.09651386737823486,-0.30099499225616455,-0.48455458879470825
1698072014482969000,7.873968994140625,-0.09284878522157669,-0.19837264716625214,-0.5676298141479492
1698072014492562000,7.88356201171875,-0.129499614238739,-0.164165198802948,-0.6910209655761719
1698072014502154000,7.893154052734375,-0.2113531529903412,-0.15561333298683167,-0.8205205798149109
1698072014511746800,7.902746826171875,-0.3408527672290802,-0.14217470586299896,-0.9292513728141785
1698072014521340200,7.912340087890625,-0.4703523814678192,-0.0981936976313591,-0.9671239256858826
1698072014530933000,7.92193310546875,-0.5448757410049438,-0.01511846948415041,-0.890157163143158
1698072014540525000,7.931525146484375,-0.5399889945983887,0.14003673195838928,-0.7313368916511536
1698072014550118000,7.941117919921875,-0.47890424728393555,0.3245126008987427,-0.548082709312439
1698072014559711500,7.95071142578125,-0.393385648727417,0.462564080953598,-0.3855973184108734
1698072014569304300,7.96030419921875,-0.29565006494522095,0.5395308136940002,-0.26220619678497314
1698072014578896400,7.969896484375,-0.18691925704479218,0.617719292640686,-0.18523943424224854
1698072014588489000,7.979489013671875,-0.0781884491443634,0.8192988634109497,-0.1522536724805832
1698072014598082600,7.98908251953125,0.01710372418165207,0.964680552482605,-0.13514995574951172
1698072014607675400,7.99867529296875,0.05864133685827255,0.7350019812583923,-0.11926792562007904
1698072014617267500,8.008267333984374,0.03298575058579445,0.26464956998825073,-0.07406523078680038
1698072014626860300,8.0178603515625,-0.03787253051996231,-0.09208522737026215,0.018783552572131157
1698072014636454000,8.027453857421875,-0.1185043677687645,-0.22402822971343994,0.16538690030574799
1698072014646046700,8.037046630859376,-0.19302773475646973,-0.1910424828529358,0.3486410677433014
1698072014655638500,8.046638427734376,-0.24678228795528412,-0.07742489129304886,0.5564818382263184
1698072014665231400,8.0562314453125,-0.30664533376693726,0.036192700266838074,0.7519529461860657
1698072014674825000,8.065824951171875,-0.3811686933040619,0.10460758954286575,0.9107732772827148
1698072014684417800,8.075417724609375,-0.41415444016456604,0.13392825424671173,1.01706063747406
1698072014694009900,8.085009765625,-0.3762819170951843,0.11926792562007904,1.0366077423095703
1698072014703602700,8.094602783203126,-0.3005368411540985,0.03008422814309597,0.9535325765609741
1698072014713196300,8.1041962890625,-0.237008735537529,-0.1104106456041336,0.7873821258544922
1698072014722788900,8.113788818359374,-0.19180603325366974,-0.09697200357913971,0.578472375869751
1698072014732381000,8.123380859375,-0.129499614238739,0.1779092699289322,0.3449759781360626
1698072014741973800,8.132973876953125,0.007330167107284069,0.6055023670196533,0.1360662281513214
1698072014751567400,8.1425673828125,0.23334364593029022,1.0477557182312012,-0.008093725889921188
1698072014761160200,8.15216015625,0.49234288930892944,1.3983820676803589,-0.08994726091623306
1698072014770752300,8.161752197265624,0.6963658928871155,1.4936742782592773,-0.1241547018289566
1698072014780344800,8.1713447265625,0.8234221339225769,1.2652174234390259,-0.1241547018289566
1698072014789938700,8.180938720703125,0.8869501948356628,0.807081937789917,-0.09239064902067184
1698072014799531300,8.19053125,0.8979454636573792,0.2548760175704956,-0.058183200657367706
1698072014809123300,8.200123291015625,0.8674030900001526,-0.2826695740222931,-0.04963133856654167
1698072014818716200,8.209716064453126,0.8075400590896606,-0.6603258848190308,-0.0850604772567749
1698072014828309800,8.219309814453124,0.7366818189620972,-0.7690566778182983,-0.15836215019226074
1698072014837902600,8.228902587890625,0.6646018028259277,-0.6737645268440247,-0.2426590770483017
1698072014847494700,8.23849462890625,0.605960488319397,-0.41827765107154846,-0.30374380946159363
1698072014857087500,8.24808740234375,0.5558710098266602,-0.07375980913639069,-0.34161633253097534
1698072014866681000,8.25768115234375,0.49356457591056824,0.252432644367218,-0.36482852697372437
1698072014876273700,8.267273681640624,0.4459185004234314,0.5028799772262573,-0.3746020793914795
1698072014885865700,8.27686572265625,0.4080459773540497,0.6384881138801575,-0.36971530318260193
1698072014895458600,8.28645849609375,0.3799470067024231,0.6372663974761963,-0.3574983477592468
1698072014905052200,8.29605224609375,0.34818294644355774,0.51998370885849,-0.3501681983470917
1698072014914645000,8.30564501953125,0.28098973631858826,0.3196258246898651,-0.3709369897842407
1698072014924237000,8.315237060546876,0.17348061501979828,0.06673506647348404,-0.43324342370033264
1698072014933829600,8.32482958984375,0.043981000781059265,-0.16783028841018677,-0.5358657836914062
1698072014943423200,8.33442333984375,-0.08307522535324097,-0.28877803683280945,-0.6678087711334229
1698072014953016000,8.34401611328125,-0.17714570462703705,-0.23258009552955627,-0.8107470273971558
1698072014962608000,8.353608154296875,-0.1698155403137207,-0.016340164467692375,-0.9536852836608887
1698072014972201000,8.363200927734376,-0.1050657257437706,0.26098448038101196,-1.0954018831253052
1698072014981794600,8.372794677734374,-0.05375456064939499,0.5383091568946838,-1.223679780960083
1698072014991387100,8.38238720703125,-0.012216945178806782,0.8278507590293884,-1.2969814538955688
1698072015000979200,8.391979248046875,0.028098974376916885,1.1344960927963257,-1.2957597970962524
1698072015010572000,8.401572021484375,0.06719319522380829,1.4020471572875977,-1.2285665273666382
1698072015020165600,8.41116552734375,0.11606097966432571,1.5584241151809692,-1.107618808746338
1698072015029758500,8.420758544921876,0.1954711228609085,1.5828579664230347,-0.9451334476470947
1698072015039350500,8.4303505859375,0.3054236173629761,1.5168864727020264,-0.755770742893219
1698072015048943400,8.439943359375,0.42514967918395996,1.4069339036941528,-0.5517477989196777
1698072015058537000,8.449536865234375,0.5167768001556396,1.2664390802383423,-0.3599417507648468
1698072015068129500,8.459129638671875,0.5656445622444153,1.0819631814956665,-0.2011214643716812
1698072015077721600,8.4687216796875,0.577861487865448,0.9903361201286316,-0.023975754156708717
1698072015087314400,8.478314453125,0.5766398310661316,0.7777612805366516,0.10430216789245605
1698072015096908000,8.487907958984374,0.5949652194976807,0.4503471553325653,0.17882554233074188
1698072015106500900,8.4975009765625,0.6206207871437073,0.1522536724805832,0.24968381226062775
1698072015116093000,8.507093017578125,0.629172682762146,-0.12629267573356628,0.2924431264400482
1698072015125685800,8.516685791015625,0.5986303091049194,-0.402395635843277,0.26434415578842163
1698072015135279400,8.526279296875,0.47768256068229675,-0.5967977643013,0.2044811248779297
1698072015144872000,8.535871826171874,0.29565006494522095,-0.5870242118835449,0.1763821393251419
1698072015154464000,8.545464111328124,0.09529217332601547,-0.3694098889827728,0.16905197501182556
1698072015164056800,8.555056884765625,-0.10628741979598999,-0.16905197501182556,0.13240113854408264
1698072015173650400,8.564650390625,-0.29320669174194336,-0.11651911586523056,0.052990999072790146
1698072015183243300,8.5742431640625,-0.4446968138217926,-0.22036315500736237,-0.054518118500709534
1698072015192835300,8.58383544921875,-0.554649293422699,-0.46729815006256104,-0.16691401600837708
1698072015202428000,8.593427978515624,-0.601073682308197,-0.7262973785400391,-0.26342788338661194
1698072015212021500,8.603021484375,-0.5705313682556152,-0.837471604347229,-0.3208475112915039
1698072015221614300,8.6126142578125,-0.4850127100944519,-0.7641699314117432,-0.3318427801132202
1698072015231206400,8.622206298828125,-0.3897205591201782,-0.5809157490730286,-0.3171824514865875
1698072015240799200,8.63179931640625,-0.3249707520008087,-0.37918344140052795,-0.3184041380882263
1698072015250392800,8.641392822265624,-0.3164188861846924,-0.25212720036506653,-0.36360684037208557
1698072015259985400,8.6509853515625,-0.36162158846855164,-0.2680092453956604,-0.4662291705608368
1698072015269577500,8.660577392578125,-0.43981003761291504,-0.4158342778682709,-0.6250494718551636
1698072015279170300,8.67017041015625,-0.5057815313339233,-0.6065713167190552,-0.8107470273971558
1698072015288764000,8.679763916015625,-0.517998456954956,-0.7324058413505554,-0.9732323884963989
1698072015298356700,8.689356689453126,-0.48989951610565186,-0.7653915882110596,-1.0550858974456787
1698072015307948800,8.69894873046875,-0.44958359003067017,-0.7043069005012512,-1.0221002101898193
1698072015317541600,8.708541748046875,-0.39827242493629456,-0.5442649126052856,-0.8742751479148865
1698072015327135200,8.71813525390625,-0.342074453830719,-0.2973299026489258,-0.6336013078689575
1698072015336727800,8.727727783203125,-0.3029802441596985,-0.012675080448389053,-0.32695600390434265
1698072015346320000,8.73731982421875,-0.29320669174194336,0.20722992718219757,-0.009315420873463154
1698072015355912700,8.74691259765625,-0.31886225938796997,0.30985227227211,0.2680092453956604
1698072015365506300,8.75650634765625,-0.36039987206459045,0.30252209305763245,0.4695888161659241
1698072015375099100,8.76609912109375,-0.39827242493629456,0.21822518110275269,0.5870242118835449
1698072015384691200,8.775691162109375,-0.42637139558792114,0.08750387281179428,0.6310052275657654
1698072015394284000,8.785283935546875,-0.4471401870250702,-0.06154286116361618,0.6175665855407715
1698072015403877600,8.794877685546876,-0.45324867963790894,-0.17271706461906433,0.5699204802513123
1698072015413470200,8.80447021484375,-0.448361873626709,-0.2044811248779297,0.506239652633667
1698072015423062300,8.814062255859374,-0.43858832120895386,-0.16172181069850922,0.4402681589126587
1698072015432655000,8.823655029296875,-0.43858832120895386,-0.07375980913639069,0.3755183517932892
1698072015442248700,8.833248779296875,-0.45080527663230896,0.02886253222823143,0.31565532088279724
1698072015451841500,8.842841552734376,-0.474017471075058,0.12904147803783417,0.2692309319972992
1698072015461433600,8.85243359375,-0.5045598149299622,0.2292204350233078,0.23624517023563385
1698072015471026200,8.862026123046874,-0.5338805317878723,0.30252209305763245,0.21303297579288483
1698072015480620000,8.8716201171875,-0.5509842038154602,0.3086305856704712,0.19837264716625214
1698072015490212600,8.881212646484375,-0.546097457408905,0.2536543309688568,0.19959434866905212
1698072015499804700,8.8908046875,-0.522885262966156,0.16691401600837708,0.2166980654001236
1698072015509397500,8.9003974609375,-0.474017471075058,0.09239064902067184,0.2570139765739441
1698072015518991000,8.9099912109375,-0.4031592011451721,0.0325276181101799,0.3205420970916748
1698072015528584000,8.919583984375,-0.3139754831790924,0.001985253533348441,0.399952232837677
1698072015538175700,8.92917578125,-0.22479179501533508,-0.0016798300202935934,0.48547086119651794
1698072015547768800,8.938768798828125,-0.15149012207984924,0.008093725889921188,0.5577035546302795
1698072015557362200,8.948362060546875,-0.09284878522157669,0.005650337319821119,0.6029062271118164
1698072015566955000,8.957955078125,-0.043981000781059265,-0.01511846948415041,0.6212316751480103
1698072015576547000,8.967547119140624,-0.0024433890357613564,-0.06276455521583557,0.6200099587440491
1698072015586140000,8.977139892578125,0.03420744836330414,-0.15561333298683167,0.6041279435157776
1698072015595733500,8.9867333984375,0.07330167293548584,-0.27533939480781555,0.5833591222763062
1698072015605326000,8.996326171875,0.10995250940322876,-0.3901786804199219,0.5748072862625122
1698072015614918100,9.005918212890625,0.13316470384597778,-0.4856235682964325,0.5772506594657898
1698072015624511000,9.015510986328126,0.13316470384597778,-0.5650337338447571,0.5870242118835449
1698072015634104600,9.0251044921875,0.11606097966432571,-0.6187883019447327,0.6053496599197388
1698072015643697400,9.034697509765625,0.08429691940546036,-0.6395570635795593,0.6212316751480103
1698072015653289500,9.04428955078125,0.04031591862440109,-0.6236750483512878,0.6187883019447327
1698072015662882300,9.05388232421875,-0.009773556143045425,-0.5662553906440735,0.5845808386802673
1698072015672476000,9.063475830078126,-0.05497625470161438,-0.48073679208755493,0.5074613690376282
1698072015682068500,9.073068359375,-0.07452336698770523,-0.34008920192718506,0.39506545662879944
1698072015691660500,9.08266064453125,-0.062306419014930725,-0.11285403370857239,0.26067906618118286
1698072015701253400,9.09225341796875,-0.01588202826678753,0.2047865390777588,0.12262758612632751
1698072015710847000,9.101846923828125,0.08918370306491852,0.5737382769584656,0.010231691412627697
1698072015720439800,9.111439697265626,0.24067382514476776,0.8913788795471191,-0.06429167091846466
1698072015730031600,9.121031494140626,0.38727715611457825,1.0599727630615234,-0.11560284346342087
1698072015739624700,9.130624755859374,0.4984513521194458,1.0465340614318848,-0.14370182156562805
1698072015749218300,9.14021826171875,0.5741963982582092,0.858393132686615,-0.1510319858789444
1698072015758811000,9.149810791015625,0.601073682308197,0.49921491742134094,-0.15591876208782196
1698072015768403000,9.15940283203125,0.5937435626983643,0.04474456235766411,-0.1766875684261322
1698072015777995800,9.168995849609376,0.5851916670799255,-0.3327590525150299,-0.2170034945011139
1698072015787589400,9.17858935546875,0.5900784730911255,-0.527161180973053,-0.26220619678497314
1698072015797182200,9.18818212890625,0.6084038615226746,-0.527161180973053,-0.2964136302471161
1698072015806774000,9.19777392578125,0.6426113247871399,-0.3571929335594177,-0.3049654960632324
1698072015816366800,9.207366943359375,0.6853706240653992,-0.06398624926805496,-0.28541839122772217
1698072015825960400,9.21696044921875,0.7317950129508972,0.27564483880996704,-0.24754585325717926
1698072015835553300,9.22655322265625,0.7794411182403564,0.5395308136940002,-0.19623468816280365
1698072015845145300,9.236145263671874,0.8246437907218933,0.6604785919189453,-0.13148486614227295
1698072015854738200,9.24573828125,0.8612946271896362,0.6592568755149841,-0.05207473039627075
1698072015864331800,9.255331787109375,0.8759549856185913,0.548082709312439,0.03833066672086716
1698072015873924400,9.26492431640625,0.8515210747718811,0.3379512429237366,0.13362284004688263
1698072015883516400,9.274516357421875,0.7843278646469116,0.10460758954286575,0.23258009552955627
1698072015893109200,9.284109130859376,0.6719319820404053,-0.13484452664852142,0.3327590525150299
1698072015902702800,9.293702880859374,0.5033381581306458,-0.34253260493278503,0.4121691882610321
1698072015912295700,9.303295654296875,0.3054236173629761,-0.444085955619812,0.4512633979320526
1698072015921887700,9.3128876953125,0.13560809195041656,-0.40361732244491577,0.4366030693054199
1698072015931480300,9.322480224609375,0.01954711228609085,-0.22036315500736237,0.37918344140052795
1698072015941074200,9.33207421875,-0.042759306728839874,0.07040014863014221,0.293664813041687
1698072015950666800,9.341666748046874,-0.05375456064939499,0.42102646827697754,0.18615570664405823
1698072015960258800,9.3512587890625,-0.021990500390529633,0.7802046537399292,0.07375980913639069
1698072015969851600,9.3608515625,0.028098974376916885,1.0880717039108276,-0.03008422814309597
1698072015979445200,9.3704453125,0.06719319522380829,1.2920947074890137,-0.1107160672545433
1698072015989038000,9.3800380859375,0.08063183724880219,1.381278395652771,-0.16080553829669952
1698072015998630000,9.3896298828125,0.0781884491443634,1.3763915300369263,-0.1901262104511261
1698072016008222700,9.39922265625,0.08063183724880219,1.2762126922607422,-0.20722992718219757
1698072016017816300,9.40881640625,0.09529217332601547,1.1002886295318604,-0.2157817929983139
1698072016027409200,9.4184091796875,0.12583453953266144,0.8828269839286804,-0.20356485247612
1698072016037001200,9.428001220703125,0.16492876410484314,0.6397097706794739,-0.15347537398338318
1698072016046594000,9.437593994140625,0.2113531529903412,0.4002576768398285,-0.05207473039627075
1698072016056187600,9.447187744140624,0.2504473626613617,0.19867807626724243,0.09697200357913971
1698072016065780200,9.4567802734375,0.2638860046863556,0.05207473039627075,0.2655658423900604
1698072016075372300,9.466372314453125,0.24678228795528412,-0.06154286116361618,0.4158342778682709
1698072016084965000,9.475965087890625,0.2101314514875412,-0.15561333298683167,0.5296045541763306
1698072016094558700,9.485558837890625,0.16859383881092072,-0.2154763638973236,0.5943543910980225
1698072016104151600,9.495151611328126,0.12705622613430023,-0.23258009552955627,0.6200099587440491
1698072016113743600,9.50474365234375,0.07085828483104706,-0.20814619958400726,0.6077930331230164
1698072016123336200,9.514336181640624,-0.0036650835536420345,-0.17393875122070312,0.555260181427002
1698072016132930000,9.523929931640625,-0.0794101431965828,-0.18737739324569702,0.4647020399570465
1698072016142522600,9.533522705078125,-0.1441599577665329,-0.2851129472255707,0.33764582872390747
1698072016152114700,9.54311474609375,-0.19302773475646973,-0.4734066128730774,0.19715094566345215
1698072016161707500,9.55270751953125,-0.21868331730365753,-0.6859814524650574,0.08108997344970703
1698072016171301000,9.562301025390624,-0.22723518311977386,-0.8362498879432678,0.01511846948415041
1698072016180894000,9.57189404296875,-0.2101314514875412,-0.8619054555892944,0.011453386396169662
1698072016190486000,9.581486083984375,-0.15271180868148804,-0.7067502737045288,0.06887302547693253
1698072016200078600,9.59107861328125,-0.05497625470161438,-0.4109475016593933,0.15683503448963165
1698072016209672200,9.600672119140626,0.04886778071522713,-0.10063708573579788,0.22647161781787872
1698072016219265000,9.61026513671875,0.12583453953266144,0.09116895496845245,0.23868857324123383
1698072016228857000,9.619857177734374,0.17470231652259827,0.06795676052570343,0.18615570664405823
1698072016238450000,9.629449951171875,0.18081079423427582,-0.17393875122070312,0.08353336155414581
1698072016248043500,9.63904345703125,0.12094775587320328,-0.5625903010368347,-0.04474456235766411
1698072016257636000,9.648635986328125,0.0024433890357613564,-0.9510892033576965,-0.17302247881889343
1698072016267228200,9.658228271484376,-0.12705622613430023,-1.2100883722305298,-0.27564483880996704
1698072016276821000,9.667821044921874,-0.21746163070201874,-1.2650647163391113,-0.3342861533164978
1698072016286414600,9.67741455078125,-0.25533416867256165,-1.0989142656326294,-0.3318427801132202
1698072016296007400,9.68700732421875,-0.2504473626613617,-0.7617265582084656,-0.26464956998825073
1698072016305599500,9.696599609375,-0.21746163070201874,-0.3352024257183075,-0.1375933438539505
1698072016315192300,9.7061923828125,-0.16737215220928192,0.06184828653931618,0.028557108715176582
1698072016324786000,9.715785888671874,-0.129499614238739,0.3623851239681244,0.21058958768844604
1698072016334378500,9.72537841796875,-0.11483928561210632,0.5346440672874451,0.39140036702156067
1698072016343970600,9.734970458984375,-0.11972606182098389,0.5346440672874451,0.5369347333908081
1698072016353563400,9.7445634765625,-0.15026842057704926,0.4234698712825775,0.6310052275657654
1698072016363157000,9.754156982421875,-0.20157960057258606,0.24632415175437927,0.6700994372367859
1698072016372749800,9.763749755859376,-0.2626643180847168,0.020310672000050545,0.6395570635795593
1698072016382341600,9.773341552734376,-0.31031039357185364,-0.2276933193206787,0.5381564497947693
1698072016391934500,9.7829345703125,-0.3298575282096863,-0.42576053738594055,0.3962871730327606
1698072016401528000,9.792528076171875,-0.34696123003959656,-0.3461976945400238,0.2851129472255707
1698072016411121000,9.802120849609375,-0.3689517378807068,-0.004123218823224306,0.22647161781787872
1698072016420713000,9.811712890625,-0.3970507085323334,0.4014793634414673,0.1629435122013092
1698072016430305800,9.821305908203126,-0.42514967918395996,0.8412894010543823,0.08353336155414581
1698072016439899400,9.8308994140625,-0.4471401870250702,1.19191575050354,-0.005650337319821119
1698072016449492000,9.840491943359375,-0.45080527663230896,1.421594262123108,-0.11315945535898209
1698072016459084000,9.850083984375,-0.41171106696128845,1.4814573526382446,-0.2279987335205078
1698072016468676900,9.8596767578125,-0.3286358118057251,1.3409624099731445,-0.32573428750038147
1698072016478270500,9.8692705078125,-0.2492256760597229,1.0954018831253052,-0.3709369897842407
1698072016487863300,9.87886328125,-0.19424942135810852,0.7936432957649231,-0.3574983477592468
1698072016497455400,9.888455322265624,-0.16248537600040436,0.44423866271972656,-0.34039464592933655
1698072016507048000,9.8980478515625,-0.11239589750766754,0.1510319858789444,-0.33917292952537537
1698072016516641800,9.907641845703125,-0.025655584409832954,0.04718795046210289,-0.3342861533164978
1698072016526234400,9.917234375,0.05986303091049194,0.14125843346118927,-0.27197974920272827
1698072016535826400,9.926826416015626,0.06963659077882767,0.1779092699289322,-0.14736689627170563
1698072016545419300,9.936419189453124,-0.0012216945178806782,-0.04077405482530594,-0.023975754156708717
1698072016555012900,9.946012939453125,-0.0916270911693573,-0.34375429153442383,0.09208522737026215
1698072016564605700,9.955605712890625,-0.14049486815929413,-0.503948986530304,0.22402822971343994
1698072016574197500,9.965197509765625,-0.15515519678592682,-0.518609344959259,0.3694098889827728
1698072016583790300,9.974790283203125,-0.16004198789596558,-0.46851983666419983,0.5099047422409058
1698072016593384000,9.984384033203124,-0.17470231652259827,-0.4355340898036957,0.6297835111618042
1698072016602976800,9.993976806640624,-0.20524467527866364,-0.4587462842464447,0.7104153633117676
1698072016612568800,10.00356884765625,-0.24433889985084534,-0.5210527181625366,0.7348492741584778
1698072016622161700,10.01316162109375,-0.28343313932418823,-0.5699204802513123,0.70797199010849
1698072016631755300,10.02275537109375,-0.31031039357185364,-0.5369347333908081,0.6310052275657654
1698072016641347800,10.032347900390626,-0.3151971995830536,-0.38040512800216675,0.5135698318481445
1698072016650940000,10.04193994140625,-0.2761029601097107,-0.0859767496585846,0.3706315755844116
1698072016660532700,10.05153271484375,-0.16492876410484314,0.28541839122772217,0.23258009552955627
1698072016670126300,10.061126220703125,0.025655584409832954,0.6140542030334473,0.11651911586523056
1698072016679719200,10.07071923828125,0.24678228795528412,0.8144121170043945,0.02733541466295719
1698072016689311000,10.08031103515625,0.43736663460731506,0.8498412370681763,-0.03497100621461868
1698072016698903800,10.08990380859375,0.5644228458404541,0.7178982496261597,-0.07650861889123917
1698072016708497400,10.099497314453124,0.6218425035476685,0.43324342370033264,-0.11315945535898209
1698072016718090200,10.10909033203125,0.629172682762146,0.025197450071573257,-0.1644706279039383
1698072016727682300,10.118682373046875,0.6267293095588684,-0.38162681460380554,-0.2426590770483017
1698072016737275100,10.128275146484375,0.6230642199516296,-0.6493306159973145,-0.34039464592933655
1698072016746868700,10.13786865234375,0.6193991303443909,-0.7690566778182983,-0.43202173709869385
1698072016756461300,10.14746142578125,0.6218425035476685,-0.7336275577545166,-0.4869979918003082
1698072016766053400,10.157053466796874,0.6279509663581848,-0.5369347333908081,-0.48333290219306946
1698072016775646200,10.166646240234375,0.6328377723693848,-0.2289150059223175,-0.41980478167533875
1698072016785239800,10.17623974609375,0.6218425035476685,0.09727742522954941,-0.30985227227211
1698072016794832600,10.18583251953125,0.5974085927009583,0.36605021357536316,-0.1779092699289322
1698072016804424700,10.1954248046875,0.569309651851654,0.5175403356552124,-0.04107947647571564
1698072016814017300,10.205017333984374,0.5412106513977051,0.5358657836914062,0.08231166750192642
1698072016823611000,10.21461083984375,0.5070032477378845,0.44301697611808777,0.17271706461906433
1698072016833203700,10.22420361328125,0.46546560525894165,0.2695363461971283,0.21058958768844604
1698072016842795800,10.233795654296875,0.4190412163734436,0.036192700266838074,0.19959434866905212
1698072016852388600,10.243388671875,0.3665083646774292,-0.2154763638973236,0.15316994488239288
1698072016861982200,10.252982177734374,0.3005368411540985,-0.4133908748626709,0.09575030952692032
1698072016871574800,10.26257470703125,0.23090025782585144,-0.47585001587867737,0.050547610968351364
1698072016881166800,10.272166748046875,0.16370706260204315,-0.35108447074890137,0.02367033064365387
1698072016890759700,10.281759765625,0.10384403169155121,-0.0590994730591774,0.004123218823224306
1698072016900353300,10.291353271484375,0.046424392610788345,0.3171824514865875,-0.021532366052269936
1698072016909946000,10.300946044921876,-0.010995250195264816,0.695907711982727,-0.06184828653931618
1698072016919538200,10.3105380859375,-0.05986303091049194,1.002553105354309,-0.11315945535898209
1698072016929130800,10.320130859375,-0.10017894953489304,1.2016892433166504,-0.16691401600837708
1698072016938724600,10.329724609375,-0.130721315741539,1.3055332899093628,-0.20967331528663635
1698072016948317200,10.339317138671875,-0.1441599577665329,1.3153069019317627,-0.23655059933662415
1698072016957909200,10.3489091796875,-0.13927318155765533,1.2346750497817993,-0.2438807636499405
1698072016967502000,10.358502197265626,-0.12339114397764206,1.0880717039108276,-0.23532891273498535
1698072016977095700,10.368095703125,-0.09407047927379608,0.9121476411819458,-0.2279987335205078
1698072016986688300,10.377688232421875,-0.0525328628718853,0.7313368916511536,-0.23532891273498535
1698072016996280300,10.3872802734375,-0.007330167107284069,0.5627430081367493,-0.2585411071777344
1698072017005873200,10.396873046875,0.04153761267662048,0.4149180054664612,-0.2939702570438385
1698072017015466800,10.406466796875,0.09529217332601547,0.30252209305763245,-0.3208475112915039
1698072017025059600,10.4160595703125,0.1429382562637329,0.19745637476444244,-0.3196258246898651
1698072017034651400,10.4256513671875,0.17470231652259827,0.08872556686401367,-0.2805316150188446
1698072017044244500,10.435244384765625,0.18814095854759216,0.012980503961443901,-0.20967331528663635
1698072017053837800,10.444837890625,0.18081079423427582,-0.0065666078589856625,-0.12171131372451782
1698072017063430700,10.4544306640625,0.16004198789596558,0.02886253222823143,-0.038636088371276855
1698072017073022700,10.464022705078126,0.14904673397541046,0.11804623156785965,0.031000498682260513
1698072017082615600,10.473615478515624,0.16248537600040436,0.2438807636499405,0.0859767496585846
1698072017092209200,10.483209228515625,0.1820324808359146,0.49921491742134094,0.21058958768844604
1698072017101801700,10.4928017578125,0.1844758689403534,0.5920637249946594,0.3461976945400238
1698072017111393800,10.502393798828125,0.1954711228609085,0.41858309507369995,0.3840702176094055
1698072017120986600,10.511986572265625,0.20402298867702484,0.1901262104511261,0.38162681460380554
1698072017130580200,10.521580322265624,0.2113531529903412,-0.11285403370857239,0.3339807391166687
1698072017140173000,10.531173095703124,0.237008735537529,-0.35597124695777893,0.22158484160900116
1698072017149765000,10.54076513671875,0.29687178134918213,-0.4746283292770386,0.018783552572131157
1698072017159357700,10.550357666015625,0.3823903799057007,-0.45019441843032837,-0.27320143580436707
1698072017168951300,10.559951416015625,0.4703523814678192,-0.3352024257183075,-0.6213843822479248
1698072017178544000,10.569544189453126,0.522885262966156,-0.23868857324123383,-0.959793746471405
1698072017188136200,10.57913623046875,0.5192201733589172,-0.2020377367734909,-1.2102410793304443
1698072017197729000,10.58872900390625,0.4471401870250702,-0.1910424828529358,-1.3140851259231567
1698072017207322600,10.598322509765625,0.3017585575580597,-0.30221667885780334,-1.3153069019317627
1698072017216915200,10.607915283203125,0.09773556143045425,-0.6358919739723206,-1.2737692594528198
1698072017226507300,10.61750732421875,-0.12583453953266144,-1.0341644287109375,-1.1833637952804565
1698072017236100000,10.62710009765625,-0.3396310806274414,-1.3469182252883911,-1.0465340614318848
1698072017245693700,10.636693603515624,-0.5131117105484009,-1.5423892736434937,-0.8926005363464355
1698072017255286500,10.64628662109375,-0.6169557571411133,-1.6120258569717407,-0.7313368916511536
1698072017264878300,10.65587841796875,-0.6694886088371277,-1.5203988552093506,-0.5578562617301941
1698072017274471400,10.665471435546875,-0.6914790868759155,-1.2516260147094727,-0.37826716899871826
1698072017284064800,10.675064697265626,-0.6927008032798767,-0.9071081876754761,-0.22066856920719147
1698072017293657600,10.68465771484375,-0.6804838180541992,-0.5809157490730286,-0.10216420143842697
1698072017303249700,10.694249755859374,-0.6548282504081726,-0.2851129472255707,-0.02764083817601204
1698072017312842500,10.703842529296875,-0.6279509663581848,-0.05787777900695801,-0.001985253533348441
1698072017322436000,10.71343603515625,-0.6157340407371521,0.058183200657367706,-0.019088976085186005
1698072017332028700,10.723028564453125,-0.6303943991661072,0.06917845457792282,-0.06062658876180649
1698072017341620700,10.732620849609376,-0.660936713218689,-0.0016798300202935934,-0.10582929104566574
1698072017351213600,10.742213623046876,-0.7012526392936707,-0.1238492801785469,-0.14614520967006683
1698072017360807200,10.75180712890625,-0.7415685653686523,-0.27656111121177673,-0.17913095653057098
1698072017370400000,10.76139990234375,-0.767224133014679,-0.4318690001964569,-0.20722992718219757
1698072017379992000,10.770991943359375,-0.7757760286331177,-0.5723638534545898,-0.2292204350233078
1698072017389584600,10.780584716796875,-0.7733326554298401,-0.6664343476295471,-0.2304421216249466
1698072017399178200,10.79017822265625,-0.7708892226219177,-0.6688777208328247,-0.20967331528663635
1698072017408771000,10.79977099609375,-0.7721109390258789,-0.5845808386802673,-0.17913095653057098
1698072017418363100,10.809363037109375,-0.7733326554298401,-0.4611896872520447,-0.14614520967006683
1698072017427956000,10.8189560546875,-0.7647807598114014,-0.3229855000972748,-0.1107160672545433
1698072017437549600,10.828549560546875,-0.7440119385719299,-0.19837264716625214,-0.06917845457792282
1698072017447142100,10.83814208984375,-0.7171346545219421,-0.11407572776079178,-0.020310672000050545
1698072017456734200,10.847734130859376,-0.6890357136726379,-0.0713164210319519,0.02733541466295719
1698072017466327000,10.8573271484375,-0.6572716236114502,-0.06765133142471313,0.07742489129304886
1698072017475920600,10.866920654296875,-0.6255075931549072,-0.09575030952692032,0.13362284004688263
1698072017485513200,10.87651318359375,-0.6096255779266357,-0.1385096162557602,0.19348587095737457
1698072017495105300,10.886105224609375,-0.6084038615226746,-0.188599094748497,0.24846212565898895
1698072017504698000,10.895697998046876,-0.605960488319397,-0.2570139765739441,0.293664813041687
1698072017514291700,10.905291748046874,-0.5949652194976807,-0.3474193811416626,0.32787227630615234
1698072017523884500,10.914884521484375,-0.5839699506759644,-0.444085955619812,0.34375429153442383
1698072017533476600,10.9244765625,-0.5815265774726868,-0.503948986530304,0.34131091833114624
1698072017543069200,10.934069091796875,-0.5864133834838867,-0.5002838969230652,0.32665055990219116
1698072017552663000,10.9436630859375,-0.5998520255088806,-0.45019441843032837,0.30099499225616455
1698072017562255600,10.953255615234376,-0.6218425035476685,-0.40728241205215454,0.26312246918678284
1698072017571847700,10.96284765625,-0.6401679515838623,-0.39384377002716064,0.21058958768844604
1698072017581440500,10.9724404296875,-0.6401679515838623,-0.399952232837677,0.1385096162557602
1698072017591034000,10.9820341796875,-0.6022953987121582,-0.4121691882610321,0.052990999072790146
1698072017600626700,10.991626708984375,-0.5241069197654724,-0.40606072545051575,-0.039857782423496246
1698072017610218800,11.00121875,-0.42881476879119873,-0.3694098889827728,-0.14248012006282806
1698072017619811600,11.0108115234375,-0.3432961702346802,-0.29977330565452576,-0.24998924136161804
1698072017629405200,11.0204052734375,-0.28098973631858826,-0.19837264716625214,-0.35627666115760803
1698072017638998000,11.029998046875,-0.22479179501533508,-0.06154286116361618,-0.4515688419342041
1698072017648590000,11.039590087890625,-0.17592400312423706,0.07773031294345856,-0.5322006940841675
1698072017658182700,11.0491826171875,-0.14904673397541046,0.14492350816726685,-0.5810684561729431
1698072017667776300,11.0587763671875,-0.15149012207984924,0.07650861889123917,-0.5590779781341553
1698072017677369000,11.068369140625,-0.16737215220928192,-0.1360662281513214,-0.4760027229785919
1698072017686961200,11.077961181640624,-0.1185043677687645,-0.40728241205215454,-0.3611634373664856
1698072017696554000,11.087553955078125,-0.0647498071193695,-0.6505523324012756,-0.2927485406398773
1698072017706147600,11.097147705078125,0.03665083646774292,-1.1856545209884644,-0.4515688419342041
1698072017715740200,11.106740234375,0.18081079423427582,-1.8074970245361328,-0.7569924592971802
1698072017725332200,11.116332275390626,0.31886225938796997,-1.8551430702209473,-1.1418262720108032
1698072017734925000,11.125925048828124,0.3970507085323334,-1.2271921634674072,-1.5193297863006592
1698072017744518700,11.1355185546875,0.4459185004234314,-0.32909396290779114,-1.7306829690933228
1698072017754111500,11.145111572265625,0.5534276366233826,0.4747810363769531,-1.82964026927948
1698072017763703300,11.154703369140625,0.7220214605331421,1.0367605686187744,-1.8919466733932495
1698072017773296000,11.164296142578126,0.873511552810669,1.4105989933013916,-1.9139372110366821
1698072017782889700,11.1738896484375,0.948034942150116,1.6011834144592285,-1.884616494178772
1698072017792482600,11.183482666015625,0.9639169573783875,1.522994875907898,-1.8052064180374146
1698072017802074600,11.19307470703125,0.9920159578323364,1.2713258266448975,-1.6647114753723145
1698072017811667200,11.202667236328125,1.0726478099822998,1.0123265981674194,-1.459466814994812
1698072017821261000,11.212260986328126,1.1874871253967285,0.778982937335968,-1.2456703186035156
1698072017830853600,11.221853515625,1.2607887983322144,0.5725166201591492,-1.0392038822174072
1698072017840445700,11.23144580078125,1.2546802759170532,0.45645561814308167,-0.8156337738037109
1698072017850038500,11.24103857421875,1.1618314981460571,0.3709369897842407,-0.5920637249946594
1698072017859632000,11.250632080078125,1.0030112266540527,0.2573194205760956,-0.39414918422698975
1698072017869224700,11.260224609375,0.813648521900177,0.19256959855556488,-0.22189027070999146
1698072017878816800,11.269816650390625,0.6120689511299133,0.25976279377937317,-0.06062658876180649
1698072017888409600,11.27940966796875,0.40193748474121094,0.4283566474914551,0.07986827939748764
1698072017898003200,11.289003173828124,0.19180603325366974,0.6042806506156921,0.18249061703681946
1698072017907596000,11.298595947265625,0.024433890357613564,0.7264500856399536,0.24846212565898895
1698072017917188000,11.30818798828125,-0.06719319522380829,0.8217422962188721,0.2912214398384094
1698072017926780700,11.31778076171875,-0.08063183724880219,0.9255862832069397,0.3071034550666809
1698072017936374300,11.327374267578126,-0.03298575058579445,0.9976662993431091,0.28999972343444824
1698072017945967000,11.336967041015624,0.05741964280605316,1.0123265981674194,0.2570139765739441
1698072017955559200,11.34655908203125,0.18081079423427582,0.9732323884963989,0.23502348363399506
1698072017965152000,11.356152099609375,0.32252734899520874,0.8779402375221252,0.23991025984287262
1698072017974745600,11.36574560546875,0.448361873626709,0.7081246972084045,0.2680092453956604
1698072017984338200,11.375338134765625,0.53143709897995,0.4772244095802307,0.3071034550666809
1698072017993930200,11.38493017578125,0.5680879354476929,0.23288552463054657,0.36696648597717285
1698072018003523000,11.394523193359374,0.569309651851654,0.04840964451432228,0.4671454429626465
1698072018013116700,11.40411669921875,0.546097457408905,-0.031000498682260513,0.6151232123374939
1698072018022709500,11.41370947265625,0.5021164417266846,-0.04932591691613197,0.7922688722610474
1698072018032301300,11.42330126953125,0.42759308218955994,-0.04321744292974472,0.9840749502182007
1698072018041894100,11.43289404296875,0.3176405727863312,-0.0261137206107378,1.1563338041305542
1698072018051487700,11.44248779296875,0.17225892841815948,0.017867282032966614,1.245517611503601
1698072018061080600,11.45208056640625,0.03176405653357506,0.009315420873463154,1.3347012996673584
1698072018070672400,11.46167236328125,-0.07085828483104706,-0.07009471952915192,1.4006727933883667
1698072018080265500,11.471265380859375,-0.16492876410484314,-0.21303297579288483,1.387234091758728
1698072018089858800,11.48085888671875,-0.24311721324920654,-0.3865135908126831,1.3249276876449585
1698072018099451600,11.49045166015625,-0.3139754831790924,-0.5296045541763306,1.2284138202667236
1698072018109043700,11.500043701171874,-0.3811686933040619,-0.573585569858551,1.106244444847107
1698072018118636500,11.509636474609374,-0.43858832120895386,-0.4709632396697998,0.9779664874076843
1698072018128230100,11.519230224609375,-0.474017471075058,-0.2667875289916992,0.8509102463722229
1698072018137822700,11.52882275390625,-0.4874561131000519,-0.06642963737249374,0.7189671993255615
1698072018147414800,11.538414794921875,-0.4837910234928131,0.11804623156785965,0.578472375869751
1698072018157007600,11.548007568359376,-0.4752391576766968,0.23655059933662415,0.43049460649490356
1698072018166601200,11.557601318359374,-0.45080527663230896,0.21333840489387512,0.2680092453956604
1698072018176194000,11.567194091796875,-0.42759308218955994,0.054518118500709534,0.09086353331804276
1698072018185785900,11.576785888671875,-0.4434750974178314,-0.14828316867351532,-0.06551336497068405
1698072018195378700,11.586378662109375,-0.4984513521194458,-0.35474956035614014,-0.15958385169506073
1698072018204972300,11.59597216796875,-0.5619794726371765,-0.5479300022125244,-0.19379130005836487
1698072018214565000,11.605565185546874,-0.6108472347259521,-0.6737645268440247,-0.16691401600837708
1698072018224157200,11.6151572265625,-0.6316160559654236,-0.739736020565033,-0.0850604772567749
1698072018233749800,11.624749755859375,-0.6267293095588684,-0.7678350210189819,0.03588727489113808
1698072018243343600,11.634343505859375,-0.6096255779266357,-0.7458444833755493,0.19348587095737457
1698072018252936200,11.643936279296875,-0.5900784730911255,-0.6957550048828125,0.3694098889827728
1698072018262528300,11.6535283203125,-0.569309651851654,-0.6627692580223083,0.5308262705802917
1698072018272121000,11.66312109375,-0.5412106513977051,-0.6542174220085144,0.6529957056045532
1698072018281714700,11.672714599609375,-0.5033381581306458,-0.6456655263900757,0.7348492741584778
1698072018291307300,11.682307373046875,-0.45447036623954773,-0.6114581227302551,0.7812736630439758
1698072018300899300,11.6918994140625,-0.41415444016456604,-0.5491516590118408,0.80937260389328
1698072018310492200,11.7014921875,-0.4056025743484497,-0.5015056133270264,0.8215895891189575
1698072018320085800,11.711085693359376,-0.4337015450000763,-0.4953971207141876,0.8105943202972412
1698072018329678600,11.7206787109375,-0.4947862923145294,-0.5393781065940857,0.7739434838294983
1698072018339270400,11.7302705078125,-0.5741963982582092,-0.610236406326294,0.70797199010849
1698072018348863200,11.73986328125,-0.6548282504081726,-0.684759795665741,0.6175665855407715
1698072018358456800,11.749456787109375,-0.7281299233436584,-0.7434011101722717,0.506239652633667
1698072018368049700,11.759049560546876,-0.7892146706581116,-0.7678350210189819,0.3828485310077667
1698072018377641700,11.768641845703126,-0.8356390595436096,-0.7421793937683105,0.26434415578842163
1698072018387234600,11.778234619140624,-0.8661814332008362,-0.6578825116157532,0.15927842259407043
1698072018396828000,11.787827880859375,-0.893058717250824,-0.527161180973053,0.06887302547693253
1698072018406420700,11.797420654296875,-0.9138274788856506,-0.3730749487876892,-0.019088976085186005
1698072018416012800,11.8070126953125,-0.9284878373146057,-0.2154763638973236,-0.10216420143842697
1698072018425605600,11.816605712890626,-0.9284878373146057,-0.052990999072790146,-0.18035265803337097
1698072018435199200,11.82619921875,-0.8820634484291077,0.10216420143842697,-0.24510246515274048
1698072018444791800,11.835791748046875,-0.8002098798751831,0.20356485247612,-0.2964136302471161
1698072018454383900,11.8453837890625,-0.6963658928871155,0.2304421216249466,-0.32573428750038147
1698072018463976700,11.854976806640625,-0.5803049206733704,0.18035265803337097,-0.3208475112915039
1698072018473570300,11.8645703125,-0.45324867963790894,0.06429167091846466,-0.26464956998825073
1698072018483163100,11.8741630859375,-0.3286358118057251,-0.09086353331804276,-0.1632489264011383
1698072018492755000,11.8837548828125,-0.23090025782585144,-0.26190075278282166,-0.02886253222823143
1698072018502347800,11.89334765625,-0.16615045070648193,-0.4109475016593933,0.12873606383800507
1698072018511941400,11.90294140625,-0.13316470384597778,-0.49417543411254883,0.31199023127555847
1698072018521534200,11.9125341796875,-0.129499614238739,-0.5259394645690918,0.49524441361427307
1698072018531126300,11.922126220703126,-0.15393351018428802,-0.5234960913658142,0.6505523324012756
1698072018540719000,11.931718994140626,-0.1979145109653473,-0.527161180973053,0.7531746625900269
1698072018550312400,11.9413125,-0.2516690790653229,-0.5858024954795837,0.7800519466400146
1698072018559905300,11.9509052734375,-0.2895416021347046,-0.6627692580223083,0.7226322889328003
1698072018569497300,11.960497314453125,-0.2919849753379822,-0.6896465420722961,0.5992411375045776
1698072018579090200,11.970090087890625,-0.261442631483078,-0.6029062271118164,0.43049460649490356
1698072018588683800,11.979683837890626,-0.19424942135810852,-0.32542887330055237,0.23868857324123383
1698072018598276400,11.9892763671875,-0.08551861345767975,0.10705098509788513,0.050547610968351364
1698072018607868400,11.998868408203125,0.05986303091049194,0.5456393361091614,-0.1241547018289566
