time,seconds_elapsed,z,y,x
1697552811866868200,0.2578681640625,7.72104024887085,6.694818496704102,-0.8419744968414307
1697552811876459000,0.267458984375,7.809575080871582,6.752246379852295,-0.7606185078620911
1697552811886050300,0.27705029296875,7.811967849731445,6.8503522872924805,-0.9257232546806335
1697552811895642600,0.286642578125,7.709076404571533,7.058826923370361,-1.215553879737854
1697552811905234000,0.29623388671875,7.680362701416016,7.322037220001221,-1.4500504732131958
1697552811914824400,0.305824462890625,7.754539966583252,7.47547721862793,-1.6606189012527466
1697552811924416000,0.315416015625,8.006085395812988,7.525726318359375,-1.8140586614608765
1697552811934008000,0.325008056640625,8.401200294494629,7.657331466674805,-1.735095500946045
1697552811943599600,0.334599609375,9.207880973815918,8.038089752197266,-1.2634103298187256
1697552811953190100,0.344190185546875,9.514460563659668,8.502297401428223,-0.9329017400741577
1697552811962781700,0.35378173828125,9.65803050994873,8.708378791809082,-0.5521438121795654
1697552811972373800,0.363373779296875,9.622138023376465,8.763413429260254,-0.5473581552505493
1697552811981965000,0.372965087890625,9.636494636535645,8.76102066040039,-0.8946165442466736
1697552811991555800,0.382555908203125,9.729815483093262,8.598309516906738,-1.3806586265563965
1697552812001147100,0.392147216796875,9.849455833435059,8.121838569641113,-1.6941183805465698
1697552812010739500,0.401739501953125,10.04566764831543,7.499405384063721,-1.7470595836639404
1697552812020330800,0.411330810546875,10.46471118927002,6.831209659576416,-1.679761528968811
1697552812029921300,0.42092138671875,11.192727088928223,6.058028697967529,-1.5864413976669312
1697552812039512800,0.430512939453125,12.274581909179688,5.155336380004883,-1.3351950645446777
1697552812049105000,0.44010498046875,13.36870002746582,4.296013832092285,-0.8300103545188904
1697552812058696400,0.449696533203125,14.163715362548828,3.7190446853637695,-0.06161518394947052
1697552812068287000,0.459286865234375,14.44606876373291,3.5060834884643555,0.776470959186554
1697552812077878500,0.46887841796875,14.144573211669922,3.5084762573242188,1.1093723773956299
1697552812087470600,0.478470703125,13.186845779418945,3.685544967651367,0.7381857633590698
1697552812097062000,0.488061767578125,12.006586074829102,3.855435371398926,0.06311069428920746
1697552812106652700,0.497652587890625,10.637292861938477,4.00618314743042,-0.6720840334892273
1697552812116244000,0.507243896484375,9.140881538391113,4.312763690948486,-1.2562319040298462
1697552812125836300,0.516836181640625,7.646862983703613,4.5807600021362305,-1.6055840253829956
1697552812135427600,0.526427490234375,6.189035892486572,4.789234638214111,-1.698904037475586
1697552812145018000,0.53601806640625,5.008476734161377,4.906482696533203,-1.5601203441619873
1697552812154609700,0.545609619140625,4.223331928253174,4.911268711090088,-1.3519448041915894
1697552812164202000,0.555201904296875,3.7612180709838867,4.743771076202393,-1.2131611108779907
1697552812173793300,0.564793212890625,3.699004650115967,4.453940391540527,-1.0980064868927002
1697552812183383800,0.5743837890625,3.880859136581421,4.126123428344727,-0.966401219367981
1697552812192975400,0.583975341796875,4.268795490264893,3.7597224712371826,-0.7965108156204224
1697552812202567400,0.5935673828125,4.73090934753418,3.450749397277832,-0.5569294691085815
1697552812212158700,0.60315869140625,5.18823766708374,3.2258241176605225,-0.27696922421455383
1697552812221749500,0.61274951171875,5.626423358917236,3.1636106967926025,-0.030209386721253395
1697552812231340800,0.6223408203125,6.073881149291992,3.3358938694000244,0.09661021083593369
1697552812240933000,0.63193310546875,6.473781585693359,3.489034414291382,0.16360925137996674
1697552812250524400,0.6415244140625,6.74446964263916,3.685544967651367,0.28564319014549255
1697552812260115000,0.651114990234375,6.900003433227539,3.920041799545288,0.46749773621559143
1697552812269706500,0.66070654296875,6.990930557250977,4.197908401489258,0.6807580590248108
1697552812279298600,0.670298583984375,7.110571384429932,4.561617374420166,0.7334001660346985
1697552812288890000,0.67989013671875,6.9358954429626465,4.851448059082031,0.7884350419044495
1697552812298480600,0.689480712890625,7.060322284698486,5.184349536895752,0.9080761671066284
1697552812308072200,0.699072265625,7.354938507080078,5.260919570922852,1.425225019454956
1697552812317664300,0.708664306640625,7.398009300231934,5.294419288635254,1.8969101905822754
1697552812327255600,0.718255615234375,7.65164852142334,5.543272972106934,2.2031915187835693
1697552812336846300,0.727846435546875,7.833802223205566,5.725127220153809,2.5025932788848877
1697552812346437600,0.737437744140625,8.132905006408691,5.9647088050842285,2.56719970703125
1697552812356030000,0.747030029296875,8.211868286132812,6.220740795135498,2.6102705001831055
1697552812365621200,0.756621337890625,7.886444568634033,6.45314359664917,2.7538397312164307
1697552812375211800,0.766211669921875,7.414759159088135,6.713961124420166,2.861815929412842
1697552812384803300,0.77580322265625,6.80668306350708,7.044469833374023,2.830709218978882
1697552812394395400,0.7853955078125,6.078666687011719,7.343572616577148,2.686840772628784
1697552812403987000,0.794987060546875,5.5591254234313965,7.549654483795166,2.521735906600952
1697552812413577500,0.804577392578125,5.439484119415283,7.767401218414307,2.2417757511138916
1697552812423169000,0.8141689453125,5.858527183532715,7.977969646453857,1.8323038816452026
1697552812432761000,0.823760986328125,6.557530403137207,8.090731620788574,1.602293848991394
1697552812442352400,0.833352294921875,7.400402069091797,7.997411251068115,1.6815561056137085
1697552812451943200,0.842943115234375,8.415556907653809,7.884649753570557,1.8035900592803955
1697552812461534500,0.852534423828125,9.37298583984375,8.270193099975586,2.0141584873199463
1697552812471126800,0.862126708984375,9.997811317443848,8.880661964416504,2.519343137741089
1697552812480718000,0.871718017578125,10.337891578674316,8.933303833007812,2.801995277404785
1697552812490308600,0.88130859375,10.409675598144531,8.605487823486328,2.5145576000213623
1697552812499900200,0.890900146484375,10.318748474121094,8.598309516906738,1.9639091491699219
1697552812509492200,0.9004921875,10.11296558380127,8.655736923217773,1.7748762369155884
1697552812519083800,0.910083740234375,9.866206169128418,8.497511863708496,1.9806588888168335
1697552812528674300,0.91967431640625,9.705886840820312,7.951648712158203,2.1672990322113037
1697552812538265900,0.929265869140625,9.787242889404297,7.118647575378418,2.090728759765625
1697552812547858000,0.93885791015625,10.146465301513672,6.225526332855225,1.9950158596038818
1697552812557449200,0.94844921875,10.73539924621582,5.359025478363037,2.3446671962738037
1697552812567040000,0.9580400390625,11.348260879516602,4.612165451049805,2.840280532836914
1697552812576631300,0.96763134765625,11.776874542236328,4.068696022033691,3.2853455543518066
1697552812586223600,0.9772236328125,12.013764381408691,3.7884364128112793,3.2518460750579834
1697552812595815000,0.98681494140625,11.781660079956055,3.745365619659424,2.988635540008545
1697552812605405400,0.996405517578125,11.293225288391113,3.4965121746063232,3.014956474304199
1697552812614997000,1.0059970703125,10.577173233032227,3.0535407066345215,3.41007137298584
1697552812624589300,1.01558935546875,9.638887405395508,2.816352367401123,3.7689948081970215
1697552812634180600,1.0251806640625,8.681160926818848,2.9961130619049072,3.7522449493408203
1697552812643771100,1.034771240234375,7.792825222015381,3.5922250747680664,3.16331148147583
1697552812653362700,1.04436279296875,6.866503715515137,4.422833442687988,2.3518455028533936
1697552812662954800,1.053954833984375,5.96381139755249,4.8777689933776855,1.913659930229187
1697552812672546300,1.06354638671875,5.178666591644287,4.995017051696777,1.7892330884933472
1697552812682136800,1.07313671875,4.570590496063232,4.930410861968994,1.7772690057754517
1697552812691728400,1.082728271484375,4.266402721405029,4.825126647949219,1.6381862163543701
1697552812701320400,1.092320556640625,4.347758769989014,4.6887359619140625,1.322333574295044
1697552812710911700,1.101911865234375,4.6902313232421875,4.535296440124512,0.9726824164390564
1697552812720502500,1.11150244140625,5.171487808227539,4.367798805236816,0.6520441770553589
1697552812730093800,1.12109375,5.705386638641357,4.207479476928711,0.3885345757007599
1697552812739686100,1.13068603515625,6.186643123626709,4.083052635192871,0.13968102633953094
1697552812749277400,1.14027734375,6.598208427429199,4.0181474685668945,-0.0014955141814425588
1697552812758868000,1.149867919921875,6.900003433227539,4.056731700897217,-0.09990034252405167
1697552812768459500,1.15945947265625,7.146463871002197,4.147658824920654,-0.10229317098855972
1697552812778051600,1.169051513671875,7.246962547302246,4.303192615509033,-0.02063809521496296
1697552812787643000,1.178642822265625,7.246962547302246,4.506582260131836,-0.04247260093688965
1697552812797233700,1.188233642578125,7.074679374694824,4.758127689361572,-0.19561325013637543
1697552812806825000,1.197824951171875,6.811468601226807,5.026124000549316,-0.3320041298866272
1697552812816417300,1.207417236328125,6.423532485961914,5.239384174346924,-0.4253242313861847
1697552812826008600,1.217008544921875,6.02602481842041,5.466702461242676,-0.542572557926178
1697552812835599400,1.226599365234375,5.655137062072754,5.660521030426025,-0.7295117974281311
1697552812845190700,1.236190673828125,5.549553871154785,5.873781204223633,-0.9879366755485535
1697552812854783000,1.245782958984375,5.6431732177734375,6.000600814819336,-1.184447169303894
1697552812864374300,1.255374267578125,5.915955066680908,6.148955821990967,-1.2897313833236694
1697552812873964800,1.26496484375,6.260820388793945,6.429215431213379,-1.397408366203308
1697552812883556400,1.274556396484375,6.478567123413086,6.783353328704834,-1.4093725681304932
1697552812893148400,1.2841484375,6.6245293617248535,7.025327205657959,-1.3160524368286133
1697552812902740000,1.293739990234375,6.768397808074951,7.226324558258057,-1.1267203092575073
1697552812912330500,1.30333056640625,7.06271505355835,7.556832790374756,-0.6529414653778076
1697552812921922000,1.312922119140625,7.431509017944336,7.8439717292785645,-1.0070792436599731
1697552812931514000,1.32251416015625,7.8433732986450195,7.8678998947143555,-1.3591232299804688
1697552812941105400,1.33210546875,8.250153541564941,7.822436332702637,-1.6941183805465698
1697552812950696200,1.3416962890625,8.848658561706543,7.707581043243408,-2.074876308441162
1697552812960287500,1.35128759765625,9.725028991699219,7.889435291290283,-2.137089729309082
1697552812969879800,1.3608798828125,10.443175315856934,8.392227172851562,-1.5002998113632202
1697552812979471000,1.37047119140625,10.797612190246582,8.866305351257324,-0.8419744968414307
1697552812989061600,1.3800615234375,10.898110389709473,9.215956687927246,-0.6505486369132996
1697552812998653200,1.389653076171875,10.804790496826172,9.531808853149414,-0.791725218296051
1697552813008245500,1.39924560546875,10.823933601379395,9.711569786071777,-0.9592227935791016
1697552813017836800,1.4088369140625,10.654043197631836,9.572486877441406,-1.3854442834854126
1697552813027427300,1.41842724609375,10.45513916015625,8.940483093261719,-1.648654818534851
1697552813037019000,1.428018798828125,10.493424415588379,7.910970687866211,-1.6199408769607544
1697552813046611000,1.43761083984375,11.02014446258545,6.742675304412842,-1.5002998113632202
1697552813056202500,1.447202392578125,11.944372177124023,5.68684196472168,-1.3615161180496216
1697552813065793000,1.45679296875,13.01934814453125,4.786841869354248,-1.2418749332427979
1697552813075384600,1.466384521484375,13.928919792175293,4.19072961807251,-1.0142576694488525
1697552813084976600,1.4759765625,14.398212432861328,3.8362929821014404,-0.6218347549438477
1697552813094568000,1.48556787109375,14.213964462280273,3.5922250747680664,-0.4085744619369507
1697552813104158700,1.49515869140625,13.363914489746094,3.465106248855591,-0.8060821294784546
1697552813113750000,1.50475,12.119048118591309,3.556332588195801,-1.4883357286453247
1697552813123342300,1.51434228515625,10.42642593383789,3.716651678085327,-1.8858433961868286
1697552813132933600,1.52393359375,8.537590980529785,4.027718544006348,-2.048555374145508
1697552813142524200,1.533524169921875,6.62931489944458,4.396512508392334,-2.1418752670288086
1697552813152115700,1.54311572265625,4.9965128898620605,4.523332118988037,-2.0318055152893066
1697552813161707800,1.552707763671875,3.7205400466918945,4.4635114669799805,-1.5481562614440918
1697552813171299300,1.56229931640625,2.9138598442077637,4.501796722412109,-1.2993026971817017
1697552813180889900,1.571889892578125,2.5139594078063965,4.324728012084961,-1.2131611108779907
1697552813190481400,1.5814814453125,2.470888376235962,4.068696022033691,-1.0597213506698608
1697552813200073500,1.591073486328125,2.813361167907715,3.802793502807617,-0.7606185078620911
1697552813209664800,1.600664794921875,3.5482568740844727,3.50129771232605,-0.4372883439064026
1697552813219255600,1.610255615234375,4.450949192047119,3.221038341522217,-0.2147558331489563
1697552813228846800,1.619846923828125,5.379663467407227,3.087040424346924,-0.14775680005550385
1697552813238439200,1.629439208984375,6.0834527015686035,3.1396822929382324,-0.24825534224510193
1697552813248030500,1.639030517578125,6.447460651397705,3.2665019035339355,-0.2913261651992798
1697552813257621200,1.648621337890625,6.641279220581055,3.37896466255188,-0.18364913761615753
1697552813267212500,1.658212646484375,6.662814617156982,3.580260992050171,-0.12382857501506805
1697552813276804900,1.667804931640625,6.4354963302612305,3.8937206268310547,-0.12382857501506805
1697552813286396200,1.677396240234375,6.15553617477417,4.209872245788574,0.07746763527393341
1697552813295986700,1.686986572265625,6.028417587280273,4.592723846435547,0.4004986882209778
1697552813305578200,1.696578125,6.078666687011719,5.009374141693115,0.7357929348945618
1697552813315170300,1.70617041015625,6.205785751342773,5.414060115814209,1.077966570854187
1697552813324761900,1.715761962890625,6.425925254821777,5.689234733581543,1.4419747591018677
1697552813334352400,1.725352294921875,6.73729133605957,5.931209087371826,1.6911274194717407
1697552813343944000,1.73494384765625,7.067500591278076,6.13699197769165,1.846660852432251
1697552813353536000,1.744535888671875,7.393223762512207,6.32871675491333,2.0093727111816406
1697552813363127600,1.75412744140625,7.673183917999268,6.450750827789307,2.1984057426452637
1697552813372718000,1.763718017578125,7.800003528594971,6.661319255828857,2.426023006439209
1697552813382309600,1.7733095703125,7.800003528594971,6.900900363922119,2.732304334640503
1697552813391901700,1.782901611328125,7.728219032287598,7.025327205657959,3.1345977783203125
1697552813401493000,1.792492919921875,7.673183917999268,7.066005229949951,3.3741791248321533
1697552813411083800,1.802083740234375,7.634898662567139,7.200003147125244,3.457927703857422
1697552813420675000,1.811675048828125,7.685148239135742,7.322037220001221,3.512962818145752
1697552813430267400,1.821267333984375,7.941479206085205,7.461120128631592,3.7450666427612305
1697552813439858700,1.830858642578125,8.535198211669922,7.8439717292785645,3.766602039337158
1697552813449449200,1.84044921875,9.217452049255371,8.55045223236084,3.5656049251556396
1697552813459040800,1.850040771484375,9.727422714233398,9.079266548156738,3.4220354557037354
1697552813468632800,1.8596328125,9.976275444030762,9.091230392456055,3.0723843574523926
1697552813478224400,1.869224365234375,9.818349838256836,9.060123443603516,2.550449848175049
1697552813487815000,1.87881494140625,9.581459999084473,9.148957252502441,2.2944178581237793
1697552813497406500,1.888406494140625,9.4088773727417,9.012267112731934,2.361416816711426
1697552813506998500,1.89799853515625,9.439984321594238,8.502297401428223,2.339881420135498
1697552813516589800,1.90758984375,9.768099784851074,7.652545928955078,2.1577277183532715
1697552813526180600,1.9171806640625,10.512567520141602,6.536892414093018,1.9543378353118896
1697552813535772000,1.92677197265625,11.788839340209961,5.449952602386475,1.7748762369155884
1697552813545364200,1.9363642578125,13.179667472839355,4.482654094696045,1.7700905799865723
1697552813554955500,1.94595556640625,14.304891586303711,3.7716867923736572,2.0572292804718018
1697552813564546300,1.95554638671875,14.977574348449707,3.3693933486938477,2.5336999893188477
1697552813574137600,1.9651376953125,15.080465316772461,3.142075300216675,2.8211379051208496
1697552813583730000,1.97472998046875,14.21875,2.830709218978882,2.7732813358306885
1697552813593321200,1.9843212890625,12.897314071655273,2.7014968395233154,2.0691933631896973
1697552813602911700,1.993911865234375,11.257332801818848,2.861815929412842,1.4060823917388916
1697552813612503300,2.00350341796875,9.56471061706543,3.1875388622283936,1.2290135622024536
1697552813622095600,2.013095703125,7.919943809509277,3.5946178436279297,1.3079767227172852
1697552813631687000,2.02268701171875,6.401997089385986,4.034897327423096,1.413260817527771
1697552813641277400,2.03227734375,5.099703311920166,4.537689208984375,1.4036896228790283
1697552813650869000,2.041868896484375,4.046263217926025,4.808377265930176,1.3725829124450684
1697552813660461000,2.0514609375,3.2679975032806396,4.9878387451171875,1.3103694915771484
1697552813670052600,2.061052490234375,2.7942185401916504,5.047659397125244,1.077966570854187
1697552813679643100,2.07064306640625,2.729313373565674,4.90408992767334,0.7692924737930298
1697552813689234700,2.080234619140625,3.1028928756713867,4.652843475341797,0.5225326418876648
1697552813698826800,2.08982666015625,3.8210387229919434,4.365406036376953,0.2665006220340729
1697552813708418000,2.09941796875,4.709373950958252,4.039682865142822,0.15882360935211182
1697552813718008800,2.1090087890625,5.6671013832092285,3.8051862716674805,0.17318053543567657
1697552813727600000,2.11860009765625,6.540780544281006,3.699902057647705,0.24975086748600006
1697552813737192400,2.1281923828125,7.153642177581787,3.7118661403656006,0.3574278950691223
1697552813746783700,2.13778369140625,7.539186000823975,3.786043643951416,0.4411766827106476
1697552813756374500,2.14737451171875,7.618149280548096,3.9320058822631836,0.376570463180542
1697552813765965800,2.1569658203125,7.409973621368408,4.166801452636719,0.21146570146083832
1697552813775558100,2.16655810546875,7.057929515838623,4.482654094696045,0.05832505226135254
1697552813785149400,2.1761494140625,6.569494724273682,4.767699241638184,-0.052043892443180084
1697552813794740000,2.185739990234375,6.08823823928833,5.085944652557373,-0.12622138857841492
1697552813804331500,2.19533154296875,5.827420234680176,5.378168106079102,-0.19561325013637543
1697552813813923600,2.204923583984375,5.774778366088867,5.703591823577881,-0.3032902777194977
1697552813823515100,2.21451513671875,5.84656286239624,6.005386829376221,-0.3798605799674988
1697552813833105700,2.224105712890625,6.133701801300049,6.220740795135498,-0.4827519655227661
1697552813842697200,2.233697265625,6.5527448654174805,6.285346984863281,-0.6457630395889282
1697552813852289300,2.243289306640625,7.108178615570068,6.3000030517578125,-0.7797610759735107
1697552813861880800,2.252880859375,7.756932735443115,6.32871675491333,-0.8395816683769226
1697552813871471400,2.262471435546875,8.441878318786621,6.45314359664917,-0.8515457510948181
1697552813881063000,2.27206298828125,8.934800148010254,6.603891372680664,-0.758225679397583
1697552813890655000,2.281655029296875,9.155238151550293,6.728318214416504,-0.5688936114311218
1697552813900246300,2.291246337890625,9.107381820678711,6.840780735015869,-0.4492524564266205
1697552813909837000,2.300837158203125,8.81515884399414,7.003791809082031,-0.4875376224517822
1697552813919428400,2.310428466796875,8.468199729919434,7.2095746994018555,-0.6864410042762756
1697552813929020700,2.320020751953125,8.030014038085938,7.4347991943359375,-0.8826524615287781
1697552813938612000,2.329612060546875,7.579864025115967,7.542476177215576,-0.9951151013374329
1697552813948202500,2.339202392578125,7.4362945556640625,7.76261568069458,-1.1434701681137085
1697552813957794000,2.3487939453125,7.692326545715332,8.380263328552246,-1.1482558250427246
1697552813967386400,2.358386474609375,7.967800140380859,8.780163764953613,-0.7869395613670349
1697552813976977700,2.367977783203125,8.197511672973633,8.950054168701172,-0.2626122832298279
1697552813986568200,2.377568115234375,8.49452018737793,9.189635276794434,0.010468599386513233
1697552813996159700,2.38715966796875,8.872586250305176,9.431310653686523,0.024825535714626312
1697552814005751800,2.396751708984375,9.384949684143066,9.452845573425293,-0.025423740968108177
1697552814015343400,2.40634326171875,9.806385040283203,9.141778945922852,-0.2386840581893921
1697552814024934000,2.415933837890625,9.909276962280273,8.466404914855957,-0.46360939741134644
1697552814034525400,2.425525390625,9.926026344299316,7.645367622375488,-0.4995017349720001
1697552814044117500,2.435117431640625,10.273284912109375,6.730710983276367,-0.11186445504426956
1697552814053709000,2.444708984375,10.502995491027832,6.005386829376221,0.5105685591697693
1697552814063299600,2.454299560546875,10.950753211975098,5.294419288635254,0.07746763527393341
1697552814072891100,2.46389111328125,11.668898582458496,4.4324049949646,-0.3032902777194977
1697552814082483200,2.473483154296875,12.05922794342041,3.494119167327881,-0.34636107087135315
1697552814092074500,2.483074462890625,12.47587776184082,3.28564453125,-0.9400802254676819
1697552814101665300,2.492665283203125,12.35384464263916,3.197110176086426,-1.4859428405761719
1697552814111256600,2.502256591796875,11.992228507995605,3.113361358642578,-1.7877376079559326
1697552814120849000,2.511848876953125,11.522936820983887,3.292823076248169,-2.168196439743042
1697552814130440200,2.521440185546875,10.622636795043945,3.604189157485962,-2.4364917278289795
1697552814140031000,2.531031005859375,9.49501895904541,3.802793502807617,-2.3024935722351074
1697552814149622300,2.540622314453125,8.111370086669922,3.920041799545288,-1.833201289176941
1697552814159214600,2.550214599609375,6.672386169433594,4.130908966064453,-1.1820544004440308
1697552814168806000,2.559805908203125,5.535196781158447,4.231407642364502,-0.6337988972663879
1697552814178396400,2.569396484375,4.6184468269348145,4.116552352905273,-0.24107688665390015
1697552814187988000,2.578988037109375,3.955335855484009,4.0181474685668945,-0.31046873331069946
1697552814197580000,2.588580078125,3.588934898376465,3.888935089111328,-0.5162515044212341
1697552814207171600,2.598171630859375,3.6176488399505615,3.7334015369415283,-0.5497509837150574
1697552814216762000,2.60776220703125,3.8712878227233887,3.6089746952056885,-0.42771705985069275
1697552814226353700,2.617353759765625,4.35254430770874,3.582653760910034,-0.20039889216423035
1697552814235945700,2.62694580078125,5.030311584472656,3.6711881160736084,0.15643078088760376
1697552814245537300,2.636537353515625,5.762814044952393,3.855435371398926,0.4411766827106476
1697552814255127800,2.6461279296875,6.464210510253906,4.063910007476807,0.5874379873275757
1697552814264719400,2.65571923828125,6.957430839538574,4.250550270080566,0.6352944374084473
1697552814274311400,2.6653115234375,7.264011383056641,4.47068977355957,0.6711867451667786
1697552814283902700,2.67490283203125,7.405188083648682,4.695914268493652,0.6759724020957947
1697552814293493500,2.684493408203125,7.476972579956055,4.930410861968994,0.711864709854126
1697552814303085000,2.6940849609375,7.524828910827637,5.196313381195068,0.7860422134399414
1697552814312677000,2.703677001953125,7.522436141967773,5.414060115814209,0.9655039310455322
1697552814322268400,2.713268310546875,7.524828910827637,5.560022354125977,1.2337992191314697
1697552814331859200,2.722859130859375,7.587042331695557,5.650949954986572,1.5305092334747314
1697552814341450500,2.732450439453125,7.5702924728393555,5.778068542480469,1.6839489936828613
1697552814351042800,2.742042724609375,7.555935859680176,5.878567218780518,1.908874273300171
1697552814360634000,2.751634033203125,7.52004337310791,5.962316036224365,2.076371908187866
1697552814370225000,2.761224853515625,7.414759159088135,6.1704912185668945,2.076371908187866
1697552814379816200,2.770816162109375,7.1871418952941895,6.472286224365234,2.002194404602051
1697552814389408500,2.780408447265625,6.971787929534912,6.7809600830078125,1.9926230907440186
1697552814398999800,2.789999755859375,6.782754898071289,7.025327205657959,2.0165512561798096
1697552814408590300,2.79959033203125,6.610172748565674,7.219145774841309,1.9591234922409058
1697552814418182000,2.809181884765625,6.562315940856934,7.35314416885376,1.8562321662902832
1697552814427774200,2.818774169921875,6.681957244873047,7.473084449768066,1.6719847917556763
1697552814437365500,2.828365478515625,7.017251491546631,7.561618804931641,1.5065809488296509
1697552814446956000,2.8379560546875,7.522436141967773,7.63818883895874,1.4970096349716187
1697552814456547600,2.847547607421875,8.219046592712402,8.028517723083496,1.4778671264648438
1697552814466139600,2.8571396484375,8.86780071258545,8.6605224609375,1.6070795059204102
1697552814475731200,2.866731201171875,9.2557373046875,8.880661964416504,1.8059829473495483
1697552814485321700,2.87632177734375,9.428020477294922,8.696414947509766,1.6839489936828613
1697552814494913300,2.885913330078125,9.428020477294922,8.67487907409668,1.2577273845672607
1697552814504505300,2.89550537109375,9.351449966430664,8.789734840393066,1.0660024881362915
1697552814514097000,2.905096923828125,9.241379737854004,8.627022743225098,1.2433704137802124
1697552814523687400,2.9146875,9.171988487243652,8.157731056213379,1.3749756813049316
1697552814533279000,2.924279052734375,9.282057762145996,7.418049335479736,1.4419747591018677
1697552814542871000,2.93387109375,9.729815483093262,6.474678993225098,1.4874383211135864
1697552814552462600,2.943462646484375,10.491031646728516,5.531308650970459,1.5999010801315308
1697552814562053000,2.95305322265625,11.369795799255371,4.727021217346191,1.731805443763733
1697552814571644700,2.962644775390625,12.200404167175293,4.087838172912598,2.0141584873199463
1697552814581236700,2.97223681640625,12.84197998046875,3.5132617950439453,2.4619154930114746
1697552814590828000,2.981828125,12.844372749328613,3.1253254413604736,2.964707374572754
1697552814600418800,2.991418701171875,12.36102294921875,2.9072794914245605,3.546462297439575
1697552814610010400,3.00101025390625,11.719147682189941,2.854637384414673,3.3236305713653564
1697552814619602400,3.0106025390625,10.943573951721191,3.0320053100585938,2.4547369480133057
1697552814629193700,3.02019384765625,9.837491989135742,3.2880373001098633,1.8011972904205322
1697552814638784500,3.029784423828125,8.654839515686035,3.769293785095215,1.3414762020111084
1697552814648375800,3.039375732421875,7.316653251647949,4.389334201812744,0.9798609018325806
1697552814657968000,3.048968017578125,5.9422760009765625,4.918447017669678,0.9320043921470642
1697552814667559400,3.058559326171875,4.718945503234863,5.179563522338867,1.181157112121582
1697552814677150200,3.068150146484375,3.7755749225616455,5.225027561187744,1.5137593746185303
1697552814686741500,3.077741455078125,3.0861430168151855,5.256134033203125,1.724626898765564
1697552814696333800,3.087333740234375,2.885145902633667,5.2992048263549805,1.7413766384124756
1697552814705925000,3.096925048828125,3.08135724067688,5.169693470001221,1.688734531402588
1697552814715515600,3.106515625,3.533900022506714,4.810770034790039,1.7485551834106445
1697552814725107200,3.116107177734375,4.335794448852539,4.3534417152404785,1.784447431564331
1697552814734699500,3.125699462890625,5.341378211975098,3.96789813041687,1.7222341299057007
1697552814744290800,3.135290771484375,6.363711833953857,3.7262229919433594,1.5831513404846191
1697552814753881300,3.14488134765625,7.304689407348633,3.6113674640655518,1.3319048881530762
1697552814763473000,3.154472900390625,8.111370086669922,3.5946178436279297,1.0974082946777344
1697552814773065000,3.16406494140625,8.71226692199707,3.6711881160736084,0.8530412912368774
1697552814782656500,3.173656494140625,9.054739952087402,3.929612874984741,0.592223584651947
1697552814792247000,3.1832470703125,9.047561645507812,4.260121822357178,0.36699917912483215
1697552814801838600,3.192838623046875,8.784051895141602,4.612165451049805,0.18035900592803955
1697552814811430700,3.2024306640625,8.446663856506348,4.889732837677002,-0.04247260093688965
1697552814821022200,3.212022216796875,8.022834777832031,5.169693470001221,-0.16450655460357666
1697552814830612700,3.22161279296875,7.608577728271484,5.471487998962402,-0.2961117923259735
1697552814840204300,3.231204345703125,7.381259441375732,5.7756757736206055,-0.5688936114311218
1697552814849796400,3.24079638671875,7.328617572784424,6.148955821990967,-0.8347960114479065
1697552814859388000,3.250387939453125,7.3645100593566895,6.469893455505371,-1.0477572679519653
1697552814868978400,3.259978515625,7.524828910827637,6.666104793548584,-1.2083754539489746
1697552814878570000,3.269570068359375,7.77607536315918,6.749853610992432,-1.3112667798995972
1697552814888162000,3.279162109375,8.06112003326416,6.8264241218566895,-1.399801254272461
1697552814897753300,3.28875341796875,8.247760772705078,7.018148899078369,-1.4787644147872925
1697552814907344100,3.29834423828125,8.50169849395752,7.176074981689453,-0.9376873970031738
1697552814916935700,3.307935791015625,8.293224334716797,7.456334590911865,-0.2386840581893921
1697552814926527700,3.31752783203125,8.252546310424805,7.690831184387207,0.35024940967559814
1697552814936119000,3.327119140625,8.376973152160645,7.791329860687256,0.9128618240356445
1697552814945709800,3.336709716796875,8.571090698242188,7.836793422698975,1.1404790878295898
1697552814955301400,3.34630126953125,8.776873588562012,7.937291622161865,0.9607182741165161
1697552814964893400,3.3558935546875,8.906085968017578,8.059624671936035,0.4004986882209778
1697552814974484700,3.365484619140625,9.026025772094727,8.21276569366455,-0.3439682424068451
1697552814984075500,3.375075439453125,9.224630355834961,8.430512428283691,-1.155434250831604
1697552814993667000,3.3846669921875,9.499805450439453,8.600702285766602,-1.6510475873947144
1697552815003259100,3.394259033203125,9.705886840820312,8.727521896362305,-1.8451653718948364
1697552815012850400,3.403850341796875,9.746564865112305,9.007481575012207,-1.955235242843628
1697552815022441200,3.413441162109375,9.708279609680176,9.299705505371094,-2.010270118713379
1697552815032032500,3.423032470703125,9.54078197479248,9.30449104309082,-1.9336998462677002
1697552815041624800,3.432624755859375,9.24855899810791,8.966803550720215,-1.5481562614440918
1697552815051216100,3.442216064453125,9.009276390075684,8.473583221435547,-1.0118649005889893
1697552815060807000,3.451806884765625,8.858229637145996,7.997411251068115,-0.5330012440681458
1697552815070398200,3.461398193359375,8.934800148010254,7.489833831787109,-0.1740778535604477
1697552815079990500,3.470990478515625,9.425627708435059,6.835995197296143,-0.032602209597826004
1697552815089581800,3.480581787109375,10.132108688354492,6.029314994812012,-0.11425728350877762
1697552815099172600,3.490172607421875,10.883753776550293,5.246562957763672,-0.35114672780036926
1697552815108764000,3.499763916015625,11.477473258972168,4.599902629852295,-0.5569294691085815
1697552815118356200,3.509356201171875,11.755339622497559,4.1404805183410645,-0.5066801905632019
1697552815127947500,3.518947509765625,11.723933219909668,3.9248273372650146,-0.39900317788124084
1697552815137538000,3.5285380859375,11.214262008666992,4.039682865142822,-0.36311084032058716
1697552815147129600,3.538129638671875,10.141679763793945,4.3055853843688965,-0.41096729040145874
1697552815156722000,3.547721923828125,8.841479301452637,4.585545539855957,-0.4013960063457489
1697552815166313200,3.557313232421875,7.610970497131348,4.851448059082031,-0.28175488114356995
1697552815175903700,3.56690380859375,6.4187469482421875,5.057230472564697,-0.18843477964401245
1697552815185495300,3.576495361328125,5.327021598815918,5.148158073425293,-0.11904292553663254
1697552815195087600,3.586087646484375,4.4605207443237305,5.167300701141357,-0.049651071429252625
1697552815204679000,3.595678955078125,3.79471755027771,5.177170753479004,0.10378868132829666
1697552815214269400,3.60526953125,3.3281171321868896,5.160121917724609,0.19710876047611237
1697552815223861000,3.614861083984375,3.122035264968872,5.071587562561035,0.23778675496578217
1697552815233453300,3.624453369140625,3.1411778926849365,4.901697158813477,0.3000001311302185
1697552815243044600,3.634044677734375,3.3975090980529785,4.674378871917725,0.3885345757007599
1697552815252635100,3.64363525390625,3.933800458908081,4.444368839263916,0.4387838542461395
1697552815262226700,3.653226806640625,4.59212589263916,4.264907360076904,0.40767714381217957
1697552815271819000,3.662819091796875,5.221737384796143,4.202693939208984,0.23300109803676605
1697552815281410300,3.672410400390625,5.6671013832092285,4.19072961807251,-0.01585244946181774
1697552815291000800,3.682000732421875,5.994917869567871,4.229014873504639,-0.32243284583091736
1697552815300592400,3.69159228515625,6.244070529937744,4.348656177520752,-0.7414759397506714
1697552815310184700,3.701184814453125,6.385247230529785,4.568795680999756,-1.155434250831604
1697552815319776000,3.71077587890625,6.399604320526123,4.77248477935791,-1.3112667798995972
1697552815329366500,3.720366455078125,6.428318023681641,4.930410861968994,-1.1219347715377808
1697552815338958000,3.7299580078125,6.478567123413086,5.1218366622924805,-0.7701897621154785
1697552815348550400,3.73955029296875,6.557530403137207,5.402096271514893,-0.32961133122444153
1697552815358141700,3.7491416015625,6.727719783782959,5.684449195861816,0.12053844332695007
1697552815367732200,3.758732177734375,7.103393077850342,5.9407806396484375,0.5177469849586487
1697552815377323800,3.76832373046875,7.730611801147461,6.218348026275635,0.7956135272979736
1697552815386916000,3.777916015625,8.413164138793945,6.4579291343688965,1.0492527484893799
1697552815396507400,3.78750732421875,9.016454696655273,6.706782817840576,1.2601202726364136
1697552815406098000,3.797097900390625,9.317950248718262,6.891329288482666,1.4850455522537231
1697552815415689500,3.806689453125,9.265308380126953,7.039684295654297,1.7509479522705078
1697552815425281500,3.816281494140625,8.831908226013184,7.0995049476623535,2.0452651977539062
1697552815434873000,3.825873046875,8.271688461303711,7.16650390625,2.207977056503296
1697552815444463600,3.835463623046875,7.879265785217285,7.492226600646973,1.973480463027954
1697552815454055200,3.84505517578125,7.699504852294922,7.8918280601501465,1.5400804281234741
1697552815463647500,3.8546474609375,7.70668363571167,8.167302131652832,1.1356934309005737
1697552815473238800,3.86423876953125,7.874480247497559,8.332406997680664,0.8458628058433533
1697552815482829300,3.873829345703125,8.113762855529785,8.480761528015137,0.5659025311470032
1697552815492420900,3.8834208984375,8.257331848144531,8.581559181213379,0.45553362369537354
1697552815502013000,3.893012939453125,8.405985832214355,8.691629409790039,0.4411766827106476
1697552815511604500,3.9026044921875,8.602197647094727,8.90219783782959,0.38614174723625183
1697552815521195000,3.912195068359375,8.609375953674316,9.00987434387207,0.4220340847969055
1697552815530786600,3.92178662109375,8.389236450195312,8.904590606689453,0.6352944374084473
1697552815540378600,3.931378662109375,8.147261619567871,8.698807716369629,0.7286145091056824
1697552815549970200,3.94097021484375,8.056334495544434,8.404191017150879,0.7262216806411743
1697552815559560700,3.950560791015625,8.16401195526123,7.944470405578613,0.8051848411560059
1697552815569152300,3.96015234375,8.396414756774902,7.518548011779785,0.9750752449035645
1697552815578744600,3.96974462890625,8.61176872253418,7.010970115661621,1.200299620628357
1697552815588335900,3.9793359375,9.205488204956055,6.369394779205322,1.4012967348098755
1697552815597926400,3.988926513671875,9.851848602294922,5.729912757873535,1.4539388418197632
1697552815607518000,3.99851806640625,10.419246673583984,5.282454967498779,1.3725829124450684
1697552815617110000,4.008110107421875,10.790433883666992,4.961517810821533,1.303191065788269
1697552815626701600,4.01770166015625,10.809576034545898,4.753342151641846,1.413260817527771
1697552815636292000,4.0272919921875,10.383355140686035,4.707878589630127,1.5329020023345947
1697552815645883600,4.036883544921875,9.490233421325684,4.882554531097412,1.5592230558395386
1697552815655476000,4.04647607421875,8.374580383300781,5.150550842285156,1.5759727954864502
1697552815665067300,4.0560673828125,7.316653251647949,5.3709893226623535,1.7174484729766846
1697552815674657800,4.06565771484375,6.3254265785217285,5.5121660232543945,1.8873388767242432
1697552815684249300,4.075249267578125,5.3940205574035645,5.603093147277832,1.9950158596038818
1697552815693841700,4.084841552734375,4.570590496063232,5.713163375854492,2.042872428894043
1697552815703433000,4.094432861328125,3.9529430866241455,5.790032386779785,1.9351953268051147
1697552815713023500,4.1040234375,3.5147573947906494,5.849853038787842,1.7676976919174194
1697552815722615000,4.113614990234375,3.375973701477051,5.878567218780518,1.4682958126068115
1697552815732207400,4.123207275390625,3.5793635845184326,5.821139335632324,1.1237293481826782
1697552815741798700,4.132798583984375,3.988835334777832,5.734997749328613,0.7573283910751343
1697552815751389200,4.14238916015625,4.551447868347168,5.6533427238464355,0.4411766827106476
1697552815760980700,4.151980712890625,5.18823766708374,5.61027193069458,0.3358924686908722
1697552815770573000,4.161572998046875,5.758028507232666,5.579164981842041,0.4507479667663574
1697552815780164400,4.171164306640625,6.1002020835876465,5.55523681640625,0.6352944374084473
1697552815789755000,4.1807548828125,6.3014984130859375,5.5360941886901855,0.745364248752594
1697552815799346400,4.190346435546875,6.320641040802002,5.552844047546387,0.7238288521766663
1697552815808938800,4.199938720703125,6.196214199066162,5.586343765258789,0.5994020700454712
1697552815818530000,4.209530029296875,6.023632049560547,5.658128261566162,0.3287140130996704
1697552815828120800,4.219120849609375,5.860919952392578,5.7517476081848145,-0.011066804639995098
1697552815837712100,4.228712158203125,5.710172176361084,5.878567218780518,-0.33439695835113525
1697552815847304400,4.238304443359375,5.50648307800293,5.974279880523682,-0.5928218364715576
1697552815856895700,4.247895751953125,5.384449005126953,6.125027656555176,-0.9807581901550293
1697552815866486300,4.257486328125,5.484947681427002,6.340681076049805,-1.3806586265563965
1697552815876077800,4.267077880859375,5.779563903808594,6.486643314361572,-1.5098711252212524
1697552815885670100,4.276670166015625,6.1603217124938965,6.52253532409668,-1.2849457263946533
1697552815895261400,4.286261474609375,6.734898567199707,6.711568355560303,-1.124327540397644
1697552815904852200,4.295852294921875,7.2110700607299805,6.939185619354248,-1.002293586730957
1697552815914443500,4.305443603515625,7.563114166259766,7.082755088806152,-0.9735797047615051
1697552815924035800,4.315035888671875,7.788039684295654,7.168896675109863,-1.002293586730957
1697552815933627100,4.324627197265625,7.83619499206543,7.0683979988098145,-1.222732424736023
1697552815943218000,4.334218017578125,7.022037029266357,7.379465103149414,-1.588834285736084
1697552815952809200,4.343809326171875,5.8010993003845215,7.95643424987793,-1.9671993255615234
1697552815962401500,4.353401611328125,4.8074798583984375,8.423334121704102,-2.2351953983306885
1697552815971992800,4.362992919921875,3.6080775260925293,8.866305351257324,-2.2591235637664795
1697552815981583600,4.37258349609375,2.7508487701416016,9.381061553955078,-2.321636199951172
1697552815991175000,4.3821748046875,2.542673110961914,9.788140296936035,-2.527418851852417
1697552816000767200,4.391767333984375,2.971287488937378,10.084850311279297,-2.8842484951019287
1697552816010358500,4.401358642578125,4.077369689941406,10.369894981384277,-3.3939197063446045
1697552816019949300,4.41094921875,5.679065227508545,10.582856178283691,-3.8560338020324707
1697552816029540600,4.42054052734375,7.132106781005859,10.714461326599121,-3.973581075668335
1697552816039133000,4.4301328125,8.333902359008789,10.901400566101074,-3.789034605026245
1697552816048724200,4.43972412109375,9.447162628173828,10.649855613708496,-3.410968780517578
1697552816058315000,4.44931494140625,9.993025779724121,9.998708724975586,-2.754737138748169
1697552816067906600,4.458906494140625,10.079465866088867,9.515059471130371,-2.113161563873291
1697552816077498600,4.46849853515625,9.93559741973877,8.945268630981445,-1.5625132322311401
1697552816087090200,4.478090087890625,9.674779891967773,8.23430061340332,-1.038185954093933
1697552816096680700,4.4876806640625,9.38734245300293,7.590332508087158,-0.6984050869941711
1697552816106272300,4.497272216796875,9.155238151550293,7.16650390625,-0.7821539044380188
1697552816115864300,4.5068642578125,9.183952331542969,6.7881388664245605,-1.069292664527893
1697552816125456000,4.516455810546875,9.305986404418945,6.32153844833374,-1.2418749332427979
1697552816135046400,4.52604638671875,9.325128555297852,6.007779598236084,-1.3280165195465088
1697552816144638000,4.535637939453125,9.327521324157715,5.880959987640381,-1.3806586265563965
1697552816154230000,4.54522998046875,9.186345100402832,5.912066459655762,-1.3782658576965332
1697552816163821300,4.5548212890625,8.69791030883789,5.969494342803955,-1.2610175609588623
1697552816173412000,4.564412109375,7.974978923797607,6.0125651359558105,-1.1003992557525635
1697552816183003600,4.574003662109375,7.136892795562744,6.005386829376221,-1.0166505575180054
1697552816192595700,4.583595703125,6.061916828155518,5.9647088050842285,-0.9496514797210693
1697552816202187300,4.593187255859375,5.169095039367676,5.80199670791626,-0.8371888399124146
1697552816211777800,4.60277783203125,4.589733123779297,5.576772212982178,-0.7103692293167114
1697552816221369300,4.612369384765625,4.1730828285217285,5.342275619506836,-0.724726140499115
1697552816230961400,4.62196142578125,3.8907296657562256,5.140979290008545,-0.7941179871559143
1697552816240553000,4.631552978515625,3.8521454334259033,4.894518852233887,-0.9017950296401978
1697552816250143500,4.6411435546875,3.9433717727661133,4.681557655334473,-1.0788638591766357
1697552816259735000,4.650735107421875,4.096512317657471,4.667200565338135,-1.3160524368286133
1697552816269327000,4.6603271484375,4.235296249389648,4.762913703918457,-1.5385849475860596
1697552816278918700,4.669918701171875,4.273581027984619,4.9878387451171875,-1.6917256116867065
1697552816288509200,4.67950927734375,4.213760852813721,5.177170753479004,-1.5385849475860596
1697552816298100700,4.689100830078125,4.211368083953857,5.351847171783447,-1.3710874319076538
1697552816307693000,4.698693115234375,4.314259052276611,5.495416164398193,-1.1581261157989502
1697552816317284400,4.708284423828125,4.577768802642822,5.591129302978516,-0.966401219367981
1697552816326875000,4.717875,4.829015254974365,5.655735492706299,-0.727118968963623
1697552816336466400,4.727466552734375,5.260022163391113,5.85703182220459,-0.5282155871391296
1697552816346058800,4.737058837890625,5.793920993804932,6.168098449707031,-0.48035913705825806
1697552816355650000,4.746650146484375,6.260820388793945,6.503392696380615,-0.33918261528015137
1697552816365240800,4.75624072265625,6.681957244873047,6.70199728012085,0.13250255584716797
1697552816374832000,4.76583203125,7.105785846710205,6.773781776428223,0.7166503667831421
1697552816384424400,4.775424560546875,7.579864025115967,6.891329288482666,1.2457633018493652
1697552816394015700,4.785015625,7.924729347229004,7.054041385650635,1.6600207090377808
1697552816403606300,4.794606201171875,8.137690544128418,7.2813591957092285,1.8251254558563232
1697552816413197800,4.80419775390625,8.391629219055176,7.580761432647705,1.8299111127853394
1697552816422790100,4.8137900390625,8.71226692199707,7.564011573791504,2.1337995529174805
1697552816432381400,4.82338134765625,8.846264839172363,7.786543846130371,1.9399809837341309
1697552816441972200,4.83297216796875,8.927620887756348,8.018946647644043,1.3510475158691406
1697552816451563500,4.8425634765625,8.891729354858398,8.028517723083496,0.8099704384803772
1697552816461155800,4.85215576171875,8.647661209106445,7.381857872009277,0.37896329164505005
1697552816470747100,4.8617470703125,8.027621269226074,6.891329288482666,-0.3774677813053131
1697552816480338000,4.871337890625,7.536793231964111,7.511369228363037,-0.8515457510948181
1697552816489929200,4.88092919921875,7.977371692657471,7.698009490966797,-1.306481122970581
1697552816499521500,4.890521484375,8.137690544128418,8.042875289916992,-1.4069796800613403
1697552816509112800,4.90011279296875,8.432307243347168,8.397012710571289,-1.2203395366668701
1697552816518703600,4.90970361328125,8.566305160522461,8.768199920654297,-0.5066801905632019
1697552816528295000,4.919294921875,8.324331283569336,9.072088241577148,0.36221352219581604
1697552816537887200,4.92888720703125,7.821837902069092,9.223134994506836,1.0926226377487183
1697552816547478500,4.938478515625,7.2349982261657715,9.259027481079102,1.7676976919174194
1697552816557069300,4.9480693359375,6.878467559814453,8.954839706420898,2.576770782470703
1697552816566660900,4.957660888671875,7.146463871002197,8.411369323730469,3.1585259437561035
1697552816576253000,4.9672529296875,7.579864025115967,7.8918280601501465,3.5153555870056152
1697552816585844500,4.976844482421875,7.994121551513672,7.393822193145752,3.6972100734710693
1697552816595435000,4.98643505859375,8.48734188079834,6.9104719161987305,3.694817304611206
1697552816605026600,4.996026611328125,9.047561645507812,6.4818572998046875,3.3358938694000244
1697552816614618600,5.00561865234375,9.468698501586914,6.2398834228515625,2.653341293334961
1697552816624210200,5.015210205078125,9.681958198547363,6.077171325683594,1.944766640663147
1697552816633800700,5.02480078125,9.662816047668457,5.749354839324951,1.4898312091827393
1697552816643392300,5.034392333984375,9.26291561126709,5.411667346954346,1.2840484380722046
1697552816652984300,5.043984375,8.63330364227295,5.225027561187744,1.1620144844055176
1697552816662575900,5.053575927734375,7.821837902069092,5.203492164611816,1.1524431705474854
1697552816672166400,5.06316650390625,6.98614501953125,5.260919570922852,1.1524431705474854
1697552816681758000,5.072758056640625,6.16271448135376,5.404489040374756,1.205085277557373
1697552816691350000,5.08235009765625,5.315057277679443,5.531308650970459,1.334297776222229
1697552816700941600,5.091941650390625,4.7596235275268555,5.655735492706299,1.4324034452438354
1697552816710532000,5.101531982421875,4.561018943786621,5.749354839324951,1.4682958126068115
1697552816720123600,5.11112353515625,4.821836948394775,5.785246849060059,1.4467604160308838
1697552816729716000,5.120716064453125,5.295914649963379,5.607879161834717,1.3366905450820923
1697552816739307300,5.130307373046875,5.779563903808594,5.694020748138428,1.1596217155456543
1697552816748897800,5.139897705078125,6.045167446136475,5.648557186126709,0.9032905697822571
1697552816758489300,5.1494892578125,6.425925254821777,5.636592864990234,0.4531407952308655
1697552816768081700,5.15908154296875,6.766005039215088,5.689234733581543,-0.07836493849754333
1697552816777673000,5.1686728515625,6.919145584106445,5.725127220153809,-0.45164528489112854
1697552816787263700,5.178263671875,6.864110946655273,5.634200096130371,-0.3487538993358612
1697552816796855000,5.18785498046875,6.660421848297119,5.766104221343994,-0.09990034252405167
1697552816806447400,5.197447265625,6.449853420257568,6.402894496917725,-0.16689938306808472
1697552816816038700,5.20703857421875,6.258427619934082,6.963113784790039,-0.2267199456691742
1697552816825629400,5.21662939453125,5.97098970413208,7.252645492553711,-0.05922235921025276
1697552816835220700,5.226220703125,5.532804012298584,7.3292155265808105,0.10857433080673218
1697552816844813000,5.23581298828125,5.030311584472656,7.312466144561768,0.14685949683189392
1697552816854404400,5.245404296875,4.843372344970703,7.412964344024658,-0.0687936544418335
1697552816863995100,5.2549951171875,4.986941337585449,7.671688556671143,-0.4827519655227661
1697552816873586400,5.26458642578125,5.298307418823242,7.918148994445801,-0.877866804599762
1697552816883178800,5.2741787109375,5.6288161277771,8.033304214477539,-1.2586246728897095
1697552816892770000,5.28377001953125,6.15553617477417,8.038089752197266,-1.5672988891601562
1697552816902360800,5.29336083984375,6.653243541717529,8.066802978515625,-1.775773525238037
1697552816911952400,5.302952392578125,7.163213729858398,8.210372924804688,-1.8164514303207397
1697552816921544400,5.31254443359375,7.481758117675781,8.363512992858887,-1.6342978477478027
1697552816931136000,5.322135986328125,7.661220073699951,8.397012710571289,-1.215553879737854
1697552816940726500,5.3317265625,7.790432453155518,8.353941917419434,-0.6768696904182434
1697552816950318000,5.341318115234375,7.704290866851807,8.21994400024414,-0.22193430364131927
1697552816959910100,5.35091015625,7.610970497131348,8.24387264251709,-0.13579268753528595
1697552816969501700,5.360501708984375,7.565506935119629,8.339585304260254,-0.4468596279621124
1697552816979092200,5.37009228515625,7.362117290496826,8.411369323730469,-0.7630113363265991
1697552816988683800,5.379683837890625,6.9670023918151855,8.373085021972656,-0.9520443081855774
1697552816998275800,5.38927587890625,6.80668306350708,8.428119659423828,-1.2705888748168945
1697552817007867400,5.398867431640625,6.988537788391113,8.612666130065918,-1.703689694404602
1697552817017458000,5.4084580078125,7.366902828216553,9.01705265045166,-2.2136600017547607
1697552817027049500,5.418049560546875,7.383652687072754,9.541379928588867,-2.599203586578369
1697552817036641500,5.4276416015625,7.4602227210998535,10.020243644714355,-2.9225337505340576
1697552817046233000,5.437233154296875,7.398009300231934,10.386645317077637,-2.9943184852600098
1697552817055823600,5.44682373046875,6.811468601226807,10.319645881652832,-2.8674988746643066
1697552817065415200,5.456415283203125,6.208178520202637,9.871889114379883,-2.5489542484283447
1697552817075007500,5.466007568359375,5.616852283477783,9.371489524841309,-2.1873390674591064
1697552817084598800,5.475598876953125,5.224130153656006,8.935696601867676,-1.8523437976837158
1697552817094189300,5.485189208984375,5.147559642791748,8.35872745513916,-1.5385849475860596
1697552817103780900,5.49478076171875,5.422734260559082,7.7578301429748535,-1.3471591472625732
1697552817113373200,5.504373291015625,6.0523457527160645,7.302894592285156,-1.3830515146255493
1697552817122964500,5.513964599609375,6.720541477203369,7.044469833374023,-1.6342978477478027
1697552817132555300,5.52355517578125,7.488936901092529,6.922435760498047,-1.9432710409164429
1697552817142146600,5.533146484375,8.008478164672852,6.865008354187012,-2.1466610431671143
1697552817151739000,5.54273876953125,8.147261619567871,6.804888725280762,-2.2184457778930664
1697552817161330200,5.552330078125,7.790432453155518,6.754639148712158,-2.1251256465911865
1697552817170921000,5.5619208984375,7.254140853881836,6.713961124420166,-1.9313069581985474
1697552817180512300,5.57151220703125,6.662814617156982,6.5847487449646,-1.6055840253829956
1697552817190104600,5.5811044921875,6.21774959564209,6.311966896057129,-1.0549356937408447
1697552817199696100,5.590696044921875,5.676672458648682,5.959922790527344,-0.42293140292167664
1697552817209286700,5.60028662109375,5.12602424621582,5.61745023727417,0.07507480680942535
1697552817218878200,5.609878173828125,4.898406982421875,5.258526802062988,0.2832503914833069
1697552817228470300,5.61947021484375,4.790729999542236,4.999803066253662,0.11814561486244202
1697552817238061800,5.629061767578125,4.65433931350708,4.849055290222168,-0.2602194547653198
1697552817247652400,5.63865234375,4.553840637207031,4.662415027618408,-0.6409773826599121
1697552817257244000,5.648243896484375,4.409972190856934,4.542474746704102,-0.8563314080238342
1697552817266836000,5.6578359375,4.199403762817383,4.676771640777588,-1.1075778007507324
1697552817276427500,5.667427490234375,4.158725738525391,4.863411903381348,-1.2323036193847656
1697552817286018000,5.67701806640625,4.295116424560547,5.073980331420898,-1.3878371715545654
1697552817295609600,5.686609619140625,4.596911430358887,5.3470611572265625,-1.557727575302124
1697552817305201700,5.69620166015625,4.939085006713867,5.607879161834717,-1.6965112686157227
1697552817314793200,5.705793212890625,5.2384867668151855,5.782854080200195,-1.6151553392410278
1697552817324383700,5.7153837890625,5.472983360290527,5.888138294219971,-1.2562319040298462
1697552817333975300,5.724975341796875,5.717350482940674,5.959922790527344,-0.7151548862457275
1697552817343567400,5.7345673828125,6.064310073852539,6.1465630531311035,-0.09032905846834183
1697552817353159000,5.744158935546875,6.327819347381592,6.340681076049805,0.5754738450050354
1697552817362749400,5.75374951171875,6.382854461669922,6.5919270515441895,1.1524431705474854
1697552817372341000,5.763341064453125,6.428318023681641,6.9344000816345215,1.5017952919006348
1697552817381933300,5.772933349609375,6.612565517425537,7.231110095977783,1.6576279401779175
1697552817391524600,5.782524658203125,6.842575550079346,7.410571575164795,1.6214364767074585
1697552817401115100,5.792115234375,6.928717136383057,7.561618804931641,1.4347963333129883
1697552817410706700,5.801706787109375,6.9430742263793945,7.717152118682861,1.1524431705474854
1697552817420299000,5.811299072265625,6.974180698394775,7.903792381286621,0.7836494445800781
1697552817429890300,5.820890380859375,6.926324367523193,8.13380241394043,0.4746761918067932
1697552817439481000,5.830481201171875,6.761219501495361,8.377870559692383,0.24017956852912903
1697552817449072400,5.840072265625,6.39721155166626,8.6605224609375,0.1301097273826599
1697552817458664700,5.849664794921875,5.985346794128418,8.969196319580078,0.07986045628786087
1697552817468256000,5.859256103515625,5.781956672668457,9.19442081451416,0.07507480680942535
1697552817477846800,5.8688466796875,5.738885879516602,9.385847091674805,0.09661021083593369
1697552817487438300,5.878438232421875,5.762814044952393,9.783354759216309,-0.0687936544418335
1697552817497030400,5.888030517578125,5.856134414672852,10.25743293762207,-0.22193430364131927
1697552817506622000,5.8976220703125,6.1914286613464355,10.331609725952148,-0.21954147517681122
1697552817516212500,5.90721240234375,6.746862411499023,10.068099975585938,-0.15732808411121368
1697552817525804000,5.916803955078125,7.275975227355957,9.96281623840332,-0.43489551544189453
1697552817535396000,5.92639599609375,7.766504287719727,9.879067420959473,-0.9161519408226013
1697552817544987600,5.935987548828125,8.324331283569336,9.625128746032715,-1.2323036193847656
1697552817554578200,5.945578125,8.767302513122559,9.244669914245605,-1.1147562265396118
1697552817564169700,5.955169677734375,8.901300430297852,8.811270713806152,-0.5521438121795654
1697552817573761800,5.96476171875,9.89013385772705,8.401798248291016,-0.09032905846834183
1697552817583353300,5.974353271484375,9.978668212890625,7.750651836395264,0.5443671345710754
1697552817592943900,5.98394384765625,9.966704368591309,7.188039302825928,0.7621139883995056
1697552817602535400,5.993535400390625,10.040882110595703,6.4890360832214355,0.9990034699440002
1697552817612127700,6.003127685546875,10.2445707321167,5.761318683624268,0.8123632669448853
1697552817621719000,6.012718994140625,10.541280746459961,5.335097312927246,0.2593221664428711
1697552817631309600,6.0223095703125,10.46471118927002,5.227420330047607,-0.44446679949760437
1697552817640901000,6.031901123046875,10.11296558380127,5.225027561187744,-0.8970093727111816
1697552817650493400,6.041493408203125,9.591031074523926,5.2130632400512695,-0.9329017400741577
1697552817660084700,6.051084716796875,8.886942863464355,5.296812057495117,-0.724726140499115
1697552817669675500,6.060675537109375,8.149654388427734,5.409274578094482,-0.4325026869773865
1697552817679266800,6.070266845703125,7.424330234527588,5.5121660232543945,-0.1333998590707779
1697552817688859100,6.079859130859375,6.598208427429199,5.62462854385376,0.21625134348869324
1697552817698450400,6.089450439453125,5.74606466293335,5.773283004760742,0.5682953596115112
1697552817708041200,6.099041259765625,4.970191955566406,6.022136211395264,0.8315058946609497
1697552817717632500,6.108632568359375,4.438685894012451,6.270989894866943,1.0109676122665405
1697552817727224800,6.118224853515625,4.146761417388916,6.3717875480651855,1.2170493602752686
1697552817736816000,6.127816162109375,3.9936211109161377,6.266204357147217,1.4922239780426025
1697552817746407000,6.137406982421875,4.098905086517334,6.041278839111328,1.5831513404846191
1697552817755998200,6.146998291015625,4.400400638580322,5.8474602699279785,1.4587244987487793
1697552817765590500,6.156590576171875,4.900799751281738,5.859424591064453,1.1715857982635498
1697552817775181800,6.166181884765625,5.3940205574035645,6.022136211395264,0.8745766878128052
1697552817784772600,6.175772705078125,5.810670852661133,6.14417028427124,0.6687939167022705
1697552817794364200,6.1853642578125,6.0834527015686035,6.148955821990967,0.5587241053581238
1697552817803956200,6.194956298828125,6.2871413230896,6.103492259979248,0.3646063506603241
1697552817813547500,6.204547607421875,6.473781585693359,5.883352756500244,-0.04247260093688965
1697552817823138300,6.21413818359375,6.485745906829834,6.105885028839111,-0.6936194896697998
1697552817832729900,6.223729736328125,6.526423931121826,6.634998321533203,-1.246660590171814
1697552817842322000,6.233322021484375,6.265605926513672,6.7570319175720215,-1.4093725681304932
1697552817851913500,6.24291357421875,6.016453266143799,6.642176628112793,-1.2586246728897095
1697552817861504000,6.25250390625,5.923133373260498,6.685247421264648,-1.2562319040298462
1697552817871095600,6.262095458984375,5.796313762664795,6.8865437507629395,-1.4380863904953003
1697552817880687600,6.2716875,5.887240886688232,7.061219692230225,-1.7542381286621094
1697552817890279200,6.281279052734375,6.116951942443848,7.183253765106201,-2.1179471015930176
1697552817899869700,6.29086962890625,6.581458568572998,7.267002582550049,-2.2495524883270264
1697552817909461200,6.300461181640625,6.890431880950928,7.480262756347656,-2.239981174468994
1697552817919053600,6.310053466796875,7.2110700607299805,7.872685432434082,-2.161017894744873
1697552817928644900,6.319644775390625,7.285546779632568,8.12662410736084,-1.6701902151107788
1697552817938235400,6.3292353515625,7.122535705566406,8.27258586883545,-0.968794047832489
1697552817947827000,6.338826904296875,6.878467559814453,8.473583221435547,-0.4085744619369507
1697552817957419300,6.348419189453125,6.516852378845215,8.648558616638184,-0.08554340898990631
1697552817967010600,6.358010498046875,6.234499454498291,8.447261810302734,0.3406781256198883
1697552817976601300,6.367601318359375,6.330212116241455,7.83200740814209,0.9439685344696045
1697552817986192600,6.377192626953125,6.686742782592773,8.040482521057129,0.6424728631973267
1697552817995785000,6.386784912109375,7.359724044799805,8.782556533813477,-0.29371899366378784
1697552818005376300,6.396376220703125,8.013263702392578,9.364311218261719,-1.1700903177261353
1697552818014967000,6.405967041015625,8.312366485595703,9.57487964630127,-1.550549030303955
1697552818024558300,6.415558349609375,8.252546310424805,9.65384292602539,-1.6414763927459717
1697552818034150700,6.425150634765625,8.04676342010498,9.914959907531738,-1.698904037475586
1697552818043742000,6.434741943359375,7.811967849731445,10.269396781921387,-1.7470595836639404
1697552818053332700,6.444332763671875,7.634898662567139,10.494321823120117,-1.8188443183898926
1697552818062924000,6.453924072265625,7.342974662780762,10.582856178283691,-1.8714864253997803
1697552818072516400,6.463516357421875,6.962216377258301,10.697711944580078,-2.019841432571411
1697552818082107600,6.473107666015625,6.674778938293457,10.680961608886719,-2.2686948776245117
1697552818091698400,6.482698486328125,6.514459609985352,10.381858825683594,-2.441277265548706
1697552818101290000,6.4922900390625,6.6149582862854,9.701998710632324,-2.534597396850586
1697552818110882000,6.501882080078125,6.878467559814453,8.612666130065918,-2.496312141418457
1697552818120473600,6.5114736328125,7.189534664154053,7.379465103149414,-2.369492530822754
1697552818130064100,6.521064208984375,7.4123663902282715,6.237490653991699,-2.02701997756958
1697552818139655700,6.53065576171875,7.848159313201904,5.210670471191406,-1.7183457612991333
1697552818149247700,6.540247802734375,8.28126049041748,4.47068977355957,-1.5720844268798828
1697552818158839300,6.54983935546875,8.86062240600586,4.207479476928711,-1.6199408769607544
1697552818168429800,6.559429931640625,9.47348403930664,4.458725929260254,-1.8355940580368042
1697552818178021400,6.569021484375,9.720243453979492,4.892126083374023,-2.0557336807250977
1697552818187613700,6.57861376953125,9.150452613830566,5.126622676849365,-2.1418752670288086
1697552818197205000,6.588205078125,8.461020469665527,5.246562957763672,-1.9432710409164429
1697552818206795500,6.59779541015625,7.558328628540039,5.253741264343262,-1.3758729696273804
1697552818216387000,6.607386962890625,6.701398849487305,5.222634315490723,-0.8156534433364868
1697552818225979400,6.6169794921875,5.796313762664795,5.3231329917907715,-0.35114672780036926
1697552818235570700,6.62657080078125,4.979763031005859,5.426024436950684,-0.047258246690034866
1697552818245161200,6.6361611328125,4.445864677429199,5.490630626678467,0.046360939741134644
1697552818254752800,6.645752685546875,4.204189300537109,5.4882378578186035,0.02961117960512638
1697552818264345000,6.655344970703125,3.9984066486358643,5.449952602386475,-0.027816563844680786
1697552818273936400,6.664936279296875,3.7301113605499268,5.461916923522949,-0.19561325013637543
1697552818283527200,6.674527099609375,3.5315070152282715,5.447559833526611,-0.25782662630081177
1697552818293118500,6.684118408203125,3.4070804119110107,5.119443893432617,0.16839489340782166
1697552818302710800,6.693710693359375,3.512364625930786,4.925625324249268,0.5057829022407532
1697552818312302000,6.703302001953125,3.9290146827697754,5.186742305755615,0.4124628007411957
1697552818321892900,6.712892822265625,4.541876316070557,5.732305526733398,-0.14775680005550385
1697552818331484400,6.722484375,5.051846981048584,6.084349632263184,-0.6122635006904602
1697552818341076500,6.732076416015625,5.023132801055908,5.9407806396484375,-0.7295117974281311
1697552818350667800,6.741667724609375,4.955834865570068,5.797211170196533,-0.8515457510948181
1697552818360258600,6.751258544921875,5.245665550231934,6.180062770843506,-1.2179467678070068
1697552818369850000,6.76085009765625,5.413163185119629,6.675675868988037,-1.5098711252212524
1697552818379442200,6.770442138671875,5.702993869781494,6.704390048980713,-1.3184453248977661
1697552818389033700,6.78003369140625,5.892026424407959,6.352644920349121,-0.5641079545021057
1697552818398624300,6.789624267578125,6.064310073852539,6.048457622528076,0.18753747642040253
1697552818408215800,6.7992158203125,6.267998695373535,6.103492259979248,0.5706881880760193
1697552818417808100,6.80880810546875,6.689135551452637,6.4100728034973145,0.5994020700454712
1697552818427399400,6.8183994140625,7.307082176208496,6.706782817840576,0.5225326418876648
1697552818436990000,6.827989990234375,7.752147197723389,6.912864685058594,0.5057829022407532
1697552818446581500,6.83758154296875,8.219046592712402,7.10429048538208,0.5635097622871399
1697552818456173800,6.847173828125,8.470592498779297,7.331608772277832,0.5563312768936157
1697552818465765000,6.85676513671875,8.444271087646484,7.549654483795166,0.47228336334228516
1697552818475355600,6.866355712890625,8.276473999023438,7.786543846130371,0.3167499005794525
1697552818484947200,6.875947265625,7.886444568634033,8.090731620788574,0.125324085354805
1697552818494539500,6.88553955078125,7.419544696807861,8.413763046264648,0.03439682722091675
1697552818504130800,6.895130859375,7.146463871002197,8.634201049804688,0.15164513885974884
1697552818513721600,6.9047216796875,7.160820960998535,8.698807716369629,0.393320232629776
1697552818523313000,6.91431298828125,7.331010341644287,8.859127044677734,0.44835513830184937
1697552818532905200,6.9239052734375,7.599006652832031,9.199206352233887,0.25692933797836304
1697552818542496800,6.933496826171875,8.15683364868164,9.404989242553711,0.17318053543567657
1697552818552087300,6.94308740234375,8.585447311401367,9.316454887390137,0.36699917912483215
1697552818561678800,6.952678955078125,8.769695281982422,9.275776863098145,0.5611169338226318
1697552818571271000,6.96227099609375,8.978169441223145,9.20159912109375,0.8291130661964417
1697552818580862200,6.9718623046875,9.112167358398438,8.969196319580078,1.200299620628357
1697552818590453000,6.981452880859375,9.291629791259766,8.650951385498047,1.4659029245376587
1697552818600044500,6.99104443359375,9.514460563659668,8.361120223999023,1.6477575302124023
1697552818609636600,7.00063671875,9.741779327392578,8.040482521057129,1.846660852432251
1697552818619228200,7.010228271484375,9.918848037719727,7.671688556671143,2.1122641563415527
1697552818628818700,7.019818603515625,9.89970588684082,7.2813591957092285,2.292025089263916
1697552818638410200,7.02941015625,9.732208251953125,6.800102710723877,2.356631278991699
1697552818648002300,7.039002197265625,9.57188892364502,6.307181358337402,2.2489542961120605
1697552818657593900,7.04859375,9.384949684143066,5.873781204223633,1.9974087476730347
1697552818667184400,7.058184326171875,9.04516887664795,5.560022354125977,1.7102699279785156
1697552818676776000,7.06777587890625,8.662017822265625,5.2992048263549805,1.578365683555603
1697552818686368300,7.0773681640625,8.2788667678833,5.08355188369751,1.4467604160308838
1697552818695959600,7.08695947265625,7.886444568634033,4.887340068817139,1.2242279052734375
1697552818705550000,7.096550048828125,7.603792190551758,4.762913703918457,0.8482556343078613
1697552818715141600,7.1061416015625,7.374081134796143,4.8227338790893555,0.3813561201095581
1697552818724734000,7.11573388671875,7.1249284744262695,5.095515727996826,-0.049651071429252625
1697552818734325200,7.1253251953125,6.833003997802734,5.437988758087158,-0.2745763957500458
1697552818743916000,7.134916015625,6.40438985824585,5.68684196472168,-0.15972091257572174
1697552818753507300,7.14450732421875,6.023632049560547,5.80917501449585,0.2234298139810562
1697552818763099600,7.154099609375,5.700600624084473,5.8953166007995605,0.6496513485908508
1697552818772691200,7.163691162109375,5.413163185119629,5.921638011932373,0.9463613629341125
1697552818782281700,7.17328173828125,5.209773063659668,5.912066459655762,1.0013962984085083
1697552818791873300,7.182873291015625,5.097310543060303,5.900102615356445,0.9056833982467651
1697552818801465300,7.19246533203125,5.073382377624512,5.890531063079834,0.6975077986717224
1697552818811056600,7.202056640625,5.006083965301514,5.842674732208252,0.5009972453117371
1697552818820647400,7.2116474609375,4.963013172149658,5.7756757736206055,0.2832503914833069
1697552818830239000,7.221239013671875,4.984548568725586,5.732305526733398,0.03918246924877167
1697552818839831000,7.2308310546875,5.073382377624512,5.787639617919922,-0.2602194547653198
1697552818849422600,7.240422607421875,5.154737949371338,5.902495384216309,-0.4707878530025482
1697552818859013000,7.25001318359375,5.12602424621582,5.962316036224365,-0.5736792087554932
1697552818868604700,7.259604736328125,5.020740032196045,5.959922790527344,-0.6409773826599121
1697552818878196700,7.26919677734375,4.970191955566406,6.055635929107666,-0.7821539044380188
1697552818887788300,7.278788330078125,4.893621444702148,6.1944193840026855,-0.91136634349823
1697552818897378800,7.28837890625,4.805087089538574,6.393322944641113,-1.0621141195297241
1697552818906970400,7.297970458984375,4.795515537261963,6.618248462677002,-1.2323036193847656
1697552818916562700,7.307562744140625,4.824229717254639,6.847959518432617,-1.4213366508483887
1697552818926154000,7.317154052734375,4.9414777755737305,7.037291526794434,-1.552941918373108
1697552818935744500,7.32674462890625,5.212165832519531,7.216753005981445,-1.6175481081008911
1697552818945336000,7.336336181640625,5.449055194854736,7.463512897491455,-1.6845471858978271
1697552818954928400,7.345928466796875,5.624030590057373,7.827221870422363,-1.7997016906738281
1697552818964519700,7.355519775390625,5.8010993003845215,8.231907844543457,-1.8738791942596436
1697552818974110500,7.3651103515625,6.02602481842041,8.612666130065918,-1.8690935373306274
1697552818983701800,7.37470166015625,6.128916263580322,8.935696601867676,-1.710868239402771
1697552818993294000,7.384294189453125,6.037988662719727,9.199206352233887,-1.4141582250595093
1697552819002885400,7.393885498046875,5.820241928100586,9.369096755981445,-1.0238289833068848
1697552819012476200,7.40347607421875,5.597709655761719,9.52941608428955,-0.6984050869941711
1697552819022067700,7.413067626953125,5.504090309143066,9.692427635192871,-0.4612165689468384
1697552819031659800,7.42265966796875,5.403591632843018,9.859925270080566,-0.4205385744571686
1697552819041251000,7.4322509765625,5.31984281539917,9.979565620422363,-0.5497509837150574
1697552819050841900,7.441841796875,5.398806095123291,10.161420822143555,-0.877866804599762
1697552819060433400,7.451433349609375,5.789135456085205,10.3890380859375,-1.3112667798995972
1697552819070025500,7.461025390625,6.519245147705078,10.692926406860352,-1.8667007684707642
1697552819079617000,7.470616943359375,7.398009300231934,10.968400001525879,-2.2351953983306885
1697552819089207600,7.48020751953125,8.120941162109375,10.939685821533203,-2.153839588165283
1697552819098799000,7.489799072265625,8.453842163085938,10.623534202575684,-1.8236299753189087
1697552819108391200,7.49939111328125,8.470592498779297,10.288538932800293,-1.5744773149490356
1697552819117982700,7.508982666015625,8.314759254455566,9.931709289550781,-1.4021940231323242
1697552819127573200,7.5185732421875,8.058727264404297,9.376275062561035,-1.1530413627624512
1697552819137164800,7.528164794921875,7.826623916625977,8.605487823486328,-0.8371888399124146
1697552819146757000,7.537757080078125,7.599006652832031,7.822436332702637,-0.6074778437614441
1697552819156348400,7.547348388671875,7.541578769683838,7.087540626525879,-0.5760720372200012
1697552819165939000,7.55693896484375,7.682755470275879,6.378965854644775,-0.7151548862457275
1697552819175530500,7.566530517578125,8.05394172668457,5.907280921936035,-1.150648593902588
1697552819185122800,7.576122802734375,8.475378036499023,5.631807327270508,-1.6893328428268433
1697552819194714000,7.585714111328125,8.700303077697754,5.327918529510498,-2.0772690773010254
1697552819204305000,7.595304931640625,8.772088050842285,5.064409255981445,-2.3599212169647217
1697552819213896200,7.604896240234375,8.695517539978027,4.990231513977051,-2.6398816108703613
1697552819223488500,7.614488525390625,8.355437278747559,5.076373100280762,-2.8746774196624756
1697552819233079800,7.624079833984375,7.7353973388671875,5.167300701141357,-2.979961395263672
1697552819242670600,7.633670654296875,6.9430742263793945,5.265705108642578,-2.845963478088379
1697552819252262000,7.643261962890625,6.0523457527160645,5.394917964935303,-2.5561327934265137
1697552819261854200,7.652854248046875,5.18823766708374,5.461916923522949,-2.048555374145508
1697552819271445500,7.662445556640625,4.587339878082275,5.490630626678467,-1.4213366508483887
1697552819281036300,7.672036376953125,4.223331928253174,5.4882378578186035,-0.8635098934173584
1697552819290627800,7.6816279296875,4.074976921081543,5.385346412658691,-0.4612165689468384
1697552819300220000,7.691219970703125,4.132404804229736,5.225027561187744,-0.20997019112110138
1697552819309811500,7.7008115234375,4.383651256561279,5.085944652557373,-0.04486542567610741
1697552819319402000,7.710402099609375,4.702195644378662,4.949553489685059,0.06311069428920746
1697552819328993500,7.71999365234375,4.982155799865723,4.911268711090088,0.07986045628786087
1697552819338585600,7.729585693359375,5.267200946807861,4.925625324249268,-0.04247260093688965
1697552819348177200,7.73917724609375,5.530411243438721,5.0117669105529785,-0.25304099917411804
1697552819357767700,7.748767578125,5.74606466293335,5.114658355712891,-0.4612165689468384
1697552819367359200,7.758359130859375,5.978168487548828,5.220241546630859,-0.6505486369132996
1697552819376951600,7.76795166015625,6.150750637054443,5.375775337219238,-0.8826524615287781
1697552819386542800,7.77754296875,6.208178520202637,5.5360941886901855,-1.0501500368118286
1697552819396133400,7.78713330078125,6.265605926513672,5.6916279792785645,-1.1434701681137085
1697552819405725000,7.796724853515625,6.294320106506348,5.952744483947754,-1.1653046607971191
1697552819415317200,7.806317138671875,6.366104602813721,6.311966896057129,-1.155434250831604
1697552819424908500,7.815908447265625,6.674778938293457,6.742675304412842,-1.0453643798828125
1697552819434499300,7.825499267578125,7.010073184967041,7.051648139953613,-0.7438687682151794
1697552819444090600,7.835090576171875,7.390830993652344,7.159325122833252,-0.21236300468444824
1697552819453683000,7.844682861328125,7.826623916625977,7.22871732711792,0.3047857880592346
1697552819463274200,7.854274169921875,8.276473999023438,7.3746795654296875,0.6448656916618347
1697552819472865000,7.863864990234375,8.525627136230469,7.597510814666748,0.7908278703689575
1697552819482456300,7.873456298828125,8.578269004821777,7.721937656402588,0.9535398483276367
1697552819492048600,7.883048583984375,8.504091262817383,7.798508167266846,1.0950154066085815
1697552819501640200,7.89264013671875,8.355437278747559,7.858328819274902,1.150050401687622
1697552819511230700,7.902230712890625,8.154440879821777,8.097909927368164,0.9511470198631287
1697552819520822300,7.911822265625,7.979764461517334,8.480761528015137,0.5778666734695435
1697552819530414300,7.921414306640625,7.886444568634033,8.801698684692383,0.2928216755390167
1697552819540006000,7.931005859375,7.910372734069824,8.904590606689453,0.2665006220340729
1697552819549596400,7.940596435546875,8.147261619567871,8.940483093261719,0.1947159469127655
1697552819559188000,7.95018798828125,8.484949111938477,9.21834945678711,-0.14057832956314087
1697552819568780000,7.959780029296875,8.762516975402832,9.527023315429688,-0.4205385744571686
1697552819578371600,7.96937158203125,8.947062492370605,9.596415519714355,-0.38225340843200684
1697552819587962000,7.978962158203125,8.906085968017578,9.656235694885254,-0.28654050827026367
1697552819597553700,7.9885537109375,8.657232284545898,9.843174934387207,-0.2745763957500458
1697552819607146000,7.99814599609375,8.348258972167969,9.888638496398926,-0.2315055876970291
1697552819616737300,8.0077373046875,7.986942768096924,9.666106224060059,-0.08554340898990631
1697552819626328000,8.017328125,7.6875410079956055,9.230313301086426,0.16121642291545868
1697552819635919400,8.02691943359375,7.579864025115967,8.579166412353516,0.5419743061065674
1697552819645511700,8.03651171875,7.603792190551758,7.951648712158203,0.8410771489143372
1697552819655103000,8.04610302734375,7.7593255043029785,7.4587273597717285,0.9702895879745483
1697552819664693800,8.05569384765625,7.943871974945068,6.965506553649902,1.1093723773956299
1697552819674285000,8.06528515625,8.104190826416016,6.33589506149292,1.2481560707092285
1697552819683877400,8.07487744140625,8.269295692443848,5.720341682434082,1.2936197519302368
1697552819693469000,8.084468994140625,8.394021987915039,5.277669429779053,1.1715857982635498
1697552819703059500,8.0940595703125,8.432307243347168,4.96630334854126,1.0037890672683716
1697552819712651000,8.103651123046875,8.264510154724121,4.746163845062256,0.8147560954093933
1697552819722243000,8.1132431640625,7.867301940917969,4.71027135848999,0.6041877269744873
1697552819731834600,8.122834716796875,7.328617572784424,4.844269275665283,0.359820693731308
1697552819741425200,8.132425048828125,6.672386169433594,5.14576530456543,-0.030209386721253395
1697552819751016700,8.1420166015625,5.951847076416016,5.543272972106934,-0.32721850275993347
1697552819760608800,8.15160888671875,5.295914649963379,5.880959987640381,-0.3415754437446594
1697552819770200300,8.161200439453125,4.8074798583984375,6.058028697967529,-0.0014955141814425588
1697552819779790800,8.170790771484375,4.41475772857666,6.113063812255859,0.5009972453117371
1697552819789382400,8.18038232421875,4.185046672821045,6.110671043395996,0.9583254456520081
1697552819798974700,8.189974609375,4.208974838256836,6.089135646820068,1.2840484380722046
1697552819808566000,8.19956591796875,4.510769844055176,6.024528980255127,1.4228321313858032
1697552819818156500,8.209156494140625,4.838586330413818,5.8713884353637695,1.3175479173660278
1697552819827748000,8.218748046875,5.255236625671387,5.701199054718018,1.0325030088424683
1697552819837340400,8.22834033203125,5.662315845489502,5.605485916137695,0.6711867451667786
1697552819846931700,8.237931640625,5.947061538696289,5.593522071838379,0.3071786165237427
1697552819856522500,8.2475224609375,6.078666687011719,5.6222357749938965,-0.025423740968108177
1697552819866113800,8.25711376953125,6.104988098144531,5.674878120422363,-0.23629122972488403
1697552819875706000,8.2667060546875,6.057131290435791,5.722734451293945,-0.28893333673477173
1697552819885297400,8.27629736328125,6.0140604972839355,5.785246849060059,-0.3008974492549896
1697552819894888200,8.28588818359375,5.863312721252441,5.91924524307251,-0.372682124376297
1697552819904479700,8.295479736328126,5.671886920928955,6.079564094543457,-0.5210371017456055
1697552819914071800,8.30507177734375,5.544768333435059,6.2877397537231445,-0.7079764008522034
1697552819923663400,8.314663330078124,5.38205623626709,6.572784900665283,-0.8826524615287781
1697552819933254000,8.32425390625,5.193023204803467,6.905686378479004,-1.0310074090957642
1697552819942845400,8.333845458984374,5.051846981048584,7.211967468261719,-1.1653046607971191
1697552819952437500,8.3434375,5.070989608764648,7.520940780639648,-1.2897313833236694
1697552819962029000,8.353029052734374,5.226522922515869,7.798508167266846,-1.3399807214736938
1697552819971619600,8.36261962890625,5.456233978271484,8.052446365356445,-1.2562319040298462
1697552819981211100,8.372211181640624,5.755635738372803,8.21994400024414,-1.057328462600708
1697552819990803200,8.38180322265625,6.08823823928833,8.353941917419434,-0.8682954907417297
1697552820000394800,8.391394775390625,6.33499813079834,8.502297401428223,-0.724726140499115
1697552820009984800,8.40098486328125,6.569494724273682,8.677271842956543,-0.6266204118728638
1697552820019575300,8.4105751953125,6.730112552642822,8.813663482666016,-0.47796630859375
1697552820029167400,8.42016748046875,6.81386137008667,8.88544750213623,-0.3128615617752075
1697552820038758700,8.429758544921874,6.833003997802734,8.935696601867676,-0.18843477964401245
1697552820048349400,8.439349365234374,6.821040153503418,8.969196319580078,-0.12622138857841492
1697552820057941000,8.44894091796875,6.775576591491699,9.00269603729248,-0.15493527054786682
1697552820067533000,8.458532958984375,6.768397808074951,9.03380298614502,-0.2386840581893921
1697552820077124600,8.46812451171875,6.8258256912231445,8.9883394241333,-0.4540380835533142
1697552820086715100,8.477715087890624,7.151249408721924,9.120243072509766,-1.0214362144470215
1697552820096306700,8.487306640625,7.642077445983887,9.407382011413574,-1.7374883890151978
1697552820105898800,8.496898681640625,8.094619750976562,9.486345291137695,-2.144268274307251
1697552820115490300,8.506490234375,8.355437278747559,9.381061553955078,-2.1155543327331543
1697552820125080800,8.516080810546875,8.341080665588379,9.445667266845703,-2.03419828414917
1697552820134672400,8.52567236328125,8.140083312988281,9.622735977172852,-1.9767706394195557
1697552820144264700,8.5352646484375,7.766504287719727,9.591629981994629,-1.9025931358337402
1697552820153856000,8.54485595703125,7.2349982261657715,9.215956687927246,-1.7685949802398682
1697552820163446800,8.55444677734375,6.787540435791016,8.686843872070312,-1.667797327041626
1697552820173038000,8.5640380859375,6.4115681648254395,8.25105094909668,-1.6654045581817627
1697552820182630400,8.57363037109375,6.22492790222168,7.8439717292785645,-1.7470595836639404
1697552820192222000,8.583221923828125,6.3254265785217285,7.389036178588867,-1.833201289176941
1697552820201812500,8.5928125,6.658029079437256,6.97986364364624,-1.979163408279419
1697552820211404000,8.602404052734375,7.158428192138672,6.678069114685059,-2.1705892086029053
1697552820220996000,8.61199609375,7.661220073699951,6.400501251220703,-2.355135679244995
1697552820230587600,8.621587646484375,8.173583030700684,6.120242118835449,-2.417349100112915
1697552820240178200,8.63117822265625,8.606983184814453,5.914459228515625,-2.486740827560425
1697552820249769700,8.640769775390625,8.961420059204102,5.804389476776123,-2.5609183311462402
1697552820259361800,8.65036181640625,8.99970531463623,5.770890235900879,-2.5561327934265137
1697552820268953300,8.659953369140625,8.717052459716797,5.74696159362793,-2.4029922485351562
1697552820278544000,8.6695439453125,8.120941162109375,5.641378402709961,-2.05812668800354
1697552820288136000,8.679135986328125,7.264011383056641,5.543272972106934,-1.5792629718780518
1697552820297728300,8.688728271484376,6.428318023681641,5.504987716674805,-1.1892328262329102
1697552820307319600,8.698319580078126,5.707779407501221,5.500202178955078,-0.8132606148719788
1697552820316910300,8.707910400390626,5.068596363067627,5.406881809234619,-0.44446679949760437
1697552820326501600,8.717501708984376,4.649553298950195,5.232205867767334,-0.17647066712379456
1697552820336094000,8.727093994140626,4.374079704284668,5.059623718261719,-0.07118647545576096
1697552820345685200,8.736685302734376,4.254438877105713,4.995017051696777,-0.12143574655056
1697552820355276000,8.746276123046876,4.230510234832764,5.066802024841309,-0.2745763957500458
1697552820364867600,8.75586767578125,4.319045066833496,5.140979290008545,-0.4133601188659668
1697552820374459600,8.765459716796874,4.470091819763184,5.20588493347168,-0.49232324957847595
1697552820384051200,8.77505126953125,4.65433931350708,5.239384174346924,-0.5306084156036377
1697552820393641700,8.784641845703124,4.876871585845947,5.284847736358643,-0.5234299302101135
1697552820403233300,8.7942333984375,5.114060401916504,5.366203784942627,-0.46360939741134644
1697552820412825300,8.803825439453124,5.303092956542969,5.490630626678467,-0.33918261528015137
1697552820422417000,8.8134169921875,5.496912002563477,5.62462854385376,-0.19322042167186737
1697552820432007400,8.82300732421875,5.7221360206604,5.818746566772461,-0.07357929646968842
1697552820441599000,8.832598876953124,5.90159797668457,6.101099491119385,-0.04007977992296219
1697552820451191300,8.84219140625,5.987739562988281,6.407680034637451,-0.05922235921025276
1697552820460782600,8.851782470703125,6.109773635864258,6.778567314147949,-0.07357929646968842
1697552820470373000,8.861373046875,6.392425537109375,7.101897716522217,-0.0568295381963253
1697552820479964700,8.870964599609374,6.73729133605957,7.381857872009277,0.03200400248169899
1697552820489557000,8.880556884765625,7.096214771270752,7.525726318359375,0.2665006220340729
1697552820499148300,8.890148193359375,7.417151927947998,7.5927252769470215,0.5563312768936157
1697552820508739000,8.899739013671875,7.608577728271484,7.662117004394531,0.8003991842269897
1697552820518330400,8.909330322265625,7.704290866851807,7.767401218414307,0.9583254456520081
1697552820527922700,8.918922607421875,7.752147197723389,7.9830546379089355,0.9990034699440002
1697552820537514200,8.92851416015625,7.63729190826416,8.224729537963867,1.0013962984085083
1697552820547104800,8.938104736328125,7.52004337310791,8.356334686279297,1.0396814346313477
1697552820556696300,8.9476962890625,7.40279483795166,8.442476272583008,1.0037890672683716
1697552820566288400,8.957288330078125,7.376473903656006,8.533403396606445,0.8817551732063293
1697552820575880000,8.9668798828125,7.481758117675781,8.665307998657227,0.8027920126914978
1697552820585470500,8.976470458984375,7.646862983703613,8.80648422241211,0.6616154313087463
1697552820595062000,8.98606201171875,7.754539966583252,9.189635276794434,0.3334996700286865
1697552820604654000,8.995654052734375,7.852944850921631,9.596415519714355,0.015254244208335876
1697552820614245600,9.00524560546875,7.893622875213623,9.733105659484863,0.05593222752213478
1697552820623836200,9.014836181640625,7.7114691734313965,9.764211654663086,0.22821545600891113
1697552820633427700,9.024427734375,7.5702924728393555,9.881460189819336,0.31435707211494446
1697552820643020000,9.03402001953125,7.5942206382751465,9.76660442352295,0.5177469849586487
1697552820652611300,9.043611328125,7.709076404571533,9.309276580810547,0.8602197170257568
1697552820662201900,9.053201904296875,7.7832536697387695,8.758627891540527,1.1668001413345337
1697552820671793400,9.06279345703125,7.951050758361816,8.217551231384277,1.475474238395691
1697552820681385700,9.0723857421875,8.247760772705078,7.6405816078186035,1.7078771591186523
1697552820690977000,9.08197705078125,8.492127418518066,6.946363925933838,1.9519450664520264
1697552820700567600,9.091567626953125,8.714659690856934,6.180062770843506,2.0620148181915283
1697552820710159000,9.1011591796875,8.927620887756348,5.579164981842041,1.8921245336532593
1697552820719751400,9.11075146484375,9.198308944702148,5.148158073425293,1.4946168661117554
1697552820729342700,9.1203427734375,9.418449401855469,4.911268711090088,0.9200403094291687
1697552820738933500,9.12993359375,9.425627708435059,4.849055290222168,0.34307095408439636
1697552820748524800,9.13952490234375,9.093025207519531,4.913661479949951,-0.07597211748361588
1697552820758117000,9.1491171875,8.597412109375,5.1218366622924805,-0.3320041298866272
1697552820767708400,9.15870849609375,8.013263702392578,5.437988758087158,-0.5808576941490173
1697552820777299200,9.16829931640625,7.33340311050415,5.806782245635986,-0.7725825905799866
1697552820786890800,9.177890869140626,6.581458568572998,6.127420425415039,-0.7821539044380188
1697552820796482800,9.18748291015625,5.769992828369141,6.326323986053467,-0.5832505226135254
1697552820806074400,9.197074462890624,5.164309501647949,6.443572044372559,-0.25064817070961
1697552820815665000,9.206664794921876,4.706981182098389,6.596713066101074,0.13489536941051483
1697552820825256400,9.21625634765625,4.412364959716797,6.713961124420166,0.48424747586250305
1697552820834848500,9.2258486328125,4.297509670257568,6.63978385925293,0.776470959186554
1697552820844440000,9.235440185546874,4.412364959716797,6.429215431213379,0.9559326171875
1697552820854030600,9.245030517578124,4.709373950958252,6.211169242858887,0.867398202419281
1697552820863622100,9.2546220703125,5.104488849639893,5.979065418243408,0.589830756187439
1697552820873214200,9.264214111328124,5.530411243438721,5.773283004760742,0.24017956852912903
1697552820882805800,9.2738056640625,5.875277042388916,5.6461639404296875,-0.10707881301641464
1697552820892396500,9.283396484375,6.1241302490234375,5.576772212982178,-0.42293140292167664
1697552820901987800,9.29298779296875,6.289534091949463,5.540879726409912,-0.6481558084487915
1697552820911580200,9.302580078125,6.356533527374268,5.49302339553833,-0.7606185078620911
1697552820921171500,9.31217138671875,6.39721155166626,5.533701419830322,-0.8611170649528503
1697552820930762200,9.32176220703125,6.416353702545166,5.643771171569824,-0.9448658227920532
1697552820940353500,9.331353515625,6.330212116241455,5.766104221343994,-0.9281160831451416
1697552820949945900,9.34094580078125,6.184250354766846,5.852245807647705,-0.8347960114479065
1697552820959537400,9.350537353515625,6.078666687011719,6.000600814819336,-0.667298436164856
1697552820969128000,9.3601279296875,5.999703884124756,6.237490653991699,-0.5808576941490173
1697552820978719500,9.369719482421875,5.973382472991943,6.474678993225098,-0.5928218364715576
1697552820988311600,9.3793115234375,5.937490463256836,6.713961124420166,-0.6816553473472595
1697552820997903000,9.388903076171875,5.913562297821045,6.869793891906738,-0.7869395613670349
1697552821007493600,9.39849365234375,5.992525100708008,7.020541667938232,-0.9257232546806335
1697552821017085200,9.408085205078125,6.1914286613464355,7.18086051940918,-1.0908280611038208
1697552821026677200,9.41767724609375,6.380461692810059,7.310073375701904,-1.2035897970199585
1697552821036268800,9.427268798828125,6.500102519989014,7.499405384063721,-1.2275179624557495
1697552821045859300,9.436859375,6.4594244956970215,7.793722629547119,-1.1892328262329102
1697552821055451000,9.446450927734375,6.327819347381592,8.138587951660156,-1.0812567472457886
1697552821065043200,9.456043212890625,6.174678802490234,8.483154296875,-0.9759725332260132
1697552821074634500,9.465634521484375,5.982954025268555,8.818449020385742,-0.8682954907417297
1697552821084225000,9.47522509765625,5.913562297821045,9.072088241577148,-0.669691264629364
1697552821093816600,9.484816650390625,5.870491027832031,9.113064765930176,-0.39182472229003906
1697552821103409000,9.494408935546875,5.975775241851807,9.074481010437012,-0.16450655460357666
1697552821113000200,9.504000244140625,6.320641040802002,9.10827922821045,-0.3678964674472809
1697552821122590700,9.5135908203125,6.952645301818848,9.287740707397461,-0.966401219367981
1697552821132182300,9.523182373046875,7.716254711151123,9.42891788482666,-1.588834285736084
1697552821141774600,9.532774658203126,8.461020469665527,9.577272415161133,-2.0629122257232666
1697552821151366000,9.542365966796876,8.901300430297852,9.83838939666748,-2.3120648860931396
1697552821160956700,9.551956787109376,9.090632438659668,10.025029182434082,-2.2495524883270264
1697552821170548000,9.5615478515625,9.14566707611084,10.022636413574219,-1.9767706394195557
1697552821180140300,9.571140380859376,9.002098083496094,9.86231803894043,-1.5649060010910034
1697552821189731600,9.580731689453126,8.745766639709473,9.570094108581543,-1.1772687435150146
1697552821199322400,9.590322265625,8.57348346710205,9.10827922821045,-0.7414759397506714
1697552821208914000,9.599913818359376,8.477770805358887,8.492725372314453,-0.3200400173664093
1697552821218506000,9.609506103515624,8.504091262817383,7.841578960418701,-0.032602209597826004
1697552821228097500,9.61909765625,8.621339797973633,7.09711217880249,0.1540379524230957
1697552821237688000,9.62868798828125,8.903693199157715,6.386144638061523,0.0032901312224566936
1697552821247279600,9.638279541015624,9.49501895904541,5.85703182220459,-0.4612165689468384
1697552821256871700,9.64787158203125,10.101001739501953,5.581557750701904,-1.064507007598877
1697552821266463200,9.657463134765624,10.46471118927002,5.3470611572265625,-1.667797327041626
1697552821276053800,9.6670537109375,10.555638313293457,5.222634315490723,-2.1634106636047363
1697552821285645300,9.676645263671874,10.342677116394043,5.260919570922852,-2.6255247592926025
1697552821295237600,9.686237548828124,9.882955551147461,5.335097312927246,-2.958425998687744
1697552821304829000,9.695828857421875,9.176774024963379,5.366203784942627,-3.0014967918395996
1697552821314419700,9.705419677734374,8.329116821289062,5.332704544067383,-2.8435707092285156
1697552821324011000,9.715010986328124,7.328617572784424,5.253741264343262,-2.4364917278289795
1697552821333603300,9.724603271484375,6.382854461669922,5.0907301902771,-1.8164514303207397
1697552821343194600,9.734194580078125,5.56151819229126,4.942375183105469,-1.1748759746551514
1697552821352785400,9.743785400390625,4.874478816986084,4.8538408279418945,-0.7007979154586792
1697552821362377000,9.753376953125,4.328616142272949,4.738985061645508,-0.29850462079048157
1697552821371969000,9.762968994140625,3.957728624343872,4.657629489898682,-0.01824527233839035
1697552821381560600,9.772560546875,3.7444684505462646,4.667200565338135,0.125324085354805
1697552821391151000,9.782151123046875,3.6272199153900146,4.7605204582214355,0.11814561486244202
1697552821400742700,9.79174267578125,3.615255832672119,4.90408992767334,0.015254244208335876
1697552821410334700,9.801334716796875,3.6894333362579346,5.050052165985107,-0.07836493849754333
1697552821419926300,9.81092626953125,3.842574119567871,5.198706150054932,-0.15254244208335876
1697552821429516800,9.820516845703125,4.082155227661133,5.3709893226623535,-0.2554338276386261
1697552821439108400,9.8301083984375,4.398007869720459,5.631807327270508,-0.34636107087135315
1697552821448700400,9.839700439453125,4.72373104095459,5.931209087371826,-0.38225340843200684
1697552821458292000,9.8492919921875,5.01086950302124,6.182455539703369,-0.2745763957500458
1697552821467882500,9.858882568359375,5.3246283531188965,6.294918060302734,-0.01585244946181774
1697552821477474000,9.86847412109375,5.607280731201172,6.343073844909668,0.4244269132614136
1697552821487066400,9.87806640625,5.884848117828369,6.378965854644775,0.8458628058433533
1697552821496657700,9.88765771484375,6.1313090324401855,6.5057854652404785,1.1309077739715576
1697552821506248400,9.89724853515625,6.378068923950195,6.725925445556641,1.2529417276382446
1697552821515839700,9.90683984375,6.524031162261963,6.9104719161987305,1.205085277557373
1697552821525432000,9.91643212890625,6.672386169433594,7.106683254241943,1.0755738019943237
1697552821535023400,9.9260234375,6.763612270355225,7.418049335479736,0.7884350419044495
1697552821544614100,9.9356142578125,6.789933204650879,7.731509208679199,0.4244269132614136
1697552821554205700,9.945205810546875,6.720541477203369,8.028517723083496,0.10618150234222412
1697552821563797800,9.9547978515625,6.653243541717529,8.327621459960938,-0.14057832956314087
1697552821573389300,9.964389404296876,6.595815658569336,8.648558616638184,-0.2027917206287384
1697552821582979800,9.973979736328126,6.602993965148926,8.978767395019531,-0.03768695518374443
1697552821592571400,9.9835712890625,6.6939215660095215,9.196813583374023,0.35503506660461426
1697552821602163500,9.99316357421875,6.868896484375,9.215956687927246,0.8434699773788452
1697552821611755000,10.002755126953126,7.160820960998535,9.184849739074707,1.1021939516067505
1697552821621345500,10.012345458984376,7.5463643074035645,9.232706069946289,1.0253244638442993
1697552821630937000,10.02193701171875,7.900801181793213,9.158528327941895,0.7668996453285217
1697552821640529400,10.031529296875,8.207082748413086,9.18724250793457,0.3334996700286865
1697552821650120700,10.04112060546875,8.31715202331543,9.603593826293945,-0.23389841616153717
1697552821659711200,10.050711181640626,8.300402641296387,10.044172286987305,-0.669691264629364
1697552821669302800,10.060302734375,8.31715202331543,10.132706642150879,-0.7390831112861633
1697552821678895000,10.06989501953125,8.336295127868652,9.9771728515625,-0.5042873620986938
1697552821688486400,10.079486328125,8.350651741027832,9.555737495422363,0.09661021083593369
1697552821698077000,10.089076904296874,8.405985832214355,8.969196319580078,0.8697910308837891
1697552821707668500,10.09866845703125,8.575876235961914,8.509475708007812,1.4778671264648438
1697552821717260800,10.1082607421875,8.858229637145996,8.100302696228027,1.949552297592163
1697552821726852000,10.11785205078125,9.28445053100586,7.441977500915527,2.47387957572937
1697552821736443000,10.12744287109375,9.727422714233398,6.556035041809082,2.854637384414673
1697552821746034200,10.1370341796875,10.23021411895752,5.694020748138428,2.8689942359924316
1697552821755626500,10.14662646484375,10.54845905303955,5.042873859405518,2.4786651134490967
1697552821765218000,10.156218017578125,10.654043197631836,4.767699241638184,1.815554141998291
1697552821774808600,10.16580859375,10.390533447265625,4.693521499633789,1.2170493602752686
1697552821784400100,10.175400146484375,9.933204650878906,4.643272399902344,0.7405785918235779
1697552821793992200,10.1849921875,9.37298583984375,4.599902629852295,0.3813561201095581
1697552821803583700,10.194583740234375,8.707481384277344,4.631308078765869,0.07028916478157043
1697552821813174300,10.20417431640625,7.821837902069092,4.738985061645508,-0.10229317098855972
1697552821822765800,10.213765869140625,6.947859764099121,4.84187650680542,0.03678964823484421
1697552821832358100,10.223358154296875,6.208178520202637,4.875376224517822,0.46031925082206726
1697552821841949400,10.232949462890625,5.602495193481445,4.875376224517822,0.8937192559242249
1697552821851540000,10.2425400390625,5.145166873931885,4.906482696533203,1.1548360586166382
1697552821861131500,10.252131591796875,4.869693279266357,4.928018093109131,1.2433704137802124
1697552821870723800,10.261723876953125,4.72373104095459,4.947160720825195,1.0926226377487183
1697552821880315100,10.271315185546875,4.745266437530518,5.0117669105529785,0.7692924737930298
1697552821889906000,10.280906005859375,4.819443702697754,5.033302307128906,0.43160539865493774
1697552821899497200,10.290497314453125,4.891228675842285,4.990231513977051,0.1540379524230957
1697552821909089500,10.300089599609375,4.9965128898620605,5.045266628265381,-0.20518454909324646
1697552821918680800,10.309680908203125,5.111667156219482,5.167300701141357,-0.50907301902771
1697552821928271600,10.319271728515625,5.140381336212158,5.265705108642578,-0.6864410042762756
1697552821937863000,10.32886279296875,5.207380294799805,5.36859655380249,-0.7510471940040588
1697552821947455200,10.338455322265625,5.176273345947266,5.466702461242676,-0.7031907439231873
1697552821957046500,10.348046630859375,5.059025287628174,5.502594947814941,-0.6122635006904602
1697552821966637300,10.35763720703125,4.991727352142334,5.5743794441223145,-0.5784648656845093
1697552821976228900,10.367228759765625,5.030311584472656,5.727519989013672,-0.6194419860839844
1697552821985821000,10.376821044921876,5.102096080780029,5.921638011932373,-0.669691264629364
1697552821995412500,10.38641259765625,5.226522922515869,6.153741836547852,-0.7725825905799866
1697552822005003000,10.3960029296875,5.4418768882751465,6.419643878936768,-0.9305089116096497
1697552822014594600,10.405594482421876,5.750850200653076,6.668497562408447,-1.0549356937408447
1697552822024187000,10.415186767578126,6.126523494720459,6.884150981903076,-1.1386845111846924
1697552822033778200,10.424778076171876,6.519245147705078,7.077969551086426,-1.1338988542556763
1697552822043368700,10.43436865234375,6.9430742263793945,7.2813591957092285,-0.9783653616905212
1697552822052960300,10.443960205078126,7.268796920776367,7.47547721862793,-0.7055835723876953
1697552822062552600,10.453552490234374,7.51286506652832,7.676474094390869,-0.45164528489112854
1697552822072144000,10.463143798828124,7.668398380279541,7.939684867858887,-0.2626122832298279
1697552822081734700,10.472734619140626,7.622934818267822,8.188837051391602,-0.22911277413368225
1697552822091326000,10.482325927734376,7.345367431640625,8.397012710571289,-0.2913261651992798
1697552822100918300,10.491918212890624,6.969395160675049,8.670093536376953,-0.42293140292167664
1697552822110509800,10.501509765625,6.557530403137207,8.983553886413574,-0.5521438121795654
1697552822120100400,10.511100341796874,6.294320106506348,9.235098838806152,-0.602692186832428
1697552822129692000,10.52069189453125,6.507281303405762,9.438488960266113,-0.667298436164856
1697552822139284000,10.530283935546874,7.206284523010254,9.649057388305664,-0.7701897621154785
1697552822148875500,10.53987548828125,8.056334495544434,9.96281623840332,-0.9640084505081177
1697552822158466000,10.549466064453124,8.834300994873047,10.355538368225098,-1.1315059661865234
1697552822168057600,10.5590576171875,9.545567512512207,10.625926971435547,-1.0477572679519653
1697552822177649700,10.568649658203125,9.727422714233398,10.609177589416504,-0.7462615370750427
1697552822187241200,10.5782412109375,9.581459999084473,10.671390533447266,-0.5210371017456055
1697552822196831700,10.587831787109375,9.203095436096191,10.877472877502441,-0.5401797294616699
1697552822206423300,10.59742333984375,8.695517539978027,10.692926406860352,-0.6409773826599121
1697552822216015600,10.607015625,8.116155624389648,10.025029182434082,-0.7701897621154785
1697552822225607000,10.61660693359375,7.603792190551758,9.18006420135498,-0.8994022011756897
1697552822235197400,10.626197509765625,7.2711896896362305,8.392227172851562,-1.0597213506698608
1697552822244789000,10.6357890625,7.208677291870117,7.717152118682861,-1.1653046607971191
1697552822254381300,10.64538134765625,7.393223762512207,7.010970115661621,-1.1362916231155396
1697552822263972600,10.65497265625,7.869694709777832,6.2877397537231445,-1.0477572679519653
1697552822273563400,10.6645634765625,8.518448829650879,5.763711452484131,-1.0860424041748047
1697552822283154700,10.67415478515625,9.1145601272583,5.414060115814209,-1.2011969089508057
1697552822292747000,10.6837470703125,9.471091270446777,5.100301265716553,-1.2418749332427979
1697552822302338300,10.69333837890625,9.475876808166504,4.8538408279418945,-1.2011969089508057
1697552822311929000,10.70292919921875,8.978169441223145,4.738985061645508,-1.1892328262329102
1697552822321520600,10.712520751953125,8.159226417541504,4.750949382781982,-1.2011969089508057
1697552822331112700,10.72211279296875,7.196712970733643,4.901697158813477,-1.275374412536621
1697552822340704300,10.731704345703125,6.1363935470581055,5.069194793701172,-1.3663017749786377
1697552822350294800,10.741294677734375,5.092525005340576,5.150550842285156,-1.3351950645446777
1697552822359886300,10.75088623046875,4.120440483093262,5.167300701141357,-1.1434701681137085
1697552822369478700,10.760478759765626,3.294318675994873,5.143372058868408,-0.844367265701294
1697552822379070000,10.770070068359376,2.7798616886138916,5.157729148864746,-0.5282155871391296
1697552822388660500,10.779660400390625,2.5713870525360107,5.14576530456543,-0.23629122972488403
1697552822398252000,10.789251953125,2.5450658798217773,5.069194793701172,0.024825535714626312
1697552822407844400,10.79884423828125,2.676671266555786,4.889732837677002,0.3000001311302185
1697552822417435600,10.808435546875,3.1076784133911133,4.71027135848999,0.5201398134231567
1697552822427026400,10.8180263671875,3.667897939682007,4.58793830871582,0.5874379873275757
1697552822436617700,10.82761767578125,4.211368083953857,4.497011184692383,0.537188708782196
1697552822446210000,10.8372099609375,4.711766719818115,4.5113677978515625,0.4220340847969055
1697552822455801300,10.84680126953125,5.130809783935547,4.571188449859619,0.19232311844825745
1697552822465392000,10.85639208984375,5.391627788543701,4.734199523925781,-0.20757736265659332
1697552822474983700,10.865983642578126,5.468197822570801,4.942375183105469,-0.667298436164856
1697552822484575700,10.87557568359375,5.456233978271484,5.102694511413574,-0.9783653616905212
1697552822494167300,10.885167236328124,5.468197822570801,5.203492164611816,-1.064507007598877
1697552822503757800,10.8947578125,5.458626747131348,5.426024436950684,-1.0214362144470215
1697552822513349400,10.904349365234374,5.43709135055542,5.737390518188477,-0.8108677864074707
1697552822522941700,10.913941650390624,5.413163185119629,5.9264235496521,-0.25304099917411804
1697552822532533000,10.923532958984374,5.36769962310791,6.141777515411377,0.4579264223575592
1697552822542123500,10.93312353515625,5.233701229095459,6.4890360832214355,0.9774680733680725
1697552822551715000,10.942715087890624,5.183452129364014,6.797709941864014,1.2146565914154053
1697552822561307400,10.952307373046875,5.3078789710998535,6.888936519622803,0.7716853022575378
1697552822570898700,10.961898681640625,5.511268615722656,6.888936519622803,-0.511465847492218
1697552822580489500,10.971489501953124,6.236892223358154,7.779365539550781,-0.8300103545188904
1697552822590080800,10.981080810546874,7.007680416107178,8.574380874633789,-0.7342974543571472
1697552822599673000,10.990673095703125,7.158428192138672,8.404191017150879,-0.26979073882102966
1697552822609264400,11.000264404296875,7.2110700607299805,8.064410209655762,0.36699917912483215
1697552822618855200,11.009855224609375,7.608577728271484,8.284550666809082,0.9176474809646606
1697552822628446700,11.01944677734375,8.37966537475586,8.749056816101074,1.231406331062317
1697552822638038800,11.029038818359375,9.198308944702148,9.139386177062988,1.456331729888916
1697552822647630300,11.03863037109375,10.057631492614746,9.393025398254395,1.5520446300506592
1697552822657220900,11.048220947265625,10.728219985961914,9.550951957702637,1.516152262687683
1697552822666812400,11.0578125,11.264512062072754,9.610772132873535,1.4850455522537231
1697552822676404500,11.067404541015625,11.731112480163574,9.637093544006348,1.2744771242141724
1697552822685996000,11.07699609375,12.035299301147461,9.538987159729004,0.745364248752594
1697552822695586600,11.086586669921875,12.933206558227539,9.471988677978516,0.7740781307220459
1697552822705178000,11.09617822265625,13.668102264404297,9.249456405639648,1.444367527961731
1697552822714770400,11.1057705078125,14.34317684173584,8.856734275817871,2.169692039489746
1697552822724361700,11.11536181640625,14.915360450744629,8.435297966003418,3.0867412090301514
1697552822733952500,11.124952392578125,15.28176212310791,8.097909927368164,3.8024942874908447
1697552822743543800,11.134543701171875,15.27458381652832,7.5448689460754395,4.4635114669799805
1697552822753136000,11.14413623046875,14.934503555297852,6.694818496704102,5.054837703704834
1697552822762727400,11.1537275390625,14.185251235961914,5.787639617919922,5.365904808044434
1697552822772318200,11.163318115234375,13.083953857421875,5.02133846282959,5.291727066040039
1697552822781909800,11.17290966796875,11.829517364501953,4.4324049949646,4.872684001922607
1697552822791501800,11.182501708984375,10.380962371826172,4.1021952629089355,4.092324733734131
1697552822801093400,11.19209326171875,8.886942863464355,3.9942193031311035,3.28773832321167
1697552822810684000,11.201683837890625,7.429116249084473,4.109373569488525,2.560021162033081
1697552822820275500,11.211275390625,6.097809314727783,4.243371963500977,1.9639091491699219
1697552822829867500,11.220867431640626,5.047060966491699,4.374977111816406,1.4994025230407715
1697552822839459000,11.230458984375,4.223331928253174,4.497011184692383,1.173978567123413
1697552822849049600,11.240049560546876,3.560220956802368,4.559224605560303,1.0301101207733154
1697552822858641200,11.24964111328125,3.129213809967041,4.628915309906006,0.8147560954093933
1697552822868233500,11.2592333984375,2.7942185401916504,4.722235679626465,0.6616154313087463
1697552822877824800,11.26882470703125,2.597707986831665,4.418047904968262,0.9750752449035645
1697552822887415600,11.27841552734375,2.4732813835144043,4.133302211761475,1.322333574295044
1697552822897006800,11.2880068359375,2.399103879928589,4.17637300491333,1.4467604160308838
1697552822906599200,11.29759912109375,2.377568483352661,4.367798805236816,1.4898312091827393
1697552822916190500,11.3071904296875,2.4732813835144043,4.535296440124512,1.5376876592636108
1697552822925781200,11.31678125,2.6024937629699707,4.575973987579346,1.5927225351333618
1697552822935372500,11.32637255859375,2.7412774562835693,4.612165451049805,1.547258973121643
1697552822944964900,11.33596484375,2.861217737197876,4.750949382781982,1.3438689708709717
1697552822954556200,11.34555615234375,2.978466033935547,4.894518852233887,1.0253244638442993
1697552822964147000,11.35514697265625,3.090928554534912,5.042873859405518,0.6759724020957947
1697552822973738500,11.364738525390624,3.311068296432495,5.239384174346924,0.29760730266571045
1697552822983330600,11.37433056640625,3.6176488399505615,5.47866678237915,-0.1333998590707779
1697552822992922000,11.383922119140625,3.7995033264160156,5.703591823577881,-0.602692186832428
1697552823002512600,11.3935126953125,4.012763500213623,5.916851997375488,-1.0405787229537964
1697552823012104200,11.403104248046875,4.268795490264893,6.134599208831787,-1.3878371715545654
1697552823021696500,11.412696533203125,4.577768802642822,6.367002010345459,-1.667797327041626
1697552823031287800,11.422287841796875,4.78594446182251,6.642176628112793,-1.955235242843628
1697552823040878300,11.43187841796875,5.078167915344238,6.91765022277832,-2.199303150177002
1697552823050470000,11.441469970703125,5.607280731201172,7.10429048538208,-2.4197418689727783
1697552823060062200,11.451062255859375,6.186643123626709,7.240681171417236,-2.4508485794067383
1697552823069653500,11.460653564453125,6.811468601226807,7.3052873611450195,-2.338385820388794
1697552823079244300,11.470244384765625,7.381259441375732,7.430013179779053,-2.239981174468994
1697552823088835800,11.4798359375,7.99172830581665,7.63818883895874,-2.208874464035034
1697552823098428000,11.489427978515625,8.453842163085938,7.882256984710693,-2.2016959190368652
1697552823108019500,11.49901953125,8.645268440246582,8.057231903076172,-2.2112672328948975
1697552823117610000,11.50860986328125,8.62612533569336,8.315656661987305,-2.2686948776245117
1697552823127201500,11.518201416015625,8.49452018737793,8.710771560668945,-2.355135679244995
1697552823136793600,11.527793701171875,8.451449394226074,9.125029563903809,-2.3575284481048584
1697552823146385200,11.53738525390625,8.61894702911377,9.397810935974121,-2.2351953983306885
1697552823155975700,11.5469755859375,8.848658561706543,9.605986595153809,-2.2280170917510986
1697552823165567200,11.556567138671875,9.246166229248047,9.859925270080566,-2.3886351585388184
1697552823175159600,11.56615966796875,9.966704368591309,9.991530418395996,-2.316850423812866
1697552823184750800,11.575750732421875,10.601101875305176,9.98435115814209,-1.9671993255615234
1697552823194341600,11.585341552734375,10.993824005126953,10.092028617858887,-1.459621787071228
1697552823203933000,11.594932861328125,11.321939468383789,10.36510944366455,-0.9975079298019409
1697552823213525200,11.604525146484375,11.491829872131348,10.587641716003418,-0.5928218364715576
1697552823223116800,11.61411669921875,11.372188568115234,10.60678482055664,-0.29850462079048157
1697552823232707300,11.623707275390625,11.087143898010254,10.405787467956543,-0.10707881301641464
1697552823242299000,11.633298828125,10.89571762084961,9.989137649536133,-0.047258246690034866
1697552823251891000,11.642890869140626,10.831111907958984,9.440881729125977,-0.10468599200248718
1697552823261482200,11.652482177734376,10.864611625671387,8.732307434082031,-0.12143574655056
1697552823271073000,11.662072998046876,10.905289649963379,7.889435291290283,-0.12861421704292297
1697552823280664600,11.67166455078125,10.98185920715332,7.039684295654297,-0.13100704550743103
1697552823290256600,11.681256591796876,11.01296615600586,6.374180316925049,-0.1381855010986328
1697552823299848200,11.69084814453125,10.993824005126953,5.861817359924316,-0.21236300468444824
1697552823309438700,11.700438720703126,11.041680335998535,5.526523113250732,-0.29850462079048157
1697552823319030300,11.7100302734375,10.99860954284668,5.356632709503174,-0.38225340843200684
1697552823328622600,11.71962255859375,10.6564359664917,5.241776943206787,-0.4588237404823303
1697552823338214000,11.7292138671875,9.957133293151855,5.196313381195068,-0.5234299302101135
1697552823347804400,11.738804443359374,9.085846900939941,5.203492164611816,-0.41575294733047485
1697552823357396000,11.74839599609375,8.073084831237793,5.220241546630859,-0.1740778535604477
1697552823366988300,11.75798828125,7.074679374694824,5.234598636627197,0.07746763527393341
1697552823376579600,11.76757958984375,6.116951942443848,5.186742305755615,0.34307095408439636
1697552823386170400,11.77717041015625,5.271986484527588,5.026124000549316,0.6735795736312866
1697552823395761700,11.78676171875,4.663910388946533,4.817948341369629,0.9583254456520081
1697552823405354000,11.79635400390625,4.278367042541504,4.612165451049805,1.1859427690505981
1697552823414945500,11.805945556640625,4.036691665649414,4.489832401275635,1.3917254209518433
1697552823424536000,11.8155361328125,3.7971103191375732,4.264907360076904,1.6839489936828613
1697552823434127600,11.825127685546875,3.715754508972168,4.025325775146484,1.8969101905822754
1697552823443719700,11.8347197265625,3.7348971366882324,3.896113395690918,1.8945173025131226
1697552823453311200,11.844311279296875,3.7109687328338623,3.793222188949585,1.7461622953414917
1697552823462901800,11.85390185546875,3.605684518814087,3.7357943058013916,1.4898312091827393
1697552823472493300,11.863493408203125,3.6248271465301514,3.9176487922668457,1.1859427690505981
1697552823482085600,11.873085693359375,3.828217029571533,4.2816572189331055,0.7980063557624817
1697552823491677000,11.882677001953125,4.156332969665527,4.64805793762207,0.4292125701904297
1697552823501267700,11.892267822265625,4.3549370765686035,4.9399824142456055,0.06311069428920746
1697552823510859000,11.90185888671875,4.496412754058838,5.2369914054870605,-0.26979073882102966
1697552823520451300,11.911451416015625,4.752444744110107,5.560022354125977,-0.5138586759567261
1697552823530043000,11.92104296875,4.994120121002197,5.900102615356445,-0.6553342938423157
1697552823539633400,11.93063330078125,5.2384867668151855,6.089135646820068,-0.5979065299034119
1697552823549225000,11.940224853515625,5.671886920928955,6.237490653991699,-0.3367897868156433
1697552823558817000,11.949817138671875,6.196214199066162,6.393322944641113,0.015254244208335876
1697552823568408600,11.95940869140625,6.62931489944458,6.503392696380615,0.48903313279151917
1697552823577999000,11.9689990234375,6.995716094970703,6.634998321533203,0.9487541913986206
1697552823587590700,11.978590576171875,7.280761241912842,6.939185619354248,1.2744771242141724
1697552823597182700,11.9881826171875,7.4506516456604,7.418049335479736,1.4515460729599
1697552823606774300,11.997774169921875,7.551149845123291,7.8918280601501465,1.5831513404846191
1697552823616364800,12.00736474609375,7.500900745391846,8.203194618225098,1.8035900592803955
1697552823625956400,12.016956298828125,7.45782995223999,8.368298530578613,2.0691933631896973
1697552823635548700,12.026548583984376,7.455437183380127,8.531010627746582,2.260918378829956
1697552823645140000,12.036139892578126,7.65164852142334,8.691629409790039,2.330310106277466
1697552823654730800,12.045730712890625,8.075477600097656,8.768199920654297,2.260918378829956
1697552823664322000,12.055322021484375,8.475378036499023,8.689236640930176,2.145763635635376
1697552823673914400,12.064914306640626,8.767302513122559,8.576773643493652,1.8993029594421387
1697552823683505700,12.074505615234376,8.73619556427002,8.397012710571289,1.5903297662734985
1697552823693096400,12.084096435546876,8.489734649658203,8.368298530578613,1.085145115852356
1697552823702688000,12.09368798828125,8.226224899291992,8.863912582397461,0.24017956852912903
1697552823712280000,12.103280029296876,8.013263702392578,9.538987159729004,-0.5401797294616699
1697552823721871600,12.11287158203125,7.924729347229004,9.874281883239746,-0.846760094165802
1697552823731462100,12.122462158203126,8.018049240112305,9.761818885803223,-0.605085015296936
1697552823741053700,12.1320537109375,8.240582466125488,9.206384658813477,0.05114658549427986
1697552823750646000,12.14164599609375,8.61894702911377,8.36590576171875,0.8865407705307007
1697552823760237300,12.1512373046875,9.119346618652344,7.508976459503174,1.5496517419815063
1697552823769827800,12.160827880859374,9.528818130493164,6.824030876159668,1.9543378353118896
1697552823779419400,12.17041943359375,9.801599502563477,6.314359664916992,2.191227436065674
1697552823789011700,12.18001171875,9.93559741973877,5.845067501068115,2.246561288833618
1697552823798603000,12.18960302734375,9.863813400268555,5.404489040374756,2.1242282390594482
1697552823808193800,12.19919384765625,9.636494636535645,5.093122959136963,1.7413766384124756
1697552823817785300,12.208785400390624,9.205488204956055,4.947160720825195,1.2553346157073975
1697552823827377400,12.21837744140625,8.477770805358887,4.928018093109131,0.867398202419281
1697552823836969000,12.227968994140625,7.58225679397583,4.9639105796813965,0.7022934556007385
1697552823846559500,12.2375595703125,6.706184387207031,5.059623718261719,0.6472585201263428
1697552823856151000,12.247151123046875,5.937490463256836,5.196313381195068,0.656829833984375
1697552823865743000,12.2567431640625,5.3246283531188965,5.311169147491455,0.7836494445800781
1697552823875334700,12.266334716796875,4.8314080238342285,5.390131950378418,0.9487541913986206
1697552823884925200,12.27592529296875,4.388436794281006,5.528915882110596,1.1356934309005737
1697552823894516700,12.285516845703125,3.9601213932037354,5.694020748138428,1.2960125207901
1697552823904109000,12.295109130859375,3.7037904262542725,5.885745525360107,1.3414762020111084
1697552823913700400,12.304700439453125,3.6870405673980713,5.998208045959473,1.3175479173660278
1697552823923291000,12.314290771484375,3.9122650623321533,5.991029739379883,1.2170493602752686
1697552823932882400,12.32388232421875,4.381258487701416,5.883352756500244,1.0301101207733154
1697552823942474800,12.333474853515625,4.9965128898620605,5.722734451293945,0.7884350419044495
1697552823952066000,12.343066162109375,5.640780448913574,5.55523681640625,0.5515456199645996
1697552823961656800,12.35265673828125,6.208178520202637,5.392524719238281,0.35503506660461426
1697552823971248000,12.362248046875,6.588637351989746,5.2752766609191895,0.22103698551654816
1697552823980840400,12.37184033203125,6.842575550079346,5.251348495483398,0.12053844332695007
1697552823990432000,12.381431884765625,6.900003433227539,5.308775901794434,0.1540379524230957
1697552824000022500,12.3910224609375,6.895217418670654,5.380560874938965,0.2880360186100006
1697552824009614000,12.400614013671875,6.674778938293457,5.4882378578186035,0.4172484576702118
1697552824019206100,12.4102060546875,6.392425537109375,5.631807327270508,0.46749773621559143
1697552824028797700,12.419797607421875,6.071488380432129,5.811567783355713,0.37896329164505005
1697552824038388200,12.42938818359375,5.688636779785156,6.029314994812012,0.125324085354805
1697552824047979800,12.438979736328125,5.2767720222473145,6.187241077423096,-0.2793620526790619
1697552824057572000,12.448572021484376,4.991727352142334,6.294918060302734,-0.9376873970031738
1697552824067163400,12.458163330078126,5.121238708496094,6.908079147338867,-1.4500504732131958
1697552824076754200,12.467754150390626,5.736493110656738,7.664510250091553,-1.703689694404602
1697552824086345500,12.477345458984376,6.27996301651001,7.875078201293945,-1.6917256116867065
1697552824095937800,12.486937744140626,6.40438985824585,7.714759349822998,-1.4452649354934692
1697552824105529300,12.496529296875,6.39721155166626,7.772187232971191,-1.222732424736023
1697552824115119900,12.506119873046876,6.504888534545898,8.13380241394043,-1.0621141195297241
1697552824124711400,12.51571142578125,6.701398849487305,8.487939834594727,-0.8371888399124146
1697552824134303500,12.525303466796874,6.900003433227539,8.555238723754883,-0.33439695835113525
1697552824143894800,12.534894775390624,6.995716094970703,8.46161937713623,0.23778675496578217
1697552824153485600,12.544485595703126,7.127321243286133,8.495118141174316,0.5276173949241638
1697552824163077000,12.5540771484375,7.409973621368408,8.615058898925781,0.37417763471603394
1697552824172669200,12.563669189453124,7.77607536315918,8.677271842956543,-0.04007977992296219
1697552824182260700,12.5732607421875,8.051548957824707,8.612666130065918,-0.5593222975730896
1697552824191851300,12.582851318359374,8.20947551727295,8.691629409790039,-1.277767300605774
1697552824201442800,12.59244287109375,8.681160926818848,9.153742790222168,-2.048555374145508
1697552824211035100,12.60203515625,9.46630573272705,9.680462837219238,-2.589632272720337
1697552824220626400,12.61162646484375,9.825528144836426,9.99392318725586,-2.6877379417419434
1697552824230217200,12.62121728515625,9.966704368591309,10.163813591003418,-2.3886351585388184
1697552824239808500,12.63080859375,10.062716484069824,10.149456024169922,-1.8690935373306274
