time,seconds_elapsed,z,y,x
1697552811833283300,0.224283447265625,7.893871784210205,5.815927028656006,-0.17934221029281616
1697552811842875000,0.233875,7.824943542480469,5.902614593505859,-0.31588810682296753
1697552811852467000,0.243467041015625,7.76312255859375,5.976724624633789,-0.42788636684417725
1697552811862058200,0.253058349609375,7.70479154586792,6.0461225509643555,-0.5009759068489075
1697552811871649000,0.26264892578125,7.6547627449035645,6.105998992919922,-0.5401459336280823
1697552811881240300,0.272240234375,7.610793113708496,6.158477306365967,-0.5651223659515381
1697552811890832600,0.28183251953125,7.566761016845703,6.2094807624816895,-0.5973684191703796
1697552811900424000,0.291423828125,7.517173767089844,6.265091419219971,-0.6411770582199097
1697552811910014500,0.301014404296875,7.466801643371582,6.320263385772705,-0.6866770386695862
1697552811919606000,0.31060595703125,7.425267696380615,6.364142894744873,-0.7303876876831055
1697552811929198000,0.320197998046875,7.400099277496338,6.388542175292969,-0.7716514468193054
1697552811938789600,0.32978955078125,7.388251781463623,6.398159027099609,-0.8047801852226257
1697552811948380200,0.339380126953125,7.387065887451172,6.398268699645996,-0.8147467970848083
1697552811957971700,0.3489716796875,7.381039619445801,6.405229568481445,-0.8146566152572632
1697552811967563800,0.358563720703125,7.375293254852295,6.413224220275879,-0.8037340044975281
1697552811977155000,0.368155029296875,7.3702239990234375,6.419660568237305,-0.7988384962081909
1697552811986745900,0.377745849609375,7.369107246398926,6.41972017288208,-0.8086010813713074
1697552811996337200,0.387337158203125,7.377782344818115,6.407053470611572,-0.8296827673912048
1697552812005929500,0.396929443359375,7.4042558670043945,6.373931884765625,-0.84874427318573
1697552812015520800,0.406520751953125,7.45293664932251,6.316258907318115,-0.8538141250610352
1697552812025111300,0.416111328125,7.525761127471924,6.230792999267578,-0.8429262638092041
1697552812034702800,0.425702880859375,7.6228790283203125,6.1146321296691895,-0.8206021785736084
1697552812044295000,0.435294921875,7.741154193878174,5.9683146476745605,-0.7900252938270569
1697552812053886200,0.44488623046875,7.867809772491455,5.8046956062316895,-0.7572706937789917
1697552812063477000,0.45447705078125,7.984500408172607,5.646728992462158,-0.7297912240028381
1697552812073068500,0.464068603515625,8.076092720031738,5.517204284667969,-0.7124428749084473
1697552812082660600,0.47366064453125,8.135518074035645,5.429192066192627,-0.7124693393707275
1697552812092252000,0.483251953125,8.160300254821777,5.388951778411865,-0.7342238426208496
1697552812101842700,0.4928427734375,8.154755592346191,5.392250061035156,-0.7707117199897766
1697552812111434000,0.50243408203125,8.123847007751465,5.432464122772217,-0.8135269284248352
1697552812121026300,0.5120263671875,8.071414947509766,5.503885269165039,-0.8543388247489929
1697552812130617600,0.52161767578125,8.003837585449219,5.596468925476074,-0.8879760503768921
1697552812140208000,0.5312080078125,7.927489280700684,5.6999993324279785,-0.9139600396156311
1697552812149799700,0.540799560546875,7.850542068481445,5.802755832672119,-0.9313400387763977
1697552812159391700,0.550391845703125,7.781652927398682,5.893247604370117,-0.9412257075309753
1697552812168983300,0.5599833984375,7.728396892547607,5.961981773376465,-0.9471187591552734
1697552812178573800,0.56957373046875,7.696332931518555,6.002650260925293,-0.9513351917266846
1697552812188165000,0.5791650390625,7.686141014099121,6.015035629272461,-0.9554888606071472
1697552812197757400,0.58875732421875,7.696110248565674,6.001371383666992,-0.9611499905586243
1697552812207348700,0.5983486328125,7.721427917480469,5.967553615570068,-0.9686285853385925
1697552812216939500,0.607939453125,7.756487846374512,5.920462608337402,-0.9774437546730042
1697552812226530800,0.61753076171875,7.795527935028076,5.867432594299316,-0.9865903854370117
1697552812236123100,0.627123046875,7.833751678466797,5.815034866333008,-0.9940327405929565
1697552812245714400,0.63671435546875,7.869072914123535,5.766506671905518,-0.9977421760559082
1697552812255305000,0.646304931640625,7.898501396179199,5.726474761962891,-0.9957587718963623
1697552812264896500,0.655896484375,7.920260429382324,5.697956085205078,-0.9864844083786011
1697552812274488600,0.665488525390625,7.933954238891602,5.682139873504639,-0.967487633228302
1697552812284080000,0.675080078125,7.939579963684082,5.679239749908447,-0.9379199743270874
1697552812293670700,0.684670654296875,7.936860084533691,5.689223289489746,-0.8996541500091553
1697552812303262200,0.69426220703125,7.926884651184082,5.710163593292236,-0.8537688851356506
1697552812312854300,0.703854248046875,7.912474632263184,5.73850679397583,-0.7954019904136658
1697552812322445600,0.713445556640625,7.892685413360596,5.774546146392822,-0.728361964225769
1697552812332036400,0.723036376953125,7.865902423858643,5.819698810577393,-0.6550504565238953
1697552812341627600,0.732627685546875,7.831978797912598,5.873663425445557,-0.5749598145484924
1697552812351220000,0.742219970703125,7.790841579437256,5.935705184936523,-0.49049293994903564
1697552812360811300,0.751811279296875,7.741525650024414,6.0062761306762695,-0.4047449827194214
1697552812370401800,0.76140185546875,7.683066368103027,6.085796356201172,-0.3224295675754547
1697552812379993300,0.770993408203125,7.6168389320373535,6.171848297119141,-0.24989499151706696
1697552812389585400,0.78058544921875,7.545658588409424,6.2606987953186035,-0.1925792247056961
1697552812399177000,0.790177001953125,7.4750285148620605,6.345961570739746,-0.15202775597572327
1697552812408767500,0.799767578125,7.4129109382629395,6.41903018951416,-0.12327422946691513
1697552812418359000,0.809359130859375,7.366016864776611,6.473189830780029,-0.09997483342885971
1697552812427951000,0.818951171875,7.339044570922852,6.504061222076416,-0.07747482508420944
1697552812437542400,0.82854248046875,7.333404064178467,6.510695457458496,-0.04924532771110535
1697552812447133200,0.83813330078125,7.348135948181152,6.49423885345459,-0.01220912579447031
1697552812456724500,0.847724365234375,7.378722190856934,6.459417819976807,0.02752252295613289
1697552812466316800,0.85731689453125,7.413626670837402,6.419091701507568,0.06163890287280083
1697552812475908000,0.866908203125,7.442898750305176,6.384791851043701,0.089914470911026
1697552812485498600,0.87649853515625,7.466741561889648,6.356464862823486,0.11618195474147797
1697552812495090200,0.886090087890625,7.487722873687744,6.331139087677002,0.14515966176986694
1697552812504682200,0.89568212890625,7.505225658416748,6.3094587326049805,0.18087850511074066
1697552812514273800,0.905273681640625,7.5211687088012695,6.288886547088623,0.22874654829502106
1697552812523864300,0.9148642578125,7.539665699005127,6.264016628265381,0.2930982708930969
1697552812533456000,0.924455810546875,7.566504955291748,6.227120399475098,0.37600061297416687
1697552812543048000,0.9340478515625,7.606460094451904,6.171339988708496,0.4761532247066498
1697552812552639200,0.94363916015625,7.660152435302734,6.094587802886963,0.5903069972991943
1697552812562230000,0.95322998046875,7.724974155426025,5.998843193054199,0.7134674787521362
1697552812571821300,0.9628212890625,7.794794082641602,5.891393661499023,0.8384813666343689
1697552812581413600,0.97241357421875,7.861827373504639,5.782773971557617,0.9599964618682861
1697552812591005000,0.9820048828125,7.917703151702881,5.686427593231201,1.0700002908706665
1697552812600595500,0.991595458984375,7.95472526550293,5.616575241088867,1.1605195999145508
1697552812610187000,1.00118701171875,7.970952033996582,5.577775478363037,1.2339882850646973
1697552812619779000,1.010779052734375,7.967035293579102,5.56942892074585,1.2954548597335815
1697552812629370600,1.02037060546875,7.944765567779541,5.589702129364014,1.3439925909042358
1697552812638961200,1.029961181640625,7.90769624710083,5.633500576019287,1.3792775869369507
1697552812648552700,1.039552734375,7.860478401184082,5.693515777587891,1.4025459289550781
1697552812658144800,1.049144775390625,7.807971954345703,5.761947154998779,1.4163068532943726
1697552812667736000,1.058736083984375,7.7572712898254395,5.8277106285095215,1.425803780555725
1697552812677326800,1.068326904296875,7.7145094871521,5.882815837860107,1.4315054416656494
1697552812686918100,1.077918212890625,7.684354782104492,5.922792434692383,1.428847074508667
1697552812696510500,1.087510498046875,7.669345855712891,5.945915222167969,1.4133689403533936
1697552812706101800,1.097101806640625,7.670148849487305,5.951746940612793,1.3841661214828491
1697552812715692500,1.106692626953125,7.685029029846191,5.9417901039123535,1.343818187713623
1697552812725283800,1.116283935546875,7.710403919219971,5.919678688049316,1.2951644659042358
1697552812734876200,1.125876220703125,7.741999626159668,5.889854431152344,1.241553544998169
1697552812744467500,1.135467529296875,7.775452136993408,5.857078552246094,1.1863243579864502
1697552812754058000,1.14505810546875,7.806790351867676,5.8258137702941895,1.13327157497406
1697552812763649500,1.1546494140625,7.832706928253174,5.800326824188232,1.084112286567688
1697552812773241600,1.16424169921875,7.8507819175720215,5.783985137939453,1.0397754907608032
1697552812782833000,1.1738330078125,7.859187126159668,5.779626369476318,0.9997469782829285
1697552812792423700,1.183423583984375,7.85763692855835,5.788173198699951,0.9617566466331482
1697552812802015000,1.193014892578125,7.847017765045166,5.808838844299316,0.9230874180793762
1697552812811607300,1.202607177734375,7.828979015350342,5.839339256286621,0.8829416632652283
1697552812821198600,1.212198486328125,7.805447578430176,5.876729965209961,0.8422815203666687
1697552812830789400,1.221789306640625,7.77891731262207,5.917396545410156,0.8020357489585876
1697552812840380700,1.231380615234375,7.7518534660339355,5.957952976226807,0.7628613114356995
1697552812849973000,1.240972900390625,7.726181507110596,5.995903968811035,0.7250160574913025
1697552812859564300,1.250564208984375,7.703619003295898,6.028887748718262,0.6907579898834229
1697552812869154800,1.26015478515625,7.6845526695251465,6.056288242340088,0.6628777384757996
1697552812878746400,1.269746337890625,7.667855262756348,6.079725742340088,0.6413348913192749
1697552812888338400,1.27933837890625,7.652620792388916,6.100525856018066,0.6255842447280884
1697552812897930000,1.288929931640625,7.6396331787109375,6.1177754402160645,0.6157999038696289
1697552812907520500,1.2985205078125,7.629919528961182,6.130344390869141,0.611219048500061
1697552812917112000,1.308112060546875,7.6244025230407715,6.1371684074401855,0.6115871667861938
1697552812926704000,1.3177041015625,7.625087261199951,6.136738300323486,0.6073434948921204
1697552812936295400,1.32729541015625,7.634051322937012,6.126555919647217,0.5974537134170532
1697552812945886200,1.33688623046875,7.651187896728516,6.10692024230957,0.5789973139762878
1697552812955477500,1.3464775390625,7.674595832824707,6.08050537109375,0.5462894439697266
1697552812965069800,1.35606982421875,7.698910713195801,6.053276062011719,0.5049836039543152
1697552812974661000,1.3656611328125,7.718815326690674,6.030755519866943,0.46933090686798096
1697552812984251600,1.375251708984375,7.73219108581543,6.015529632568359,0.4438655972480774
1697552812993843200,1.38484326171875,7.739870548248291,6.006930351257324,0.42611661553382874
1697552813003435500,1.394435546875,7.74431848526001,6.002091884613037,0.4132829010486603
1697552813013026800,1.40402685546875,7.748971939086914,5.996614456176758,0.40550345182418823
1697552813022617300,1.413617431640625,7.758245468139648,5.984835147857666,0.4022045135498047
1697552813032209000,1.423208984375,7.776886463165283,5.9606451988220215,0.4014095067977905
1697552813041801000,1.432801025390625,7.808776378631592,5.918863296508789,0.40058353543281555
1697552813051392300,1.442392333984375,7.855649471282959,5.856786251068115,0.3965027630329132
1697552813060983000,1.451983154296875,7.914183139801025,5.7783732414245605,0.382752001285553
1697552813070574300,1.46157421875,7.976261615753174,5.694337368011475,0.3523646593093872
1697552813080166700,1.471166748046875,8.03085994720459,5.6199049949646,0.3038463890552521
1697552813089758000,1.480758056640625,8.068648338317871,5.568394184112549,0.24553216993808746
1697552813099348700,1.4903486328125,8.084274291992188,5.547952651977539,0.1874026209115982
1697552813108940000,1.49993994140625,8.075627326965332,5.562039852142334,0.1354159265756607
1697552813118532400,1.509532470703125,8.043148040771484,5.609776496887207,0.09254170209169388
1697552813128123600,1.51912353515625,7.991297721862793,5.683819770812988,0.0611269436776638
1697552813137714200,1.528714111328125,7.9264960289001465,5.774018287658691,0.041918426752090454
1697552813147305700,1.5383056640625,7.85624361038208,5.869309902191162,0.03197826072573662
1697552813156897800,1.547897705078125,7.7898125648498535,5.957211494445801,0.029183488339185715
1697552813166489300,1.5574892578125,7.736265182495117,6.026575088500977,0.03129061684012413
1697552813176080000,1.567079833984375,7.701217174530029,6.071294784545898,0.03193197026848793
1697552813185671400,1.57667138671875,7.6878790855407715,6.088212490081787,0.023713257163763046
1697552813195263500,1.586263427734375,7.695864677429199,6.07816219329834,0.0018164817010983825
1697552813204854800,1.595854736328125,7.72158145904541,6.045353889465332,-0.03552430495619774
1697552813214445600,1.605445556640625,7.758958339691162,5.9967732429504395,-0.08751135319471359
1697552813224036900,1.615036865234375,7.800666809082031,5.9411702156066895,-0.14990819990634918
1697552813233629200,1.624629150390625,7.839804649353027,5.887417316436768,-0.21487033367156982
1697552813243220500,1.634220458984375,7.871150493621826,5.842937469482422,-0.27470099925994873
1697552813252811000,1.64381103515625,7.892420291900635,5.811690807342529,-0.32300662994384766
1697552813262402600,1.653402587890625,7.903459072113037,5.7947845458984375,-0.35524407029151917
1697552813271995000,1.662994873046875,7.905280590057373,5.791323661804199,-0.37080517411231995
1697552813281586200,1.672586181640625,7.899962902069092,5.798473834991455,-0.3724045157432556
1697552813291176700,1.6821767578125,7.890279769897461,5.8121657371521,-0.36415162682533264
1697552813300768300,1.691768310546875,7.878110408782959,5.829527378082275,-0.3498074412345886
1697552813310360300,1.7013603515625,7.8647074699401855,5.848666667938232,-0.3314516842365265
1697552813319952000,1.710951904296875,7.8505401611328125,5.8688859939575195,-0.30915990471839905
1697552813329542400,1.72054248046875,7.835989475250244,5.889706134796143,-0.2811000347137451
1697552813339134000,1.730134033203125,7.820550918579102,5.911774635314941,-0.24553406238555908
1697552813348726000,1.73972607421875,7.802922248840332,5.936694622039795,-0.20108409225940704
1697552813358317600,1.749317626953125,7.782023906707764,5.965654373168945,-0.1465035080909729
1697552813367908000,1.758908203125,7.757561206817627,5.9986653327941895,-0.08155814558267593
1697552813377499400,1.76849951171875,7.729550361633301,6.035259246826172,-0.009375483728945255
1697552813387091700,1.778091796875,7.699422359466553,6.073312282562256,0.06450961530208588
1697552813396683000,1.78768310546875,7.670025825500488,6.10922908782959,0.13564658164978027
1697552813406273800,1.797273681640625,7.644773483276367,6.139049053192139,0.19979526102542877
1697552813415865000,1.806864990234375,7.625935077667236,6.1604743003845215,0.2531006336212158
1697552813425457400,1.81645751953125,7.615798473358154,6.171225070953369,0.29323700070381165
1697552813435048700,1.826048583984375,7.615905284881592,6.169720649719238,0.32081764936447144
1697552813444639200,1.83563916015625,7.624381065368652,6.15851354598999,0.33454108238220215
1697552813454230800,1.845230712890625,7.636005878448486,6.14404296875,0.33545932173728943
1697552813463822800,1.85482275390625,7.6477813720703125,6.129405975341797,0.3349986672401428
1697552813473414400,1.864414306640625,7.660900592803955,6.11252498626709,0.34354740381240845
1697552813483005000,1.8740048828125,7.676513671875,6.091916084289551,0.3606795072555542
1697552813492596500,1.883596435546875,7.696306228637695,6.065621852874756,0.3814273774623871
1697552813502188500,1.8931884765625,7.723590850830078,6.029514312744141,0.4018625020980835
1697552813511779800,1.90277978515625,7.7615766525268555,5.979306697845459,0.41974690556526184
1697552813521370600,1.91237060546875,7.811994552612305,5.912023067474365,0.43716907501220703
1697552813530962000,1.9219619140625,7.874902725219727,5.826266765594482,0.45924416184425354
1697552813540554200,1.93155419921875,7.946547031402588,5.725720405578613,0.488772988319397
1697552813550145500,1.9411455078125,8.01956558227539,5.620132923126221,0.5206396579742432
1697552813559736000,1.950736083984375,8.084454536437988,5.523837566375732,0.547005295753479
1697552813569327600,1.96032763671875,8.132109642028809,5.451541423797607,0.5655890703201294
1697552813578920000,1.969919921875,8.156473159790039,5.413704872131348,0.5780318379402161
1697552813588511200,1.97951123046875,8.156037330627441,5.413318634033203,0.5877242684364319
1697552813598101800,1.989101806640625,8.131442070007324,5.4489898681640625,0.5987982153892517
1697552813607693300,1.998693359375,8.085753440856934,5.5148749351501465,0.6141045689582825
1697552813617285400,2.008285400390625,8.02501106262207,5.600189208984375,0.6383337378501892
1697552813626877000,2.017876953125,7.9561357498168945,5.693760395050049,0.6718438863754272
1697552813636467500,2.027467529296875,7.885598182678223,5.786642551422119,0.708872377872467
1697552813646059000,2.03705908203125,7.819396495819092,5.871664047241211,0.7422906160354614
1697552813655651000,2.046651123046875,7.763855457305908,5.94174861907959,0.7671777009963989
1697552813665242400,2.056242431640625,7.724002838134766,5.9914870262146,0.7824600338935852
1697552813674833200,2.065833251953125,7.703537464141846,6.017110824584961,0.7875677347183228
1697552813684424400,2.075424560546875,7.704113006591797,6.017008304595947,0.7827041149139404
1697552813694016800,2.085016845703125,7.7243828773498535,5.992575645446777,0.7702749371528625
1697552813703608000,2.094608154296875,7.760370254516602,5.948209762573242,0.7522304654121399
1697552813713198800,2.10419873046875,7.8065080642700195,5.890235424041748,0.7307083010673523
1697552813722790100,2.1137900390625,7.8562445640563965,5.826627731323242,0.7072600722312927
1697552813732382500,2.123382568359375,7.90297269821167,5.766032695770264,0.6828509569168091
1697552813741973800,2.132973876953125,7.9413371086120605,5.715867042541504,0.6591072082519531
1697552813751564300,2.142564208984375,7.968105792999268,5.680883884429932,0.6381416320800781
1697552813761155800,2.15215576171875,7.9819183349609375,5.6634087562561035,0.6206262111663818
1697552813770748200,2.161748046875,7.9835944175720215,5.662538528442383,0.6068356037139893
1697552813780339500,2.17133935546875,7.975564956665039,5.674874782562256,0.5971235632896423
1697552813789930000,2.180929931640625,7.961549282073975,5.695224761962891,0.5903753638267517
1697552813799521500,2.190521484375,7.945187568664551,5.718630790710449,0.5845033526420593
1697552813809113600,2.200113525390625,7.9293670654296875,5.7412824630737305,0.5772379636764526
1697552813818705200,2.209705078125,7.915287494659424,5.761831283569336,0.5656042098999023
1697552813828295700,2.219295654296875,7.903476715087891,5.77971887588501,0.54799884557724
1697552813837887200,2.22888720703125,7.893858432769775,5.795037746429443,0.5243292450904846
1697552813847479300,2.238479248046875,7.885831356048584,5.808431625366211,0.49616774916648865
1697552813857070800,2.24807080078125,7.878009796142578,5.821503639221191,0.46630048751831055
1697552813866661400,2.257661376953125,7.8684539794921875,5.8365373611450195,0.4389142096042633
1697552813876252700,2.267252685546875,7.854702949523926,5.85662317276001,0.4171104431152344
1697552813885845000,2.276844970703125,7.834305763244629,5.884907245635986,0.4023764431476593
1697552813895436300,2.286436279296875,7.806242942810059,5.922591209411621,0.3947989344596863
1697552813905027000,2.296027099609375,7.771488666534424,5.968306064605713,0.3920039236545563
1697552813914618400,2.305618408203125,7.732762336730957,6.01845121383667,0.39117977023124695
1697552813924210700,2.315210693359375,7.694194316864014,6.067575454711914,0.39281144738197327
1697552813933802000,2.324802001953125,7.660590648651123,6.109683990478516,0.39685219526290894
1697552813943392500,2.334392578125,7.636402606964111,6.139623641967773,0.40094417333602905
1697552813952984000,2.343984130859375,7.6232733726501465,6.1558003425598145,0.4027390778064728
1697552813962576400,2.353576416015625,7.618826389312744,6.161374092102051,0.40166789293289185
1697552813972167700,2.363167724609375,7.62087869644165,6.159089088439941,0.3977537453174591
1697552813981758200,2.37275830078125,7.628440856933594,6.150122165679932,0.39150673151016235
1697552813991349800,2.382349853515625,7.640600204467773,6.135519504547119,0.38342711329460144
1697552814000941800,2.39194189453125,7.65752649307251,6.114964962005615,0.37401115894317627
1697552814010533400,2.401533447265625,7.679092884063721,6.08842134475708,0.3647612929344177
1697552814020124000,2.4111240234375,7.705475330352783,6.055159091949463,0.3620496094226837
1697552814029715500,2.420715576171875,7.738473892211914,6.012480735778809,0.3694427013397217
1697552814039307500,2.4303076171875,7.7799272537231445,5.957849025726318,0.38361039757728577
1697552814048898800,2.43989892578125,7.831943988800049,5.887718200683594,0.40720969438552856
1697552814058489600,2.449489501953125,7.89353084564209,5.802828311920166,0.435586154460907
1697552814068081000,2.459080810546875,7.960028648376465,5.710765838623047,0.4421387016773224
1697552814077673200,2.468673095703125,8.0259370803833,5.619844913482666,0.4147977828979492
1697552814087264500,2.478264404296875,8.085541725158691,5.5376787185668945,0.35850271582603455
1697552814096855300,2.487855224609375,8.131135940551758,5.474794864654541,0.2857223153114319
1697552814106446600,2.497446533203125,8.158244132995605,5.437864303588867,0.20756025612354279
1697552814116039000,2.507038818359375,8.165854454040527,5.428699970245361,0.1357489675283432
1697552814125630200,2.516630126953125,8.154559135437012,5.446742057800293,0.08095605671405792
1697552814135221000,2.526220947265625,8.12717056274414,5.487905025482178,0.048815276473760605
1697552814144812300,2.535812255859375,8.08836841583252,5.545007705688477,0.03985465690493584
1697552814154404600,2.545404541015625,8.043669700622559,5.609591960906982,0.047501735389232635
1697552814163996000,2.554995849609375,7.998417377471924,5.673786640167236,0.06206682324409485
1697552814173586400,2.56458642578125,7.9581170082092285,5.729997634887695,0.07671647518873215
1697552814183178000,2.574177978515625,7.928277969360352,5.771061420440674,0.08748284727334976
1697552814192770000,2.58377001953125,7.912267684936523,5.792977333068848,0.08844839781522751
1697552814202361600,2.593361572265625,7.911857604980469,5.79369592666626,0.07737206667661667
1697552814211952000,2.6029521484375,7.926447868347168,5.773970603942871,0.05547112599015236
1697552814221543700,2.612543701171875,7.952742576599121,5.737916946411133,0.02398185431957245
1697552814231135700,2.6221357421875,7.986258029937744,5.691212177276611,-0.013138273730874062
1697552814240727000,2.63172705078125,8.022258758544922,5.640142440795898,-0.05041809007525444
1697552814250317800,2.64131787109375,8.056354522705078,5.590950965881348,-0.0825650617480278
1697552814259909400,2.650909423828125,8.085399627685547,5.548476219177246,-0.1053919643163681
1697552814269501400,2.66050146484375,8.107316017150879,5.516175270080566,-0.11668296903371811
1697552814279092700,2.6700927734375,8.121267318725586,5.4956231117248535,-0.11638473719358444
1697552814288683500,2.67968359375,8.12729263305664,5.486914157867432,-0.1061432808637619
1697552814298274800,2.68927490234375,8.125910758972168,5.489290714263916,-0.08739899098873138
1697552814307867100,2.6988671875,8.117716789245605,5.501746654510498,-0.061936624348163605
1697552814317458400,2.70845849609375,8.102933883666992,5.523753643035889,-0.03172199800610542
1697552814327049200,2.71804931640625,8.081936836242676,5.554520606994629,0.0012671020813286304
1697552814336640500,2.727640625,8.05505084991455,5.593319892883301,0.036386262625455856
1697552814346232800,2.73723291015625,8.022913932800293,5.63896369934082,0.07293326407670975
1697552814355824000,2.74682421875,7.985909938812256,5.690650463104248,0.11016549170017242
1697552814365414700,2.75641455078125,7.9442338943481445,5.7478742599487305,0.1465928852558136
1697552814375006200,2.766006103515625,7.898672103881836,5.809360980987549,0.18080605566501617
1697552814384598500,2.7755986328125,7.850278377532959,5.8735880851745605,0.21089953184127808
1697552814394189800,2.78518994140625,7.801100730895996,5.937798023223877,0.23613405227661133
1697552814403780400,2.7947802734375,7.753707408905029,5.9986572265625,0.2579291760921478
1697552814413372000,2.804371826171875,7.710780620574951,6.052862167358398,0.27766790986061096
1697552814422964000,2.8139638671875,7.675448417663574,6.096662998199463,0.2976135313510895
1697552814432555500,2.823555419921875,7.6508965492248535,6.126367092132568,0.3190695345401764
1697552814442146000,2.83314599609375,7.638309478759766,6.140908241271973,0.34037715196609497
1697552814451737600,2.842737548828125,7.637089729309082,6.141383647918701,0.3587055206298828
1697552814461329700,2.85232958984375,7.6439361572265625,6.132129192352295,0.3709830045700073
1697552814470921200,2.861921142578125,7.654200077056885,6.118871688842773,0.3781728744506836
1697552814480511700,2.87151171875,7.665916919708252,6.103635311126709,0.38698023557662964
1697552814490103300,2.881103271484375,7.680198669433594,6.084545612335205,0.4040326178073883
1697552814499695400,2.8906953125,7.697454929351807,6.0609130859375,0.4300100803375244
1697552814509287000,2.900286865234375,7.717959403991699,6.032295227050781,0.4635847508907318
1697552814518877400,2.90987744140625,7.743378162384033,5.996396064758301,0.5037010908126831
1697552814528469000,2.919468994140625,7.775805473327637,5.950212001800537,0.5497410297393799
1697552814538061000,2.92906103515625,7.817229747772217,5.8904924392700195,0.6028264760971069
1697552814547652600,2.938652587890625,7.868755340576172,5.814781665802002,0.6643632054328918
1697552814557243100,2.9482431640625,7.929232597351074,5.723824977874756,0.7317713499069214
1697552814566834700,2.957834716796875,7.9946465492248535,5.623317241668701,0.7964476346969604
1697552814576426800,2.9674267578125,8.058745384216309,5.523464679718018,0.8475490212440491
1697552814586018000,2.97701806640625,8.113926887512207,5.437636375427246,0.8756030201911926
1697552814595608800,2.98660888671875,8.15390396118164,5.377519130706787,0.8755132555961609
1697552814605200100,2.9962001953125,8.174561500549316,5.350210666656494,0.8498148918151855
1697552814614792400,3.00579248046875,8.173349380493164,5.3583831787109375,0.8089954853057861
1697552814624383700,3.0153837890625,8.149727821350098,5.400821685791016,0.763842761516571
1697552814633974500,3.024974609375,8.107230186462402,5.469142436981201,0.7291726469993591
1697552814643565800,3.03456591796875,8.051446914672852,5.55232572555542,0.7185179591178894
1697552814653158100,3.044158203125,7.988982200622559,5.63974666595459,0.7347199320793152
1697552814662749400,3.05374951171875,7.926801681518555,5.721975326538086,0.7714921236038208
1697552814672340000,3.063340087890625,7.871384143829346,5.7915825843811035,0.8180871605873108
1697552814681931500,3.072931640625,7.828373908996582,5.842804431915283,0.8652088046073914
1697552814691523800,3.08252392578125,7.802858829498291,5.870788097381592,0.9053247570991516
1697552814701115100,3.092115234375,7.798156261444092,5.87269401550293,0.9330599904060364
1697552814710705700,3.10170556640625,7.815548419952393,5.847609996795654,0.9450187087059021
1697552814720297200,3.111297119140625,7.853620529174805,5.797425746917725,0.9385529160499573
1697552814729889300,3.12088916015625,7.908022880554199,5.7271199226379395,0.9130536317825317
1697552814739480800,3.130480712890625,7.972426891326904,5.643694877624512,0.8714965581893921
1697552814749071400,3.1400712890625,8.039904594421387,5.555133819580078,0.81903076171875
1697552814758663000,3.149662841796875,8.103939056396484,5.4695024490356445,0.762299656867981
1697552814768255000,3.1592548828125,8.159126281738281,5.394228935241699,0.7080411911010742
1697552814777846500,3.168846435546875,8.201800346374512,5.335171699523926,0.660923421382904
1697552814787437000,3.17843701171875,8.229902267456055,5.296305179595947,0.6230981349945068
1697552814797028600,3.188028564453125,8.243410110473633,5.278613090515137,0.593973696231842
1697552814806620700,3.19762060546875,8.243803977966309,5.2804856300354,0.571442186832428
1697552814816212200,3.207212158203125,8.23348617553711,5.298564910888672,0.5525482892990112
1697552814825802800,3.216802734375,8.215087890625,5.328876972198486,0.5345863699913025
1697552814835394300,3.226394287109375,8.191330909729004,5.367227554321289,0.5151201486587524
1697552814844986400,3.235986328125,8.164006233215332,5.410680294036865,0.4938685894012451
1697552814854578000,3.245577880859375,8.133827209472656,5.45771598815918,0.47390249371528625
1697552814864168400,3.25516845703125,8.101691246032715,5.506437301635742,0.46058177947998047
1697552814873760000,3.264760009765625,8.068933486938477,5.55441951751709,0.45948755741119385
1697552814883352000,3.27435205078125,8.03586196899414,5.601079940795898,0.47245338559150696
1697552814892943400,3.283943359375,8.002059936523438,5.647082805633545,0.4978838264942169
1697552814902534100,3.2935341796875,7.967547416687012,5.692629337310791,0.5315512418746948
1697552814912125700,3.303125732421875,7.932016372680664,5.7383317947387695,0.5701369643211365
1697552814921717800,3.3127177734375,7.8972344398498535,5.782466411590576,0.6059350371360779
1697552814931309000,3.32230908203125,7.865426063537598,5.822777271270752,0.6330331563949585
1697552814940899800,3.33189990234375,7.8370795249938965,5.859772205352783,0.6431475281715393
1697552814950491400,3.341491455078125,7.812561988830566,5.893977165222168,0.6287286877632141
1697552814960083500,3.35108349609375,7.7918701171875,5.9253010749816895,0.5898763537406921
1697552814969674800,3.3606748046875,7.775113105773926,5.952852249145508,0.5306112766265869
1697552814979265500,3.370265625,7.761109828948975,5.977221965789795,0.45648351311683655
1697552814988856800,3.37985693359375,7.74713134765625,6.000925064086914,0.37583428621292114
1697552814998449200,3.38944921875,7.731319904327393,6.025469779968262,0.30133292078971863
1697552815008040400,3.39904052734375,7.713517665863037,6.050835609436035,0.24376018345355988
1697552815017631200,3.40863134765625,7.694717884063721,6.076021671295166,0.20894977450370789
1697552815027222500,3.418222412109375,7.677218914031982,6.098512172698975,0.19709837436676025
1697552815036814800,3.42781494140625,7.663577556610107,6.1153883934021,0.20488515496253967
1697552815046406100,3.43740625,7.656033039093018,6.124120712280273,0.22515471279621124
1697552815055997000,3.446996826171875,7.656505107879639,6.122562408447266,0.25009965896606445
1697552815065588200,3.456588134765625,7.6671366691589355,6.1081929206848145,0.27457401156425476
1697552815075180500,3.4661806640625,7.690033435821533,6.078208923339844,0.29857581853866577
1697552815084771800,3.475771728515625,7.724350929260254,6.0333685874938965,0.32132619619369507
1697552815094362400,3.4853623046875,7.764826774597168,5.980306625366211,0.3373298943042755
1697552815103954000,3.494953857421875,7.803106784820557,5.930099964141846,0.340331494808197
1697552815113546200,3.504546142578125,7.8305463790893555,5.894474029541016,0.32879137992858887
1697552815123137500,3.514137451171875,7.8410749435424805,5.881585597991943,0.3080265522003174
1697552815132728000,3.52372802734375,7.83205509185791,5.8946027755737305,0.28799936175346375
1697552815142319600,3.533319580078125,7.803693771362305,5.9326701164245605,0.2759965658187866
1697552815151912000,3.542911865234375,7.758771896362305,5.991486549377441,0.271893173456192
1697552815161503200,3.552503173828125,7.701801300048828,6.06449556350708,0.27303972840309143
1697552815171093800,3.56209375,7.637984752655029,6.144477844238281,0.2774357795715332
1697552815180685300,3.571685302734375,7.572987079620361,6.224154472351074,0.2831264138221741
1697552815190277600,3.581277587890625,7.512678623199463,6.296520709991455,0.28962886333465576
1697552815199869000,3.590868896484375,7.462776184082031,6.3552656173706055,0.296587735414505
1697552815209459500,3.60045947265625,7.427385330200195,6.396371841430664,0.3012758791446686
1697552815219051000,3.610051025390625,7.408844470977783,6.417949199676514,0.29887714982032776
1697552815228643300,3.619643310546875,7.407480239868164,6.420169353485107,0.28469642996788025
1697552815238234600,3.629234619140625,7.421842575073242,6.40478515625,0.255685955286026
1697552815247825200,3.6388251953125,7.448400974273682,6.375519752502441,0.21085481345653534
1697552815257416700,3.648416748046875,7.482006072998047,6.337707996368408,0.15307925641536713
1697552815267008800,3.6580087890625,7.516805171966553,6.297630310058594,0.08874572068452835
1697552815276600300,3.667600341796875,7.547848701477051,6.260969638824463,0.025046205148100853
1697552815286190800,3.67719091796875,7.572312355041504,6.231334686279297,-0.030802089720964432
1697552815295782400,3.686782470703125,7.58955192565918,6.209968090057373,-0.07336893677711487
1697552815305374700,3.696374755859375,7.599626541137695,6.197267055511475,-0.09970348328351974
1697552815314966000,3.705966064453125,7.6028828620910645,6.193083763122559,-0.1107727512717247
1697552815324556500,3.715556640625,7.600613117218018,6.195905685424805,-0.10878126323223114
1697552815334148000,3.725148193359375,7.594466209411621,6.203650951385498,-0.09584064781665802
1697552815343740400,3.734740478515625,7.585464000701904,6.214930057525635,-0.07592004537582397
1697552815353331700,3.744331787109375,7.574279308319092,6.228785037994385,-0.053985901176929474
1697552815362922200,3.753922119140625,7.561670303344727,6.2442426681518555,-0.031007828190922737
1697552815372513800,3.763513671875,7.547975063323975,6.260865688323975,-0.003868420608341694
1697552815382105900,3.77310595703125,7.531560897827148,6.280526161193848,0.03108203038573265
1697552815391697400,3.782697509765625,7.510415077209473,6.305423736572266,0.07531290501356125
1697552815401288000,3.792287841796875,7.481807708740234,6.3385233879089355,0.12671950459480286
1697552815410879500,3.80187939453125,7.443410873413086,6.382325649261475,0.17868676781654358
1697552815420471600,3.811471435546875,7.394863605499268,6.437131881713867,0.22294968366622925
1697552815430063000,3.82106298828125,7.338080406188965,6.500679969787598,0.2532215118408203
1697552815439653600,3.830653564453125,7.277759552001953,6.567474842071533,0.26997479796409607
1697552815449245200,3.8402451171875,7.219021797180176,6.631575584411621,0.27985554933547974
1697552815458837500,3.84983740234375,7.166344165802002,6.688031196594238,0.2900795638561249
1697552815468428800,3.8594287109375,7.1224284172058105,6.734087944030762,0.30571702122688293
1697552815478019300,3.869019287109375,7.088379383087158,6.768949031829834,0.3264901041984558
1697552815487611000,3.87861083984375,7.062866687774658,6.794619560241699,0.34561845660209656
1697552815497203000,3.888202880859375,7.0439276695251465,6.813610076904297,0.3580276072025299
1697552815506794500,3.89779443359375,7.031395435333252,6.826150417327881,0.36540743708610535
1697552815516385000,3.907385009765625,7.0251994132995605,6.832242965698242,0.370713472366333
1697552815525976600,3.9169765625,7.024680137634277,6.832589626312256,0.37412330508232117
1697552815535568600,3.926568603515625,7.0304341316223145,6.8266282081604,0.3748820424079895
1697552815545160200,3.93616015625,7.043769359588623,6.812952995300293,0.3733299970626831
1697552815554750700,3.945750732421875,7.065435409545898,6.7904510498046875,0.37387406826019287
1697552815564342300,3.95534228515625,7.09687614440918,6.757038593292236,0.38361144065856934
1697552815573934300,3.964934326171875,7.137960433959961,6.712374210357666,0.40491315722465515
1697552815583526000,3.97452587890625,7.186563491821289,6.658547878265381,0.43291977047920227
1697552815593116400,3.984116455078125,7.238583087921143,6.6000213623046875,0.46154075860977173
1697552815602708000,3.9937080078125,7.287308692932129,6.544487953186035,0.48495855927467346
1697552815612300000,4.003300048828125,7.325547218322754,6.500478744506836,0.5005257725715637
1697552815621891600,4.0128916015625,7.3476362228393555,6.474673748016357,0.511104941368103
1697552815631482000,4.022482177734375,7.35103702545166,6.469764232635498,0.5242118835449219
1697552815641073700,4.03207373046875,7.335896015167236,6.485232353210449,0.5447595715522766
1697552815650666000,4.041666015625,7.304524898529053,6.518269062042236,0.5713638067245483
1697552815660257300,4.05125732421875,7.260740280151367,6.5644354820251465,0.6001921892166138
1697552815669847800,4.060847900390625,7.2093377113342285,6.6180925369262695,0.6298369765281677
1697552815679439400,4.070439453125,7.154804229736328,6.674148082733154,0.6594820618629456
1697552815689031400,4.080031494140625,7.102055072784424,6.7274980545043945,0.6870023012161255
1697552815698623000,4.089623046875,7.0559282302856445,6.773516654968262,0.7097448706626892
1697552815708213500,4.099213623046875,7.020547866821289,6.808603286743164,0.7247159481048584
1697552815717805000,4.10880517578125,6.999307155609131,6.82990837097168,0.72968590259552
1697552815727397400,4.1183974609375,6.994186878204346,6.835791110992432,0.7236741185188293
1697552815736988700,4.12798876953125,7.004296779632568,6.82724142074585,0.70639568567276
1697552815746579200,4.1375791015625,7.0257110595703125,6.808150768280029,0.6773910522460938
1697552815756170800,4.147170654296875,7.053123474121094,6.783441066741943,0.6393375992774963
1697552815765763000,4.15676318359375,7.0809807777404785,6.758142948150635,0.598004162311554
1697552815775354400,4.166354248046875,7.104602336883545,6.736696243286133,0.5585089921951294
1697552815784945000,4.17594482421875,7.12067985534668,6.722614288330078,0.5222788453102112
1697552815794536400,4.185536376953125,7.126959323883057,6.718568801879883,0.4875161647796631
1697552815804128800,4.195128662109375,7.1232590675354,6.7250447273254395,0.450954407453537
1697552815813720000,4.204719970703125,7.110884189605713,6.740690231323242,0.41085782647132874
1697552815823310600,4.214310546875,7.092040061950684,6.763044357299805,0.3668619692325592
1697552815832902100,4.223902099609375,7.069064140319824,6.789478778839111,0.31888043880462646
1697552815842494500,4.233494384765625,7.0439653396606445,6.817753791809082,0.2667638659477234
1697552815852085800,4.243085693359375,7.0184783935546875,6.845977306365967,0.20960810780525208
1697552815861676300,4.25267626953125,6.9939374923706055,6.872656345367432,0.14776219427585602
1697552815871267800,4.262267822265625,6.9695963859558105,6.898432731628418,0.08215177804231644
1697552815880860200,4.271860107421875,6.942900657653809,6.925774574279785,0.012709571979939938
1697552815890451500,4.281451416015625,6.911989212036133,6.9564008712768555,-0.057304635643959045
1697552815900042200,4.291042236328125,6.872631072998047,6.994399070739746,-0.1253158301115036
1697552815909633500,4.300633544921875,6.819475173950195,7.044789791107178,-0.18994338810443878
1697552815919225900,4.310225830078125,6.748071670532227,7.111380577087402,-0.24938230216503143
1697552815928817200,4.319817138671875,6.656747817993164,7.1950178146362305,-0.2996925711631775
1697552815938408000,4.329407958984375,6.548969268798828,7.291750431060791,-0.334310919046402
1697552815947999200,4.338999267578125,6.429300308227539,7.396268367767334,-0.36015307903289795
1697552815957591600,4.348591552734375,6.305132865905762,7.501145362854004,-0.38537028431892395
1697552815967182800,4.358182861328125,6.191006660461426,7.594574928283691,-0.40527716279029846
1697552815976773600,4.367773681640625,6.101500988006592,7.665875434875488,-0.4200223684310913
1697552815986365000,4.377364990234375,6.045235633850098,7.709506034851074,-0.43476587533950806
1697552815995957200,4.386957275390625,6.024716854095459,7.724521636962891,-0.452709823846817
1697552816005548500,4.396548583984375,6.036617755889893,7.713874816894531,-0.47515150904655457
1697552816015139300,4.406139404296875,6.0742363929748535,7.682754039764404,-0.4993348717689514
1697552816024730600,4.415730712890625,6.129610061645508,7.6374053955078125,-0.5179809331893921
1697552816034323000,4.425322998046875,6.193739414215088,7.584929466247559,-0.5261511206626892
1697552816043914200,4.434914306640625,6.257402420043945,7.5326762199401855,-0.5235370993614197
1697552816053505000,4.444505126953125,6.316612720489502,7.4842529296875,-0.5067071914672852
1697552816063096300,4.454096435546875,6.371209621429443,7.440115928649902,-0.47196337580680847
1697552816072688600,4.463688720703125,6.4207539558410645,7.400399208068848,-0.42237547039985657
1697552816082280200,4.4732802734375,6.464610576629639,7.365012168884277,-0.3685063123703003
1697552816091870700,4.48287060546875,6.5037946701049805,7.332637786865234,-0.3216588795185089
1697552816101462300,4.492462158203125,6.540506362915039,7.301229476928711,-0.2901669442653656
1697552816111054300,4.502054443359375,6.5757575035095215,7.270000457763672,-0.2773147523403168
1697552816120646000,4.51164599609375,6.609244346618652,7.23945426940918,-0.2803246080875397
1697552816130236400,4.521236328125,6.639542102813721,7.211177349090576,-0.29290348291397095
1697552816139828000,4.530827880859375,6.663362979888916,7.18845796585083,-0.30991363525390625
1697552816149420000,4.540419921875,6.677853584289551,7.174234867095947,-0.32712551951408386
1697552816159011300,4.55001123046875,6.681329250335693,7.170356273651123,-0.3408946394920349
1697552816168602000,4.55960205078125,6.6741838455200195,7.176551342010498,-0.35037919878959656
1697552816178193700,4.569193603515625,6.659450054168701,7.189941883087158,-0.35615628957748413
1697552816187785700,4.57878564453125,6.641098976135254,7.20667839050293,-0.36051639914512634
1697552816197377300,4.588377197265625,6.623928070068359,7.222102642059326,-0.36768800020217896
1697552816206967800,4.5979677734375,6.613292694091797,7.231253623962402,-0.3791145086288452
1697552816216559400,4.607559326171875,6.613216876983643,7.230456352233887,-0.39528506994247437
1697552816226151400,4.6171513671875,6.624696254730225,7.218602657318115,-0.41899779438972473
1697552816235743000,4.626742919921875,6.645995616912842,7.19691276550293,-0.4534197747707367
1697552816245333500,4.63633349609375,6.6737518310546875,7.168174743652344,-0.49868103861808777
1697552816254925000,4.645925048828125,6.704317569732666,7.135803699493408,-0.5502911806106567
1697552816264517000,4.65551708984375,6.735422134399414,7.102431297302246,-0.5999547839164734
1697552816274108700,4.665108642578125,6.7661895751953125,7.069695949554443,-0.6391103863716125
1697552816283699200,4.67469921875,6.79647970199585,7.038431644439697,-0.6623725891113281
1697552816293290800,4.684290771484375,6.827789783477783,7.007503032684326,-0.6682747006416321
1697552816302883000,4.693883056640625,6.860935688018799,6.975855827331543,-0.6598327159881592
1697552816312474400,4.703474365234375,6.895740509033203,6.943138599395752,-0.6418458223342896
1697552816322065000,4.71306494140625,6.931305885314941,6.909697532653809,-0.6192407011985779
1697552816331656400,4.722656494140625,6.966885566711426,6.875866413116455,-0.5961166024208069
1697552816341248800,4.732248779296875,7.001959323883057,6.842132091522217,-0.5728802680969238
1697552816350840000,4.741840087890625,7.035181045532227,6.809942245483398,-0.5489294528961182
1697552816360430600,4.7514306640625,7.065553188323975,6.780455589294434,-0.5232263803482056
1697552816370022100,4.761022216796875,7.092686176300049,6.754184246063232,-0.49515682458877563
1697552816379614500,4.770614501953125,7.115313529968262,6.732426643371582,-0.4659808874130249
1697552816389205800,4.780205810546875,7.131272315979004,6.717394828796387,-0.4381253719329834
1697552816398796300,4.78979638671875,7.13879919052124,6.710829257965088,-0.4155862033367157
1697552816408387800,4.799387939453125,7.13609504699707,6.714599132537842,-0.40087172389030457
1697552816417980200,4.808980224609375,7.120217800140381,6.731652736663818,-0.3971678912639618
1697552816427571500,4.818571533203125,7.091497421264648,6.761622905731201,-0.4018719792366028
1697552816437162200,4.828162353515625,7.05242919921875,6.802029132843018,-0.4074687659740448
1697552816446753500,4.83775341796875,7.005231857299805,6.85059928894043,-0.40793946385383606
1697552816456345900,4.847345947265625,6.951236724853516,6.905690670013428,-0.4026419222354889
1697552816465937200,4.856937255859375,6.894760608673096,6.962810516357422,-0.3897867202758789
1697552816475528000,4.86652783203125,6.839291095733643,7.018084526062012,-0.37544625997543335
1697552816485119200,4.876119140625,6.7850422859191895,7.070956230163574,-0.3676506280899048
1697552816494711600,4.885711669921875,6.73399543762207,7.119843482971191,-0.3626468777656555
1697552816504302800,4.895302734375,6.685420989990234,7.165965557098389,-0.3527909219264984
1697552816513893600,4.9048935546875,6.641815662384033,7.207651615142822,-0.32624393701553345
1697552816523485000,4.91448486328125,6.605705738067627,7.2429304122924805,-0.27387288212776184
1697552816533077200,4.9240771484375,6.578858852386475,7.269800186157227,-0.19752542674541473
1697552816542668500,4.93366845703125,6.562265396118164,7.286693096160889,-0.1056506335735321
1697552816552259300,4.94325927734375,6.559056758880615,7.29034423828125,-0.006544714793562889
1697552816561851000,4.952850830078125,6.572792053222656,7.277371883392334,0.09302961826324463
1697552816571443000,4.96244287109375,6.602299690246582,7.248831748962402,0.18566837906837463
1697552816581034500,4.972034423828125,6.643632411956787,7.208533763885498,0.26377004384994507
1697552816590625000,4.981625,6.691369533538818,7.162003993988037,0.31885960698127747
1697552816600216600,4.991216552734375,6.740201950073242,7.114740371704102,0.3471790850162506
1697552816609808600,5.00080859375,6.785541534423828,7.071191787719727,0.35364094376564026
1697552816619400200,5.010400146484375,6.82324743270874,7.035093307495117,0.3480522632598877
1697552816628990700,5.01999072265625,6.850488662719727,7.008915424346924,0.3410130739212036
1697552816638582300,5.029582275390625,6.865506649017334,6.994290828704834,0.3392864167690277
1697552816648174300,5.03917431640625,6.868376731872559,6.9912004470825195,0.34481537342071533
1697552816657766000,5.048765869140625,6.860866546630859,6.9979400634765625,0.3573923408985138
1697552816667356400,5.0583564453125,6.84660530090332,7.010880947113037,0.37672159075737
1697552816676948000,5.067947998046875,6.8300604820251465,7.025651931762695,0.4010796546936035
1697552816686540000,5.0775400390625,6.815731525421143,7.038030624389648,0.4269827604293823
1697552816696131600,5.087131591796875,6.808740615844727,7.043380260467529,0.44970703125
1697552816705722000,5.09672216796875,6.812930583953857,7.038296699523926,0.4655652642250061
1697552816715313700,5.106313720703125,6.829972743988037,7.021337509155273,0.4718804657459259
1697552816724906000,5.115906005859375,6.8577985763549805,6.994500637054443,0.4668309688568115
1697552816734497300,5.125497314453125,6.891300201416016,6.962695121765137,0.44859588146209717
1697552816744087800,5.135087890625,6.9249067306518555,6.931090831756592,0.4195691645145416
1697552816753679400,5.144679443359375,6.955618858337402,6.902215480804443,0.3862378001213074
1697552816763271700,5.154271728515625,6.9807353019714355,6.878358840942383,0.3576393723487854
1697552816772863000,5.163863037109375,6.997265338897705,6.862443923950195,0.3398975133895874
1697552816782453500,5.17345361328125,7.00264310836792,6.8572998046875,0.3328971564769745
1697552816792045000,5.183045166015625,6.995707035064697,6.8644700050354,0.3309367597103119
1697552816801637400,5.192637451171875,6.976485729217529,6.884239196777344,0.326019823551178
1697552816811228700,5.202228759765625,6.945927619934082,6.915684700012207,0.31271952390670776
1697552816820819500,5.2118193359375,6.9086408615112305,6.953873157501221,0.2910597324371338
1697552816830410800,5.22141064453125,6.870224475860596,6.992980003356934,0.2619937062263489
1697552816840003000,5.231003173828125,6.834280490875244,7.029531002044678,0.22065399587154388
1697552816849594400,5.240594482421875,6.802646636962891,7.061747074127197,0.16159334778785706
1697552816859185200,5.25018505859375,6.776242733001709,7.088403224945068,0.0863584652543068
1697552816868776400,5.2597763671875,6.755708694458008,7.108499050140381,0.00460004759952426
1697552816878368800,5.26936865234375,6.741194725036621,7.121885776519775,-0.07359495759010315
1697552816887960000,5.2789599609375,6.7308197021484375,7.1306304931640625,-0.14333495497703552
1697552816897550800,5.28855078125,6.720173358917236,7.1392083168029785,-0.20339138805866241
1697552816907142400,5.298142333984375,6.704295635223389,7.152515411376953,-0.2536123991012573
1697552816916734500,5.307734375,6.680736064910889,7.173110008239746,-0.29090940952301025
1697552816926326000,5.317325927734375,6.6491193771362305,7.201519012451172,-0.3125964105129242
1697552816935916500,5.32691650390625,6.610766410827637,7.236485481262207,-0.3184765577316284
1697552816945508000,5.336508056640625,6.566806793212891,7.276644229888916,-0.312879353761673
1697552816955100200,5.34610009765625,6.519165515899658,7.319753646850586,-0.30343714356422424
1697552816964691700,5.355691650390625,6.469783782958984,7.363681793212891,-0.29743677377700806
1697552816974282200,5.3652822265625,6.419536590576172,7.407337188720703,-0.3021446764469147
1697552816983873800,5.374873779296875,6.370024681091309,7.4490556716918945,-0.3236340880393982
1697552816993465900,5.3844658203125,6.323524475097656,7.486666679382324,-0.36505308747291565
1697552817003057400,5.394057373046875,6.278914928436279,7.520981788635254,-0.4247851073741913
1697552817012648000,5.40364794921875,6.235068321228027,7.55336332321167,-0.49093133211135864
1697552817022239500,5.413239501953125,6.191437721252441,7.5852203369140625,-0.5485512018203735
1697552817031831600,5.42283154296875,6.145258903503418,7.6195292472839355,-0.5907240509986877
1697552817041423000,5.432423095703125,6.099934101104736,7.654224395751953,-0.6115881204605103
1697552817051013600,5.442013671875,6.057697772979736,7.687738418579102,-0.6110396385192871
1697552817060605200,5.451605224609375,6.019787788391113,7.718517303466797,-0.5975152850151062
1697552817070197500,5.461197509765625,5.9906439781188965,7.7425737380981445,-0.5788965821266174
1697552817079788800,5.470788818359375,5.975174427032471,7.755813121795654,-0.5612860321998596
1697552817089379300,5.48037939453125,5.977350234985352,7.755008220672607,-0.5491124391555786
1697552817098971000,5.489970947265625,5.997954368591309,7.739256858825684,-0.5466563701629639
1697552817108563200,5.499563232421875,6.033581733703613,7.710793495178223,-0.5567211508750916
1697552817118154500,5.509154541015625,6.078392028808594,7.673922061920166,-0.5783253312110901
1697552817127745000,5.5187451171875,6.126433849334717,7.633397579193115,-0.6069880723953247
1697552817137336600,5.528336669921875,6.172272682189941,7.594067096710205,-0.6352710127830505
1697552817146929000,5.537928955078125,6.210561752319336,7.560909748077393,-0.6572308540344238
1697552817156520200,5.547520263671875,6.238913059234619,7.536442279815674,-0.6696228384971619
1697552817166111000,5.557111083984375,6.258251190185547,7.520190238952637,-0.6718730926513672
1697552817175702300,5.566702392578125,6.272204399108887,7.509265899658203,-0.6638968586921692
1697552817185294600,5.576294677734375,6.285284519195557,7.49972677230835,-0.6478375792503357
1697552817194886100,5.58588623046875,6.300354480743408,7.488717555999756,-0.6285112500190735
1697552817204476700,5.5954765625,6.3182597160339355,7.474758148193359,-0.6147961020469666
1697552817214068200,5.605068115234375,6.339938640594482,7.456431865692139,-0.6141586899757385
1697552817223660300,5.614660400390625,6.366409778594971,7.432706356048584,-0.6277604699134827
1697552817233251800,5.624251953125,6.396684169769287,7.4043049812316895,-0.6550365686416626
1697552817242842400,5.63384228515625,6.428987979888916,7.3726043701171875,-0.6951321363449097
1697552817252434000,5.643433837890625,6.46121072769165,7.339254379272461,-0.7473225593566895
1697552817262026000,5.65302587890625,6.491418361663818,7.30573034286499,-0.8112865686416626
1697552817271617500,5.662617431640625,6.518996238708496,7.272485256195068,-0.8854590654373169
1697552817281208000,5.6722080078125,6.545035362243652,7.239221572875977,-0.9625886082649231
1697552817290799600,5.681799560546875,6.570880889892578,7.206000328063965,-1.0331838130950928
1697552817300391700,5.6913916015625,6.596639633178711,7.174272537231445,-1.0883738994598389
1697552817309983200,5.700983154296875,6.620412349700928,7.1469855308532715,-1.1229978799819946
1697552817319573800,5.71057373046875,6.63961935043335,7.127002716064453,-1.136521339416504
1697552817329165300,5.720165283203125,6.652270793914795,7.115965843200684,-1.1316865682601929
1697552817338757400,5.72975732421875,6.657747268676758,7.113945484161377,-1.1120049953460693
1697552817348349000,5.739348876953125,6.656127452850342,7.12036657333374,-1.0801525115966797
1697552817357939500,5.748939453125,6.647400856018066,7.134345054626465,-1.040945053100586
1697552817367531000,5.758531005859375,6.6314311027526855,7.154820919036865,-1.0015251636505127
1697552817377123300,5.768123291015625,6.60894775390625,7.18027400970459,-0.9673998355865479
1697552817386714600,5.777714599609375,6.581049919128418,7.209418773651123,-0.9404462575912476
1697552817396305200,5.78730517578125,6.547576427459717,7.242166996002197,-0.9223005771636963
1697552817405896700,5.796896728515625,6.507418632507324,7.279275894165039,-0.914354145526886
1697552817415489000,5.806489013671875,6.45979642868042,7.321335315704346,-0.916220486164093
1697552817425080300,5.816080322265625,6.40517520904541,7.36827278137207,-0.9234073162078857
1697552817434670800,5.8256708984375,6.345397472381592,7.419036388397217,-0.9296242594718933
1697552817444262400,5.835262451171875,6.284160137176514,7.470993995666504,-0.9294909238815308
1697552817453854700,5.844854736328125,6.225937366485596,7.520549297332764,-0.9216486811637878
1697552817463446000,5.854446044921875,6.175610065460205,7.563775539398193,-0.9063875079154968
1697552817473036800,5.864036865234375,6.139081001281738,7.596238136291504,-0.8827468156814575
1697552817482628000,5.873628173828125,6.121082305908203,7.614224910736084,-0.8522470593452454
1697552817492220400,5.883220458984375,6.1208109855651855,7.617520332336426,-0.8242860436439514
1697552817501812000,5.89281201171875,6.1340765953063965,7.608257293701172,-0.8111082911491394
1697552817511402500,5.902402587890625,6.158628940582275,7.5877790451049805,-0.816883385181427
1697552817520994000,5.911994140625,6.193602561950684,7.556723594665527,-0.8400034308433533
1697552817530586000,5.921586181640625,6.235294342041016,7.518084526062012,-0.8774405717849731
1697552817540177700,5.931177734375,6.279129981994629,7.4761505126953125,-0.9220113158226013
1697552817549768200,5.940768310546875,6.323878288269043,7.43325138092041,-0.9621462821960449
1697552817559359700,5.95035986328125,6.36960506439209,7.390944004058838,-0.9861342906951904
1697552817568951800,5.959951904296875,6.417313575744629,7.349571228027344,-0.9860373139381409
1697552817578543400,5.96954345703125,6.47544002532959,7.303117752075195,-0.950544536113739
1697552817588134000,5.9791337890625,6.539587497711182,7.252988338470459,-0.893506646156311
1697552817597725400,5.988725341796875,6.60191011428833,7.203124523162842,-0.8367637991905212
1697552817607317800,5.99831787109375,6.658631324768066,7.155559062957764,-0.7943472862243652
1697552817616909000,6.007908935546875,6.706957817077637,7.1127471923828125,-0.7719613909721375
1697552817626499600,6.01749951171875,6.742776393890381,7.0793585777282715,-0.7668305039405823
1697552817636091100,6.027091064453125,6.762503623962402,7.059947967529297,-0.7720471024513245
1697552817645683200,6.03668310546875,6.767341136932373,7.054864406585693,-0.7761359810829163
1697552817655274800,6.046274658203125,6.760896682739258,7.061916828155518,-0.7681100964546204
1697552817664865300,6.055865234375,6.7465500831604,7.078341960906982,-0.742642879486084
1697552817674456800,6.065456787109375,6.726413249969482,7.101894378662109,-0.6991785168647766
1697552817684049200,6.075049072265625,6.702549934387207,7.129961013793945,-0.6402124166488647
1697552817693640400,6.084640380859375,6.677184104919434,7.159647464752197,-0.5701178312301636
1697552817703231200,6.094231201171875,6.654276371002197,7.186659812927246,-0.4928530752658844
1697552817712822500,6.103822509765625,6.638603687286377,7.20620584487915,-0.4122318625450134
1697552817722414800,6.113414794921875,6.633997917175293,7.214538097381592,-0.33300986886024475
1697552817732006100,6.123006103515625,6.642364501953125,7.2097601890563965,-0.2621862292289734
1697552817741597000,6.132596923828125,6.663351058959961,7.192124366760254,-0.20854103565216064
1697552817751188200,6.142188232421875,6.69511079788208,7.163388729095459,-0.17815706133842468
1697552817760780500,6.151780517578125,6.734908103942871,7.1261444091796875,-0.17167328298091888
1697552817770371800,6.161371826171875,6.779129505157471,7.083749771118164,-0.18510910868644714
1697552817779962600,6.170962646484375,6.822768211364746,7.040916919708252,-0.21382860839366913
1697552817789554000,6.180553955078125,6.861475944519043,7.00186824798584,-0.25370967388153076
1697552817799146200,6.190146240234375,6.892683982849121,6.969321250915527,-0.29976561665534973
1697552817808737500,6.199737548828125,6.915469646453857,6.944580078125,-0.3456452488899231
1697552817818328300,6.209328369140625,6.930545806884766,6.927523136138916,-0.3838428854942322
1697552817827920000,6.218919921875,6.937168598175049,6.919327259063721,-0.41107064485549927
1697552817837512000,6.228511962890625,6.9348368644714355,6.920675754547119,-0.42738381028175354
1697552817847103500,6.238103515625,6.925405979156494,6.929627895355225,-0.4352155923843384
1697552817856694000,6.247694091796875,6.913285732269287,6.941745281219482,-0.4347842037677765
1697552817866285600,6.25728564453125,6.901601791381836,6.953885078430176,-0.42632779479026794
1697552817875877600,6.266877685546875,6.891042232513428,6.965169429779053,-0.4127330482006073
1697552817885469200,6.27646923828125,6.880128860473633,6.976881980895996,-0.39664459228515625
1697552817895059700,6.286059814453125,6.867144584655762,6.990792274475098,-0.37620705366134644
1697552817904651300,6.2956513671875,6.851962089538574,7.007385730743408,-0.3428473174571991
1697552817914243600,6.30524365234375,6.832402229309082,7.028665542602539,-0.2941475510597229
1697552817923835000,6.3148349609375,6.805522918701172,7.056935787200928,-0.2343187928199768
1697552817933425400,6.32442529296875,6.770262718200684,7.0926079750061035,-0.16981273889541626
1697552817943017000,6.334016845703125,6.729470729827881,7.132570743560791,-0.10515028238296509
1697552817952609300,6.343609375,6.6881794929504395,7.171952724456787,-0.041717641055583954
1697552817962200600,6.35320068359375,6.652595043182373,7.20507287979126,0.017136141657829285
1697552817971791000,6.362791015625,6.626227855682373,7.229081153869629,0.062268227338790894
1697552817981382700,6.372382568359375,6.609743595123291,7.243926525115967,0.0848129466176033
1697552817990975000,6.38197509765625,6.601171016693115,7.251780033111572,0.08132115751504898
1697552818000566300,6.391566162109375,6.598337173461914,7.254583835601807,0.057914722710847855
1697552818010157000,6.401156982421875,6.598772048950195,7.25438117980957,0.02343924343585968
1697552818019748400,6.410748291015625,6.59950065612793,7.25373649597168,-0.01687440276145935
1697552818029340700,6.420340576171875,6.597641944885254,7.255177021026611,-0.0625932589173317
1697552818038932000,6.429931884765625,6.591282367706299,7.26031494140625,-0.11493181437253952
1697552818048522800,6.439522705078125,6.581979751586914,7.267615795135498,-0.17229780554771423
1697552818058114000,6.449114013671875,6.57407808303833,7.273169040679932,-0.2299947589635849
1697552818067706400,6.458706298828125,6.572445392608643,7.272640705108643,-0.2864322364330292
1697552818077297700,6.468297607421875,6.579085826873779,7.264035224914551,-0.3461577892303467
1697552818086888400,6.477888427734375,6.595695972442627,7.245686054229736,-0.40894344449043274
1697552818096480000,6.48747998046875,6.6258769035339355,7.214396953582764,-0.4696868062019348
1697552818106072000,6.497072021484375,6.672109127044678,7.168096542358398,-0.5212820768356323
1697552818115663600,6.50666357421875,6.734327793121338,7.106829643249512,-0.5587382316589355
1697552818125254100,6.516254150390625,6.809318542480469,7.032958030700684,-0.584009051322937
1697552818134845700,6.525845703125,6.8882551193237305,6.95372200012207,-0.6066998839378357
1697552818144437800,6.535437744140625,6.960616588592529,6.878658294677734,-0.635810375213623
1697552818154029300,6.545029296875,7.019594192504883,6.81506872177124,-0.6712060570716858
1697552818163619800,6.554619873046875,7.062420845031738,6.767665386199951,-0.7009255886077881
1697552818173211400,6.56421142578125,7.088888645172119,6.739093780517578,-0.7089892029762268
1697552818182803500,6.573803466796875,7.098367214202881,6.731268882751465,-0.6881808042526245
1697552818192395000,6.58339501953125,7.089502334594727,6.7442779541015625,-0.65118408203125
1697552818201985500,6.592985595703125,7.062025547027588,6.7769999504089355,-0.6086604595184326
1697552818211577000,6.6025771484375,7.020585536956787,6.8238091468811035,-0.5633807182312012
1697552818221169400,6.61216943359375,6.9735918045043945,6.875471115112305,-0.5170072913169861
1697552818230760700,6.6217607421875,6.927718639373779,6.9248881340026855,-0.47225871682167053
1697552818240351200,6.631351318359375,6.887523651123047,6.967269420623779,-0.43537622690200806
1697552818249942800,6.64094287109375,6.855677127838135,7.000061988830566,-0.41134700179100037
1697552818259535000,6.65053515625,6.833115577697754,7.022661209106445,-0.40143993496894836
1697552818269126400,6.66012646484375,6.820089340209961,7.035066604614258,-0.40571802854537964
1697552818278717200,6.66971728515625,6.815924644470215,7.037981986999512,-0.4247019290924072
1697552818288308500,6.67930859375,6.820034503936768,7.031987190246582,-0.4568028450012207
1697552818297900800,6.68890087890625,6.833345413208008,7.016303539276123,-0.4972479045391083
1697552818307492000,6.6984921875,6.855220794677734,6.991495132446289,-0.5434426665306091
1697552818317083000,6.708082763671875,6.882773399353027,6.960399627685547,-0.592146635055542
1697552818326674400,6.71767431640625,6.911948204040527,6.9273223876953125,-0.6384041905403137
1697552818336266500,6.7272666015625,6.940870761871338,6.894776821136475,-0.675837516784668
1697552818345857800,6.73685791015625,6.973687171936035,6.858955383300781,-0.7020042538642883
1697552818355448600,6.746448486328125,7.008328914642334,6.822319984436035,-0.7139113545417786
1697552818365040000,6.7560400390625,7.040571689605713,6.789174556732178,-0.712635338306427
1697552818374632200,6.765632080078125,7.066684722900391,6.762643337249756,-0.7064141631126404
1697552818384223700,6.7752236328125,7.085541248321533,6.74369478225708,-0.6986193060874939
1697552818393814300,6.784814208984375,7.09950590133667,6.729898929595947,-0.6898276209831238
1697552818403405800,6.79440576171875,7.110902786254883,6.718763828277588,-0.680939257144928
1697552818412998000,6.803997802734375,7.119870185852051,6.7100510597229,-0.6730982661247253
1697552818422589400,6.81358935546875,7.125325679779053,6.705077648162842,-0.6648737788200378
1697552818432180000,6.823179931640625,7.125187397003174,6.7062273025512695,-0.6546831727027893
1697552818441771500,6.832771484375,7.116603851318359,6.716455459594727,-0.6430987119674683
1697552818451363800,6.84236376953125,7.097220420837402,6.738135814666748,-0.6303725838661194
1697552818460955100,6.851955078125,7.065865993499756,6.772290229797363,-0.6164505481719971
1697552818470545700,6.861545654296875,7.023736476898193,6.817451000213623,-0.5999007225036621
1697552818480137200,6.87113720703125,6.973535060882568,6.870641231536865,-0.5783476829528809
1697552818489729500,6.8807294921875,6.919222354888916,6.927635192871094,-0.5501067638397217
1697552818499320800,6.89032080078125,6.865811347961426,6.983291149139404,-0.5144639015197754
1697552818508911600,6.89991162109375,6.81920051574707,7.031976222991943,-0.4692499339580536
1697552818518503000,6.9095029296875,6.784649848937988,7.06883430480957,-0.41290050745010376
1697552818528095200,6.91909521484375,6.763343334197998,7.0925421714782715,-0.3513103425502777
1697552818537686500,6.9286865234375,6.7522735595703125,7.105677604675293,-0.294164776802063
1697552818547277300,6.93827734375,6.749082088470459,7.110611915588379,-0.24389246106147766
1697552818556868600,6.94786865234375,6.753031253814697,7.108222961425781,-0.20028407871723175
1697552818566461000,6.9574609375,6.762971878051758,7.099650859832764,-0.16601501405239105
1697552818576052200,6.96705224609375,6.778286457061768,7.085585117340088,-0.14038927853107452
1697552818585643000,6.97664306640625,6.798531532287598,7.066524505615234,-0.12077856808900833
1697552818595234600,6.986234619140625,6.82244873046875,7.043696880340576,-0.10447262972593307
1697552818604826600,6.99582666015625,6.847867965698242,7.0192155838012695,-0.08777041733264923
1697552818614418200,7.005418212890625,6.873702526092529,6.994159698486328,-0.06570759415626526
1697552818624008700,7.0150087890625,6.899147033691406,6.969280242919922,-0.036117035895586014
1697552818633600300,7.024600341796875,6.922390460968018,6.946284294128418,-0.004937327932566404
1697552818643192300,7.0341923828125,6.941741466522217,6.92692232131958,0.019260533154010773
1697552818652783900,7.043783935546875,6.956299304962158,6.912255764007568,0.03159008547663689
1697552818662374400,7.05337451171875,6.965377330780029,6.903110504150391,0.03126588091254234
1697552818671966000,7.062966064453125,6.9691972732543945,6.899291515350342,0.021095309406518936
1697552818681558300,7.072558349609375,6.9693522453308105,6.899165630340576,0.005760709289461374
1697552818691149600,7.082149658203125,6.967317581176758,6.901210784912109,-0.012623894028365612
1697552818700740000,7.091739990234375,6.96314001083374,6.905352592468262,-0.03412768244743347
1697552818710331600,7.10133154296875,6.956624507904053,6.911770343780518,-0.05662938952445984
1697552818719924000,7.110924072265625,6.947709560394287,6.920554161071777,-0.07517415285110474
1697552818729515300,7.120515380859375,6.9367852210998535,6.931386947631836,-0.08531565964221954
1697552818739105800,7.130105712890625,6.924191474914551,6.943963050842285,-0.0856083557009697
1697552818748697300,7.139697265625,6.911457061767578,6.956737041473389,-0.07719317078590393
1697552818758289700,7.14928955078125,6.9001288414001465,6.968114376068115,-0.06315697729587555
1697552818767881000,7.158880859375,6.890843868255615,6.9774065017700195,-0.04955446720123291
1697552818777471700,7.1684716796875,6.883056163787842,6.985135555267334,-0.042514167726039886
1697552818787063000,7.17806298828125,6.876128196716309,6.991937637329102,-0.04544346034526825
1697552818796655400,7.1876552734375,6.869970321655273,6.997903823852539,-0.056920651346445084
1697552818806246700,7.19724658203125,6.863981246948242,7.003615379333496,-0.0742129236459732
1697552818815837400,7.20683740234375,6.857012748718262,7.010176658630371,-0.09581977874040604
1697552818825429000,7.216428955078125,6.848226547241211,7.018388271331787,-0.12002355605363846
1697552818835021000,7.22602099609375,6.8373942375183105,7.028502941131592,-0.14344225823879242
1697552818844612600,7.235612548828125,6.824368476867676,7.040724277496338,-0.16309019923210144
1697552818854203100,7.245203125,6.807974815368652,7.056195259094238,-0.17884258925914764
1697552818863794700,7.254794677734375,6.787392616271973,7.075625419616699,-0.19294050335884094
1697552818873386800,7.26438671875,6.762511730194092,7.099000930786133,-0.20739631354808807
1697552818882978300,7.273978271484375,6.734240531921387,7.125377178192139,-0.22222483158111572
1697552818892568800,7.28356884765625,6.703980445861816,7.1533894538879395,-0.23675672709941864
1697552818902160400,7.293160400390625,6.673548221588135,7.181324005126953,-0.25045499205589294
1697552818911752700,7.302752685546875,6.643868923187256,7.208303928375244,-0.26411065459251404
1697552818921344000,7.312343994140625,6.614702224731445,7.2345099449157715,-0.27922379970550537
1697552818930934500,7.3219345703125,6.585526466369629,7.260463714599609,-0.2947816848754883
1697552818940526000,7.331526123046875,6.555278778076172,7.287211894989014,-0.3086227774620056
1697552818950118400,7.341118408203125,6.521569728851318,7.3169403076171875,-0.3192192614078522
1697552818959709700,7.350709716796875,6.482388496398926,7.351391792297363,-0.3256579041481018
1697552818969300200,7.36030029296875,6.436959266662598,7.391265869140625,-0.3242436647415161
1697552818978891800,7.369891845703125,6.385683059692383,7.4361395835876465,-0.31187930703163147
1697552818988484000,7.379484130859375,6.329764366149902,7.484750270843506,-0.28807151317596436
1697552818998075400,7.389075439453125,6.2716593742370605,7.534689903259277,-0.2551908791065216
1697552819007666200,7.398666259765625,6.2156147956848145,7.582181930541992,-0.21689173579216003
1697552819017257500,7.408257568359375,6.166639804840088,7.623079299926758,-0.17778073251247406
1697552819026849800,7.417849853515625,6.129324436187744,7.653841018676758,-0.14310309290885925
1697552819036441000,7.427441162109375,6.106125831604004,7.6727399826049805,-0.12119372189044952
1697552819046032000,7.437031982421875,6.097122669219971,7.679906845092773,-0.12042934447526932
1697552819055623400,7.44662353515625,6.099896430969238,7.677318096160889,-0.1429571956396103
1697552819065215500,7.456215576171875,6.1131591796875,7.665973663330078,-0.18033140897750854
1697552819074806800,7.465806884765625,6.135574817657471,7.647031307220459,-0.21912938356399536
1697552819084397600,7.4753974609375,6.1645188331604,7.622812747955322,-0.24864204227924347
1697552819093989000,7.484989013671875,6.197535037994385,7.595454692840576,-0.2645932137966156
1697552819103581200,7.494581298828125,6.232922554016113,7.566247463226318,-0.2701001763343811
1697552819113172700,7.5041728515625,6.269927501678467,7.535523414611816,-0.2725493311882019
1697552819122763300,7.51376318359375,6.309565544128418,7.502195358276367,-0.2771850526332855
1697552819132354800,7.523354736328125,6.35455322265625,7.463740825653076,-0.28741535544395447
1697552819141947100,7.532947021484375,6.406524181365967,7.418400764465332,-0.3068760633468628
1697552819151538400,7.542538330078125,6.4650187492370605,7.365997314453125,-0.3405951261520386
1697552819161129000,7.55212890625,6.527653217315674,7.308015823364258,-0.3911927342414856
1697552819170720500,7.561720458984375,6.591148853302002,7.247020244598389,-0.45590198040008545
1697552819180312800,7.571312744140625,6.651069164276123,7.187199592590332,-0.5270991921424866
1697552819189904100,7.580904052734375,6.703091621398926,7.133310794830322,-0.5956857204437256
1697552819199495000,7.590494873046875,6.743958950042725,7.089526653289795,-0.6542367339134216
1697552819209086200,7.600086181640625,6.771890163421631,7.0586748123168945,-0.6978453397750854
1697552819218678500,7.609678466796875,6.786201000213623,7.042252063751221,-0.7242504358291626
1697552819228269800,7.619269775390625,6.787776947021484,7.039684772491455,-0.7343807220458984
1697552819237860600,7.628860595703125,6.779399394989014,7.048141956329346,-0.7306329607963562
1697552819247452000,7.638451904296875,6.76558780670166,7.062922477722168,-0.715785562992096
1697552819257044200,7.648044189453125,6.751934051513672,7.078269958496094,-0.6927154660224915
1697552819266635500,7.657635498046875,6.744709491729736,7.087918281555176,-0.6638378500938416
1697552819276226300,7.667226318359375,6.749268054962158,7.086458683013916,-0.6323525309562683
1697552819285817900,7.67681787109375,6.767662525177002,7.071366786956787,-0.6040825843811035
1697552819295410000,7.686409912109375,6.798589706420898,7.043194770812988,-0.5856316685676575
1697552819305001200,7.696001220703125,6.8384270668029785,7.004818439483643,-0.5820890069007874
1697552819314592000,7.705592041015625,6.882608413696289,6.960350036621094,-0.5946483612060547
1697552819324183600,7.71518359375,6.9273271560668945,6.9135942459106445,-0.6202770471572876
1697552819333775600,7.724775634765625,6.969658851623535,6.867815017700195,-0.6537253260612488
1697552819343367200,7.7343671875,7.0079569816589355,6.8253326416015625,-0.6883074045181274
1697552819352957700,7.743957763671875,7.041368007659912,6.787836074829102,-0.7174984216690063
1697552819362549200,7.75354931640625,7.069324493408203,6.756636619567871,-0.7368151545524597
1697552819372141300,7.763141357421875,7.091155529022217,6.73281717300415,-0.7450293302536011
1697552819381732900,7.77273291015625,7.105485439300537,6.717716693878174,-0.7448122501373291
1697552819391323400,7.782323486328125,7.111306667327881,6.712198734283447,-0.738976240158081
1697552819400915000,7.7919150390625,7.109264850616455,6.715487480163574,-0.7286683917045593
1697552819410507300,7.80150732421875,7.101239204406738,6.725707054138184,-0.7124933004379272
1697552819420098600,7.8110986328125,7.090002059936523,6.740132808685303,-0.6876506805419922
1697552819429689300,7.820689453125,7.077188491821289,6.75710391998291,-0.6521838307380676
1697552819439280600,7.83028076171875,7.063152313232422,6.775884628295898,-0.6079915761947632
1697552819448873000,7.839873046875,7.04767370223999,6.796243190765381,-0.5583493709564209
1697552819458464300,7.84946435546875,7.030370712280273,6.818186283111572,-0.5065680146217346
1697552819468055000,7.859054931640625,7.00954532623291,6.843103408813477,-0.4567171633243561
1697552819477646300,7.868646240234375,6.983077526092529,6.872827053070068,-0.4138343334197998
1697552819487238700,7.87823876953125,6.949281215667725,6.908750534057617,-0.38344869017601013
1697552819496830200,7.887830322265625,6.907812118530273,6.951030731201172,-0.36834776401519775
1697552819506420700,7.897420654296875,6.860988140106201,6.9974493980407715,-0.36459383368492126
1697552819516012300,7.90701220703125,6.812424659729004,7.044747352600098,-0.3643997609615326
1697552819525604400,7.916604248046875,6.765886306762695,7.089658260345459,-0.3604341447353363
1697552819535196000,7.92619580078125,6.725218296051025,7.1288676261901855,-0.3479558527469635
1697552819544786400,7.935786376953125,6.69309663772583,7.160064220428467,-0.32609328627586365
1697552819554378000,7.9453779296875,6.66917085647583,7.183496475219727,-0.2998739778995514
1697552819563970000,7.954969970703125,6.649244785308838,7.20280122756958,-0.2785545587539673
1697552819573561600,7.9645615234375,6.629792213439941,7.221141815185547,-0.2671101987361908
1697552819583152000,7.974152099609375,6.6109724044799805,7.2385640144348145,-0.2619638442993164
1697552819592743700,7.98374365234375,6.5945000648498535,7.253671169281006,-0.25926312804222107
1697552819602336000,7.9933359375,6.581707000732422,7.265295505523682,-0.2588571310043335
1697552819611927300,8.00292724609375,6.574702739715576,7.271595478057861,-0.25993919372558594
1697552819621517800,8.012517822265625,6.575372695922852,7.270927906036377,-0.2616744637489319
1697552819631109400,8.022109375,6.584932804107666,7.2622270584106445,-0.26286953687667847
1697552819640701700,8.03170166015625,6.604412078857422,7.244614601135254,-0.2601638436317444
1697552819650293000,8.04129296875,6.634021759033203,7.217856407165527,-0.25035718083381653
1697552819659883800,8.0508837890625,6.672166347503662,7.183162212371826,-0.23399153351783752
1697552819669475000,8.06047509765625,6.7152252197265625,7.143476963043213,-0.21650056540966034
1697552819679067400,8.0700673828125,6.758701324462891,7.102700710296631,-0.2049286812543869
1697552819688659000,8.079658935546876,6.797579765319824,7.065505504608154,-0.20472392439842224
1697552819698249500,8.08924951171875,6.826645851135254,7.037049293518066,-0.21731334924697876
1697552819707841000,8.098841064453126,6.843183994293213,7.020300388336182,-0.2379152923822403
1697552819717433000,8.10843310546875,6.847270488739014,7.015583515167236,-0.25857800245285034
1697552819727024600,8.118024658203124,6.839822769165039,7.022275447845459,-0.2736299932003021
1697552819736615200,8.127615234375,6.823254108428955,7.038159370422363,-0.27912187576293945
1697552819746206700,8.137206787109376,6.801140308380127,7.059813499450684,-0.2718823552131653
1697552819755798800,8.146798828125,6.777839183807373,7.082999229431152,-0.24982629716396332
1697552819765390300,8.156390380859374,6.75821590423584,7.102902412414551,-0.21376393735408783
1697552819774980900,8.16598095703125,6.746165752410889,7.115556716918945,-0.16879014670848846
1697552819784572400,8.175572509765624,6.744141101837158,7.118411540985107,-0.12310020625591278
1697552819794164700,8.185164794921874,6.753330707550049,7.110253810882568,-0.08486784994602203
1697552819803756000,8.194756103515624,6.773857116699219,7.0909600257873535,-0.059376735240221024
1697552819813346600,8.2043466796875,6.803493022918701,7.06260347366333,-0.049876969307661057
1697552819822938000,8.213938232421874,6.838306427001953,7.028836250305176,-0.05845469608902931
1697552819832530400,8.223530517578125,6.874271392822266,6.993426322937012,-0.08227868378162384
1697552819842121700,8.233121826171875,6.907663822174072,6.9599738121032715,-0.1154550239443779
1697552819851712300,8.242712158203124,6.935615539550781,6.931421279907227,-0.15171070396900177
1697552819861303800,8.2523037109375,6.95585298538208,6.910277366638184,-0.18588373064994812
1697552819870896000,8.261896240234375,6.967435836791992,6.897779941558838,-0.21411608159542084
1697552819880487400,8.2714873046875,6.970553874969482,6.893988609313965,-0.2338401824235916
1697552819890078200,8.281078125,6.965930938720703,6.898275852203369,-0.24491852521896362
1697552819899669500,8.29066943359375,6.953989505767822,6.9101338386535645,-0.24993827939033508
1697552819909261800,8.30026171875,6.93555212020874,6.928569316864014,-0.25184834003448486
1697552819918853400,8.309853271484375,6.911980152130127,6.952059745788574,-0.2525745630264282
1697552819928444000,8.31944384765625,6.8847455978393555,6.97900390625,-0.2533162832260132
1697552819938035500,8.329035400390625,6.85561990737915,7.00755500793457,-0.25502994656562805
1697552819947627500,8.33862744140625,6.826559066772461,7.035791873931885,-0.2571301758289337
1697552819957218800,8.34821875,6.799299240112305,7.062116622924805,-0.25774314999580383
1697552819966809600,8.3578095703125,6.774363994598389,7.086135387420654,-0.25509414076805115
1697552819976401200,8.367401123046875,6.750903129577637,7.108700275421143,-0.24913081526756287
1697552819985993200,8.3769931640625,6.727367401123047,7.131257057189941,-0.24099946022033691
1697552819995584800,8.386584716796875,6.701909065246582,7.15545654296875,-0.23290762305259705
1697552820005173800,8.396173828125,6.673150062561035,7.182509899139404,-0.22581912577152252
1697552820014765000,8.40576513671875,6.641389846801758,7.212148189544678,-0.21732792258262634
1697552820024357400,8.415357421875,6.608176231384277,7.242959499359131,-0.20476338267326355
1697552820033948700,8.42494873046875,6.574893474578857,7.273593425750732,-0.18973907828330994
1697552820043539500,8.43453955078125,6.542731761932373,7.302859306335449,-0.1769077032804489
1697552820053131000,8.444131103515625,6.513893127441406,7.32874870300293,-0.17036820948123932
1697552820062723000,8.45372314453125,6.491477012634277,7.34855318069458,-0.17285853624343872
1697552820072314600,8.463314697265625,6.477965831756592,7.360129356384277,-0.1866859495639801
1697552820081905200,8.4729052734375,6.474018573760986,7.362812519073486,-0.21554480493068695
1697552820091496700,8.48249658203125,6.4752197265625,7.360207557678223,-0.2631898522377014
1697552820101088800,8.4920888671875,6.474897861480713,7.357960224151611,-0.32634666562080383
1697552820110680300,8.501680419921875,6.4698357582092285,7.359152317047119,-0.39305076003074646
1697552820120270800,8.511270751953125,6.460660457611084,7.363928318023682,-0.4503462016582489
1697552820129862400,8.5208623046875,6.449399948120117,7.371206283569336,-0.4908544719219208
1697552820139454700,8.530454833984376,6.438985347747803,7.378758907318115,-0.5136008858680725
1697552820149046000,8.5400458984375,6.43263053894043,7.383633136749268,-0.5230893492698669
1697552820158636800,8.54963671875,6.433260917663574,7.382822513580322,-0.5267466306686401
1697552820168228000,8.55922802734375,6.443418502807617,7.373593330383301,-0.5318524241447449
1697552820177820400,8.5688203125,6.464192867279053,7.354410648345947,-0.5451903343200684
1697552820187411700,8.57841162109375,6.495107173919678,7.325069904327393,-0.5721153020858765
1697552820197002500,8.58800244140625,6.53456974029541,7.2865471839904785,-0.613206148147583
1697552820206593800,8.59759375,6.580438613891602,7.240748882293701,-0.6631574630737305
1697552820216186000,8.60718603515625,6.629848957061768,7.190676689147949,-0.7139029502868652
1697552820225777700,8.616777587890626,6.679861545562744,7.139657497406006,-0.7583698034286499
1697552820235368200,8.6263681640625,6.726974964141846,7.0917816162109375,-0.790462851524353
1697552820244959700,8.635959716796876,6.767659664154053,7.051093101501465,-0.8070011734962463
1697552820254551800,8.6455517578125,6.798654079437256,7.021130084991455,-0.8077280521392822
1697552820264143400,8.655143310546874,6.817604064941406,7.0040388107299805,-0.7963139414787292
1697552820273734000,8.66473388671875,6.824089050292969,6.9997406005859375,-0.778343677520752
1697552820283326000,8.674325927734374,6.820554256439209,7.005330562591553,-0.7587956190109253
1697552820292918300,8.683918212890624,6.811668395996094,7.015937805175781,-0.7403942346572876
1697552820302509600,8.693509521484375,6.803013801574707,7.025974750518799,-0.7246176600456238
1697552820312100400,8.703100341796874,6.799324989318848,7.030783176422119,-0.7125046253204346
1697552820321691600,8.712691650390624,6.8028340339660645,7.0278849601745605,-0.7075867056846619
1697552820331284000,8.722283935546875,6.813453197479248,7.016972064971924,-0.713695764541626
1697552820340875300,8.731875244140625,6.829397678375244,6.999492645263672,-0.7326769828796387
1697552820350466000,8.741466064453125,6.84833288192749,6.977725505828857,-0.7629387974739075
1697552820360057600,8.7510576171875,6.8686676025390625,6.953632354736328,-0.7992472648620605
1697552820369649700,8.760649658203125,6.889925479888916,6.928460121154785,-0.8341265320777893
1697552820379241200,8.7702412109375,6.911550998687744,6.903520584106445,-0.8615462183952332
1697552820388831700,8.779831787109375,6.9321208000183105,6.880672931671143,-0.8788719177246094
1697552820398423300,8.78942333984375,6.9498610496521,6.861878871917725,-0.8856868743896484
1697552820408015400,8.799015380859375,6.963263034820557,6.848592758178711,-0.883249044418335
1697552820417607000,8.80860693359375,6.9711527824401855,6.841797351837158,-0.8736209869384766
1697552820427197400,8.818197509765625,6.97355318069458,6.841329097747803,-0.8579990267753601
1697552820436789000,8.8277890625,6.97094202041626,6.846553325653076,-0.8372917175292969
1697552820446381300,8.83738134765625,6.963591575622559,6.85695219039917,-0.8130025863647461
1697552820455972600,8.84697265625,6.952394962310791,6.87138032913208,-0.7865856885910034
1697552820465563100,8.856563232421875,6.939119815826416,6.888097763061523,-0.7570473551750183
1697552820475154700,8.86615478515625,6.9250006675720215,6.9059576988220215,-0.7228456139564514
1697552820484747000,8.8757470703125,6.909729480743408,6.92517614364624,-0.6840758919715881
1697552820494338300,8.88533837890625,6.8922505378723145,6.9466071128845215,-0.6418094635009766
1697552820503929000,8.89492919921875,6.870949745178223,6.9715118408203125,-0.5987109541893005
1697552820513520400,8.904520263671875,6.844265937805176,7.0011372566223145,-0.5572059154510498
1697552820523112700,8.91411279296875,6.81240177154541,7.035145282745361,-0.5179809927940369
1697552820532704000,8.9237041015625,6.776365280151367,7.072491645812988,-0.4807559549808502
1697552820542294800,8.933294677734375,6.7377142906188965,7.111580848693848,-0.44610264897346497
1697552820551886300,8.94288623046875,6.6984639167785645,7.1505045890808105,-0.4138373136520386
1697552820561478400,8.952478515625,6.660691738128662,7.187394618988037,-0.3833174705505371
1697552820571070000,8.962070068359376,6.626147270202637,7.22083854675293,-0.3521919846534729
1697552820580660500,8.971660400390626,6.596355438232422,7.249692916870117,-0.31692633032798767
1697552820590252000,8.981251953125,6.571972846984863,7.2734055519104,-0.2777400016784668
1697552820599844000,8.990843994140626,6.55141544342041,7.293252468109131,-0.2404555231332779
1697552820609435600,9.000435546875,6.533533096313477,7.310264587402344,-0.2082451432943344
1697552820619026200,9.010026123046876,6.52066707611084,7.322504043579102,-0.17949363589286804
1697552820628617700,9.01961767578125,6.5150885581970215,7.328027248382568,-0.15498408675193787
1697552820638209800,9.029209716796874,6.519107818603516,7.324845790863037,-0.1350804567337036
1697552820647801300,9.03880126953125,6.534666538238525,7.311288833618164,-0.1165778636932373
1697552820657391900,9.048391845703126,6.563032627105713,7.286138534545898,-0.09578970074653625
1697552820666983400,9.0579833984375,6.603557586669922,7.249708652496338,-0.07172462344169617
1697552820676575700,9.06757568359375,6.6555681228637695,7.202215671539307,-0.043345265090465546
1697552820686167000,9.0771669921875,6.717917442321777,7.144217491149902,-0.011503790505230427
1697552820695757600,9.086757568359374,6.78752326965332,7.078105449676514,0.018475180491805077
1697552820705349000,9.09634912109375,6.859808444976807,7.007992744445801,0.038137517869472504
1697552820714941400,9.10594140625,6.928319931030273,6.9402594566345215,0.03958200290799141
1697552820724532700,9.11553271484375,6.986681938171387,6.881584167480469,0.02148965746164322
1697552820734123500,9.12512353515625,7.030396461486816,6.836946964263916,-0.00888351071625948
1697552820743714800,9.13471484375,7.057229042053223,6.809123516082764,-0.041866764426231384
1697552820753307100,9.14430712890625,7.067505836486816,6.7982378005981445,-0.0686037689447403
1697552820762898400,9.1538984375,7.064194202423096,6.801543235778809,-0.08095412701368332
1697552820772489200,9.1634892578125,7.0513811111450195,6.814909934997559,-0.073672816157341
1697552820782080500,9.17308056640625,7.032596588134766,6.834526538848877,-0.04705992341041565
1697552820791672800,9.1826728515625,7.010924816131592,6.8569135665893555,-0.007342190481722355
1697552820801264400,9.192264404296875,6.989401817321777,6.878749847412109,0.03816495090723038
1697552820810855000,9.20185498046875,6.972198486328125,6.895768165588379,0.08491818606853485
1697552820820446500,9.211446533203125,6.96311092376709,6.904245853424072,0.1298595815896988
1697552820830038500,9.22103857421875,6.964817047119141,6.901684284210205,0.16875554621219635
1697552820839630000,9.230630126953125,6.978543281555176,6.887053489685059,0.19702009856700897
1697552820849220600,9.240220703125,7.003404140472412,6.861352443695068,0.2110643833875656
1697552820858812200,9.249812255859375,7.036575794219971,6.827406883239746,0.20855748653411865
1697552820868404200,9.259404296875,7.073923110961914,6.789251804351807,0.18989279866218567
1697552820877995800,9.268995849609375,7.111710071563721,6.750454425811768,0.1591741144657135
1697552820887586300,9.27858642578125,7.146732330322266,6.714138031005859,0.12228287756443024
1697552820897177900,9.288177734375,7.176156997680664,6.683261871337891,0.08464403450489044
1697552820906770200,9.297770263671875,7.198485374450684,6.659553050994873,0.05046353116631508
1697552820916361500,9.307361572265625,7.213250637054443,6.643709659576416,0.022791946306824684
1697552820925952300,9.3169521484375,7.220887660980225,6.635446548461914,0.0035462721716612577
1697552820935543600,9.32654345703125,7.222052574157715,6.634176254272461,-0.007167898118495941
1697552820945135900,9.336135986328125,7.217557430267334,6.639058589935303,-0.01278027705848217
1697552820954727400,9.3457275390625,7.208141803741455,6.649267196655273,-0.0182507261633873
1697552820964318000,9.35531787109375,7.194529056549072,6.66395902633667,-0.028053557500243187
1697552820973909500,9.364909423828125,7.177218914031982,6.682507514953613,-0.044903580099344254
1697552820983501600,9.37450146484375,7.156910419464111,6.704046726226807,-0.06914488226175308
1697552820993093000,9.384093017578126,7.1335129737854,6.728562355041504,-0.09921855479478836
1697552821002683600,9.39368359375,7.107015609741211,6.755995273590088,-0.13134104013442993
1697552821012275200,9.403275146484376,7.076938629150391,6.786872386932373,-0.16030888259410858
1697552821021867300,9.4128671875,7.041755199432373,6.822849750518799,-0.1811063587665558
1697552821031458800,9.422458740234376,7.000296115875244,6.865131378173828,-0.1903194934129715
1697552821041049300,9.43204931640625,6.952210903167725,6.9139018058776855,-0.18737636506557465
1697552821050641000,9.441640869140626,6.898382186889648,6.967940330505371,-0.17473255097866058
1697552821060233000,9.45123291015625,6.841153621673584,7.02458381652832,-0.15562672913074493
1697552821069824500,9.460824462890624,6.784285545349121,7.079990386962891,-0.13259360194206238
1697552821079415000,9.4704150390625,6.732899188995361,7.129312038421631,-0.10656051337718964
1697552821089006600,9.480006591796876,6.692429065704346,7.167671203613281,-0.07925647497177124
1697552821098599000,9.489598876953124,6.667120933532715,7.19143009185791,-0.0568254292011261
1697552821108190200,9.499190185546874,6.658352375030518,7.1996002197265625,-0.05006638914346695
1697552821117780700,9.50878076171875,6.663438320159912,7.194728374481201,-0.0697723776102066
1697552821127372300,9.518372314453124,6.675851821899414,7.182586669921875,-0.11762303113937378
1697552821136964600,9.527964599609374,6.690505027770996,7.16765022277832,-0.17974375188350677
1697552821146556000,9.537555908203124,6.705190658569336,7.152243614196777,-0.2370801419019699
1697552821156146700,9.547146728515624,6.718734264373779,7.138080596923828,-0.277136892080307
1697552821165738000,9.556738037109374,6.731598377227783,7.125222682952881,-0.2952425479888916
1697552821175330300,9.566330322265625,6.7455525398254395,7.112145900726318,-0.2920481860637665
1697552821184921600,9.575921630859375,6.762920379638672,7.096399784088135,-0.2727716565132141
1697552821194512400,9.585512451171875,6.786498546600342,7.074883937835693,-0.2445945292711258
1697552821204104000,9.59510400390625,6.819960117340088,7.043673515319824,-0.21256977319717407
1697552821213696000,9.604696044921875,6.865086078643799,7.000519752502441,-0.18358208239078522
1697552821223287600,9.61428759765625,6.9207258224487305,6.9459228515625,-0.16759531199932098
1697552821232878000,9.623878173828125,6.98259162902832,6.8835296630859375,-0.17561453580856323
1697552821242469600,9.6334697265625,7.044543743133545,6.819052696228027,-0.21286900341510773
1697552821252061700,9.643061767578125,7.100699424743652,6.758441925048828,-0.27185624837875366
1697552821261653200,9.6526533203125,7.145851135253906,6.707610130310059,-0.33935287594795227
1697552821271243800,9.662243896484375,7.1759138107299805,6.671818733215332,-0.40433260798454285
1697552821280835300,9.67183544921875,7.188939094543457,6.65426778793335,-0.4585481286048889
1697552821290427600,9.681427734375,7.184398174285889,6.656445503234863,-0.4965185523033142
1697552821300019000,9.69101904296875,7.163938045501709,6.677141189575195,-0.5139646530151367
1697552821309609500,9.700609375,7.131213665008545,6.712469100952148,-0.5088633894920349
1697552821319201000,9.710200927734375,7.090140342712402,6.757656574249268,-0.4841289520263672
1697552821328793300,9.71979345703125,7.045036792755127,6.807261943817139,-0.44613224267959595
1697552821338384600,9.729384521484375,7.001100063323975,6.855119705200195,-0.4028802812099457
1697552821347975400,9.738975341796875,6.962527751922607,6.896531105041504,-0.3625633120536804
1697552821357566700,9.748566650390625,6.931825637817383,6.92887544631958,-0.33297887444496155
1697552821367159000,9.758158935546875,6.90961217880249,6.951666831970215,-0.3193541169166565
1697552821376750600,9.76775048828125,6.895601272583008,6.9653849601745605,-0.3232336640357971
1697552821386341000,9.777341064453125,6.88892936706543,6.971065044403076,-0.34245848655700684
1697552821395932700,9.7869326171875,6.888284683227539,6.970158100128174,-0.37257125973701477
1697552821405524700,9.796524658203126,6.8921427726745605,6.964388370513916,-0.4074917435646057
1697552821415116000,9.806115966796876,6.899354934692383,6.955228805541992,-0.4405544698238373
1697552821424706800,9.815706787109375,6.908714771270752,6.944279670715332,-0.4658561944961548
1697552821434298400,9.82529833984375,6.91905403137207,6.933076858520508,-0.47910481691360474
1697552821443890400,9.834890380859376,6.928938865661621,6.9232072830200195,-0.4789402484893799
1697552821453482000,9.84448193359375,6.936830520629883,6.916108131408691,-0.46714258193969727
1697552821463072500,9.854072509765626,6.941319942474365,6.912924289703369,-0.4471583068370819
1697552821472664000,9.8636640625,6.941730976104736,6.914037227630615,-0.42289817333221436
1697552821482256400,9.87325634765625,6.9369707107543945,6.9202375411987305,-0.3989134430885315
1697552821491847700,9.88284765625,6.926779270172119,6.931600570678711,-0.37821298837661743
1697552821501438500,9.8924384765625,6.911357402801514,6.947818279266357,-0.3623979985713959
1697552821511029800,9.90202978515625,6.890739917755127,6.968791961669922,-0.35218071937561035
1697552821520622000,9.9116220703125,6.864340782165527,6.99497127532959,-0.34871959686279297
1697552821530213400,9.92121337890625,6.831944465637207,7.026488780975342,-0.35124635696411133
1697552821539804200,9.93080419921875,6.793292045593262,7.06348991394043,-0.3587093949317932
1697552821549395500,9.9403955078125,6.748734951019287,7.105566501617432,-0.3686211109161377
1697552821558987800,9.94998779296875,6.699960231781006,7.151130199432373,-0.3771582543849945
1697552821568579300,9.959579345703125,6.650393486022949,7.197147369384766,-0.37910184264183044
1697552821578169900,9.969169921875,6.604205131530762,7.240030765533447,-0.3698982000350952
1697552821587761400,9.978761474609374,6.565844535827637,7.2759222984313965,-0.3478834927082062
1697552821597353500,9.988353515625,6.539052486419678,7.301468849182129,-0.3157826066017151
1697552821606945000,9.997945068359375,6.5256218910217285,7.314917087554932,-0.28042274713516235
1697552821616535600,10.00753564453125,6.52431583404541,7.317122936248779,-0.25178614258766174
1697552821626127000,10.017127197265625,6.53085994720459,7.311723709106445,-0.23863524198532104
1697552821635719200,10.02671923828125,6.54128360748291,7.302290439605713,-0.2419462651014328
1697552821645310700,10.036310791015625,6.554715633392334,7.289860725402832,-0.25301215052604675
1697552821654901200,10.0459013671875,6.571716785430908,7.274244785308838,-0.26129430532455444
1697552821664492800,10.055492919921875,6.593588352203369,7.254544258117676,-0.2580331563949585
1697552821674085000,10.065085205078125,6.621482849121094,7.22977352142334,-0.23819787800312042
1697552821683676400,10.074676513671875,6.655701637268066,7.199422836303711,-0.20087605714797974
1697552821693267000,10.084266845703125,6.697577953338623,7.161808967590332,-0.14607372879981995
1697552821702858500,10.0938583984375,6.749655246734619,7.1138482093811035,-0.07552171498537064
1697552821712450800,10.103450927734375,6.813337802886963,7.053282260894775,0.005927838385105133
1697552821722042000,10.1130419921875,6.88749361038208,6.9803314208984375,0.08833339065313339
1697552821731633000,10.1226328125,6.967538833618164,6.899253845214844,0.15515883266925812
1697552821741224200,10.13222412109375,7.045660495758057,6.818600177764893,0.18902502954006195
1697552821750816500,10.14181640625,7.114184379577637,6.747242450714111,0.1829667091369629
1697552821760408000,10.151407958984375,7.167717933654785,6.691296100616455,0.14409533143043518
1697552821769998600,10.16099853515625,7.2043585777282715,6.652792930603027,0.08919259160757065
1697552821779590100,10.170590087890625,7.224906921386719,6.630975246429443,0.03554999455809593
1697552821789182200,10.18018212890625,7.231379508972168,6.624011039733887,-0.004836129955947399
1697552821798773800,10.189773681640625,7.226562023162842,6.629223823547363,-0.024261420592665672
1697552821808364300,10.1993642578125,7.213901519775391,6.643013000488281,-0.01991695910692215
1697552821817955800,10.208955810546875,7.197169303894043,6.661164283752441,0.004349437542259693
1697552821827548200,10.218548095703126,7.180232524871826,6.679300308227539,0.03989183530211449
1697552821837139500,10.228139404296876,7.166262149810791,6.6939697265625,0.07647649943828583
1697552821846730000,10.23772998046875,7.157195568084717,6.703293800354004,0.10390309244394302
1697552821856321500,10.247321533203126,7.153897762298584,6.7066426277160645,0.11432445794343948
1697552821865913900,10.256913818359376,7.15665340423584,6.70384407043457,0.1057598814368248
1697552821875505200,10.266505126953126,7.164837837219238,6.695449352264404,0.08029259741306305
1697552821885095700,10.276095703125,7.176372051239014,6.6834306716918945,0.04270515590906143
1697552821894687200,10.285687255859376,7.188867568969727,6.670125484466553,-0.0013269692426547408
1697552821904279600,10.295279541015624,7.200712203979492,6.657177448272705,-0.046082645654678345
1697552821913870800,10.304870849609374,7.210252285003662,6.646439552307129,-0.0866430476307869
1697552821923461600,10.314461669921876,7.216301441192627,6.63936185836792,-0.11944456398487091
1697552821933053000,10.324052978515626,7.218770980834961,6.636229515075684,-0.142112597823143
1697552821942645200,10.333645263671874,7.218080997467041,6.636707305908203,-0.15431566536426544
1697552821952236500,10.343236572265624,7.21414041519165,6.640857696533203,-0.15994742512702942
1697552821961827300,10.352827392578124,7.207668304443359,6.647784233093262,-0.1639384627342224
1697552821971419000,10.3624189453125,7.1996049880981445,6.656373500823975,-0.1696036458015442
1697552821981011000,10.372010986328124,7.190862655639648,6.665592193603516,-0.1781838834285736
1697552821990602500,10.3816025390625,7.182516574859619,6.674272060394287,-0.18955153226852417
1697552822000193000,10.391193115234374,7.174897193908691,6.682079315185547,-0.2026045173406601
1697552822009784600,10.40078466796875,7.167540550231934,6.689574241638184,-0.2152726948261261
1697552822019377000,10.410376953125,7.159696578979492,6.697661399841309,-0.22465743124485016
1697552822028968200,10.41996826171875,7.15005350112915,6.707851886749268,-0.22770676016807556
1697552822038558700,10.429558837890625,7.137119293212891,6.721789360046387,-0.22241263091564178
1697552822048150300,10.439150390625,7.119745254516602,6.740659713745117,-0.20764048397541046
1697552822057742600,10.44874267578125,7.096663475036621,6.765618801116943,-0.18478992581367493
1697552822067334000,10.458333984375,7.06724739074707,6.797032356262207,-0.157350555062294
1697552822076924400,10.46792431640625,7.031816482543945,6.834282398223877,-0.1285381019115448
1697552822086516000,10.477515869140625,6.99161434173584,6.87584924697876,-0.10205075144767761
1697552822096108300,10.4871083984375,6.94931173324585,6.918880462646484,-0.08090881258249283
1697552822105699600,10.496699462890625,6.909029960632324,6.95926570892334,-0.06571684032678604
1697552822115290400,10.506290283203125,6.875815391540527,6.992178916931152,-0.05467526614665985
1697552822124881700,10.515881591796875,6.85447359085083,7.013172626495361,-0.04458647593855858
1697552822134474000,10.525473876953125,6.847001075744629,7.020536422729492,-0.032023847103118896
1697552822144065500,10.5350654296875,6.850653171539307,7.017024517059326,-0.017424818128347397
1697552822153656000,10.544656005859375,6.858243465423584,7.009624004364014,-0.007519274018704891
1697552822163247600,10.55424755859375,6.861222743988037,7.006706237792969,-0.009024534374475479
1697552822172839700,10.563839599609375,6.854658603668213,7.013113021850586,-0.01690545491874218
1697552822182431200,10.57343115234375,6.839238166809082,7.028136253356934,-0.0223770122975111
1697552822192021800,10.583021728515625,6.818178176879883,7.04857063293457,-0.02208746410906315
1697552822201613300,10.59261328125,6.795113563537598,7.070817947387695,-0.018701305612921715
1697552822211205600,10.60220556640625,6.7752203941345215,7.089888572692871,-0.016178058460354805
1697552822220797000,10.611796875,6.763726234436035,7.1008524894714355,-0.016578510403633118
1697552822230387500,10.621387451171875,6.764665126800537,7.099944591522217,-0.02174338884651661
1697552822239979000,10.63097900390625,6.779538631439209,7.085694789886475,-0.034233495593070984
1697552822249571300,10.6405712890625,6.806631088256836,7.059537410736084,-0.055704906582832336
1697552822259162600,10.65016259765625,6.84281063079834,7.02418327331543,-0.08468932658433914
1697552822268753400,10.65975341796875,6.8830885887146,6.984241485595703,-0.11771316826343536
1697552822278344700,10.6693447265625,6.920982360839844,6.946077823638916,-0.14964567124843597
1697552822287937000,10.67893701171875,6.949604511260986,6.916821002960205,-0.1759938895702362
1697552822297528300,10.6885283203125,6.963702201843262,6.902155876159668,-0.19362111389636993
1697552822307119000,10.698119140625,6.960209846496582,6.905420303344727,-0.20259904861450195
1697552822316710700,10.707710693359376,6.93895149230957,6.926685333251953,-0.20585814118385315
1697552822326302700,10.717302734375,6.902894020080566,6.962631702423096,-0.20542877912521362
1697552822335894300,10.726894287109374,6.857073783874512,7.007900238037109,-0.2006799578666687
1697552822345484800,10.73648486328125,6.807739734649658,7.056105136871338,-0.19090238213539124
1697552822355076400,10.746076416015624,6.761941432952881,7.10040807723999,-0.17531953752040863
1697552822364668700,10.755668701171874,6.726213455200195,7.134716987609863,-0.15576714277267456
1697552822374260000,10.765260009765624,6.705877304077148,7.154216289520264,-0.13710342347621918
1697552822383850500,10.7748505859375,6.7037224769592285,7.156461238861084,-0.12473780661821365
1697552822393442000,10.784442138671874,6.720292091369629,7.140928745269775,-0.12323088943958282
1697552822403034400,10.794034423828125,6.753939151763916,7.108875274658203,-0.13631443679332733
1697552822412625700,10.803625732421875,6.80128812789917,7.062953472137451,-0.16597197949886322
1697552822422216200,10.81321630859375,6.857528209686279,7.007177352905273,-0.21012812852859497
1697552822431807700,10.822807861328124,6.917089462280273,6.946527481079102,-0.2646028697490692
1697552822441400000,10.832400146484375,6.974574565887451,6.88627815246582,-0.3238278329372406
1697552822450991400,10.841991455078125,7.026531219482422,6.83034610748291,-0.38029301166534424
1697552822460582100,10.85158203125,7.070703983306885,6.7818450927734375,-0.42672625184059143
1697552822470173700,10.861173583984375,7.10576057434082,6.743002414703369,-0.4587640166282654
1697552822479765800,10.870765869140625,7.131264686584473,6.714967250823975,-0.47398874163627625
1697552822489357300,10.880357421875,7.148441314697266,6.696905612945557,-0.4707707166671753
1697552822498947800,10.88994775390625,7.158743381500244,6.687309741973877,-0.4501737654209137
1697552822508539400,10.899539306640625,7.163108825683594,6.684874534606934,-0.41559043526649475
1697552822518131500,10.90913134765625,7.162220478057861,6.68843936920166,-0.37115713953971863
1697552822527723000,10.918722900390625,7.157811164855957,6.695873260498047,-0.31844010949134827
1697552822537313500,10.9283134765625,7.1518754959106445,6.704741954803467,-0.25979799032211304
1697552822546905000,10.937905029296875,7.145927906036377,6.713154315948486,-0.19911779463291168
1697552822556497400,10.947497314453125,7.142038822174072,6.7188401222229,-0.13727378845214844
1697552822566088700,10.957088623046875,7.141934394836426,6.71998405456543,-0.0704972892999649
1697552822575679500,10.966679443359375,7.146453380584717,6.715546131134033,0.0051414999179542065
1697552822585270800,10.976270751953125,7.152606010437012,6.708363056182861,0.09211598336696625
1697552822594863000,10.985863037109375,7.155196189880371,6.7035112380981445,0.19102922081947327
1697552822604454400,10.995454345703125,7.156230926513672,6.69852876663208,0.29741671681404114
1697552822614045200,11.005045166015625,7.161370277404785,6.687577247619629,0.40184569358825684
1697552822623636700,11.01463671875,7.173389911651611,6.668123722076416,0.4989997446537018
1697552822633228800,11.024228759765625,7.1923980712890625,6.640257835388184,0.5888726711273193
1697552822642820400,11.0338203125,7.218240737915039,6.604256629943848,0.6717139482498169
1697552822652411000,11.043410888671875,7.250333309173584,6.56091833114624,0.7465973496437073
1697552822662002400,11.05300244140625,7.287956714630127,6.5111613273620605,0.8129306435585022
1697552822671594500,11.062594482421876,7.330650806427002,6.45551061630249,0.8708174228668213
1697552822681186000,11.07218603515625,7.3778557777404785,6.395194053649902,0.9160334467887878
1697552822690776600,11.081776611328126,7.42874813079834,6.333854675292969,0.9307881593704224
1697552822700368100,11.0913681640625,7.479070663452148,6.2747111320495605,0.9283819794654846
1697552822709960400,11.10096044921875,7.524401664733887,6.219714641571045,0.9321584701538086
1697552822719551700,11.1105517578125,7.563004970550537,6.168915748596191,0.956986129283905
1697552822729142500,11.120142578125,7.592752456665039,6.122380256652832,1.018312931060791
1697552822738733800,11.12973388671875,7.610328674316406,6.083839416503906,1.1136342287063599
1697552822748326100,11.139326171875,7.612868785858154,6.058984756469727,1.2261015176773071
1697552822757917400,11.14891748046875,7.599132061004639,6.053811073303223,1.332274079322815
1697552822767508200,11.15850830078125,7.569483280181885,6.074073314666748,1.4067530632019043
1697552822777099500,11.168099609375,7.525330066680908,6.122634410858154,1.4328781366348267
1697552822786691800,11.17769189453125,7.468480587005615,6.196982383728027,1.4105256795883179
1697552822796283400,11.187283447265624,7.401066303253174,6.290264129638672,1.3517295122146606
1697552822805874000,11.1968740234375,7.325883388519287,6.3937506675720215,1.2734932899475098
1697552822815465500,11.206465576171874,7.245914936065674,6.499530792236328,1.1929831504821777
1697552822825057500,11.2160576171875,7.164878845214844,6.600979328155518,1.123380422592163
1697552822834649000,11.225649169921875,7.086284160614014,6.6937761306762695,1.0716038942337036
1697552822844239600,11.235239501953124,7.0126118659973145,6.77616548538208,1.0379022359848022
1697552822853831200,11.2448310546875,6.945615291595459,6.847753524780273,1.0183755159378052
1697552822863423500,11.254423583984375,6.8864898681640625,6.908736228942871,1.0079684257507324
1697552822873014800,11.264014892578125,6.836036205291748,6.959385871887207,1.0029692649841309
1697552822882605300,11.273605224609375,6.795989036560059,6.998441219329834,1.0033671855926514
1697552822892196900,11.28319677734375,6.767329216003418,7.025598526000977,1.0072789192199707
1697552822901789200,11.2927890625,6.749680995941162,7.042045593261719,1.0108380317687988
1697552822911380500,11.30238037109375,6.741884231567383,7.0498504638671875,1.008460521697998
1697552822920971300,11.31197119140625,6.742356300354004,7.051098346710205,0.9965088367462158
1697552822930562600,11.3215625,6.749854564666748,7.047145843505859,0.9734429121017456
1697552822940155000,11.33115478515625,6.76318359375,7.0389790534973145,0.9394223690032959
1697552822949746200,11.34074609375,6.780919551849365,7.02768087387085,0.8951078057289124
1697552822959337000,11.3503369140625,6.802173614501953,7.013735294342041,0.8416249752044678
1697552822968928500,11.359928466796875,6.826691150665283,6.996860027313232,0.7814273834228516
1697552822978520600,11.3695205078125,6.8540520668029785,6.97694206237793,0.7173764109611511
1697552822988112100,11.379112060546875,6.883505344390869,6.954461097717285,0.6505393981933594
1697552822997702700,11.38870263671875,6.913865566253662,6.930510520935059,0.5804095268249512
1697552823007294200,11.398294189453125,6.944298267364502,6.9057183265686035,0.508108913898468
1697552823016886500,11.407886474609375,6.975008010864258,6.879536151885986,0.4377405643463135
1697552823026477800,11.417477783203125,7.00618839263916,6.851623058319092,0.3728059232234955
1697552823036068400,11.427068359375,7.0380048751831055,6.821894645690918,0.3140820562839508
1697552823045660000,11.436659912109375,7.070484638214111,6.790403842926025,0.2627700865268707
1697552823055252200,11.446252197265625,7.102910041809082,6.757985591888428,0.22066283226013184
1697552823064843500,11.455843505859375,7.13330602645874,6.726871490478516,0.1884891390800476
1697552823074434300,11.465434326171875,7.159621238708496,6.699469566345215,0.1652873307466507
1697552823084025900,11.47502587890625,7.179466247558594,6.678577423095703,0.14915430545806885
1697552823093618000,11.484617919921876,7.190684795379639,6.666721820831299,0.13875453174114227
1697552823103209500,11.49420947265625,7.191588401794434,6.665889263153076,0.131748765707016
1697552823112800000,11.503800048828126,7.182222843170166,6.6760783195495605,0.12668441236019135
1697552823122391600,11.5133916015625,7.165154933929443,6.694423675537109,0.12501566112041473
1697552823131983600,11.522983642578126,7.1450934410095215,6.715726852416992,0.1304788887500763
1697552823141575200,11.5325751953125,7.128181457519531,6.733346462249756,0.1464846134185791
1697552823151165700,11.542165771484376,7.119339942932129,6.742074012756348,0.1726628839969635
1697552823160757200,11.55175732421875,7.120040416717529,6.74053955078125,0.2013283669948578
1697552823170349300,11.561349365234374,7.128701686859131,6.730648994445801,0.22443337738513947
1697552823179940900,11.57094091796875,7.142703056335449,6.715150356292725,0.242773175239563
1697552823189531600,11.58053173828125,7.159236431121826,6.696991920471191,0.2569483518600464
1697552823199123000,11.590123046875,7.175090789794922,6.679748058319092,0.263497531414032
1697552823208715300,11.59971533203125,7.188713550567627,6.6650710105896,0.26383277773857117
1697552823218306600,11.609306640625,7.201031684875488,6.65179443359375,0.2629830837249756
1697552823227897300,11.6188974609375,7.214473724365234,6.6372809410095215,0.2612675726413727
1697552823237488600,11.628488525390624,7.231325149536133,6.61911153793335,0.256289005279541
1697552823247081000,11.6380810546875,7.253892421722412,6.594692230224609,0.24793848395347595
1697552823256672300,11.64767236328125,7.2837233543396,6.5620646476745605,0.23888663947582245
1697552823266263000,11.657262939453124,7.320095539093018,6.5217766761779785,0.2302456498146057
1697552823275854600,11.6668544921875,7.360024452209473,6.477041244506836,0.21990086138248444
1697552823285446700,11.67644677734375,7.39884614944458,6.433146953582764,0.2051558792591095
1697552823295038200,11.6860380859375,7.43113374710083,6.396446704864502,0.18469582498073578
1697552823304628700,11.695628662109375,7.453024387359619,6.371549606323242,0.16177456080913544
1697552823314220300,11.70522021484375,7.461510181427002,6.362063884735107,0.1428232640028
1697552823323812600,11.7148125,7.454327583312988,6.370696067810059,0.13274608552455902
1697552823333404000,11.72440380859375,7.430291175842285,6.398692607879639,0.1338060200214386
1697552823342994400,11.733994384765625,7.390513896942139,6.444303035736084,0.1471094787120819
1697552823352586000,11.7435859375,7.338205814361572,6.503172397613525,0.17282065749168396
1697552823362178300,11.75317822265625,7.277791976928711,6.569634437561035,0.20983882248401642
1697552823371769600,11.76276953125,7.214627742767334,6.63729190826416,0.25670313835144043
1697552823381360400,11.7723603515625,7.153824806213379,6.700551509857178,0.30947577953338623
1697552823390951700,11.78195166015625,7.1002092361450195,6.754637718200684,0.36371225118637085
1697552823400544000,11.7915439453125,7.057097911834717,6.796787738800049,0.41405367851257324
1697552823410135600,11.801135498046875,7.025658130645752,6.826691150665283,0.45475277304649353
1697552823419726000,11.81072607421875,7.005629539489746,6.845441818237305,0.48110562562942505
1697552823429317600,11.820317626953125,6.9967241287231445,6.853944301605225,0.48957645893096924
1697552823438909700,11.82990966796875,6.997491359710693,6.854020595550537,0.47739195823669434
1697552823448501200,11.839501220703125,7.005550861358643,6.848002910614014,0.4444011151790619
1697552823458091800,11.849091796875,7.018610000610352,6.8377203941345215,0.3937796354293823
1697552823467683300,11.858683349609375,7.03462553024292,6.82462739944458,0.33000457286834717
1697552823477275600,11.868275634765626,7.051379203796387,6.810399055480957,0.25865238904953003
1697552823486867000,11.877866943359376,7.0669426918029785,6.796593189239502,0.18712715804576874
1697552823496457700,11.887457763671875,7.079553604125977,6.7849202156066895,0.12321917712688446
1697552823506049000,11.897049072265625,7.0880279541015625,6.7768096923828125,0.07144960761070251
1697552823515641300,11.906641357421876,7.092667579650879,6.772237777709961,0.03531026095151901
1697552823525233000,11.91623291015625,7.094383716583252,6.770509243011475,0.017551684752106667
1697552823534823400,11.925823486328126,7.093683242797852,6.771245002746582,0.01716172881424427
1697552823544415000,11.9354150390625,7.091107368469238,6.773894309997559,0.03072754293680191
1697552823554007000,11.945007080078126,7.08628511428833,6.778787612915039,0.05464059114456177
1697552823563598300,11.954598388671876,7.077884674072266,6.787250518798828,0.08463536947965622
1697552823573189000,11.964189208984376,7.063974380493164,6.801265716552734,0.1159568578004837
1697552823582780700,11.97378076171875,7.043437957763672,6.82197904586792,0.14480090141296387
1697552823592372700,11.983372802734374,7.015405654907227,6.850245952606201,0.16911011934280396
1697552823601964300,11.99296435546875,6.9801130294799805,6.885716438293457,0.18793979287147522
1697552823611554800,12.002554931640624,6.939094543457031,6.926610469818115,0.2035173624753952
1697552823621146400,12.012146484375,6.895424842834473,6.9695587158203125,0.22081594169139862
1697552823630738700,12.02173876953125,6.853107452392578,7.01038932800293,0.24443742632865906
1697552823640330000,12.031330078125,6.81532621383667,7.045968532562256,0.2757558524608612
1697552823649920800,12.040920654296874,6.784334182739258,7.074233531951904,0.3137388825416565
1697552823659512000,12.050511962890624,6.7602972984313965,7.09527063369751,0.354844868183136
1697552823669104400,12.0601044921875,6.742166519165039,7.110599994659424,0.3910950720310211
1697552823678695700,12.06969580078125,6.72782039642334,7.122996807098389,0.4119800627231598
1697552823688286500,12.079286376953124,6.716394901275635,7.133827209472656,0.41101759672164917
1697552823697878000,12.0888779296875,6.709230422973633,7.141806602478027,0.38884884119033813
1697552823707470000,12.098469970703125,6.707726955413818,7.145140171051025,0.35178694128990173
1697552823717061600,12.1080615234375,6.713335037231445,7.141774654388428,0.31077203154563904
1697552823726652200,12.117652099609375,6.728759288787842,7.128542900085449,0.27938133478164673
1697552823736243700,12.12724365234375,6.755603313446045,7.103560447692871,0.2676639258861542
1697552823745835800,12.136835693359375,6.793423652648926,7.066976070404053,0.27863791584968567
1697552823755427300,12.14642724609375,6.839716911315918,7.020921230316162,0.308732807636261
1697552823765017900,12.156017822265625,6.890139102935791,6.969470500946045,0.3504980802536011
1697552823774609400,12.165609375,6.939965724945068,6.91754674911499,0.39345672726631165
1697552823784201700,12.17520166015625,6.984954833984375,6.870173931121826,0.4260353446006775
1697552823793793000,12.18479296875,7.021727085113525,6.831729888916016,0.43955162167549133
1697552823803383800,12.1943837890625,7.047204971313477,6.805960655212402,0.43148937821388245
1697552823812975000,12.20397509765625,7.058987140655518,6.795255661010742,0.4069139063358307
1697552823822567400,12.2135673828125,7.0569682121276855,6.799057960510254,0.3773534297943115
1697552823832159000,12.223158935546875,7.043461322784424,6.814239978790283,0.3552227318286896
1697552823841749500,12.23274951171875,7.022810459136963,6.835840702056885,0.3490062952041626
1697552823851341000,12.242341064453125,6.999373912811279,6.859228134155273,0.36073943972587585
1697552823860933000,12.25193310546875,6.976748943328857,6.880817413330078,0.38692572712898254
1697552823870524700,12.261524658203125,6.958044052124023,6.897757053375244,0.4206782877445221
1697552823880115200,12.271115234375,6.945621490478516,6.908132076263428,0.4543616473674774
1697552823889706800,12.280706787109375,6.941699504852295,6.9102396965026855,0.4814330041408539
1697552823899299000,12.290299072265626,6.9489593505859375,6.901804447174072,0.49744465947151184
1697552823908890400,12.299890380859376,6.969619274139404,6.880734920501709,0.500296950340271
1697552823918481000,12.30948095703125,7.004199981689453,6.8462324142456055,0.49057766795158386
1697552823928072400,12.319072509765626,7.05056619644165,6.7999677658081055,0.46940362453460693
1697552823937664800,12.328664794921876,7.105025291442871,6.745086669921875,0.43910035490989685
1697552823947256000,12.338256103515626,7.162313461303711,6.68648099899292,0.4032711386680603
1697552823956846800,12.347846923828126,7.217031002044678,6.629469871520996,0.3674032390117645
1697552823966438100,12.357438232421876,7.26461124420166,6.578920364379883,0.33705762028694153
1697552823976030500,12.367030517578126,7.301609992980957,6.538906574249268,0.3155522048473358
1697552823985622000,12.3766220703125,7.32580041885376,6.512355327606201,0.30376723408699036
1697552823995212500,12.386212646484376,7.336666107177734,6.500280380249023,0.30010542273521423
1697552824004804000,12.39580419921875,7.334661483764648,6.5025248527526855,0.30049675703048706
1697552824014396200,12.405396240234374,7.320825576782227,6.5181965827941895,0.29835671186447144
1697552824023987700,12.41498779296875,7.297334671020508,6.544851303100586,0.29020199179649353
1697552824033578200,12.424578125,7.2671003341674805,6.579038143157959,0.27547910809516907
1697552824043169800,12.434169677734374,7.233341693878174,6.616995811462402,0.25401243567466736
1697552824052762000,12.44376220703125,7.199319362640381,6.654978275299072,0.22681500017642975
1697552824062353400,12.453353515625,7.1678996086120605,6.689774990081787,0.19624951481819153
1697552824071944200,12.462944091796874,7.138195037841797,6.722254276275635,0.16688503324985504
1697552824081535500,12.472535400390624,7.106805801391602,6.755948066711426,0.14442862570285797
1697552824091127800,12.4821279296875,7.072468280792236,6.792104244232178,0.133789524435997
1697552824100719000,12.491718994140625,7.036569595336914,6.829235076904297,0.13644251227378845
1697552824110310000,12.501309814453125,7.00106954574585,6.865339279174805,0.15005658566951752
1697552824119901400,12.5109013671875,6.966756820678711,6.899691581726074,0.17010946571826935
1697552824129493500,12.520493408203125,6.934271335601807,6.931768894195557,0.19191886484622955
1697552824139084800,12.530084716796875,6.905206203460693,6.960143566131592,0.21196596324443817
1697552824148675600,12.539675537109375,6.881302833557129,6.983382225036621,0.22458329796791077
1697552824158267100,12.54926708984375,6.863674163818359,7.000716686248779,0.22434614598751068
1697552824167859200,12.558859130859375,6.852490425109863,7.012119293212891,0.20965252816677094
