time,seconds_elapsed,z,y,x
1698079804981245700,0.03924560546875,0.17489999532699585,0.6705874800682068,-0.7534999847412109
1698079804990664400,0.04866455078125,0.1358499974012375,0.5582500100135803,-0.6630250215530396
1698079805000083200,0.058083251953125,-0.11343749612569809,-0.011137500405311584,-0.504212498664856
1698079805009502000,0.067501953125,-0.5311625003814697,-0.5230500102043152,-0.26963749527931213
1698079805018921000,0.0769208984375,-0.45058751106262207,-0.2457125037908554,-0.15729999542236328
1698079805028339700,0.086339599609375,-0.37853750586509705,0.7293000221252441,-0.2012999951839447
1698079805037758700,0.0957587890625,-0.3480125069618225,2.0523250102996826,-0.3746874928474426
1698079805047177200,0.10517724609375,-0.32725000381469727,3.148200035095215,-0.504212498664856
1698079805056596200,0.11459619140625,-0.20019999146461487,3.765162467956543,-0.5324000120162964
1698079805066015000,0.124014892578125,-0.013199999928474426,4.035212516784668,-0.43216249346733093
1698079805075433700,0.133433837890625,0.24461250007152557,4.041262626647949,-0.2563000023365021
1698079805084852500,0.1428525390625,0.5732374787330627,4.007024765014648,-0.12058749794960022
1698079805094271500,0.152271484375,0.926337480545044,3.6246373653411865,-0.15482500195503235
1698079805103690200,0.161690185546875,1.2500125169754028,3.0101499557495117,-0.4174500107765198
1698079805113108700,0.171108642578125,1.4625874757766724,2.169612407684326,-0.8438374996185303
1698079805122527700,0.18052783203125,1.4260125160217285,0.9381625056266785,-1.331412434577942
1698079805131946500,0.189946533203125,1.140012502670288,-0.5046250224113464,-1.6013250350952148
1698079805141365200,0.199365234375,0.7393375039100647,-2.291987419128418,-1.4425125122070312
1698079805150784000,0.208783935546875,0.4351874887943268,-3.8522000312805176,-0.9281250238418579
1698079805160203000,0.218203125,-0.12072499841451645,-3.8814873695373535,-0.11082500219345093
1698079805169621800,0.227621826171875,-0.8256874680519104,-4.541212558746338,0.1578499972820282
1698079805179040500,0.23704052734375,-1.2226500511169434,-5.742137432098389,0.01979999989271164
1698079805188459300,0.246459228515625,-1.277649998664856,-6.420149803161621,-0.16335000097751617
1698079805197878300,0.255878173828125,-1.2043625116348267,-6.136762619018555,-0.41868749260902405
1698079805207296800,0.265296875,-1.1518374681472778,-4.799025058746338,-0.7449749708175659
1698079805216715500,0.274715576171875,-1.0895500183105469,-3.2645249366760254,-0.9305999875068665
1698079805226134800,0.284134765625,-0.936787486076355,-2.0696499347686768,-1.185937523841858
1698079805235553300,0.29355322265625,-0.9112125039100647,-0.39957499504089355,-1.5085124969482422
1698079805244972000,0.302971923828125,-0.8744999766349792,0.8098750114440918,-1.557325005531311
1698079805254390800,0.312390869140625,-0.6924499869346619,1.1727374792099,-1.6623749732971191
1698079805263809500,0.3218095703125,-0.5238749980926514,0.38472500443458557,-1.72837495803833
1698079805273228500,0.331228515625,-0.3858250081539154,-0.4936249852180481,-1.7040375471115112
1698079805282647300,0.340647216796875,-0.4030124843120575,-1.30239999294281,-1.5195125341415405
1698079805292066000,0.350066162109375,-0.4188250005245209,-2.280987501144409,-1.2434124946594238
1698079805301485000,0.359485107421875,-0.2648249864578247,-3.0996625423431396,-0.8585500121116638
1698079805310903800,0.36890380859375,0.09184999763965607,-3.5003373622894287,-0.30387499928474426
1698079805320322600,0.378322509765625,0.4351874887943268,-3.0446624755859375,0.33508750796318054
1698079805329741300,0.3877412109375,0.7125250101089478,-2.0037875175476074,0.8897625207901001
1698079805339160000,0.39716015625,0.8883875012397766,-1.5162124633789062,1.2427250146865845
1698079805348578800,0.406578857421875,0.7185750007629395,-1.9303624629974365,1.1609125137329102
1698079805357997800,0.415997802734375,0.2116124927997589,-2.8564250469207764,0.3741374909877777
1698079805367416800,0.425416748046875,-0.3590124845504761,-3.298762559890747,-0.7412624955177307
1698079805376835300,0.43483544921875,-0.49211248755455017,-2.8833749294281006,-1.531749963760376
1698079805386254300,0.44425439453125,0.10161250084638596,-2.431274890899658,-1.7088500261306763
1698079805395672800,0.4536728515625,1.1364375352859497,-2.4032249450683594,-1.365512490272522
1698079805405091800,0.463091796875,1.891450047492981,-2.777087450027466,-0.7070249915122986
1698079805414510600,0.472510498046875,1.7986375093460083,-3.2779998779296875,-0.030249999836087227
1698079805423929300,0.481929443359375,1.031387448310852,-3.5393874645233154,0.328900009393692
1698079805433348000,0.49134814453125,0.4937624931335449,-3.615149974822998,0.21408750116825104
1698079805442766800,0.500766845703125,0.6721000075340271,-3.3378124237060547,-0.11577499657869339
1698079805452185900,0.510185791015625,1.1791999340057373,-2.7697999477386475,-0.29411250352859497
1698079805461604600,0.5196044921875,1.5871624946594238,-2.6305124759674072,-0.1695374995470047
1698079805471023400,0.5290234375,1.818162441253662,-3.160712480545044,0.25561249256134033
1698079805480442000,0.538442138671875,2.0563125610351562,-3.833775043487549,0.8383374810218811
1698079805489860900,0.54786083984375,2.4411749839782715,-3.6188623905181885,1.3942500352859497
1698079805499279600,0.557279541015625,3.0643250942230225,-2.6598000526428223,1.7741625308990479
1698079805508698600,0.56669873046875,4.070962429046631,-1.6652624607086182,2.1199750900268555
1698079805518117400,0.576117431640625,4.304299831390381,0.5068249702453613,2.4375998973846436
1698079805527536400,0.585536376953125,4.470399856567383,1.801937460899353,2.487649917602539
1698079805536955000,0.594954833984375,4.620687484741211,1.4280749559402466,1.559249997138977
1698079805546374100,0.6043740234375,5.118024826049805,-1.1350624561309814,0.7675250172615051
1698079805555792600,0.613792724609375,5.833849906921387,-1.896262526512146,0.9007624983787537
1698079805565211400,0.62321142578125,6.195475101470947,-2.388512372970581,1.2769625186920166
1698079805574630100,0.632630126953125,6.388525009155273,-3.3610498905181885,1.5702500343322754
1698079805584049200,0.642049072265625,6.57786226272583,-4.000012397766113,1.9074000120162964
1698079805593468000,0.651468017578125,6.744100093841553,-4.649974822998047,2.1859750747680664
1698079805602886700,0.66088671875,6.961487293243408,-5.635849952697754,2.3362624645233154
1698079805612305400,0.670305419921875,7.288875102996826,-6.741487503051758,2.6221249103546143
1698079805621724200,0.67972412109375,7.6872124671936035,-7.852075099945068,3.1853249073028564
1698079805631143200,0.68914306640625,7.842312335968018,-8.90999984741211,3.9941000938415527
1698079805640562000,0.69856201171875,7.943787574768066,-9.569725036621094,4.721062660217285
1698079805649981000,0.70798095703125,7.990262508392334,-9.48062515258789,5.220737457275391
1698079805659399400,0.7173994140625,7.8960747718811035,-8.818425178527832,5.563937664031982
1698079805668818200,0.726818115234375,7.580924987792969,-7.6540751457214355,5.684937477111816
1698079805678237200,0.7362373046875,6.857675075531006,-5.966949939727783,5.54812479019165
1698079805687656000,0.745656005859375,5.887612342834473,-4.221112251281738,4.959212303161621
1698079805697074700,0.75507470703125,4.84797477722168,-3.106950044631958,4.21767520904541
1698079805706493400,0.764493408203125,3.6543374061584473,-1.9413625001907349,3.491950035095215
1698079805715912200,0.773912109375,2.3336498737335205,-0.4740999937057495,2.3057374954223633
1698079805725331200,0.783331298828125,1.1694375276565552,1.1666874885559082,0.8408125042915344
1698079805734750000,0.79275,0.2971374988555908,2.188037395477295,-0.179299995303154
1698079805744169000,0.8021689453125,-0.5641624927520752,2.301612377166748,-0.521399974822998
1698079805753587500,0.81158740234375,-1.2105499505996704,1.8629875183105469,-0.634975016117096
1698079805763006500,0.82100634765625,-1.4304125308990479,1.3840750455856323,-0.6447374820709229
1698079805772425200,0.83042529296875,-1.394937515258789,0.8038250207901001,-0.5409250259399414
1698079805781844000,0.839843994140625,-1.4047000408172607,-0.006187499966472387,-0.3051125109195709
1698079805791262700,0.8492626953125,-1.498887538909912,-1.0262999534606934,-0.0765874981880188
1698079805800681500,0.858681396484375,-1.7407499551773071,-1.9475499391555786,-0.014299999922513962
1698079805810100200,0.868100341796875,-2.0033750534057617,-2.2774124145507812,-0.09377499669790268
1698079805819519000,0.87751904296875,-2.0864250659942627,-1.9608874320983887,-0.2806375026702881
1698079805828938000,0.88693798828125,-2.2232375144958496,-1.3073500394821167,-0.44811248779296875
1698079805838356700,0.896356689453125,-2.412712574005127,-0.6036249995231628,-0.5861625075340271
1698079805847775700,0.905775634765625,-2.6703875064849854,-0.1527625024318695,-0.6814500093460083
1698079805857194500,0.915194580078125,-3.0626749992370605,-0.12347500026226044,-0.5446375012397766
1698079805866613200,0.92461328125,-3.7259750366210938,-0.6280999779701233,-0.32106250524520874
1698079805876032000,0.934031982421875,-4.331937313079834,-1.4881625175476074,-0.2903999984264374
1698079805885450800,0.94345068359375,-4.689987659454346,-2.1319375038146973,-0.2391124963760376
1698079805894869500,0.952869384765625,-4.588512420654297,-1.9426000118255615,-0.2770625054836273
1698079805904288500,0.96228857421875,-3.9678375720977783,-0.6634374856948853,-0.5079249739646912
1698079805913707000,0.97170703125,-3.4022998809814453,1.4220249652862549,-0.6191624999046326
1698079805923126000,0.9811259765625,-2.830437421798706,2.4237124919891357,-1.308174967765808
1698079805932544800,0.990544677734375,-2.3185250759124756,2.996812582015991,-1.868899941444397
1698079805941963500,0.999963623046875,-2.076662540435791,3.1274375915527344,-2.1267125606536865
1698079805951382300,1.00938232421875,-1.95579993724823,2.7524750232696533,-1.9361374378204346
1698079805960801300,1.01880126953125,-1.8873250484466553,1.993749976158142,-1.5145624876022339
1698079805970219800,1.0282197265625,-1.7040375471115112,1.4573625326156616,-0.870787501335144
1698079805979638800,1.037638671875,-1.5219874382019043,0.8368250131607056,-0.18177500367164612
1698079805989057500,1.0470576171875,-1.2838374376296997,0.4470124840736389,0.2213750034570694
1698079805998476300,1.056476318359375,-0.8610249757766724,0.27719998359680176,0.3068999946117401
1698079806007895300,1.065895263671875,-0.5543999671936035,0.5692499876022339,0.20679999887943268
1698079806017314000,1.07531396484375,-0.02419999986886978,2.9075748920440674,-0.19277499616146088
1698079806026732800,1.08473291015625,-0.5446375012397766,2.080512523651123,-0.147537499666214
1698079806036151600,1.094151611328125,-0.7572125196456909,1.5343624353408813,-0.04372499883174896
1698079806045570300,1.1035703125,-0.9234499931335449,1.5941749811172485,-0.45416250824928284
1698079806054989000,1.112989013671875,-0.7414000034332275,2.2123749256134033,-1.036887526512146
1698079806064407800,1.12240771484375,-0.7046874761581421,3.0041000843048096,-1.5012249946594238
1698079806073826800,1.131826904296875,-0.6448749899864197,3.120150089263916,-1.7088500261306763
1698079806083245600,1.14124560546875,-0.6936874985694885,2.756049871444702,-1.6917999982833862
1698079806092664300,1.150664306640625,-0.8329749703407288,1.8154125213623047,-1.3277000188827515
1698079806102083300,1.160083251953125,-0.7902125120162964,1.3315500020980835,-1.173699975013733
1698079806111502000,1.169502197265625,-1.20683753490448,-0.9602999687194824,-1.1517000198364258
1698079806120920800,1.1789208984375,-2.2867624759674072,-2.3787500858306885,-0.7022125124931335
1698079806130339600,1.188339599609375,-2.646049976348877,-3.160712480545044,-0.1280124932527542
1698079806139758300,1.19775830078125,-2.945387601852417,-2.7501375675201416,0.2788499891757965
1698079806149177000,1.207177001953125,-2.7608625888824463,-1.971887469291687,0.3008500039577484
1698079806158595800,1.216595947265625,-2.0669000148773193,-0.821150004863739,0.2690874934196472
1698079806168014800,1.226014892578125,-1.228837490081787,-0.09047500044107437,0.4241875112056732
1698079806177433600,1.23543359375,-0.6912124752998352,0.22591249644756317,0.8665249943733215
1698079806186852400,1.244852294921875,-0.38830000162124634,0.01209999993443489,1.3246749639511108
1698079806196271400,1.254271240234375,0.02956249937415123,-1.0324875116348267,1.7473499774932861
1698079806205690000,1.263690185546875,0.7882875204086304,-2.9786624908447266,2.115025043487549
1698079806215108900,1.27310888671875,1.604349970817566,-4.729312419891357,2.4205498695373535
1698079806224527600,1.282527587890625,1.80840003490448,-5.360987663269043,2.027162551879883
1698079806233946400,1.2919462890625,1.2622499465942383,-3.4918124675750732,1.5702500343322754
1698079806243365000,1.301365234375,0.5707625150680542,-0.8137249946594238,1.2721500396728516
1698079806252783900,1.310783935546875,0.9556249976158142,-1.0262999534606934,-0.010724999941885471
1698079806262203000,1.320202880859375,1.8657374382019043,-1.6775000095367432,-1.1921249628067017
1698079806271621600,1.32962158203125,0.22384999692440033,-2.6928000450134277,-1.041837453842163
1698079806281040400,1.339040283203125,0.4179999828338623,-3.0604748725891113,-0.740024983882904
1698079806290459400,1.34845947265625,1.6311625242233276,-2.7306125164031982,0.0002749999985098839
1698079806299878100,1.357878173828125,2.391124963760376,-2.5950374603271484,0.2666124999523163
1698079806309297200,1.367297119140625,2.733224868774414,-2.4814624786376953,-0.009487500414252281
1698079806318715600,1.376715576171875,2.927375078201294,-3.475862503051758,-0.28806251287460327
1698079806328134400,1.386134521484375,2.4143624305725098,-3.464862585067749,-0.24406249821186066
1698079806337553400,1.395553466796875,2.4118874073028564,-2.8418500423431396,-0.17311249673366547
1698079806346972200,1.40497216796875,2.45588755607605,-2.796612501144409,-0.5885000228881836
1698079806356391200,1.41439111328125,2.8627500534057617,-2.4850375652313232,-1.3044625520706177
1698079806365809700,1.4238095703125,3.4942874908447266,-1.9780750274658203,-2.044762372970581
1698079806375228400,1.433228515625,4.4998250007629395,-1.6004999876022339,-2.7546749114990234
1698079806384647400,1.4426474609375,5.549224853515625,-0.4643374979496002,-2.9220125675201416
1698079806394066200,1.452066162109375,6.661049842834473,-0.4203374981880188,-2.643437385559082
1698079806403485200,1.461485107421875,6.549812316894531,-1.3353999853134155,-1.9666625261306763
1698079806412904000,1.470904052734375,4.932262420654297,-0.5400999784469604,-2.009424924850464
1698079806422322700,1.48032275390625,3.6078624725341797,-0.08813749998807907,-1.4339874982833862
1698079806431741400,1.489741455078125,2.9298501014709473,-0.07095000147819519,-0.9391250014305115
1698079806441160200,1.49916015625,2.7662250995635986,-0.06613750010728836,-1.0796500444412231
1698079806450579000,1.508578857421875,3.143662452697754,-0.25671249628067017,-1.4950374364852905
1698079806459997700,1.517997802734375,3.204712390899658,-0.32023748755455017,-1.5219874382019043
1698079806469416700,1.527416748046875,2.8199875354766846,0.0976250022649765,-1.1981749534606934
1698079806478835500,1.53683544921875,2.3751749992370605,-0.13323749601840973,-0.889074981212616
1698079806488254500,1.54625439453125,1.9940249919891357,-0.002612499985843897,-0.8170250058174133
1698079806497673200,1.555673095703125,1.8096375465393066,0.028049999848008156,-0.9098374843597412
1698079806507092000,1.565092041015625,1.7203999757766724,0.07438749819993973,-1.0894124507904053
1698079806516511000,1.574510986328125,1.6324000358581543,0.21367499232292175,-1.2384624481201172
1698079806525929500,1.583929443359375,1.3782999515533447,0.5605875253677368,-1.391224980354309
1698079806535348200,1.59334814453125,0.9922000169754028,0.896637499332428,-1.5683250427246094
1698079806544767000,1.60276708984375,0.44618749618530273,1.302262544631958,-1.649037480354309
1698079806554186000,1.61218603515625,0.4937624931335449,1.2362624406814575,-1.7785625457763672
1698079806563605000,1.62160498046875,0.383899986743927,0.5924875140190125,-1.6966124773025513
1698079806573023700,1.631023681640625,0.4632374942302704,0.6095374822616577,-1.0956000089645386
1698079806582442500,1.6404423828125,0.619575023651123,1.0261625051498413,-0.5909749865531921
1698079806591861200,1.649861328125,0.8676249980926514,1.656462550163269,-0.29906249046325684
1698079806601280000,1.659280029296875,1.1791999340057373,1.6321250200271606,0.07232499867677689
1698079806610699000,1.668698974609375,1.5530624389648438,1.7494125366210938,0.5097125172615051
1698079806620117800,1.67811767578125,2.0868375301361084,2.114612579345703,0.8420500159263611
1698079806629536300,1.687536376953125,2.601224899291992,2.5911874771118164,0.9373375177383423
1698079806638955500,1.69695556640625,2.6928000450134277,2.7720000743865967,0.8982874751091003
1698079806648374000,1.7063740234375,2.5744125843048096,2.2503249645233154,0.8690000176429749
1698079806657793000,1.71579296875,2.360599994659424,1.3585000038146973,0.890999972820282
1698079806667211800,1.725211669921875,2.0465500354766846,0.7548750042915344,1.026574969291687
1698079806676630800,1.734630859375,1.6934499740600586,0.3077250123023987,1.2342000007629395
1698079806686049500,1.744049560546875,1.3820124864578247,-0.07095000147819519,1.4797749519348145
1698079806695468300,1.75346826171875,1.1999624967575073,-0.3750999867916107,1.7315374612808228
1698079806704887000,1.762886962890625,1.0423874855041504,-1.5357375144958496,1.472487449645996
1698079806714305800,1.772305908203125,0.4571875035762787,-2.268749952316284,1.2489124536514282
1698079806723724500,1.781724609375,0.3997125029563904,-2.4862749576568604,0.9862874746322632
1698079806733143300,1.791143310546875,0.2176624983549118,-0.2798124849796295,1.1731499433517456
1698079806742562300,1.800562255859375,0.12732499837875366,0.5215374827384949,1.5067249536514282
1698079806751981000,1.80998095703125,0.11384999752044678,2.45066237449646,1.4235374927520752
1698079806761399800,1.81939990234375,-0.5923500061035156,1.990037441253662,0.9227625131607056
1698079806770818600,1.828818603515625,-1.315600037574768,0.9369249939918518,0.2923249900341034
1698079806780237300,1.8382373046875,-1.5097500085830688,0.5277249813079834,-0.23058749735355377
1698079806789656000,1.847656005859375,-1.2178374528884888,0.21738749742507935,-0.8573125004768372
1698079806799074800,1.85707470703125,-0.7426375150680542,0.08910000324249268,-1.374174952507019
1698079806808493800,1.866493896484375,-0.06324999779462814,0.10986249893903732,-1.6343250274658203
1698079806817912800,1.875912841796875,0.5757125020027161,0.10615000128746033,-1.7516125440597534
1698079806827331600,1.88533154296875,0.877387523651123,0.19910000264644623,-1.685612440109253
1698079806836750300,1.894750244140625,0.860337495803833,0.22343750298023224,-1.4535125494003296
1698079806846169000,1.904169189453125,0.6452875137329102,0.07562500238418579,-1.177412509918213
1698079806855588000,1.913588134765625,0.403425008058548,0.07686249911785126,-1.0026500225067139
1698079806865006600,1.923006591796875,0.21037499606609344,0.02186249941587448,-1.0748374462127686
1698079806874425300,1.93242529296875,0.16885000467300415,-0.5278624892234802,-1.1798875331878662
1698079806883844000,1.941843994140625,0.24213749170303345,-1.1167750358581543,-1.2128875255584717
1698079806893263000,1.95126318359375,1.8229750394821167,-2.669562578201294,-1.611087441444397
1698079806902682000,1.96068212890625,3.2328999042510986,-1.5797375440597534,-0.25382500886917114
1698079806912100900,1.970100830078125,3.7948625087738037,-0.3592875003814697,0.3106124997138977
1698079806921519600,1.97951953125,4.257824897766113,1.0297374725341797,0.6795250177383423
1698079806930938400,1.9889384765625,4.494874954223633,1.5318875312805176,0.5489000082015991
1698079806940357000,1.998357177734375,4.2847747802734375,1.194737434387207,0.37661248445510864
1698079806949776100,2.007776123046875,3.798574924468994,0.09391249716281891,0.2287999987602234
1698079806959195000,2.01719482421875,3.5309998989105225,-1.622499942779541,0.28984999656677246
1698079806968613600,2.026613525390625,3.5883374214172363,-4.086774826049805,0.6356624960899353
1698079806978032400,2.036032470703125,3.299999952316284,-6.294337272644043,0.7919999957084656
1698079806987451400,2.045451416015625,2.8638498783111572,-7.059112548828125,0.5549499988555908
1698079806996870000,2.054869873046875,2.3971750736236572,-5.503849983215332,-0.4651624858379364
1698079807006289000,2.064288818359375,1.8511624336242676,-2.3482248783111572,-1.382699966430664
1698079807015707600,2.073707763671875,1.1376750469207764,-0.4118124842643738,-1.0613625049591064
1698079807025126700,2.083126708984375,0.6917625069618225,0.10381250083446503,-0.2330625057220459
1698079807034545400,2.09254541015625,0.13089999556541443,0.345674991607666,0.18232500553131104
1698079807043964200,2.101964111328125,-0.48606249690055847,0.42748749256134033,0.41813749074935913
1698079807053383000,2.1113828125,-0.8769749999046326,-0.025712499395012856,0.982574999332428
1698079807062801700,2.1208017578125,-1.015025019645691,-0.4265249967575073,1.4212000370025635
1698079807072220700,2.130220703125,-1.0517375469207764,-0.1527625024318695,0.9678624868392944
1698079807081639400,2.139639404296875,-1.0565500259399414,0.8281624913215637,-0.18658749759197235
1698079807091058000,2.149057861328125,-0.9673125147819519,1.8434624671936035,-0.8597875237464905
1698079807100477200,2.158477294921875,-0.7462124824523926,2.5544750690460205,-0.7767375111579895
1698079807109896000,2.16789599609375,-0.4310624897480011,2.9088125228881836,-1.141937494277954
1698079807119314400,2.177314453125,-0.0742499977350235,3.0016250610351562,-2.094949960708618
1698079807128733700,2.186733642578125,0.24213749170303345,2.7829999923706055,-3.074774980545044
1698079807138152400,2.19615234375,0.44852501153945923,2.0047500133514404,-3.5622124671936035
1698079807147571200,2.2055712890625,0.6282374858856201,0.8953999876976013,-3.5890250205993652
1698079807156990000,2.214989990234375,0.9054374694824219,0.2149125039577484,-3.3813998699188232
1698079807166409000,2.224408935546875,1.0191500186920166,0.14533749222755432,-3.151637554168701
1698079807175827500,2.233827392578125,1.0362000465393066,-0.020899999886751175,-2.761962413787842
1698079807185246500,2.24324658203125,0.9336249828338623,-0.19923749566078186,-2.248812437057495
1698079807194665500,2.25266552734375,0.6550499796867371,-0.432574987411499,-1.789425015449524
1698079807204084200,2.262084228515625,0.22384999692440033,-0.690387487411499,-1.5072749853134155
1698079807213503000,2.2715029296875,-0.195250004529953,-0.817437469959259,-1.4254624843597412
1698079807222921700,2.280921630859375,-0.42006251215934753,-0.6891499757766724,-1.5060374736785889
1698079807232340500,2.290340576171875,-0.30758750438690186,-0.4595249891281128,-1.6160374879837036
1698079807241759200,2.29975927734375,0.007562499959021807,-0.4068624973297119,-1.6208499670028687
1698079807251178200,2.30917822265625,0.36918750405311584,-0.5303375124931335,-1.4254624843597412
1698079807260597000,2.318596923828125,0.6978124976158142,-0.7429124712944031,-1.0258874893188477
1698079807270016000,2.32801611328125,0.9226250052452087,-0.9822999835014343,-0.5409250259399414
1698079807279434800,2.337434814453125,0.987387478351593,-1.1045374870300293,0.005224999971687794
1698079807288853500,2.346853515625,0.9103875160217285,-0.9884874820709229,0.5781875252723694
1698079807298272300,2.356272216796875,0.7478625178337097,-0.720912516117096,1.1573375463485718
1698079807307691000,2.36569091796875,0.558525025844574,-0.42157500982284546,1.6985374689102173
1698079807317109800,2.37510986328125,0.3349500000476837,-0.1467124968767166,2.18473744392395
1698079807326528800,2.38452880859375,0.038087498396635056,0.07562500238418579,2.567125082015991
1698079807335947500,2.393947509765625,-0.306487500667572,0.14409999549388885,2.8701748847961426
1698079807345366300,2.4033662109375,-0.5508249998092651,0.028049999848008156,3.1132750511169434
1698079807354785000,2.412784912109375,-0.6484500169754028,-0.1919499933719635,3.253662586212158
1698079807364204000,2.4222041015625,-0.7731624841690063,-0.29823750257492065,3.3086624145507812
1698079807373622800,2.431622802734375,-0.8879749774932861,-0.4375250041484833,3.2940874099731445
1698079807383041500,2.44104150390625,-0.9722625017166138,-0.7587249875068665,3.178037405014038
1698079807392460300,2.450460205078125,-1.1042624711990356,-1.2352999448776245,2.9117000102996826
1698079807401879000,2.459879150390625,-1.3326499462127686,-1.7397874593734741,2.4253625869750977
1698079807411298000,2.469298095703125,-1.6039375066757202,-2.035412549972534,1.7558749914169312
1698079807420716800,2.478716796875,-1.8372750282287598,-2.0733625888824463,0.8775249719619751
1698079807430135600,2.488135498046875,-1.9996625185012817,-1.6359750032424927,-0.20487499237060547
1698079807439554300,2.49755419921875,-1.9911375045776367,-0.43505001068115234,-1.2604625225067139
1698079807448973000,2.50697314453125,-1.710224986076355,1.101925015449524,-1.8506125211715698
1698079807458392000,2.51639208984375,-1.2398375272750854,2.3333749771118164,-1.3679875135421753
1698079807467810800,2.525810791015625,-1.028499960899353,2.9088125228881836,-0.06929999589920044
1698079807477229600,2.5352294921875,-1.0223125219345093,2.988149881362915,0.5304750204086304
1698079807486648600,2.544648681640625,-0.9344499707221985,2.8355250358581543,0.6637125015258789
1698079807496067300,2.5540673828125,-0.8084999918937683,2.120800018310547,0.6599999666213989
1698079807505486300,2.563486328125,-0.6876375079154968,1.0591624975204468,0.5086125135421753
1698079807514905000,2.572905029296875,-0.5801125168800354,0.015812499448657036,0.304562509059906
1698079807524323800,2.58232373046875,-0.370012491941452,-0.7794874906539917,0.17379999160766602
1698079807533742600,2.59174267578125,-0.06572499871253967,-1.497925043106079,0.1835625022649765
1698079807543161300,2.601161376953125,0.328900009393692,-2.2297000885009766,0.2923249900341034
1698079807552580000,2.610580078125,0.7015249729156494,-3.09594988822937,0.4791874885559082
1698079807561998800,2.619998779296875,1.114437460899353,-6.728012561798096,0.9128624796867371
1698079807571417900,2.62941796875,1.5615874528884888,-8.935712814331055,0.3338499963283539
1698079807580836600,2.638836669921875,1.4027750492095947,-4.542449951171875,-1.165174961090088
1698079807590255400,2.64825537109375,0.9458624720573425,0.05609999969601631,-1.0968375205993652
1698079807599674000,2.657674072265625,0.5817624926567078,2.449424982070923,-0.28558748960494995
1698079807609093000,2.667093017578125,0.04179999977350235,3.090862512588501,0.2213750034570694
1698079807618512000,2.676511962890625,-0.5190625190734863,2.8685250282287598,0.36313748359680176
1698079807627931000,2.685930908203125,-0.909974992275238,2.134274959564209,-0.3918749988079071
1698079807637349600,2.695349609375,-0.9087374806404114,1.435362458229065,-1.6673250198364258
1698079807646768400,2.704768310546875,-0.6363499760627747,0.8258249759674072,-2.1437625885009766
1698079807656187400,2.7141875,-0.2917749881744385,0.5814874768257141,-2.022900104522705
1698079807665606100,2.723606201171875,0.0002749999985098839,0.6730625033378601,-2.136475086212158
1698079807675025000,2.73302490234375,0.16266250610351562,0.7940624952316284,-2.584862470626831
1698079807684443600,2.742443603515625,0.24584999680519104,1.0604000091552734,-2.942775011062622
1698079807693862700,2.751862548828125,0.35694998502731323,1.3205499649047852,-3.0465874671936035
1698079807703281400,2.761281494140625,0.491287499666214,1.4757875204086304,-2.876775026321411
1698079807712700200,2.7707001953125,0.6513375043869019,1.6174124479293823,-2.4553375244140625
1698079807722119000,2.780118896484375,0.8505749702453613,1.7151750326156616,-1.8603750467300415
1698079807731537700,2.78953759765625,0.9702000021934509,1.9362750053405762,-1.2384624481201172
1698079807740956400,2.798956298828125,0.926337480545044,1.7774624824523926,-0.7363125085830688
1698079807750375200,2.808375244140625,0.527999997138977,0.9613999724388123,-0.39434999227523804
1698079807759794200,2.817794189453125,-0.01691249944269657,-0.40328750014305115,-0.33082500100135803
1698079807769213200,2.827213134765625,-0.36258751153945923,-1.3121625185012817,-0.49816250801086426
1698079807778632000,2.8366318359375,-0.17077499628067017,-1.3843499422073364,-0.8377875089645386
1698079807788050700,2.84605078125,0.28971248865127563,-1.1863499879837036,-1.2091749906539917
1698079807797469700,2.8554697265625,0.7821000218391418,-1.1985875368118286,-1.4169374704360962
1698079807806888400,2.864888427734375,1.2352999448776245,-1.7275500297546387,-1.3044625520706177
1698079807816307200,2.87430712890625,1.5273499488830566,-2.344512462615967,-0.7657374739646912
1698079807825726000,2.883725830078125,1.6421624422073364,-2.514324903488159,0.07122500240802765
1698079807835144700,2.893144775390625,1.5041124820709229,-1.9658374786376953,1.0143375396728516
1698079807844563700,2.902563720703125,1.0874874591827393,-0.956725001335144,1.7107750177383423
1698079807853982700,2.911982666015625,0.5182374715805054,-0.17847499251365662,2.100450038909912
1698079807863401200,2.921401123046875,-0.013199999928474426,0.23196250200271606,2.3485000133514404
1698079807872820200,2.9308203125,-0.306487500667572,0.3102000057697296,2.552412509918213
1698079807882239000,2.940239013671875,-0.38830000162124634,0.210099995136261,2.6807000637054443
1698079807891657700,2.94965771484375,-0.38458749651908875,0.15633749961853027,2.733224868774414
1698079807901076500,2.959076416015625,-0.3735874891281128,0.07081250101327896,2.744225025177002
1698079807910495500,2.96849560546875,-0.40658751130104065,-0.0989999994635582,2.7321250438690186
1698079807919914000,2.9779140625,-0.45787498354911804,-0.4203374981880188,2.6929373741149902
1698079807929333000,2.9873330078125,-0.5703499913215637,-0.8711999654769897,2.614837408065796
1698079807938752000,2.996751953125,-0.7754999995231628,-1.3476375341415405,2.481600046157837
1698079807948170500,3.00617041015625,-1.006500005722046,-1.8400249481201172,2.225024938583374
1698079807957589500,3.015589599609375,-1.2458875179290771,-2.328700065612793,1.7193000316619873
1698079807967008300,3.02500830078125,-1.4976500272750854,-2.783137559890747,0.8799999952316284
1698079807976427300,3.03442724609375,-1.7492749691009521,-3.045762538909912,-0.14506250619888306
1698079807985846000,3.043845947265625,-1.8250374794006348,-2.1319375038146973,-0.953837513923645
1698079807995264800,3.0532646484375,-1.5732749700546265,0.6608250141143799,-1.3337500095367432
1698079808004683500,3.06268359375,-1.0895500183105469,3.9839248657226562,-0.7595499753952026
1698079808014102500,3.0721025390625,-0.8354499936103821,5.495187282562256,0.1457500010728836
1698079808023521300,3.081521240234375,-0.809737503528595,5.2300872802734375,0.645425021648407
1698079808032940000,3.09093994140625,-0.7511624693870544,4.108500003814697,0.7467625141143799
1698079808042359000,3.100359130859375,-0.6668750047683716,2.4653749465942383,0.6234250068664551
1698079808051777800,3.10977783203125,-0.5898749828338623,0.9724000096321106,0.41813749074935913
1698079808061196500,3.119196533203125,-0.38458749651908875,0.15015000104904175,0.27156248688697815
1698079808070615300,3.128615234375,0.06132499873638153,-1.0764875411987305,0.33137500286102295
1698079808080034000,3.138033935546875,0.8053374886512756,-4.299349784851074,0.7394750118255615
1698079808089452800,3.147452880859375,1.2867250442504883,-7.084825038909912,0.8347625136375427
1698079808098871800,3.156871826171875,1.4906375408172607,-6.527675151824951,-0.16706250607967377
1698079808108290600,3.16629052734375,1.460112452507019,-3.770250082015991,-1.0258874893188477
1698079808117709600,3.17570947265625,1.1449625492095947,-0.559624969959259,-0.9196000099182129
1698079808127128000,3.185128173828125,0.7075750231742859,1.3157374858856201,-0.219587504863739
1698079808136547000,3.194547119140625,0.23594999313354492,2.1977999210357666,0.44261249899864197
1698079808145965800,3.2039658203125,-0.21848750114440918,2.6399998664855957,0.4218499958515167
1698079808155384800,3.213384765625,-0.5483499765396118,2.845287561416626,-0.4883999824523926
1698079808164803600,3.222803466796875,-0.6461125016212463,2.7340500354766846,-1.6733750104904175
1698079808174222300,3.232222412109375,-0.5446375012397766,2.3358500003814697,-2.340524911880493
1698079808183641000,3.24164111328125,-0.2807750105857849,1.7542250156402588,-2.4736249446868896
1698079808193059800,3.251059814453125,0.09790000319480896,1.2949750423431396,-2.506624937057495
1698079808202478800,3.260478759765625,0.5035250186920166,0.8685874938964844,-2.5126750469207764
1698079808211897600,3.269897705078125,0.7968124747276306,0.8086374998092651,-2.342862606048584
1698079808221316400,3.27931640625,1.0081499814987183,1.0946375131607056,-2.0484750270843506
1698079808230735400,3.2887353515625,1.2157750129699707,1.378024935722351,-1.740612506866455
1698079808240153900,3.29815380859375,1.363587498664856,1.6676000356674194,-1.4840375185012817
1698079808249572900,3.30757275390625,1.377062439918518,1.6944124698638916,-1.265412449836731
1698079808258991600,3.31699169921875,1.122962474822998,1.6406500339508057,-1.0405999422073364
1698079808268410600,3.32641064453125,0.658762514591217,1.3425500392913818,-0.7950249910354614
1698079808277829400,3.335829345703125,0.16885000467300415,0.33838748931884766,-0.6447374820709229
1698079808287248100,3.345248046875,0.14685000479221344,-0.507099986076355,-0.48963749408721924
1698079808296667100,3.354667236328125,0.46818751096725464,-0.8711999654769897,-0.38087499141693115
1698079808306086000,3.3640859375,0.8883875012397766,-0.9970124959945679,-0.346637487411499
1698079808315504600,3.373504638671875,1.2903000116348267,-1.0947749614715576,-0.28558748960494995
1698079808324923600,3.382923583984375,1.6226375102996826,-1.3281124830245972,-0.07548750191926956
1698079808334342400,3.39234228515625,1.8767374753952026,-1.621262550354004,0.3008500039577484
1698079808343761400,3.401761474609375,1.8499250411987305,-1.643262505531311,0.904337465763092
1698079808353180200,3.41118017578125,1.4588749408721924,-1.4148750305175781,1.6863000392913818
1698079808362599000,3.420598876953125,0.7930999994277954,-1.1913000345230103,2.398550033569336
1698079808372017700,3.430017578125,0.12856249511241913,-0.9200124740600586,2.9165124893188477
1698079808381436400,3.4394365234375,-0.38458749651908875,-0.5876749753952026,3.129087448120117
1698079808390855200,3.448855224609375,-0.7229750156402588,-0.21271249651908875,2.9458000659942627
1698079808400274200,3.458274169921875,-0.8599249720573425,0.2699125111103058,2.630650043487549
1698079808409693000,3.46769287109375,-0.8219749927520752,0.7475875020027161,2.618412494659424
1698079808419111700,3.477111572265625,-0.7426375150680542,1.0139249563217163,2.8725125789642334
1698079808428530700,3.48653076171875,-0.7414000034332275,1.0676875114440918,3.0655624866485596
1698079808437949400,3.495949462890625,-0.8194999694824219,1.0542124509811401,2.9874625205993652
1698079808447368200,3.5053681640625,-0.9355499744415283,0.817300021648407,2.5854125022888184
1698079808456787200,3.514787109375,-1.057787537574768,0.29686251282691956,1.9221124649047852
1698079808466206000,3.5242060546875,-1.0760749578475952,-0.3885749876499176,1.118149995803833
1698079808475624700,3.533624755859375,-1.0162625312805176,-0.975012481212616,0.3998500108718872
1698079808485043500,3.54304345703125,-0.9355499744415283,-1.3451625108718872,-0.07548750191926956
1698079808494462200,3.552462158203125,-0.848924994468689,-1.0813000202178955,-0.31363749504089355
1698079808503881000,3.561880859375,-0.735212504863739,-0.07095000147819519,-0.29411250352859497
1698079808513300000,3.571300048828125,-0.6326375007629395,0.813587486743927,0.023512499406933784
1698079808522718700,3.58071875,-0.6351125240325928,1.1679250001907349,0.32161250710487366
1698079808532137700,3.5901376953125,-0.7719249725341797,1.0029250383377075,0.46213749051094055
1698079808541556500,3.599556396484375,-0.8892124891281128,0.4250124990940094,0.4511374831199646
1698079808550975200,3.608975341796875,-0.8732625246047974,-0.28833749890327454,0.2971374988555908
1698079808560394200,3.618394287109375,-0.7096375226974487,-0.8797249794006348,0.11275000125169754
1698079808569813000,3.62781298828125,-0.4786374866962433,-1.185112476348877,-0.014299999922513962
1698079808579231700,3.637231689453125,-0.08043749630451202,-1.783787488937378,0.11151249706745148
1698079808588650500,3.646650390625,0.3324750065803528,-2.469087600708008,0.5121874809265137
1698079808598069500,3.656069580078125,0.7320500016212463,-4.510687351226807,0.7407125234603882
1698079808607488300,3.66548828125,1.02162504196167,-4.94064998626709,-0.31735000014305115
1698079808616907000,3.674906982421875,1.0777250528335571,-2.4495625495910645,-1.531749963760376
1698079808626326000,3.684325927734375,0.951912522315979,0.5863000154495239,-1.6721374988555908
1698079808635744800,3.693744873046875,0.7528125047683716,2.654712438583374,-1.082124948501587
1698079808645163500,3.70316357421875,0.4314749836921692,3.484250068664551,-0.7693125009536743
1698079808654582300,3.712582275390625,0.0845625028014183,3.992449998855591,-1.1554124355316162
1698079808664001300,3.722001220703125,-0.20253749191761017,4.326025009155273,-2.2244749069213867
1698079808673420000,3.731419921875,-0.30153748393058777,4.311312675476074,-3.389925003051758
1698079808682838800,3.7408388671875,-0.15853749215602875,4.132975101470947,-3.762549877166748
1698079808692257800,3.7502578125,0.2689499855041504,3.485487461090088,-3.571974992752075
1698079808701676500,3.759676513671875,0.7906249761581421,2.437187433242798,-3.3423500061035156
1698079808711095000,3.769094970703125,1.152250051498413,1.647937536239624,-3.0343499183654785
1698079808720514000,3.77851416015625,1.5041124820709229,1.215499997138977,-2.6043875217437744
1698079808729933000,3.78793310546875,1.778975009918213,1.0957374572753906,-2.1315250396728516
1698079808739351800,3.797351806640625,1.9402624368667603,1.2692625522613525,-1.694137454032898
1698079808748770600,3.8067705078125,1.9647375345230103,1.4745500087738037,-1.3899874687194824
1698079808758189300,3.816189208984375,1.7008750438690186,1.2522125244140625,-1.3069374561309814
1698079808767608000,3.825608154296875,1.0679625272750854,0.9356874823570251,-1.4156999588012695
1698079808777027000,3.835027099609375,0.4339500069618225,0.39820000529289246,-1.7833750247955322
1698079808786445800,3.84444580078125,0.0943249985575676,0.202674999833107,-2.1914749145507812
1698079808795864800,3.85386474609375,0.29218751192092896,0.1391499936580658,-2.5763375759124756
1698079808805283600,3.86328369140625,0.7356249690055847,-0.040424998849630356,-2.8657748699188232
1698079808814702600,3.87270263671875,1.25496244430542,-0.3115749955177307,-3.0295374393463135
1698079808824121000,3.88212109375,1.683687448501587,-0.7489625215530396,-2.8939623832702637
1698079808833539800,3.891539794921875,2.001312494277954,-1.28534996509552,-2.2769999504089355
1698079808842958800,3.900958740234375,2.1003124713897705,-1.755737543106079,-1.21646249294281
1698079808852377600,3.910377685546875,1.887737512588501,-1.6494499444961548,-0.030249999836087227
1698079808861796600,3.919796630859375,1.3832499980926514,-1.0092500448226929,0.9250999689102173
1698079808871215400,3.92921533203125,0.7271000146865845,-0.29081249237060547,1.5860625505447388
1698079808880634000,3.938634033203125,0.1223749965429306,0.29672500491142273,1.9733999967575073
1698079808890052900,3.948052978515625,-0.2965874969959259,0.6217749714851379,2.1346874237060547
1698079808899472000,3.957471923828125,-0.49939998984336853,0.6840624809265137,2.117500066757202
1698079808908890600,3.966890625,-0.5373499989509583,0.6168249845504761,1.9648749828338623
1698079808918309400,3.976309326171875,-0.4188250005245209,0.5277249813079834,1.821874976158142
1698079808927728000,3.98572802734375,-0.21353749930858612,0.5422999858856201,1.8731625080108643
1698079808937147100,3.995147216796875,-0.010724999941885471,0.7035874724388123,2.165212392807007
1698079808946566100,4.004566162109375,0.11866249889135361,1.1384999752044678,2.5976500511169434
1698079808955984600,4.013984619140625,0.14685000479221344,1.710362434387207,2.949512481689453
1698079808965403600,4.023403564453125,0.10766249895095825,2.1440374851226807,3.153562545776367
1698079808974822400,4.032822509765625,0.052799999713897705,2.390850067138672,3.1963250637054443
1698079808984241400,4.042241455078125,-0.02914999984204769,2.426187515258789,3.082750082015991
1698079808993660200,4.05166015625,-0.07672499865293503,2.1965625286102295,2.7748875617980957
1698079809003079000,4.061078857421875,-0.12072499841451645,1.788462519645691,2.2934999465942383
1698079809012497700,4.07049755859375,-0.18053749203681946,1.6406500339508057,1.6032500267028809
1698079809021916700,4.079916748046875,-0.32848748564720154,1.8997000455856323,0.7039999961853027
1698079809031335200,4.089335205078125,-0.5593500137329102,2.5019500255584717,-0.3051125109195709
1698079809040754200,4.098754150390625,-0.7389249801635742,3.131150007247925,-1.011312484741211
1698079809050173200,4.108173095703125,-0.7499250173568726,3.3082499504089355,-0.7167875170707703
1698079809059592000,4.117592041015625,-0.5849249958992004,3.026099920272827,0.23732499778270721
1698079809069010700,4.1270107421875,-0.37853750586509705,3.0273375511169434,0.9935749769210815
1698079809078429400,4.136429443359375,-0.2087250053882599,3.2093875408172607,1.2256749868392944
1698079809087848400,4.145848388671875,-0.10848750174045563,3.253387451171875,1.1536250114440918
1698079809097267200,4.15526708984375,-0.10243749618530273,3.121387481689453,0.9703375101089478
1698079809106686000,4.16468603515625,-0.1634874939918518,2.778049945831299,0.7077124714851379
1698079809116105000,4.17410498046875,-0.28929999470710754,2.354137420654297,0.43037500977516174
1698079809125523700,4.183523681640625,-0.36506250500679016,1.9815125465393066,0.2971374988555908
1698079809134942700,4.192942626953125,-0.3185875117778778,1.622362494468689,0.33137500286102295
1698079809144361500,4.202361572265625,-0.21972499787807465,1.5930750370025635,0.5121874809265137
1698079809153780200,4.2117802734375,-0.10243749618530273,1.8409874439239502,0.7944750189781189
1698079809163199000,4.221198974609375,-0.03272499889135361,2.186800003051758,1.0815750360488892
1698079809172618000,4.230617919921875,-0.0193875003606081,2.5081374645233154,1.2831499576568604
1698079809182036700,4.24003662109375,-0.01691249944269657,2.690049886703491,1.4016749858856201
1698079809191455500,4.24945556640625,0.025849999859929085,2.720712423324585,1.5017750263214111
1698079809200874200,4.258874267578125,0.10161250084638596,2.668187379837036,1.6105375289916992
1698079809210293200,4.268293212890625,0.21518750488758087,2.445849895477295,1.7400624752044678
1698079809219712300,4.277712158203125,0.33371248841285706,2.1830875873565674,1.8231124877929688
1698079809229130800,4.287130859375,0.3777124881744385,2.0169875621795654,1.8121124505996704
1698079809238549500,4.296549560546875,0.3716624975204468,2.0352749824523926,1.7668750286102295
1698079809247968500,4.305968505859375,0.34966251254081726,2.1428000926971436,1.7095375061035156
1698079809257387300,4.31538720703125,0.3349500000476837,2.313849925994873,1.6605875492095947
1698079809266806000,4.324805908203125,0.3031874895095825,2.5386624336242676,1.6838250160217285
1698079809276225000,4.33422509765625,0.26413750648498535,2.72552490234375,1.7571125030517578
1698079809285643800,4.343643798828125,0.22384999692440033,2.7427124977111816,1.8291624784469604
1698079809295062800,4.353062744140625,0.22495000064373016,2.6046624183654785,1.9354499578475952
1698079809304481500,4.3624814453125,0.23966249823570251,2.4311375617980957,2.0417375564575195
1698079809313900300,4.371900390625,0.21518750488758087,2.330899953842163,2.083400011062622
1698079809323319300,4.3813193359375,0.16266250610351562,2.289375066757202,2.0906875133514404
1698079809332738000,4.390738037109375,0.09679999947547913,2.2332749366760254,2.0356874465942383
1698079809342156800,4.40015673828125,0.035612501204013824,2.1598498821258545,1.8988749980926514
1698079809351575600,4.409575439453125,-0.015675000846385956,2.0732250213623047,1.7033499479293823
1698079809360994300,4.418994384765625,-0.0424874983727932,2.0072250366210938,1.4822499752044678
1698079809370413000,4.4284130859375,-0.04372499883174896,2.0047500133514404,1.2476749420166016
1698079809379831800,4.437831787109375,-0.03396249935030937,2.1403250694274902,0.9813374876976013
1698079809389250800,4.447250732421875,-0.040150001645088196,2.2625625133514404,0.6539499759674072
1698079809398669600,4.456669677734375,-0.07672499865293503,2.257612466812134,0.28984999656677246
1698079809408088600,4.466088623046875,-0.09748750180006027,2.1720874309539795,0.005224999971687794
1698079809417507300,4.47550732421875,-0.11343749612569809,1.743362545967102,-0.0705375000834465
1698079809426926000,4.484926025390625,-0.19648750126361847,1.1434500217437744,0.09556250274181366
1698079809436345000,4.494344970703125,-0.2624875009059906,0.7720624804496765,0.3008500039577484
1698079809445763800,4.503763916015625,-0.26001250743865967,0.6730625033378601,0.4548499882221222
1698079809455182600,4.5131826171875,-0.21972499787807465,0.7830625176429749,0.4828999936580658
1698079809464601600,4.5226015625,-0.16596250236034393,0.9846374988555908,0.37661248445510864
1698079809474020400,4.532020263671875,-0.14877499639987946,1.198449969291687,0.19085000455379486
1698079809483439000,4.541439208984375,-0.195250004529953,1.368262529373169,0.028462499380111694
1698079809492858000,4.550858154296875,-0.2563000023365021,1.4598374366760254,-0.021724998950958252
1698079809502276900,4.56027685546875,-0.29301249980926514,1.4365999698638916,0.04179999977350235
1698079809511695600,4.569695556640625,-0.2685374915599823,1.2546875476837158,0.17627499997615814
1698079809521114400,4.5791142578125,-0.17820000648498535,0.9503999948501587,0.304562509059906
1698079809530533400,4.588533447265625,-0.05843750014901161,0.6242499947547913,0.3363249897956848
1698079809539952400,4.597952392578125,0.030799999833106995,0.39943748712539673,0.23251250386238098
1698079809549371100,4.60737109375,0.040562499314546585,0.36272498965263367,0.0625625029206276
1698079809558790000,4.616789794921875,0.012374999932944775,0.4666749835014343,-0.11329999566078186
1698079809568208600,4.626208740234375,-0.05596249923110008,0.669487476348877,-0.2733500003814697
1698079809577627600,4.635627685546875,-0.17943750321865082,0.8991125226020813,-0.4651624858379364
1698079809587046400,4.64504638671875,-0.3405874967575073,1.2387374639511108,-0.6802124977111816
1698079809596465200,4.654465087890625,-0.5458750128746033,1.5723124742507935,-0.9245499968528748
1698079809605884000,4.6638837890625,-0.7536374926567078,1.8239375352859497,-1.2446500062942505
1698079809615303000,4.673302978515625,-0.984499990940094,2.0047500133514404,-1.6550874710083008
1698079809624721700,4.6827216796875,-1.1970750093460083,2.2270874977111816,-2.1132373809814453
1698079809634140700,4.692140625,-1.3486000299453735,2.5691874027252197,-2.5641000270843506
1698079809643559200,4.70155908203125,-1.4169374704360962,2.790287494659424,-2.9464874267578125
1698079809652978200,4.710978271484375,-1.3094124794006348,2.713287591934204,-3.2030625343322754
1698079809662397000,4.72039697265625,-0.9637374877929688,2.4421374797821045,-3.319112539291382
1698079809671816000,4.72981591796875,-0.39806249737739563,2.139087438583374,-3.3691625595092773
1698079809681234700,4.739234619140625,0.21285000443458557,1.9925124645233154,-3.3826375007629395
1698079809690653400,4.7486533203125,0.7235249876976013,1.784887433052063,-3.3483998775482178
1698079809700072200,4.758072265625,0.9311500191688538,2.260087490081787,-3.206637382507324
1698079809709491200,4.7674912109375,0.9934374690055847,3.006574869155884,-3.0355875492095947
1698079809718910000,4.776909912109375,0.8798624873161316,3.4537250995635986,-2.9220125675201416
1698079809728328700,4.78632861328125,0.7503374814987183,3.2093875408172607,-2.8963000774383545
1698079809737747500,4.79574755859375,0.7258625030517578,2.3187999725341797,-2.88777494430542
1698079809747166200,4.805166259765625,0.8163374662399292,1.3107874393463135,-2.750962495803833
1698079809756585200,4.814585205078125,0.9983875155448914,0.7268249988555908,-2.457812547683716
1698079809766004000,4.82400390625,1.1864874362945557,0.18191249668598175,-2.146237373352051
1698079809775423000,4.833423095703125,1.3392499685287476,-0.30799999833106995,-1.9446624517440796
1698079809784841700,4.842841796875,1.3612500429153442,-0.3568125069141388,-1.8554250001907349
1698079809794260500,4.852260498046875,1.3087249994277954,0.04262499883770943,-1.872612476348877
1698079809803679200,4.86167919921875,1.2280124425888062,0.9565874934196472,-1.9311875104904175
1698079809813098200,4.87109814453125,1.114437460899353,2.020699977874756,-1.9349000453948975
1698079809822517000,4.88051708984375,1.039912462234497,2.8074750900268555,-1.893375039100647
1698079809831935700,4.889935791015625,0.995912492275238,3.24114990234375,-1.7858500480651855
1698079809841354800,4.899354736328125,0.9751499891281128,3.3926749229431152,-1.6526124477386475
1698079809850773500,4.9087734375,1.01419997215271,3.3291499614715576,-1.5243250131607056
1698079809860192500,4.918192626953125,1.0911999940872192,2.957624912261963,-1.3337500095367432
1698079809869611300,4.927611328125,1.1742500066757202,2.426187515258789,-1.090649962425232
1698079809879030000,4.937030029296875,1.2072499990463257,1.639412522315979,-0.8194999694824219
1698079809888448800,4.94644873046875,1.1474374532699585,0.8062999844551086,-0.612975001335144
1698079809897867500,4.955867431640625,1.03496253490448,0.2063875049352646,-0.521399974822998
1698079809907286500,4.96528662109375,0.9153375029563904,-0.1845249980688095,-0.4809750020503998
1698079809916705300,4.974705322265625,0.7601000070571899,-0.3885749876499176,-0.4516874849796295
1698079809926124000,4.9841240234375,0.5780500173568726,-0.4398624897003174,-0.33082500100135803
1698079809935542800,4.993542724609375,0.39476248621940613,-0.37386250495910645,-0.1340624988079071
1698079809944961800,5.0029619140625,0.20308749377727509,-0.20047499239444733,0.11027500033378601
1698079809954380800,5.012380859375,-0.0009624999947845936,0.057337500154972076,0.328900009393692
1698079809963799600,5.021799560546875,-0.19772499799728394,0.46543750166893005,0.5183749794960022
1698079809973218300,5.03121826171875,-0.3723500072956085,0.8953999876976013,0.7039999961853027
1698079809982637300,5.04063720703125,-0.5178250074386597,1.2595000267028809,0.9055749773979187
1698079809992056000,5.05005615234375,-0.6056874990463257,1.4378374814987183,1.1584374904632568
1698079810001474600,5.059474609375,-0.6936874985694885,1.42683744430542,1.4895374774932861
1698079810010893300,5.068893310546875,-0.779212474822998,1.2119250297546387,1.9036874771118164
1698079810020312300,5.078312255859375,-0.8586875200271606,0.6217749714851379,2.2642123699188232
1698079810029731300,5.0877314453125,-0.940500020980835,-0.3385249972343445,2.017400026321411
1698079810039150000,5.097150146484375,-0.9429749846458435,-1.638450026512146,0.018699999898672104
1698079810048569000,5.106569091796875,-0.5103999972343445,-1.6200250387191772,-1.6465624570846558
1698079810057987800,5.11598779296875,-0.15372499823570251,-0.7294374704360962,-1.5695624351501465
1698079810067406600,5.125406494140625,0.15537500381469727,-0.35804998874664307,-1.0931249856948853
1698079810076825600,5.13482568359375,0.3764750063419342,-0.3592875003814697,-0.6289250254631042
1698079810086244400,5.144244384765625,0.41676250100135803,-0.4288625121116638,-0.4334000051021576
1698079810095663000,5.1536630859375,0.2824249863624573,-0.4142875075340271,-0.44440001249313354
1698079810105081900,5.163081787109375,0.13942499458789825,-0.3702875077724457,-0.696025013923645
1698079810114500900,5.1725009765625,0.20308749377727509,-0.2750000059604645,-1.2128875255584717
1698079810123919400,5.18191943359375,0.4620000123977661,0.06104999780654907,-1.5903249979019165
1698079810133338600,5.191338623046875,0.8113874793052673,0.8600624799728394,-1.4840375185012817
1698079810142757000,5.200757080078125,1.0997250080108643,1.6821750402450562,-1.137125015258789
1698079810152176000,5.210176025390625,1.318487524986267,1.98027503490448,-0.9050250053405762
1698079810161595000,5.219594970703125,1.5408250093460083,0.7440124750137329,-0.9233124852180481
1698079810171014000,5.229013916015625,1.7912124395370483,-1.168062448501587,-0.49321249127388
1698079810180432600,5.2384326171875,1.9769749641418457,-0.5058624744415283,0.36932501196861267
1698079810189851100,5.24785107421875,1.875499963760376,1.7249374389648438,0.9862874746322632
1698079810199270100,5.257270263671875,1.5713499784469604,3.0810999870300293,1.3417249917984009
1698079810208689400,5.266689453125,1.1791999340057373,3.514775037765503,1.5445375442504883
1698079810218108000,5.27610791015625,0.768625020980835,3.7628250122070312,1.7632999420166016
1698079810227527000,5.28552685546875,0.44618749618530273,4.109737396240234,1.9501625299453735
1698079810236945400,5.2949453125,0.22384999692440033,4.521412372589111,2.0919249057769775
1698079810246364400,5.304364501953125,0.06737499684095383,4.661937236785889,2.1797873973846436
1698079810255783200,5.313783203125,-0.11577499657869339,4.4688873291015625,2.183500051498413
1698079810265202000,5.323201904296875,-0.33934998512268066,3.856874942779541,2.0845000743865967
1698079810274621000,5.332620849609375,-0.5861625075340271,3.1800999641418457,1.9562125205993652
1698079810284040000,5.3420400390625,-0.8244500160217285,2.510474920272827,1.8499250411987305
1698079810293458700,5.351458740234375,-1.0357874631881714,1.6821750402450562,1.6373499631881714
1698079810302877400,5.36087744140625,-1.1628375053405762,1.0261625051498413,1.3039125204086304
1698079810312296200,5.370296142578125,-1.1213124990463257,0.6925874948501587,0.9568625092506409
1698079810321715200,5.379715087890625,-0.9270250201225281,0.8453499674797058,0.706475019454956
1698079810331134000,5.389134033203125,-0.5483499765396118,1.0664499998092651,0.597712516784668
1698079810340552700,5.398552734375,-0.1317249983549118,1.3120249509811401,0.6356624960899353
1698079810349971500,5.407971435546875,0.06737499684095383,1.5918375253677368,0.6172375082969666
1698079810359390200,5.41739013671875,0.08208750188350677,1.8704124689102173,0.48537498712539673
1698079810368809000,5.42680908203125,0.01732499897480011,2.0230374336242676,0.3301374912261963
1698079810378228200,5.436228271484375,-0.08291249722242355,2.031562566757202,0.23732499778270721
1698079810387647000,5.44564697265625,-0.17077499628067017,1.9045125246047974,0.18479999899864197
1698079810397065500,5.4550654296875,-0.21230000257492065,1.735937476158142,0.07479999959468842
1698079810406484700,5.464484619140625,-0.20253749191761017,1.5453624725341797,-0.13158750534057617
1698079810415903500,5.473903564453125,-0.15001249313354492,1.2887874841690063,-0.346637487411499
1698079810425322200,5.483322265625,-0.0681999996304512,1.0091124773025513,-0.47244998812675476
1698079810434741000,5.492740966796875,0.02708750031888485,0.830637514591217,-0.5139750242233276
1698079810444159700,5.50215966796875,0.11013749986886978,0.8453499674797058,-0.5006374716758728
1698079810453578500,5.51157861328125,0.1578499972820282,1.0529749393463135,-0.43216249346733093
1698079810462997200,5.520997314453125,0.14190000295639038,1.4158375263214111,-0.35887500643730164
1698079810472416500,5.53041650390625,0.07713750004768372,1.8947499990463257,-0.30758750438690186
1698079810481835300,5.539835205078125,0.01979999989271164,2.390850067138672,-0.2012999951839447
1698079810491254300,5.549254150390625,-0.02419999986886978,2.517899990081787,-0.03272499889135361
1698079810500673000,5.558673095703125,-0.025437500327825546,1.876462459564209,0.0919874981045723
1698079810510091500,5.568091552734375,0.11866249889135361,0.682824969291687,0.1457500010728836
1698079810519510500,5.577510498046875,0.3422375023365021,0.05252499878406525,0.05403750017285347
1698079810528929500,5.586929443359375,0.5317124724388123,0.26743748784065247,-0.08401250094175339
1698079810538348300,5.596348388671875,0.6635749936103821,0.2320999950170517,-0.17434999346733093
1698079810547767000,5.60576708984375,0.7160999774932861,0.09281250089406967,-0.16458749771118164
1698079810557186000,5.61518603515625,0.7185750007629395,-0.047712501138448715,-0.08758749812841415
1698079810566604800,5.624604736328125,0.7430499792098999,-0.02447500079870224,0.03698749840259552
1698079810576023600,5.6340234375,0.7893875241279602,0.08662500232458115,0.11879999935626984
1698079810585442300,5.6434423828125,0.8163374662399292,0.20391249656677246,0.0882750004529953
1698079810594861300,5.652861328125,0.8138625025749207,0.23691250383853912,-0.09982500225305557
1698079810604280000,5.662280029296875,0.7870500087738037,0.2601499855518341,-0.37716248631477356
1698079810613698800,5.67169873046875,0.7185750007629395,0.42748749256134033,-0.6520249843597412
1698079810623117600,5.68111767578125,0.5915250182151794,0.6792500019073486,-0.9050250053405762
1698079810632536600,5.69053662109375,0.4217124879360199,0.896637499332428,-1.2226500511169434
1698079810641955600,5.69995556640625,0.2311374992132187,1.0872124433517456,-1.6600375175476074
1698079810651374300,5.709374267578125,0.08579999953508377,1.3182125091552734,-2.1034750938415527
1698079810660793000,5.71879296875,0.008799999952316284,1.5343624353408813,-2.4663374423980713
1698079810670211800,5.7282119140625,0.05637500062584877,1.411025047302246,-2.678912401199341
1698079810679630600,5.737630615234375,0.21518750488758087,1.1837375164031982,-2.7044875621795654
1698079810689049300,5.74704931640625,0.43876248598098755,1.032212495803833,-2.5982000827789307
1698079810698468400,5.75646826171875,0.7490999698638916,0.9981124997138977,-2.4308624267578125
1698079810707887400,5.765887451171875,1.135200023651123,1.1874500513076782,-2.2573375701904297
1698079810717305900,5.775305908203125,1.455299973487854,1.5075500011444092,-2.0436625480651855
1698079810726724900,5.784724853515625,1.5798749923706055,1.7066500186920166,-1.744325041770935
1698079810736144000,5.794143798828125,1.484587550163269,1.7249374389648438,-1.3667500019073486
1698079810745562600,5.803562744140625,1.1682000160217285,1.5025999546051025,-0.9391250014305115
1698079810754981400,5.8129814453125,0.7991499900817871,0.8808249831199646,-0.5774999856948853
1698079810764400000,5.822400146484375,0.48647499084472656,-0.10147500038146973,-0.4076874852180481
1698079810773819000,5.83181884765625,0.3801875114440918,-1.202299952507019,-0.6166874766349792
1698079810783238100,5.841238037109375,0.5329499840736389,-1.6152124404907227,-1.1138875484466553
1698079810792657000,5.850656982421875,0.8810999989509583,-1.2608749866485596,-1.7956124544143677
1698079810802075600,5.86007568359375,1.1754875183105469,-0.7319124937057495,-2.423574924468994
1698079810811494400,5.869494384765625,1.3745875358581543,-0.7159624695777893,-2.5371499061584473
1698079810820913400,5.878913330078125,1.3440624475479126,-1.0775874853134155,-1.9874249696731567
1698079810830332200,5.888332275390625,0.9629124999046326,-1.517449975013733,-0.8010749816894531
1698079810839751000,5.8977509765625,0.37290000915527344,-1.534500002861023,0.4351874887943268
1698079810849169700,5.907169677734375,-0.14024999737739563,-1.251112461090088,1.3491499423980713
1698079810858588700,5.916588623046875,-0.43834999203681946,-0.9029625058174133,2.005162477493286
1698079810868007700,5.926007568359375,-0.5618249773979187,-0.559624969959259,2.4865500926971436
1698079810877426400,5.935426513671875,-0.6681125164031982,-0.17352500557899475,2.883512496948242
1698079810886845200,5.94484521484375,-0.857450008392334,0.10381250083446503,3.2439000606536865
1698079810896264000,5.954263916015625,-1.0528374910354614,0.14657500386238098,3.557950019836426
1698079810905683000,5.963682861328125,-1.1885499954223633,-0.047712501138448715,3.755812406539917
1698079810915101400,5.973101318359375,-1.20683753490448,-0.38128748536109924,3.769287586212158
1698079810924520400,5.9825205078125,-1.115262508392334,-0.6854375004768372,3.5787124633789062
1698079810933939200,5.991939208984375,-0.9527375102043152,-0.9127249717712402,3.2439000606536865
1698079810943358200,6.001358154296875,-0.809737503528595,-1.0788249969482422,2.8322250843048096
1698079810952777000,6.01077685546875,-0.7414000034332275,-1.1288750171661377,2.349600076675415
1698079810962196000,6.020196044921875,-0.7621625065803528,-1.0532499551773071,1.8206374645233154
1698079810971614700,6.02961474609375,-0.8414999842643738,-0.9590625166893005,1.2819124460220337
1698079810981033500,6.039033447265625,-0.9514999985694885,-1.2340625524520874,0.650237500667572
1698079810990452500,6.048452392578125,-1.033312439918518,-1.7935500144958496,-0.16101250052452087
1698079810999871200,6.057871337890625,-1.0785499811172485,-2.0648374557495117,-0.8903124928474426
1698079811009290000,6.0672900390625,-1.1530749797821045,-1.3329249620437622,-1.403462529182434
1698079811018708700,6.076708740234375,-1.256887435913086,-0.07095000147819519,-1.8529499769210815
1698079811028127500,6.08612744140625,-1.2923624515533447,1.2314499616622925,-2.0167124271392822
1698079811037546500,6.09554638671875,-1.2251249551773071,2.4018499851226807,-1.462037444114685
1698079811046965200,6.10496533203125,-1.1580250263214111,3.244724988937378,-0.4969249963760376
1698079811056384300,6.11438427734375,-1.002787470817566,3.898400068283081,0.320374995470047
1698079811065803000,6.123802978515625,-0.6973999738693237,3.585587501525879,0.8567624688148499
1698079811075221800,6.1332216796875,-0.36506250500679016,1.2252625226974487,1.0803375244140625
1698079811084640800,6.142640869140625,-0.1060125008225441,-2.400749921798706,1.184149980545044
1698079811094059500,6.1520595703125,0.10656250268220901,-2.4862749576568604,0.9508125185966492
1698079811103478300,6.161478271484375,0.11756250262260437,-2.0488874912261963,0.2947999835014343
1698079811112897000,6.17089697265625,0.02708750031888485,-2.562037467956543,-1.1578874588012695
1698079811122315800,6.180315673828125,0.44123750925064087,-3.6591498851776123,-2.749725103378296
1698079811131734500,6.189734619140625,0.8321499824523926,-2.236987590789795,-1.4607999324798584
1698079811141153500,6.199153564453125,0.8505749702453613,-1.0030624866485596,0.27403751015663147
1698079811150572500,6.208572509765625,0.5560500025749207,0.2956250011920929,0.7052375078201294
1698079811159991300,6.2179912109375,0.1859000027179718,1.018875002861023,0.5183749794960022
1698079811169410300,6.227410400390625,-0.15125000476837158,0.9015874862670898,0.31679999828338623
1698079811178829000,6.2368291015625,-0.2965874969959259,0.3871999979019165,0.4926624894142151
1698079811188247800,6.246247802734375,-0.2307250052690506,-0.8051999807357788,1.0143375396728516
1698079811197666600,6.25566650390625,-0.06091250106692314,-1.4453999996185303,1.2159124612808228
1698079811207085300,6.265085205078125,0.08937499672174454,-0.9957749843597412,0.6014249920845032
1698079811216504300,6.27450439453125,0.11866249889135361,-0.0672374963760376,-0.25382500886917114
1698079811225923300,6.28392333984375,0.05403750017285347,0.4311999976634979,-0.7815499901771545
1698079811235342000,6.293342041015625,0.011274999938905239,0.4311999976634979,-1.0759375095367432
1698079811244760800,6.3027607421875,0.08937499672174454,0.6352499723434448,-1.4364625215530396
1698079811254179800,6.312179931640625,0.281187504529953,1.0456874370574951,-1.8713749647140503
1698079811263598600,6.3215986328125,0.5255249738693237,1.4317874908447266,-2.1852874755859375
1698079811273017300,6.331017333984375,0.8175749778747559,1.6920750141143799,-2.3991000652313232
1698079811282436000,6.34043603515625,1.1449625492095947,1.950987458229065,-2.523674964904785
1698079811291855000,6.349855224609375,1.4430625438690186,2.1245124340057373,-2.4161500930786133
1698079811301274000,6.359274169921875,1.633637547492981,2.366374969482422,-2.082712411880493
1698079811310692900,6.36869287109375,1.7118749618530273,2.6229500770568848,-1.7381374835968018
1698079811320111600,6.378111572265625,1.6654000282287598,2.8660500049591064,-1.4607999324798584
1698079811329530400,6.3875302734375,1.393012523651123,2.947862386703491,-1.2091749906539917
1698079811338949000,6.39694921875,0.9201499819755554,2.289375066757202,-0.9318374991416931
1698079811348368100,6.4063681640625,0.39476248621940613,1.68464994430542,-0.6557375192642212
1698079811357787000,6.415786865234375,0.0038499999791383743,1.1593999862670898,-0.2770625054836273
1698079811367206000,6.425205810546875,-0.09501250088214874,0.5582500100135803,-0.08635000139474869
1698079811376624600,6.434624755859375,0.20913749933242798,-0.13199999928474426,-0.10353749990463257
1698079811386043600,6.444043701171875,0.6392375230789185,-0.5193374752998352,-0.3441624939441681
1698079811395462400,6.45346240234375,0.9274374842643738,-0.4483875036239624,-0.639787495136261
1698079811404881200,6.462881103515625,1.0874874591827393,-0.00976249948143959,-0.9293624758720398
1698079811414300000,6.4722998046875,1.2414875030517578,0.2283875048160553,-1.0723625421524048
1698079811423718700,6.48171875,1.438112497329712,-0.1588124930858612,-0.8425999879837036
1698079811433137700,6.4911376953125,1.5443999767303467,-0.8197749853134155,-0.0668250024318695
1698079811442556400,6.500556396484375,1.3208249807357788,-1.3096874952316284,1.204912543296814
1698079811451975400,6.509975341796875,0.7185750007629395,-1.4453999996185303,2.399787425994873
1698079811461394000,6.519393798828125,-0.08401250094175339,-1.5186874866485596,3.1682748794555664
1698079811470813000,6.52881298828125,-0.591112494468689,-1.771549940109253,3.511475086212158
1698079811480231700,6.538231689453125,-0.8794500231742859,-2.22475004196167,3.5859999656677246
1698079811489650700,6.547650634765625,-1.045549988746643,-2.5938000679016113,3.414949893951416
1698079811499069400,6.5570693359375,-1.1090749502182007,-2.658562421798706,2.984987497329712
1698079811508488200,6.56648828125,-1.0443124771118164,-2.5302748680114746,2.4865500926971436
1698079811517907200,6.5759072265625,-0.92826247215271,-2.310275077819824,2.206737518310547
1698079811527325700,6.58532568359375,-0.8379250168800354,-2.063462495803833,2.0809249877929688
1698079811536744700,6.59474462890625,-0.7669749855995178,-1.568737506866455,1.9331125020980835
1698079811546163700,6.604163818359375,-0.6986374855041504,-0.9029625058174133,1.6447750329971313
1698079811555582700,6.613582763671875,-0.6008750200271606,-0.49857500195503235,1.1291500329971313
1698079811565001500,6.62300146484375,-0.5421624779701233,-0.31776249408721924,0.4328500032424927
1698079811574420200,6.632420166015625,-0.5508249998092651,-0.1307625025510788,-0.20006249845027924
1698079811583839000,6.6418388671875,-0.6045874953269958,0.15386250615119934,-0.5824499726295471
1698079811593257700,6.6512578125,-0.7144500017166138,1.1178749799728394,-0.7070249915122986
1698079811602676700,6.6606767578125,-0.8940249681472778,2.594899892807007,-0.6337375044822693
1698079811612095200,6.67009521484375,-1.0712624788284302,3.924112558364868,-0.30758750438690186
1698079811621514200,6.67951416015625,-1.1677875518798828,4.489787578582764,0.01251249946653843
1698079811630933200,6.688933349609375,-1.1518374681472778,4.046212673187256,0.04427500069141388
1698079811640352000,6.69835205078125,-1.0210750102996826,2.924762487411499,-0.17682500183582306
1698079811649770800,6.707770751953125,-0.8366875052452087,1.3059749603271484,-0.4907374978065491
1698079811659189800,6.717189697265625,-0.5300624966621399,-1.0287749767303467,-0.33563750982284546
1698079811668608500,6.7266083984375,0.17242500185966492,-3.2840499877929688,0.16403749585151672
1698079811678027300,6.73602734375,0.7345250248908997,-4.267449855804443,0.1457500010728836
1698079811687446000,6.745446044921875,1.0789624452590942,-5.71037483215332,-1.102887511253357
1698079811696865000,6.754864990234375,1.3307249546051025,-5.286462306976318,-3.3886873722076416
1698079811706283800,6.76428369140625,1.3233000040054321,-3.2338624000549316,-4.005650043487549
1698079811715702500,6.77370263671875,1.3843499422073364,-1.3794000148773193,-2.146237373352051
1698079811725121500,6.78312158203125,1.377062439918518,1.136162519454956,-0.18782499432563782
1698079811734540300,6.792540283203125,1.0411499738693237,3.245962381362915,0.5696625113487244
1698079811743959300,6.801959228515625,0.4179999828338623,4.264975070953369,0.570900022983551
1698079811753378000,6.8113779296875,-0.18672500550746918,4.207499980926514,0.008937500417232513
1698079811762796800,6.820796875,-0.4763000011444092,3.77382493019104,-0.9575499892234802
1698079811772215600,6.830215576171875,-0.4030124843120575,3.0102875232696533,-1.8884249925613403
1698079811781634600,6.839634521484375,-0.12925000488758087,2.0780375003814697,-2.3783373832702637
1698079811791053300,6.84905322265625,0.2628999948501587,1.281499981880188,-2.51886248588562
1698079811800472300,6.858472412109375,0.668524980545044,0.6705874800682068,-2.6459124088287354
1698079811809891000,6.86789111328125,0.9678624868392944,0.3359124958515167,-2.9647750854492188
1698079811819310000,6.87731005859375,1.1499124765396118,0.5655375123023987,-3.1370625495910645
1698079811828728800,6.886728759765625,1.280537486076355,1.1679250001907349,-2.87072491645813
1698079811838147600,6.896147705078125,1.3233000040054321,1.5758874416351318,-2.351525068283081
1698079811847566300,6.90556640625,1.1302499771118164,1.5845500230789185,-1.8456624746322632
1698079811856985300,6.9149853515625,0.6635749936103821,1.0224499702453613,-1.47798752784729
1698079811866404000,6.924404052734375,0.12484999746084213,0.31267499923706055,-1.3472249507904053
1698079811875822800,6.93382275390625,-0.10848750174045563,0.14904999732971191,-1.47798752784729
1698079811885241900,6.943241943359375,0.04908749833703041,0.2870999872684479,-1.7381374835968018
1698079811894660600,6.95266064453125,0.4571875035762787,0.5729625225067139,-1.8431874513626099
1698079811904079600,6.96207958984375,0.9274374842643738,0.5570124983787537,-1.6123249530792236
1698079811913498400,6.971498291015625,1.327012538909912,0.11110000312328339,-1.0430749654769897
1698079811922917000,6.980917236328125,1.5285874605178833,-0.340862512588501,-0.346637487411499
1698079811932335900,6.9903359375,1.4320625066757202,-0.6549124717712402,0.44013750553131104
1698079811941754600,6.999754638671875,1.0753874778747559,-0.8222500085830688,1.3576749563217163
1698079811951173400,7.00917333984375,0.5242875218391418,-0.8760125041007996,2.3900249004364014
1698079811960592400,7.01859228515625,-0.05967500060796738,-0.778249979019165,3.3111374378204346
1698079811970011100,7.02801123046875,-0.5983999967575073,-0.6011499762535095,3.9378623962402344
1698079811979430100,7.03743017578125,-0.9710249900817871,-0.432574987411499,4.237199783325195
1698079811988849200,7.04684912109375,-1.0724999904632568,-0.47286251187324524,4.246962547302246
1698079811998267600,7.056267578125,-0.9832624793052673,-0.7856749892234802,4.052674770355225
1698079812007686700,7.065686767578125,-0.8599249720573425,-1.1923999786376953,3.744812488555908
1698079812017105400,7.07510546875,-0.8084999918937683,-1.4746874570846558,3.4126124382019043
1698079812026524200,7.084524169921875,-0.8292624950408936,-1.6542625427246094,3.1145124435424805
1698079812035943000,7.09394287109375,-0.8525000214576721,-1.7935500144958496,2.8432250022888184
1698079812045362000,7.10336181640625,-0.8842625021934509,-1.9498875141143799,2.53659987449646
1698079812054780700,7.11278076171875,-0.8586875200271606,-1.9156500101089478,2.071162462234497
1698079812064199400,7.122199462890625,-0.8146874904632568,-1.7776000499725342,1.379675030708313
1698079812073618400,7.131618408203125,-0.7951624989509583,-1.7972625494003296,0.47795000672340393
1698079812083037200,7.141037109375,-0.7572125196456909,-2.047650098800659,-0.5751624703407288
1698079812092456200,7.150456298828125,-0.6179249882698059,-2.173462390899658,-1.7223249673843384
1698079812101875000,7.159875,-0.3503499925136566,-1.5125000476837158,-2.5371499061584473
1698079812111293700,7.169293701171875,-0.15496249496936798,0.23938749730587006,-2.09728741645813
1698079812120712700,7.178712646484375,-0.26001250743865967,2.422612428665161,-0.8402624726295471
1698079812130131500,7.18813134765625,-0.5495874881744385,4.407837390899658,0.10051249712705612
1698079812139550500,7.197550537109375,-0.8549749851226807,5.374187469482422,0.4816625118255615
1698079812148969000,7.206968994140625,-1.1885499954223633,4.6265997886657715,0.4388999938964844
1698079812158388000,7.216387939453125,-1.2935999631881714,2.396899938583374,0.47795000672340393
1698079812167807000,7.225806884765625,-0.6276875138282776,0.3371500074863434,0.8420500159263611
1698079812177225700,7.235225830078125,0.3129499852657318,-1.722737431526184,0.9568625092506409
1698079812186644500,7.24464453125,0.8628125190734863,-3.744537591934204,0.8945749998092651
1698079812196063200,7.254063232421875,0.9189124703407288,-4.895412445068359,-0.04606249928474426
1698079812205482200,7.263482177734375,0.7063375115394592,-2.5730373859405518,-1.5560874938964844
1698079812214901000,7.27290087890625,0.5805249810218811,-1.2218250036239624,-1.6928999423980713
1698079812224319700,7.28231982421875,0.5292375087738037,-0.2540999948978424,-0.8133124709129333
1698079812233738500,7.291738525390625,0.392425000667572,0.559487521648407,-0.15234999358654022
1698079812243157800,7.30115771484375,0.11013749986886978,1.264449954032898,-0.1621125042438507
1698079812252576500,7.310576416015625,-0.011962499469518661,1.8459374904632568,-1.133412480354309
1698079812261995300,7.319995361328125,-0.01691249944269657,2.1550374031066895,-2.2660000324249268
1698079812271414000,7.3294140625,0.17861250042915344,1.3365000486373901,-2.6116750240325928
1698079812280832800,7.338832763671875,0.4497624933719635,0.7463499903678894,-2.5273873805999756
1698079812290251500,7.34825146484375,0.7320500016212463,0.5655375123023987,-2.39662504196167
1698079812299670500,7.35767041015625,0.9946749806404114,0.40796250104904175,-2.3307623863220215
1698079812309089500,7.367089599609375,1.1694375276565552,0.6645374894142151,-2.2292873859405518
1698079812318508300,7.37650830078125,1.2670625448226929,1.2669249773025513,-1.977662444114685
1698079812327927300,7.38592724609375,1.2732499837875366,1.784887433052063,-1.635562539100647
1698079812337346000,7.395345947265625,1.0594375133514404,1.9034124612808228,-1.2726999521255493
1698079812346764800,7.404764892578125,0.5219500064849854,1.9657000303268433,-0.9073625206947327
1698079812356183600,7.41418359375,-0.07919999957084656,1.8044124841690063,-0.5702124834060669
1698079812365602300,7.423602294921875,-0.533637523651123,1.2179750204086304,-0.468874990940094
1698079812375021000,7.43302099609375,-0.6901124715805054,0.476437509059906,-0.5152124762535095
1698079812384440000,7.442440185546875,-0.5031124949455261,-0.0952875018119812,-0.6777374744415283
1698079812393859000,7.451859130859375,-0.008387500420212746,-0.44110000133514404,-0.8963624835014343
1698079812403277600,7.461277587890625,0.5047624707221985,-0.7734375,-1.0759375095367432
1698079812412696600,7.470696533203125,0.9409124851226807,-1.2571624517440796,-1.1444125175476074
1698079812422115600,7.480115478515625,1.3660625219345093,-1.660312533378601,-1.0551749467849731
1698079812431534300,7.489534423828125,1.8339749574661255,-1.9914125204086304,-0.7022125124931335
1698079812440953000,7.498953125,2.024549961090088,-2.3297998905181885,0.1555124968290329
1698079812450371800,7.508371826171875,1.4235374927520752,-1.8961249589920044,1.608062505722046
1698079812459790600,7.51779052734375,0.2994749844074249,-0.6646749973297119,3.0105624198913574
1698079812469209300,7.527209228515625,-0.8159250020980835,0.4422000050544739,3.8658125400543213
1698079812478628400,7.53662841796875,-1.3289375305175781,1.1044000387191772,4.101624965667725
1698079812488047400,7.54604736328125,-1.289887547492981,1.1422125101089478,3.8988125324249268
1698079812497466400,7.55546630859375,-1.0528374910354614,0.7635374665260315,3.5664749145507812
1698079812506885000,7.564885009765625,-0.8842625021934509,0.2516250014305115,3.3636624813079834
1698079812516304000,7.574303955078125,-0.8207374811172485,-0.15523749589920044,3.235374927520752
1698079812525722600,7.58372265625,-0.848924994468689,-0.2540999948978424,3.039987564086914
1698079812535141600,7.5931416015625,-0.9270250201225281,-0.05252499878406525,2.756462574005127
1698079812544560400,7.602560302734375,-1.002787470817566,0.3371500074863434,2.4095499515533447
1698079812553979100,7.611979248046875,-1.037024974822998,0.7732999920845032,2.04544997215271
1698079812563398000,7.62139794921875,-1.0835000276565552,1.1691625118255615,1.7388249635696411
1698079812572817000,7.63081689453125,-1.18607497215271,1.381737470626831,1.5750625133514404
1698079812582236000,7.64023583984375,-1.272837519645691,1.4085500240325928,1.5189625024795532
1698079812591654700,7.649654541015625,-1.315600037574768,1.5465999841690063,1.4357750415802002
1698079812601073400,7.659073486328125,-1.3106499910354614,1.9827499389648438,1.3149124383926392
1698079812610492200,7.6684921875,-1.277649998664856,2.469087600708008,1.206149935722351
1698079812619911000,7.677910888671875,-1.2618374824523926,2.7414748668670654,0.9678624868392944
1698079812629330000,7.687329833984375,-1.2423125505447388,2.954050064086914,0.27156248688697815
1698079812638748400,7.69674853515625,-1.0736000537872314,3.1226248741149902,-0.5872625112533569
1698079812648167400,7.70616748046875,-0.8439750075340271,3.975399971008301,-0.9281250238418579
1698079812657586400,7.71558642578125,-0.6106374859809875,3.7347750663757324,-1.0271250009536743
1698079812667005200,7.725005126953125,-0.258774995803833,2.3529000282287598,-1.0088374614715576
1698079812676424200,7.734424072265625,0.2494249939918518,-0.23457500338554382,-0.2733500003814697
1698079812685843000,7.743843017578125,0.7088124752044678,-0.6231499910354614,0.47561249136924744
1698079812695261700,7.75326171875,0.9581000208854675,-0.20047499239444733,0.3363249897956848
1698079812704680400,7.762680419921875,0.9861499667167664,0.6987749934196472,-0.3161124885082245
1698079812714099200,7.77209912109375,0.8883875012397766,1.5160750150680542,-1.0296000242233276
1698079812723518000,7.78151806640625,0.7833374738693237,1.0224499702453613,-1.6282750368118286
1698079812732937000,7.79093701171875,0.6330500245094299,-0.037950001657009125,-1.0674124956130981
1698079812742355700,7.800355712890625,0.392425000667572,1.0652124881744385,-0.147537499666214
1698079812751774700,7.809774658203125,0.2971374988555908,2.4164249897003174,0.13227500021457672
1698079812761193500,7.819193359375,0.07590000331401825,3.472012519836426,0.1237500011920929
1698079812770612200,7.8286123046875,-0.18424999713897705,4.390787601470947,0.17379999160766602
1698079812780031200,7.83803125,-0.4542999863624573,5.023562431335449,0.2971374988555908
1698079812789450000,7.847449951171875,-0.7034500241279602,5.23256254196167,0.4156624972820282
1698079812798868700,7.85686865234375,-0.8525000214576721,4.709650039672852,0.46213749051094055
1698079812808287700,7.866287841796875,-0.7853999733924866,2.296799898147583,0.2470874935388565
1698079812817706800,7.875706787109375,-0.4138749837875366,-1.4367375373840332,-0.521399974822998
1698079812827125500,7.88512548828125,0.17613749206066132,-1.4124000072479248,-1.1811250448226929
1698079812836544300,7.894544189453125,0.9616749882698059,-0.7807250022888184,-1.906712532043457
1698079812845963000,7.903962890625,1.375825047492981,-0.8724374771118164,-2.500575065612793
1698079812855382000,7.913382080078125,1.5090625286102295,-0.5046250224113464,-2.9207749366760254
1698079812864800800,7.92280078125,1.5358749628067017,-0.01718750037252903,-3.2518749237060547
1698079812874219500,7.932219482421875,1.5138750076293945,0.30896249413490295,-3.40339994430542
1698079812883638300,7.94163818359375,1.4613499641418457,0.21615000069141388,-3.3411123752593994
1698079812893057300,7.951057373046875,1.4735875129699707,0.06833750009536743,-3.254349946975708
1698079812902476300,7.960476318359375,1.5969250202178955,0.03904999792575836,-3.1138250827789307
1698079812911895000,7.96989501953125,1.8119750022888184,0.04386249929666519,-2.871962547302246
1698079812921313800,7.979313720703125,2.0477874279022217,0.15015000104904175,-2.5103375911712646
1698079812930732500,7.988732666015625,2.240837574005127,0.09404999762773514,-2.1010000705718994
1698079812940151600,7.998151611328125,2.3458874225616455,-0.23704999685287476,-1.6465624570846558
1698079812949570300,8.0075703125,2.1675500869750977,-0.6866750121116638,-1.3386999368667603
1698079812958989300,8.0169892578125,1.7679749727249146,-1.0543500185012817,-1.2506999969482422
1698079812968407800,8.02640771484375,1.4320625066757202,-0.8357250094413757,-1.1932250261306763
1698079812977826800,8.035826904296876,1.4430625438690186,-0.18095000088214874,-0.9575499892234802
1698079812987245600,8.04524560546875,1.5443999767303467,0.4104374945163727,-0.5286874771118164
1698079812996664600,8.05466455078125,1.5688749551773071,0.9223499894142151,0.006462499964982271
1698079813006083300,8.064083251953125,1.5163500308990479,1.338974952697754,0.5451874732971191
1698079813015502300,8.07350244140625,1.4235374927520752,1.6113624572753906,1.013100028038025
1698079813024921000,8.082921142578124,1.3355374336242676,1.7824125289916992,1.375962495803833
1698079813034339800,8.09233984375,1.2854875326156616,1.8299875259399414,1.6312999725341797
1698079813043758800,8.1017587890625,1.226775050163269,1.7554625272750854,1.7498250007629395
1698079813053177600,8.111177490234375,1.2035374641418457,1.7408875226974487,1.6911125183105469
1698079813062596000,8.12059619140625,1.1816749572753906,1.7579374313354492,1.547012448310852
1698079813072015000,8.13001513671875,1.1290124654769897,1.6736500263214111,1.3942500352859497
1698079813081434000,8.13943408203125,1.0533875226974487,1.4990249872207642,1.2599124908447266
1698079813090852900,8.148852783203125,0.9506750106811523,1.206974983215332,1.1316249370574951
1698079813100271600,8.158271728515626,0.8346250057220459,0.8013499975204468,0.9948124885559082
1698079813109690600,8.167690673828124,0.7198125123977661,0.42143750190734863,0.8457624912261963
1698079813119109400,8.177109375,0.6208124756813049,0.16362500190734863,0.7052375078201294
1698079813128528100,8.186528076171875,0.5365250110626221,0.04633750021457672,0.6074749827384949
1698079813137947100,8.195947021484375,0.4632374942302704,0.0085249999538064,0.5684249997138977
1698079813147366000,8.205365966796874,0.38747498393058777,-0.00013749999925494194,0.6221874952316284
1698079813156785000,8.214784912109375,0.3044250011444092,-0.02447500079870224,0.7992874979972839
1698079813166203600,8.22420361328125,0.1821874976158142,-0.015949999913573265,1.1108624935150146
1698079813175622700,8.23362255859375,-0.018149999901652336,0.170912504196167,1.4444375038146973
1698079813185041400,8.24304150390625,-0.2917749881744385,0.5447750091552734,1.5775375366210938
1698079813194460200,8.252460205078124,-0.6033499836921692,1.3182125091552734,0.860337495803833
1698079813203879000,8.26187890625,-0.8122124671936035,2.4653749465942383,-0.9305999875068665
1698079813213297700,8.271297607421875,-0.5568749904632568,2.462899923324585,-1.6733750104904175
1698079813222716700,8.280716552734376,0.13337500393390656,1.4220249652862549,-0.9708874821662903
1698079813232135200,8.29013525390625,0.8810999989509583,0.14038750529289246,-0.29411250352859497
1698079813241554200,8.29955419921875,1.1950124502182007,-0.9579625129699707,0.011274999938905239
1698079813250973200,8.30897314453125,0.865149974822998,-1.5504499673843384,0.20803749561309814
1698079813260392000,8.318391845703125,0.19208750128746033,-1.6066875457763672,0.2825624942779541
1698079813269810700,8.327810791015626,-0.1280124932527542,-1.6054500341415405,0.11275000125169754
1698079813279229700,8.337229736328124,-0.025437500327825546,-1.5003999471664429,-0.5091624855995178
1698079813288648400,8.3466484375,0.4057624936103821,-1.3158749341964722,-1.4669874906539917
1698079813298067200,8.356067138671875,0.8761500120162964,-1.2791625261306763,-2.385624885559082
1698079813307486200,8.365486328125,1.1071499586105347,-0.9383000135421753,-2.901249885559082
1698079813316905000,8.374905029296874,0.8395749926567078,-0.11742500215768814,-2.1547625064849854
1698079813326324000,8.384323974609375,0.11756250262260437,0.682824969291687,-0.5249750018119812
1698079813335742700,8.39374267578125,-0.5971624851226807,1.2557874917984009,0.8090500235557556
1698079813345161700,8.40316162109375,-0.9624999761581421,1.818987488746643,1.3919124603271484
1698079813354580500,8.41258056640625,-1.0089750289916992,2.349324941635132,1.3173874616622925
1698079813363999200,8.421999267578125,-0.7779750227928162,2.9638125896453857,0.904337465763092
1698079813373418000,8.43141796875,-0.39682498574256897,3.7871625423431396,0.7309499979019165
1698079813382836700,8.440836669921875,0.11384999752044678,4.9722747802734375,1.192674994468689
1698079813392255500,8.45025537109375,0.6843374967575073,6.39196252822876,1.9159250259399414
1698079813401674800,8.4596748046875,1.0631500482559204,7.553699970245361,2.523124933242798
1698079813411093500,8.469093505859375,1.0839124917984009,8.163374900817871,2.9165124893188477
1698079813420512300,8.47851220703125,0.8408125042915344,8.064374923706055,3.06927490234375
1698079813429931300,8.48793115234375,0.5292375087738037,7.263024806976318,3.1706125736236572
1698079813439350000,8.49735009765625,0.09556250274181366,6.159725189208984,3.236612558364868
1698079813448768800,8.506768798828125,-0.25148749351501465,5.471950054168701,3.153562545776367
1698079813458187500,8.5161875,-0.444537490606308,5.132325172424316,2.8627500534057617
1698079813467606500,8.5256064453125,-0.521399974822998,4.746224880218506,2.5206499099731445
1698079813477025300,8.535025390625,-0.508062481880188,4.291787624359131,2.196974992752075
1698079813486444300,8.5444443359375,-0.4358749985694885,3.843400001525879,1.9526374340057373
1698079813495862800,8.55386279296875,-0.32958748936653137,3.486725091934204,1.8671125173568726
1698079813505281800,8.56328173828125,-0.2367749959230423,3.2484374046325684,1.8805874586105347
1698079813514700500,8.572700439453126,-0.13667500019073486,3.0408124923706055,1.9758750200271606
1698079813524119600,8.58211962890625,-0.0742499977350235,2.679187536239624,2.1199750900268555
1698079813533538300,8.591538330078125,-0.08772499859333038,2.4884750843048096,2.266550064086914
1698079813542957300,8.600957275390625,-0.1280124932527542,2.5814249515533447,2.3533124923706055
1698079813552376000,8.6103759765625,-0.12677499651908875,2.697474956512451,2.309312582015991
1698079813561794800,8.619794921875,-0.07919999957084656,2.7170000076293945,2.127262592315674
1698079813571213600,8.629213623046875,-0.0193875003606081,2.588712453842163,1.870687484741211
1698079813580632300,8.63863232421875,0.011274999938905239,2.3773748874664307,1.5885374546051025
1698079813590051300,8.64805126953125,-0.009487500414252281,2.275899887084961,1.3369125127792358
1698079813599470300,8.65747021484375,-0.04867500066757202,2.091512441635132,1.175624966621399
1698079813608889000,8.66688916015625,-0.05596249923110008,1.7836500406265259,1.0986249446868896
1698079813618307800,8.676307861328125,-0.04372499883174896,1.6321250200271606,1.1035749912261963
1698079813627726800,8.685726806640625,-0.04138749837875366,1.6895999908447266,1.1609125137329102
1698079813637145600,8.6951455078125,-0.05843750014901161,2.0218000411987305,1.2318625450134277
1698079813646564400,8.704564453125,-0.09872499853372574,2.5557124614715576,1.27943754196167
1698079813655983000,8.713983154296875,-0.1451999992132187,3.1701998710632324,1.2428624629974365
1698079813665402000,8.723402099609375,-0.21848750114440918,3.760349988937378,1.1071499586105347
1698079813674821000,8.732821044921875,-0.30524998903274536,4.295499801635742,0.9288125038146973
1698079813684240000,8.742239990234374,-0.3821125030517578,4.565412521362305,0.7662875056266785
1698079813693658600,8.75165869140625,-0.45787498354911804,4.511650085449219,0.6404749751091003
1698079813703077400,8.761077392578125,-0.5153499841690063,4.278312683105469,0.5831375122070312
1698079813712496000,8.77049609375,-0.521399974822998,3.9472124576568604,0.6209499835968018
1698079813721915100,8.7799150390625,-0.47382500767707825,3.528249979019165,0.7357624769210815
1698079813731333600,8.789333740234374,-0.3797749876976013,3.0848124027252197,0.9117624759674072
1698079813740752600,8.798752685546875,-0.27101248502731323,2.6619999408721924,1.135337471961975
1698079813750171600,8.808171630859375,-0.16101250052452087,2.2978999614715576,1.3369125127792358
1698079813759590400,8.81759033203125,-0.05348749831318855,2.0414624214172363,1.433437466621399
1698079813769009200,8.827009033203124,0.04908749833703041,1.8947499990463257,1.3784375190734863
1698079813778428200,8.83642822265625,0.13708749413490295,1.7371749877929688,1.2086249589920044
1698079813787847000,8.845846923828125,0.17737500369548798,1.5185500383377075,1.030287504196167
1698079813797265700,8.855265625,0.16266250610351562,1.2399749755859375,0.9765250086784363
1698079813806684700,8.8646845703125,0.11756250262260437,0.9944000244140625,1.0791000127792358
1698079813816103400,8.874103515625,0.025849999859929085,0.8331124782562256,1.1694375276565552
1698079813825522200,8.883522216796875,-0.040150001645088196,0.7915874719619751,0.9765250086784363
1698079813834941200,8.892941162109375,-0.04496249929070473,0.757349967956543,0.5219500064849854
1698079813844360000,8.90235986328125,0.018562499433755875,0.6047250032424927,-0.0424874983727932
1698079813853779000,8.911779052734374,0.07108750194311142,0.3371500074863434,-0.5299249887466431
1698079813863197700,8.92119775390625,0.11013749986886978,0.047575000673532486,-0.8170250058174133
1698079813872616400,8.930616455078125,0.08937499672174454,-0.2835249900817871,-0.8425999879837036
1698079813882035500,8.940035400390625,0.0625625029206276,-0.524150013923645,-0.7693125009536743
1698079813891454200,8.9494541015625,0.04661250114440918,-0.5926250219345093,-0.7534999847412109
1698079813900873000,8.958873046875,-0.08401250094175339,-0.5046250224113464,-0.8610249757766724
1698079813910291700,8.968291748046875,-0.24296249449253082,-0.47657498717308044,-1.1016499996185303
1698079813919710500,8.97771044921875,-0.32725000381469727,-0.5229125022888184,-1.4595625400543213
1698079813929129700,8.987129638671876,-0.35653749108314514,-0.5791500210762024,-1.9177124500274658
1698079813938548500,8.996548583984374,-0.36134999990463257,-0.5938624739646912,-2.4785749912261963
1698079813947967200,9.00596728515625,-0.4090625047683716,-0.4386250078678131,-3.056349992752075
1698079813957386000,9.015385986328125,-0.4628250002861023,-0.28600001335144043,-3.600024938583374
1698079813966805000,9.024804931640626,-0.508062481880188,-0.34581249952316284,-4.0569376945495605
1698079813976223700,9.0342236328125,-0.4078249931335449,-0.29205000400543213,-4.389275074005127
1698079813985642500,9.043642578125,-0.23196250200271606,0.5960624814033508,-4.369750022888184
1698079813995061200,9.053061279296875,-0.015675000846385956,1.7249374389648438,-4.049650192260742
1698079814004480300,9.062480224609375,0.3398999869823456,2.3651375770568848,-3.6745500564575195
1698079814013899000,9.07189892578125,0.6465250253677368,2.9930999279022217,-3.353212594985962
1698079814023318000,9.081318115234374,0.7258625030517578,3.106674909591675,-3.214062452316284
1698079814032736800,9.09073681640625,0.7638124823570251,2.917337417602539,-3.0991125106811523
1698079814042155500,9.100155517578125,0.8188124895095825,2.721950054168701,-2.9587249755859375
1698079814051574300,9.10957421875,0.8028625249862671,1.985224962234497,-2.820537567138672
1698079814060993000,9.118992919921874,0.939674973487854,0.8856375217437744,-2.678912401199341
1698079814070412000,9.128412109375,1.171774983406067,-0.3335750102996826,-2.545675039291382
1698079814079831000,9.1378310546875,1.385587453842163,-1.0080125331878662,-2.476099967956543
1698079814089249800,9.147249755859375,1.643399953842163,-1.2168749570846558,-2.5738625526428223
1698079814098668500,9.15666845703125,1.8279249668121338,-1.0775874853134155,-2.821774959564209
1698079814108087600,9.166087646484375,1.7973999977111816,-0.44714999198913574,-3.0758750438690186
1698079814117506300,9.17550634765625,1.612874984741211,0.594962477684021,-3.2861125469207764
1698079814126925300,9.18492529296875,1.3110624551773071,1.6553624868392944,-3.254349946975708
1698079814136344000,9.194343994140626,1.005674958229065,2.3823249340057373,-2.968487501144409
1698079814145762800,9.2037626953125,0.7368624806404114,2.7279999256134033,-2.421099901199341
1698079814155181600,9.213181640625,0.46076250076293945,2.7878124713897705,-1.7773250341415405
1698079814164600600,9.2226005859375,0.24089999496936798,2.684000015258789,-1.1175999641418457
1698079814174019600,9.23201953125,0.10408750176429749,2.630237579345703,-0.5444999933242798
1698079814183438300,9.241438232421874,-0.0034374999813735485,2.410374879837036,-0.09377499669790268
1698079814192857000,9.250857177734375,-0.12677499651908875,1.8826500177383423,0.23127499222755432
1698079814202275800,9.26027587890625,-0.23196250200271606,1.307212471961975,0.46584999561309814
1698079814211694600,9.269694580078125,-0.2539624869823456,0.940637469291687,0.6819999814033508
1698079814221113600,9.279113525390626,-0.18548749387264252,0.8148249983787537,0.8579999804496765
1698079814230532400,9.288532470703124,-0.06696250289678574,0.866112470626831,0.9923374652862549
1698079814239951000,9.297951171875,0.052799999713897705,1.098212480545044,1.1193875074386597
1698079814249369900,9.307369873046875,0.1639000028371811,1.3267375230789185,1.2659624814987183
1698079814258788900,9.316788818359376,0.272662490606308,1.5123624801635742,1.4199625253677368
1698079814268207900,9.326207763671874,0.39723750948905945,1.539312481880188,1.5885374546051025
1698079814277626600,9.335626708984375,0.5414749979972839,1.298550009727478,1.7510625123977661
1698079814287045400,9.34504541015625,0.7038624882698059,0.5937250256538391,1.8939249515533447
1698079814296464100,9.354464111328125,0.7845749855041504,-0.8027250170707703,2.3069748878479004
1698079814305883100,9.363883056640624,0.6733375191688538,-2.7513749599456787,3.2586123943328857
1698079814315302000,9.373302001953125,0.22013749182224274,-4.72807502746582,4.338675022125244
1698079814324721000,9.382720947265625,-0.48730000853538513,-5.136175155639648,4.797924995422363
1698079814334139600,9.3921396484375,-1.0528374910354614,-5.340224742889404,4.295912265777588
1698079814343558700,9.40155859375,-1.2801250219345093,-5.182512283325195,3.0900375843048096
1698079814352977200,9.41097705078125,-1.2508374452590942,-4.517974853515625,1.5604875087738037
1698079814362396200,9.420396240234375,-1.0272624492645264,-3.3413875102996826,0.2947999835014343
1698079814371815000,9.42981494140625,-0.7719249725341797,-2.086699962615967,-0.25987499952316284
1698079814381233700,9.439233642578126,-0.608162522315979,-0.8601999878883362,-0.21834999322891235
1698079814390652400,9.44865234375,-0.5739250183105469,0.2503874897956848,-0.03629999980330467
1698079814400071400,9.458071533203125,-0.582587480545044,1.120212435722351,-0.09982500225305557
1698079814409490200,9.467490234375,-0.5324000120162964,1.7286499738693237,-0.54339998960495
1698079814418909200,9.4769091796875,-0.341825008392334,1.8997000455856323,-1.331412434577942
1698079814428328000,9.486327880859376,0.021037500351667404,1.3792624473571777,-2.0655250549316406
1698079814437747000,9.495746826171874,0.3997125029563904,0.8086374998092651,-2.2037124633789062
1698079814447165700,9.505165771484375,0.5560500025749207,1.8374124765396118,-1.7137999534606934
1698079814456584400,9.51458447265625,0.3936625123023987,4.669362545013428,-1.1896499395370483
1698079814466003200,9.524003173828126,-0.10243749618530273,7.104212284088135,-0.7730249762535095
1698079814475422000,9.533421875,-0.7767375111579895,7.5256500244140625,-0.6972625255584717
1698079814484841000,9.542841064453125,-1.269124984741211,6.159725189208984,-0.8658375144004822
1698079814494259700,9.552259765625,-1.1763124465942383,3.6687750816345215,-0.9073625206947327
1698079814503678500,9.561678466796875,-0.5018749833106995,1.0836374759674072,-0.7522624731063843
1698079814513097500,9.571097412109374,0.2494249939918518,-0.7514374852180481,-0.5469750165939331
1698079814522516200,9.58051611328125,0.821150004863739,-2.290750026702881,-0.15482500195503235
1698079814531935200,9.589935302734375,1.3037749528884888,-4.983412265777588,0.7675250172615051
1698079814541354000,9.59935400390625,1.5578750371932983,-8.03893756866455,2.0539751052856445
1698079814550773000,9.60877294921875,1.397825002670288,-8.381037712097168,1.613012433052063
1698079814560191700,9.618191650390624,1.3098249435424805,-4.8673624992370605,-1.561037540435791
1698079814569610500,9.627610595703125,1.3330625295639038,-1.3916374444961548,-2.6459124088287354
1698079814579029200,9.637029296875,1.27572500705719,-0.3885749876499176,-0.9208375215530396
1698079814588448300,9.6464482421875,0.6917625069618225,0.13062499463558197,0.9715750217437744
1698079814597867300,9.6558671875,-0.12443749606609344,0.24543750286102295,1.825587511062622
1698079814607286000,9.6652861328125,-0.5838249921798706,0.5081999897956848,1.2867250442504883
1698079814616704800,9.674704833984375,-0.4371125102043152,1.2447874546051025,-0.0644875019788742
1698079814626123500,9.68412353515625,-0.04867500066757202,1.7786999940872192,-0.8207374811172485
1698079814635542300,9.693542236328126,0.19442500174045563,1.7604124546051025,-0.9281250238418579
1698079814644961300,9.702961181640624,0.24584999680519104,1.6370749473571777,-0.9587875008583069
1698079814654380000,9.712380126953125,0.18713749945163727,1.6676000356674194,-1.204224944114685
1698079814663799000,9.721799072265625,0.1480875015258789,2.1122748851776123,-1.5842750072479248
1698079814673217800,9.7312177734375,0.20418749749660492,2.7829999923706055,-1.8836125135421753
1698079814682636800,9.74063671875,0.27994999289512634,3.478062391281128,-1.906712532043457
1698079814692055600,9.7500556640625,0.2628999948501587,3.8923499584198,-1.6831375360488892
1698079814701474300,9.759474365234375,0.2079000025987625,3.8654000759124756,-1.3717000484466553
1698079814710893000,9.76889306640625,0.18108749389648438,3.6455373764038086,-1.050362467765808
1698079814720311800,9.778311767578124,0.12113749980926514,3.3767249584198,-0.7510250210762024
1698079814729730800,9.787730712890625,-0.08896250277757645,3.3279125690460205,-0.46997499465942383
1698079814739149800,9.79714990234375,-0.4017750024795532,3.245962381362915,-0.3246375024318695
1698079814748568300,9.806568359375,-0.6399250030517578,2.8110499382019043,-0.2989250123500824
1698079814757987300,9.8159873046875,-0.5849249958992004,1.9827499389648438,-0.48592498898506165
1698079814767406300,9.82540625,-0.18672500550746918,0.9321125149726868,-1.1444125175476074
1698079814776825000,9.8348251953125,0.3386625051498413,0.48496249318122864,-1.9397125244140625
1698079814786243800,9.844243896484375,0.7943375110626221,0.6095374822616577,-2.6214375495910645
1698079814795662600,9.85366259765625,1.2329624891281128,0.5900124907493591,-3.0832998752593994
1698079814805081300,9.863081298828124,1.6946874856948853,0.2638624906539917,-3.150399923324585
1698079814814500400,9.872500244140625,2.0440750122070312,-0.5461499691009521,-2.6079623699188232
1698079814823919000,9.881919189453125,1.9782124757766724,-1.385450005531311,-1.5548499822616577
1698079814833337900,9.891337890625,1.417349934577942,-1.8350750207901,-0.4162124991416931
1698079814842757000,9.900757080078124,0.5329499840736389,-1.8618874549865723,0.5867124795913696
1698079814852176000,9.91017578125,-0.10724999755620956,-1.6847875118255615,1.4247750043869019
1698079814861594600,9.9195947265625,-0.37482500076293945,-1.4026374816894531,2.1492624282836914
1698079814871013400,9.929013427734375,-0.4725874960422516,-1.0861124992370605,2.788224935531616
1698079814880432000,9.93843212890625,-0.4358749985694885,-0.8320124745368958,3.3343749046325684
1698079814889851100,9.94785107421875,-0.35282498598098755,-0.7012500166893005,3.7424750328063965
1698079814899270100,9.957270263671875,-0.3260124921798706,-0.6402000188827515,3.9635748863220215
1698079814908689000,9.96668896484375,-0.3723500072956085,-0.571862518787384,3.9916250705718994
1698079814918107600,9.976107666015626,-0.45058751106262207,-0.49857500195503235,3.8731000423431396
1698079814927526400,9.9855263671875,-0.48963749408721924,-0.443574994802475,3.7045249938964844
1698079814936945400,9.9949453125,-0.47382500767707825,-0.4899125099182129,3.5396625995635986
1698079814946364200,10.0043642578125,-0.39434999227523804,-0.5534374713897705,3.3490874767303467
1698079814955783000,10.013782958984375,-0.30153748393058777,-0.7331500053405762,3.026512384414673
1698079814965201700,10.02320166015625,-0.23925000429153442,-0.9884874820709229,2.513362407684326
1698079814974620700,10.03262060546875,-0.23801249265670776,-1.2608749866485596,1.8011125326156616
1698079814984039700,10.042039794921875,-0.31130000948905945,-1.547974944114685,0.8567624688148499
1698079814993458400,10.05145849609375,-0.4542999863624573,-1.8460749387741089,-0.2745875120162964
1698079815002877200,10.060877197265626,-0.5568749904632568,-2.239462375640869,-1.403462529182434
1698079815012296000,10.0702958984375,-0.5311625003814697,-1.888837456703186,-2.200000047683716
1698079815021714700,10.079714599609375,-0.5092999935150146,-0.4996750056743622,-2.052187442779541
1698079815031133700,10.0891337890625,-0.4665375053882599,0.9198749661445618,-1.128600001335144
1698079815040552400,10.098552490234376,-0.453062504529953,2.3285624980926514,-0.05348749831318855
1698079815049971500,10.107971435546874,-0.533637523651123,3.448775053024292,0.6319500207901001
1698079815059390200,10.11739013671875,-0.6228749752044678,4.007162570953369,0.8628125190734863
1698079815068809200,10.126809326171875,-0.7694500088691711,3.5917749404907227,0.7407125234603882
1698079815078227700,10.136227783203125,-0.9087374806404114,2.8624749183654785,0.40837499499320984
1698079815087646700,10.145646728515626,-0.9124500155448914,1.968174934387207,0.13832500576972961
1698079815097065500,10.1550654296875,-0.5813499689102173,0.13805000483989716,0.359562486410141
1698079815106484500,10.164484375,0.2176624983549118,-2.551037549972534,1.0656249523162842
1698079815115903200,10.1739033203125,0.9421499967575073,-5.637087345123291,1.4394874572753906
1698079815125322000,10.183322021484376,1.2122000455856323,-6.356625080108643,-0.2623499929904938
1698079815134741000,10.192740966796874,1.5175875425338745,-2.935762405395508,-2.7302000522613525
1698079815144159500,10.202159423828125,1.6238750219345093,-0.23704999685287476,-2.8670125007629395
1698079815153578200,10.211578125,1.3990625143051147,0.6852999925613403,-1.3069374561309814
1698079815162997200,10.220997314453125,0.7601000070571899,1.5185500383377075,-0.12306249886751175
1698079815172416300,10.230416259765626,0.08813749998807907,2.504425048828125,0.02969999983906746
1698079815181835300,10.239835205078125,-0.2232999950647354,3.2509124279022217,-0.8951249718666077
1698079815191254000,10.24925390625,-0.1414874941110611,3.2986249923706055,-2.2928125858306885
1698079815200672800,10.2586728515625,0.15661250054836273,2.6461875438690186,-3.0905873775482178
1698079815210091800,10.268091796875,0.4791874885559082,1.227737545967102,-3.1370625495910645
1698079815219510300,10.27751025390625,0.7125250101089478,0.8282999992370605,-2.9477250576019287
1698079815228929300,10.28692919921875,0.9409124851226807,0.8918250203132629,-3.025825023651123
1698079815238348000,10.29634814453125,1.1217249631881714,1.2595000267028809,-3.0575873851776123
1698079815247766800,10.305766845703126,1.226775050163269,1.5857875347137451,-2.768012523651123
1698079815257185800,10.315185791015624,1.2879624366760254,1.767699956893921,-2.24399995803833
1698079815266604800,10.324604736328125,1.143725037574768,1.5258375406265259,-1.694137454032898
1698079815276023600,10.3340234375,0.8346250057220459,0.8930624723434448,-1.2519375085830688
1698079815285442300,10.3434423828125,0.41676250100135803,0.04881250113248825,-1.041837453842163
1698079815294861000,10.352861083984376,0.07837499678134918,-0.8492000102996826,-1.2922250032424927
1698079815304280000,10.362280029296874,0.1798499971628189,-0.7794874906539917,-1.8541874885559082
1698079815313698600,10.371698486328125,0.5658124685287476,-0.19923749566078186,-2.3478124141693115
1698079815323117800,10.381117919921875,0.9776250123977661,-0.006187499966472387,-2.542099952697754
1698079815332536600,10.39053662109375,1.3110624551773071,-0.3885749876499176,-2.3185250759124756
1698079815341955600,10.39995556640625,1.4943499565124512,-1.0202499628067017,-1.623324990272522
1698079815351374000,10.4093740234375,1.3953499794006348,-1.4942125082015991,-0.5995000004768372
1698079815360792800,10.418792724609375,0.9336249828338623,-1.5822124481201172,0.7602375149726868
1698079815370211800,10.4282119140625,0.1260875016450882,-1.1606374979019165,2.223787546157837
1698079815379630600,10.437630615234376,-0.6754000186920166,-0.5388625264167786,3.4663748741149902
1698079815389049600,10.447049560546875,-1.1493624448776245,-0.028187500312924385,4.264150142669678
1698079815398468000,10.456468017578125,-1.241075038909912,0.1293874979019165,4.5915374755859375
1698079815407887400,10.465887451171875,-1.1701250076293945,-0.06476250290870667,4.589062690734863
1698079815417306400,10.475306396484376,-0.9820249676704407,-0.5693874955177307,4.352012634277344
1698079815426725000,10.48472509765625,-0.8292624950408936,-1.1118249893188477,3.942812442779541
1698079815436143900,10.494143798828125,-0.735212504863739,-1.263350009918213,3.4284250736236572
1698079815445562600,10.503562744140625,-0.6276875138282776,-0.9810624718666077,2.8677000999450684
1698079815454981400,10.5129814453125,-0.5068249702453613,-0.7221499681472778,2.5866498947143555
1698079815464400100,10.522400146484374,-0.4786374866962433,-0.6719624996185303,2.4620749950408936
1698079815473819100,10.531819091796875,-0.6301624774932861,-0.891962468624115,2.085737466812134
1698079815483238000,10.54123779296875,-0.8892124891281128,-1.5394500494003296,1.1475750207901
1698079815492656600,10.55065673828125,-0.9245499968528748,-3.181337594985962,-0.4871625006198883
1698079815502075600,10.56007568359375,-0.8244500160217285,-4.0843000411987305,-2.151050090789795
1698079815511494400,10.569494384765624,-0.5593500137329102,-1.3451625108718872,-2.3905749320983887
1698079815520913200,10.5789130859375,-0.32958748936653137,1.710362434387207,-1.4242249727249146
1698079815530332200,10.588332275390625,-0.20996250212192535,4.008399963378906,-0.49816250801086426
1698079815539751000,10.5977509765625,-0.3235374987125397,5.131087303161621,-0.0057749999687075615
1698079815549170000,10.607169921875,-0.5618249773979187,5.275324821472168,0.23980000615119934
1698079815558588400,10.61658837890625,-0.8842625021934509,4.405362606048584,0.22151249647140503
1698079815568007700,10.626007568359375,-1.1835999488830566,3.3144373893737793,0.10298749804496765
1698079815577426200,10.63542626953125,-1.085837483406067,1.7774624824523926,0.2983750104904175
1698079815586845200,10.64484521484375,-0.21353749930858612,-0.6573874950408936,0.9288125038146973
1698079815596264200,10.65426416015625,0.738099992275238,-4.515500068664551,1.6582499742507935
1698079815605683000,10.663682861328125,0.8786249756813049,-6.629012584686279,0.5378999710083008
1698079815615101700,10.673101806640625,0.8933374881744385,-2.514324903488159,-2.2280499935150146
1698079815624520400,10.6825205078125,1.0557249784469604,-0.06971249729394913,-2.6239125728607178
1698079815633939200,10.691939208984374,1.1510125398635864,0.594962477684021,-1.2189375162124634
1698079815643358000,10.70135791015625,0.8529124855995178,1.0969749689102173,-0.013062499463558197
1698079815652776700,10.710776611328125,0.34966251254081726,1.4305499792099,0.6282374858856201
1698079815662195700,10.72019580078125,-0.11948750168085098,1.626075029373169,0.650237500667572
1698079815671614700,10.72961474609375,-0.29301249980926514,2.027987480163574,-0.5579749941825867
1698079815681033500,10.739033447265625,-0.18672500550746918,2.350562572479248,-2.258574962615967
1698079815690452200,10.7484521484375,-0.027912499383091927,2.1317999362945557,-2.6739625930786133
1698079815699871200,10.757871337890625,0.23485000431537628,0.9028249979019165,-2.3343374729156494
1698079815709290200,10.767290283203126,0.3704249858856201,0.404387503862381,-2.1852874755859375
1698079815718708700,10.776708740234374,0.4987125098705292,0.49101248383522034,-2.434575080871582
1698079815728127700,10.786127685546875,0.6355249881744385,0.9296374917030334,-2.7191998958587646
1698079815737546500,10.79554638671875,0.7503374814987183,1.3205499649047852,-2.7656750679016113
1698079815746965500,10.804965576171876,0.8761500120162964,1.5746500492095947,-2.5518624782562256
1698079815756384300,10.81438427734375,1.01791250705719,1.735937476158142,-2.1192874908447266
1698079815765803300,10.82380322265625,1.0069124698638916,1.6455999612808228,-1.6685625314712524
1698079815775222000,10.833221923828125,0.8468624949455261,1.0542124509811401,-1.3472249507904053
1698079815784640800,10.842640869140626,0.5132874846458435,-0.11728750169277191,-1.2702250480651855
1698079815794059500,10.8520595703125,0.2494249939918518,-0.9457250237464905,-1.4645124673843384
1698079815803478300,10.861478271484375,0.344712495803833,-1.2694000005722046,-1.7418500185012817
1698079815812897000,10.87089697265625,0.6710000038146973,-1.2131625413894653,-2.038712501525879
1698079815822316300,10.88031640625,1.1107250452041626,-1.0641125440597534,-2.2330000400543213
1698079815831735000,10.889735107421876,1.546875,-1.0678249597549438,-2.1290500164031982
1698079815841154000,10.899154052734374,1.7521624565124512,-1.2218250036239624,-1.6050374507904053
1698079815850572500,10.908572509765625,1.5358749628067017,-1.1728750467300415,-0.5079249739646912
1698079815859991600,10.917991455078125,0.8639125227928162,-0.6891499757766724,1.0595749616622925
1698079815869410300,10.927410400390626,-0.04372499883174896,0.1868624985218048,2.457124948501587
1698079815878829000,10.9368291015625,-0.7536374926567078,0.9345874786376953,3.2976624965667725
1698079815888247800,10.946247802734375,-1.0125499963760376,1.2997875213623047,3.732712507247925
1698079815897666800,10.955666748046875,-0.9735000133514404,1.2522125244140625,3.9671499729156494
1698079815907085800,10.9650859375,-0.8109750151634216,0.8710625171661377,4.0881500244140625
1698079815916504300,10.97450439453125,-0.6386874914169312,0.2699125111103058,4.102862358093262
1698079815925923300,10.98392333984375,-0.5103999972343445,-0.20281249284744263,4.052674770355225
1698079815935342000,10.993342041015625,-0.4811125099658966,-0.5339124798774719,3.9818625450134277
1698079815944761000,11.002760986328125,-0.5531625151634216,-0.8186749815940857,3.834049940109253
1698079815954179800,11.012179931640626,-0.6424000263214111,-0.992062509059906,3.5934250354766846
1698079815963598600,11.0215986328125,-0.718162477016449,-0.8992499709129333,3.301374912261963
1698079815973017600,11.031017578125,-0.7328749895095825,-0.507099986076355,3.0655624866485596
1698079815982436400,11.040436279296875,-0.7449749708175659,-0.12347500026226044,2.8261749744415283
1698079815991855000,11.049855224609376,-0.7804499864578247,0.1966249942779541,2.4620749950408936
1698079816001274000,11.059274169921874,-0.848924994468689,0.38472500443458557,1.9844000339508057
1698079816010692900,11.06869287109375,-0.9392625093460083,0.2516250014305115,1.3857250213623047
1698079816020112000,11.07811181640625,-1.0015499591827393,-0.2652375102043152,0.5916625261306763
1698079816029530400,11.0875302734375,-0.8512625098228455,-1.1338249444961548,-0.43092501163482666
1698079816038949400,11.096949462890626,-0.45663750171661377,-1.7410249710083008,-1.649037480354309
1698079816048368000,11.1063681640625,0.04661250114440918,-1.4697375297546387,-2.655674934387207
1698079816057787000,11.115786865234375,0.36547499895095825,-0.18328750133514404,-2.391812562942505
1698079816067206000,11.125205810546875,0.28971248865127563,1.3829749822616577,-1.2434124946594238
1698079816076624600,11.134624755859376,0.060087498277425766,2.88557505607605,-0.3856875002384186
1698079816086043600,11.144043701171874,-0.34306249022483826,3.5000624656677246,0.013749999925494194
1698079816095462700,11.153462646484375,-0.8806874752044678,2.947862386703491,0.1480875015258789
1698079816104881400,11.16288134765625,-1.2483625411987305,1.3377374410629272,0.3998500108718872
1698079816114300200,11.172300048828125,-1.1090749502182007,0.4349125027656555,0.6624749898910522
1698079816123719000,11.181718994140626,-0.5373499989509583,0.19910000264644623,0.6001874804496765
1698079816133138000,11.191137939453125,0.17613749206066132,-0.16499999165534973,0.3485625088214874
1698079816142556700,11.200556640625,0.6330500245094299,-1.3696374893188477,-0.595924973487854
1698079816151975200,11.20997509765625,0.9103875160217285,-1.7385499477386475,-1.9592374563217163
1698079816161394000,11.219393798828126,0.8981499671936035,0.11110000312328339,-2.4491500854492188
1698079816170813000,11.22881298828125,0.7038624882698059,1.0224499702453613,-1.7991875410079956
1698079816180232000,11.23823193359375,0.2994749844074249,2.164799928665161,-1.1101750135421753
1698079816189651000,11.24765087890625,-0.0742499977350235,3.0958125591278076,-0.9403625130653381
1698079816199069700,11.257069580078126,-0.2782999873161316,3.0530500411987305,-1.0698875188827515
1698079816208488400,11.266488525390624,-0.2147749960422516,2.134274959564209,-1.3899874687194824
1698079816217907500,11.275907470703125,-0.02419999986886978,1.010349988937378,-1.7773250341415405
1698079816227326000,11.285325927734375,0.09913749992847443,0.5607249736785889,-2.0655250549316406
1698079816236744700,11.29474462890625,0.18837499618530273,0.4446749985218048,-2.3783373832702637
1698079816246164000,11.3041640625,0.31542500853538513,0.3517250120639801,-2.77667498588562
1698079816255582700,11.313582763671874,0.44123750925064087,0.2186249941587448,-3.091825008392334
1698079816265001700,11.323001708984375,0.5389999747276306,0.34443750977516174,-3.0967750549316406
1698079816274420500,11.33242041015625,0.5878124833106995,0.7133499979972839,-2.821774959564209
1698079816283839200,11.341839111328126,0.6074749827384949,1.0762125253677368,-2.4296250343322754
1698079816293258000,11.351258056640624,0.5389999747276306,1.0114500522613525,-2.0411875247955322
1698079816302676700,11.3606767578125,0.3936625123023987,0.4567750096321106,-1.7333250045776367
1698079816312095700,11.370095703125,0.21518750488758087,-0.2700499892234802,-1.5329874753952026
1698079816321514500,11.379514404296875,0.0943249985575676,-0.45333749055862427,-1.5903249979019165
1698079816330933500,11.38893359375,0.2579500079154968,-0.46681249141693115,-1.8713749647140503
1698079816340352300,11.398352294921875,0.5732374787330627,-0.3592875003814697,-2.1279499530792236
1698079816349771300,11.407771240234375,0.8749125003814697,-0.39352500438690186,-2.1572375297546387
1698079816359190000,11.41718994140625,1.0936750173568726,-0.5656750202178955,-1.885949969291687
1698079816368608800,11.42660888671875,1.1131999492645264,-0.590149998664856,-1.3509374856948853
1698079816378027500,11.436027587890624,0.926337480545044,-0.4716250002384186,-0.7119749784469604
1698079816387446500,11.445446533203125,0.6318125128746033,-0.201712504029274,-0.16335000097751617
1698079816396865000,11.454864990234375,0.3361875116825104,0.015812499448657036,0.23003749549388885
1698079816406284000,11.464283935546876,0.13461250066757202,0.06104999780654907,0.519474983215332
1698079816415702800,11.473702880859374,0.06503749638795853,0.02186249941587448,0.716237485408783
1698079816425121500,11.48312158203125,0.11990000307559967,-0.018424998968839645,0.8775249719619751
1698079816434540500,11.49254052734375,0.2176624983549118,-0.12223749607801437,1.018049955368042
1698079816443959600,11.50195947265625,0.23718750476837158,-0.2480500042438507,1.1328624486923218
1698079816453378300,11.51137841796875,0.18713749945163727,-0.29452499747276306,1.2659624814987183
1698079816462797000,11.520797119140624,0.13089999556541443,-0.2457125037908554,1.4773000478744507
1698079816472215800,11.5302158203125,0.07479999959468842,-0.12718750536441803,1.7766374349594116
1698079816481634600,11.539634521484375,-0.007149999961256981,0.12333749979734421,2.1505000591278076
1698079816491053600,11.549053466796876,-0.17201249301433563,0.503250002861023,2.5621750354766846
1698079816500472300,11.558472412109374,-0.30882498621940613,1.110450029373169,3.028987407684326
1698079816509891000,11.56789111328125,-0.36629998683929443,1.68464994430542,3.5322375297546387
1698079816519310000,11.57731005859375,-0.39434999227523804,1.9094624519348145,3.9391000270843506
1698079816528728800,11.586728759765625,-0.43353748321533203,1.831225037574768,4.11014986038208
1698079816538147800,11.59614794921875,-0.5092999935150146,1.950987458229065,3.941575050354004
1698079816547566600,11.605566650390625,-0.5508249998092651,2.2441375255584717,3.356374979019165
1698079816556985300,11.6149853515625,-0.5641624927520752,2.4653749465942383,2.4865500926971436
1698079816566404400,11.624404296875,-0.5055875182151794,2.5374250411987305,1.5775375366210938
1698079816575823000,11.633822998046876,-0.30882498621940613,2.5409998893737793,0.8482375144958496
1698079816585242000,11.6432421875,-0.08524999767541885,2.5532374382019043,0.29356250166893005
1698079816594660900,11.652660888671875,0.0625625029206276,2.6375250816345215,-0.1695374995470047
1698079816604079900,11.662079833984375,0.0943249985575676,2.6754748821258545,-0.5762624740600586
1698079816613498400,11.671498291015626,-0.03396249935030937,2.5141875743865967,-1.1517000198364258
1698079816622917000,11.680917236328124,-0.26001250743865967,2.2428998947143555,-1.5243250131607056
1698079816632336100,11.690336181640625,-0.4665375053882599,2.625425100326538,-1.0051250457763672
1698079816641755000,11.6997548828125,-0.7046874761581421,4.0327372550964355,0.021037500351667404
1698079816651174000,11.709173828125,-0.9662125110626221,5.423137664794922,0.4609000086784363
1698079816660593000,11.718593017578126,-1.3583624362945557,5.579474925994873,0.2690874934196472
1698079816670011400,11.728011474609374,-1.4951750040054321,5.149374961853027,-0.19030000269412994
1698079816679430400,11.737430419921875,-1.473175048828125,4.657124996185303,-0.7180249691009521
1698079816688849200,11.74684912109375,-1.2348874807357788,4.000975131988525,-1.0736000537872314
1698079816698268200,11.75626806640625,-0.6901124715805054,3.501300096511841,-1.133412480354309
1698079816707687000,11.76568701171875,0.11013749986886978,1.4916000366210938,-0.5774999856948853
1698079816717105700,11.775105712890625,0.8333874940872192,-0.8492000102996826,0.5354250073432922
1698079816726524700,11.784524658203125,1.122962474822998,-0.369049996137619,1.1731499433517456
1698079816735943400,11.793943359375,1.2194875478744507,0.5350124835968018,1.284387469291687
1698079816745362200,11.803362060546876,1.3037749528884888,1.2692625522613525,1.4554375410079956
1698079816754781000,11.812781005859375,1.4161125421524048,1.3462624549865723,1.8768750429153442
1698079816764200000,11.822199951171875,1.4320625066757202,1.464787483215332,2.248262405395508
1698079816773619000,11.831618896484375,1.3000625371932983,1.739650011062622,2.4340250492095947
1698079816783037700,11.84103759765625,1.043624997138977,2.027987480163574,2.5585999488830566
1698079816792456400,11.85045654296875,0.768625020980835,2.2783749103546143,2.6636500358581543
1698079816801875200,11.859875244140625,0.5059999823570251,2.6449499130249023,2.7736499309539795
1698079816811294200,11.869294189453125,0.2934249937534332,2.8610999584198,2.9104623794555664
