time,seconds_elapsed,z,y,x
1698079645210599700,0.097599609375,8.190000534057617,3.30495023727417,2.5819501876831055
1698079645220018700,0.107018798828125,7.999050617218018,3.2260501384735107,1.971000075340271
1698079645229438000,0.11643798828125,7.477050304412842,3.091050148010254,1.3030500411987305
1698079645238857000,0.12585693359375,6.346950531005859,3.0240001678466797,0.6520500183105469
1698079645248276200,0.135276123046875,6.034950256347656,3.010050058364868,0.12495000660419464
1698079645257695200,0.1446953125,6.070950508117676,3.0799500942230225,0.019950000569224358
1698079645267114500,0.154114501953125,6.358050346374512,3.475050210952759,0.2970000207424164
1698079645276533500,0.163533447265625,6.949950218200684,3.6450002193450928,1.0849500894546509
1698079645285952800,0.172952880859375,7.0219502449035645,4.0159502029418945,1.4110500812530518
1698079645295371800,0.182371826171875,7.009950160980225,4.207050323486328,1.4440500736236572
1698079645304791300,0.191791259765625,7.255950450897217,4.080000400543213,1.3339500427246094
1698079645314210000,0.2012099609375,7.453050136566162,4.104000091552734,1.2120000123977661
1698079645323629000,0.210629150390625,7.3309502601623535,3.5490002632141113,1.2340500354766846
1698079645333048600,0.220048583984375,6.469050407409668,2.992950201034546,0.9250500202178955
1698079645342467600,0.229467529296875,5.017950057983398,1.3510500192642212,0.25905001163482666
1698079645351886600,0.238886474609375,7.929000377655029,1.6980000734329224,-1.215000033378601
1698079645361305900,0.248305908203125,9.33495044708252,1.686000108718872,-0.5800500512123108
1698079645370724900,0.257724853515625,10.491000175476074,1.2889500856399536,0.9919500350952148
1698079645380144000,0.26714404296875,11.604000091552734,1.0800000429153442,1.8130500316619873
1698079645389563100,0.276563232421875,11.032050132751465,1.3339500427246094,1.8130500316619873
1698079645398982400,0.285982421875,7.972050189971924,1.606950044631958,2.8789501190185547
1698079645408401400,0.2954013671875,5.752950191497803,1.9210500717163086,3.6469502449035645
1698079645417820700,0.304820556640625,6.7099504470825195,2.455050230026245,2.2699501514434814
1698079645427239700,0.31423974609375,7.3810505867004395,2.30400013923645,1.6840500831604004
1698079645436658700,0.32365869140625,6.94005012512207,1.8990000486373901,1.9690500497817993
1698079645446078000,0.333077880859375,6.078000068664551,1.8660000562667847,1.2739500999450684
1698079645455497000,0.3424970703125,6.12600040435791,1.957050085067749,1.0180500745773315
1698079645464916200,0.351916259765625,6.745950222015381,1.7530500888824463,1.0519500970840454
1698079645474335200,0.361335205078125,8.260050773620605,0.973050057888031,0.36705002188682556
1698079645483754500,0.37075439453125,11.101950645446777,0.46695002913475037,-0.13500000536441803
1698079645493173500,0.380173583984375,12.052050590515137,-0.022050000727176666,1.2529500722885132
1698079645502592800,0.3895927734375,11.580000877380371,0.48405003547668457,2.395050048828125
1698079645512011800,0.39901171875,10.177050590515137,1.1020500659942627,2.0089499950408936
1698079645521431000,0.40843115234375,7.5199503898620605,0.9340500235557556,2.482950210571289
1698079645530850000,0.41785009765625,6.021000385284424,1.6669501066207886,2.8309500217437744
1698079645540269000,0.42726904296875,6.873000144958496,2.3370001316070557,2.158050060272217
1698079645549688300,0.436688232421875,7.402050495147705,1.7320500612258911,2.3809502124786377
1698079645559107300,0.446107421875,7.716000556945801,1.2139500379562378,4.204950332641602
1698079645568526300,0.4555263671875,7.453050136566162,2.2390501499176025,1.072950005531311
1698079645577945600,0.464945556640625,2.7240002155303955,-2.3430001735687256,2.134050130844116
1698079645587364900,0.47436474609375,1.3260000944137573,-4.521000385284424,0.04605000093579292
1698079645596783900,0.483783935546875,-0.11700000613927841,-4.033050060272217,2.6460001468658447
1698079645606203000,0.493202880859375,21.025951385498047,5.815950393676758,-7.192950248718262
1698079645615622100,0.5026220703125,17.71500015258789,8.206049919128418,-9.367050170898438
1698079645625041200,0.512041259765625,17.892000198364258,2.932950258255005,-2.9239501953125
1698079645634460200,0.521460205078125,15.643950462341309,-1.9519500732421875,0.8790000677108765
1698079645643879700,0.530879638671875,13.02405071258545,-3.232950210571289,4.138050079345703
1698079645653298700,0.540298583984375,10.015050888061523,-1.7269500494003296,6.063000202178955
1698079645662717700,0.5497177734375,6.805950164794922,-0.5089499950408936,6.670950412750244
1698079645672137200,0.55913720703125,4.455000400543213,0.42195001244544983,5.050050258636475
1698079645681556000,0.568555908203125,1.1149500608444214,0.325950026512146,5.199000358581543
1698079645690975200,0.577975341796875,-0.14295001327991486,0.06705000251531601,6.8580002784729
1698079645700394500,0.58739453125,1.8090001344680786,-0.29805001616477966,7.1449503898620605
1698079645709813500,0.5968134765625,6.210000514984131,-0.6349500417709351,3.784050226211548
1698079645719232500,0.606232421875,11.671051025390625,-0.9370500445365906,1.6810500621795654
1698079645728651800,0.61565185546875,13.515000343322754,-4.854000091552734,2.7709500789642334
1698079645738070800,0.62507080078125,9.904050827026367,-6.922950267791748,2.448000192642212
1698079645747489800,0.63448974609375,5.608950138092041,-6.3100504875183105,1.2049500942230225
1698079645756909000,0.643908935546875,0.0499500036239624,-7.248000144958496,3.142050266265869
1698079645766328300,0.653328369140625,-8.680950164794922,-6.576000213623047,7.006050109863281
1698079645775747300,0.662747314453125,-9.850050926208496,-6.067950248718262,11.208000183105469
1698079645785166300,0.672166259765625,-3.9499502182006836,-6.637950420379639,11.875950813293457
1698079645794585900,0.6815859375,1.3210500478744507,-8.206049919128418,13.666950225830078
1698079645804004900,0.6910048828125,8.725950241088867,-9.520950317382812,14.713050842285156
1698079645813423600,0.700423583984375,10.570050239562988,-10.758000373840332,15.967950820922852
1698079645822843000,0.7098427734375,9.02595043182373,-11.5489501953125,16.28205108642578
1698079645832262100,0.71926220703125,5.692950248718262,-12.15195083618164,12.432000160217285
1698079645841681200,0.72868115234375,2.212050199508667,-12.292950630187988,9.738000869750977
1698079645851100400,0.738100341796875,0.6390000581741333,-12.073050498962402,9.669000625610352
1698079645860519400,0.74751953125,-2.4870002269744873,-11.608050346374512,9.693000793457031
1698079645869938400,0.7569384765625,-2.7580502033233643,-11.280000686645508,11.223000526428223
1698079645879357700,0.766357666015625,-4.554000377655029,-10.963950157165527,11.055000305175781
1698079645888777000,0.77577685546875,-2.3869500160217285,-9.942000389099121,11.533950805664062
1698079645898196000,0.785196044921875,1.2540000677108765,-9.961050033569336,15.565950393676758
1698079645907615200,0.794615234375,2.152050018310547,-10.845000267028809,16.6960506439209
1698079645917034000,0.804033935546875,2.3770501613616943,-11.022000312805176,15.24000072479248
1698079645926453500,0.81345361328125,3.0930001735687256,-10.927950859069824,12.78600025177002
1698079645935872500,0.82287255859375,1.891050100326538,-10.180950164794922,10.452000617980957
1698079645945291500,0.83229150390625,-3.370950222015381,-9.070950508117676,10.212000846862793
1698079645954710800,0.841710693359375,-5.200050354003906,-9.091950416564941,10.939950942993164
1698079645964129800,0.8511298828125,-4.398000240325928,-9.085050582885742,10.894950866699219
1698079645973548800,0.860548828125,-1.7449500560760498,-9.007950782775879,10.678950309753418
1698079645982967800,0.8699677734375,-0.700950026512146,-9.034950256347656,9.22800064086914
1698079645992387300,0.87938720703125,-1.1299500465393066,-9.382050514221191,7.576050281524658
1698079646001806300,0.888806396484375,0.29100000858306885,-10.444950103759766,7.387050151824951
1698079646011225300,0.898225341796875,1.864050030708313,-10.201050758361816,6.843000411987305
1698079646020644600,0.90764453125,4.006950378417969,-9.745950698852539,5.779950141906738
1698079646030063600,0.917063720703125,6.4710001945495605,-9.724050521850586,6.007950305938721
1698079646039482600,0.926482666015625,8.29800033569336,-9.853050231933594,7.255050182342529
1698079646048902100,0.935902099609375,9.238950729370117,-9.528000831604004,7.830000400543213
1698079646058321200,0.945321044921875,8.80305004119873,-9.648000717163086,9.48705005645752
1698079646067740200,0.954740234375,8.950950622558594,-10.267950057983398,12.2760009765625
1698079646077159200,0.9641591796875,8.464950561523438,-9.979950904846191,14.27505111694336
1698079646086578400,0.973578369140625,9.199950218200684,-9.556950569152832,14.830950736999512
1698079646095997700,0.982997802734375,8.038949966430664,-9.50100040435791,14.886000633239746
1698079646105416700,0.992416748046875,6.840000152587891,-9.348000526428223,13.795950889587402
1698079646114835700,1.001835693359375,6.696000099182129,-8.854949951171875,12.283050537109375
1698079646124255000,1.0112548828125,3.576000213623047,-7.821000576019287,10.087950706481934
1698079646133674000,1.020674072265625,4.548000335693359,-7.228950500488281,10.806000709533691
1698079646143093200,1.03009326171875,7.495950222015381,-5.94795036315918,11.782950401306152
1698079646152512500,1.039512451171875,4.468950271606445,-5.230050086975098,12.858000755310059
1698079646161931500,1.048931640625,17.3700008392334,-3.424950122833252,14.850000381469727
1698079646171350800,1.058350830078125,6.0859503746032715,-3.6880502700805664,14.551051139831543
1698079646180769800,1.067769775390625,2.1880500316619873,-1.231950044631958,11.437950134277344
1698079646190188800,1.077188720703125,-5.770050048828125,0.11100000888109207,7.579050540924072
1698079646199608000,1.086608154296875,-23.43000030517578,2.1910500526428223,1.7800500392913818
1698079646209027300,1.09602734375,-9.835050582885742,1.9690500497817993,4.297950267791748
1698079646218446300,1.1054462890625,-1.2739500999450684,2.0329501628875732,8.151000022888184
1698079646227865300,1.114865234375,-1.5799500942230225,1.5780000686645508,8.287050247192383
1698079646237284400,1.124284423828125,-3.2629501819610596,1.0039499998092651,7.119000434875488
1698079646246703600,1.13370361328125,-2.1280500888824463,0.3360000252723694,6.925050258636475
1698079646256123000,1.143122802734375,1.9410001039505005,0.30195000767707825,9.136950492858887
1698079646265542000,1.1525419921875,5.512950420379639,-0.16905000805854797,10.07805061340332
1698079646274961200,1.161961181640625,8.664000511169434,-2.3710501194000244,8.302050590515137
1698079646284380200,1.171380126953125,8.236050605773926,-4.939950466156006,4.389000415802002
1698079646293799400,1.18079931640625,9.780000686645508,-5.740050315856934,3.3000001907348633
1698079646303218700,1.19021875,8.32395076751709,-6.360000133514404,5.155050277709961
1698079646312637700,1.1996376953125,4.5169501304626465,-6.22605037689209,7.4320502281188965
1698079646322056700,1.209056640625,2.559000015258789,-5.3620500564575195,11.754000663757324
1698079646331476000,1.21847607421875,0.022950001060962677,-5.3520002365112305,13.660050392150879
1698079646340895000,1.22789501953125,1.0260000228881836,-3.1110000610351562,17.7810001373291
1698079646350314000,1.23731396484375,4.696950435638428,-3.652050256729126,21.279001235961914
1698079646359733200,1.246733154296875,8.118000030517578,-6.355050086975098,17.254051208496094
1698079646369152500,1.256152587890625,10.350000381469727,-6.010950088500977,12.2760009765625
1698079646378571500,1.265571533203125,10.522050857543945,-5.224950313568115,9.006000518798828
1698079646387990800,1.27499072265625,8.87700080871582,-2.7060000896453857,7.873050212860107
1698079646397409800,1.284409912109375,14.097001075744629,0.5749500393867493,8.493000030517578
1698079646406828800,1.293828857421875,13.47195053100586,-1.5859500169754028,4.0759501457214355
1698079646416247800,1.303247802734375,10.098000526428223,-0.5490000247955322,-2.3449501991271973
1698079646425667300,1.312667236328125,7.005000114440918,-1.8540000915527344,-6.68595027923584
1698079646435086300,1.32208642578125,4.789950370788574,-2.30400013923645,-8.011950492858887
1698079646444505300,1.33150537109375,2.3530499935150146,-2.4100501537323,-12.532950401306152
1698079646453924600,1.340924560546875,0.34200000762939453,-5.185050010681152,-5.248950481414795
1698079646463343600,1.350343505859375,-3.498000144958496,-11.740050315856934,3.1710002422332764
1698079646472763000,1.359762939453125,-4.687950134277344,-12.705000877380371,4.035000324249268
1698079646482182100,1.36918212890625,-3.888000249862671,-13.641000747680664,5.863950252532959
1698079646491601200,1.37860107421875,-4.111050128936768,-14.944050788879395,8.377950668334961
1698079646501020400,1.3880205078125,-2.9230501651763916,-17.24700164794922,14.280000686645508
1698079646510439400,1.397439453125,-1.221000075340271,-16.56705093383789,15.645000457763672
1698079646519858400,1.4068583984375,-2.442000150680542,-14.956050872802734,15.657000541687012
1698079646529277700,1.416277587890625,-6.892950534820557,-13.690950393676758,15.820051193237305
1698079646538696700,1.42569677734375,-8.545050621032715,-11.778000831604004,13.84005069732666
1698079646548116000,1.435115966796875,-9.108000755310059,-11.179950714111328,12.184950828552246
1698079646557535000,1.444534912109375,-5.724000453948975,-9.418050765991211,16.108951568603516
1698079646566954000,1.4539541015625,-5.983050346374512,-7.489950180053711,17.91900062561035
1698079646576373200,1.463373291015625,-6.246000289916992,-4.921050071716309,14.637001037597656
1698079646585792500,1.47279248046875,6.634050369262695,1.957050085067749,10.260000228881836
1698079646595211500,1.48221142578125,6.543000221252441,3.589050054550171,9.328950881958008
1698079646604630500,1.491630615234375,4.872000217437744,1.5949500799179077,4.0759501457214355
1698079646614049800,1.5010498046875,0.27195000648498535,-4.488000392913818,4.558950424194336
1698079646623468800,1.51046875,-3.3349502086639404,-9.532950401306152,2.6100001335144043
1698079646632888000,1.51988818359375,-3.89805006980896,-8.754000663757324,3.4960501194000244
1698079646642307300,1.529307373046875,-3.7920002937316895,-8.395050048828125,3.1300501823425293
1698079646651726300,1.538726318359375,-4.43595027923584,-5.934000492095947,1.5660001039505005
1698079646661145600,1.5481455078125,-4.386000156402588,-5.010000228881836,2.5890002250671387
1698079646670564600,1.557564697265625,-5.380050182342529,-5.137050151824951,3.490950107574463
1698079646679983600,1.566983642578125,-5.734050273895264,-5.034000396728516,4.332000255584717
1698079646689403000,1.57640283203125,-4.720950126647949,-5.764050483703613,3.2980501651763916
1698079646698822100,1.585822265625,-6.463950157165527,-5.1409502029418945,3.988950252532959
1698079646708241400,1.595241455078125,-7.075050354003906,-4.203000068664551,4.669050216674805
1698079646717660400,1.604660400390625,-7.25700044631958,-4.359000205993652,6.333000183105469
1698079646727079400,1.614079345703125,-7.945950508117676,-4.04295015335083,6.015000343322754
1698079646736498700,1.623498779296875,-6.687000274658203,-2.817000150680542,5.629950046539307
1698079646745917700,1.632917724609375,-6.3919501304626465,-2.086050033569336,5.002050399780273
1698079646755337000,1.6423369140625,-6.940950393676758,-1.7779500484466553,4.89900016784668
1698079646764756000,1.651755859375,-7.075050354003906,-1.5240000486373901,5.043000221252441
1698079646774175200,1.66117529296875,-7.14900016784668,-3.52305006980896,5.983950138092041
1698079646783594200,1.67059423828125,-8.265000343322754,-4.299000263214111,7.9069504737854
1698079646793013500,1.680013427734375,-10.338000297546387,-4.003950119018555,8.890950202941895
1698079646802432800,1.689432861328125,-9.820950508117676,-4.045050144195557,8.557950019836426
1698079646811851800,1.698851806640625,-8.242950439453125,-4.062000274658203,6.298050403594971
1698079646821271000,1.70827099609375,-6.6060004234313965,-3.8269500732421875,3.2380502223968506
1698079646830690000,1.71768994140625,-13.906050682067871,8.956950187683105,-3.643050193786621
1698079646840109000,1.727109130859375,-0.4140000343322754,1.537950038909912,-3.2310001850128174
1698079646849528300,1.7365283203125,-1.6690500974655151,-4.711050033569336,2.124000072479248
1698079646858947600,1.745947509765625,-11.62605094909668,-8.742000579833984,10.05405044555664
1698079646868366600,1.75536669921875,-13.003050804138184,-12.199950218200684,13.52595043182373
1698079646877785600,1.76478564453125,-9.11205005645752,-11.482050895690918,9.906000137329102
1698079646887204600,1.77420458984375,-0.5740500092506409,-11.182050704956055,4.267050266265869
1698079646896624000,1.7836240234375,0.5329500436782837,-10.143000602722168,2.943000078201294
1698079646906043100,1.793043212890625,-0.5700000524520874,-6.813000202178955,2.433000087738037
1698079646915462000,1.8024619140625,-1.7449500560760498,-5.344950199127197,2.4160501956939697
1698079646924881400,1.81188134765625,-2.221950054168701,-4.381950378417969,3.709050178527832
1698079646934300400,1.821300537109375,-2.180999994277954,-1.7820000648498535,5.665050506591797
1698079646943719400,1.830719482421875,-1.8550500869750977,1.0300500392913818,5.3520002365112305
1698079646953138700,1.840138671875,4.189050197601318,-0.5250000357627869,3.693000078201294
1698079646962558000,1.849557861328125,5.989950180053711,0.6130500435829163,2.2110002040863037
1698079646971977000,1.85897705078125,8.464950561523438,0.453000009059906,2.076000213623047
1698079646981396200,1.868396240234375,5.638050079345703,0.6130500435829163,0.9559500217437744
1698079646990815200,1.877815185546875,7.422000408172607,-3.1590001583099365,0.42900002002716064
1698079647000234200,1.887234130859375,2.719050168991089,-4.129050254821777,-1.7269500494003296
1698079647009653800,1.89665380859375,-2.968950033187866,-4.581000328063965,-4.950000286102295
1698079647019072800,1.90607275390625,-5.755950450897217,-4.773000240325928,-4.8949503898620605
1698079647028491800,1.91549169921875,0.9330000281333923,-7.2270002365112305,-2.4720001220703125
1698079647037910800,1.924910888671875,9.082950592041016,-24.588001251220703,1.7170500755310059
1698079647047330000,1.934330078125,12.09000015258789,-35.617950439453125,-10.332000732421875
1698079647056749300,1.943749267578125,5.322000026702881,-34.79505157470703,-9.444000244140625
1698079647066168300,1.953168212890625,7.318950176239014,-31.537952423095703,5.100000381469727
1698079647075587600,1.962587646484375,5.242950439453125,-23.761951446533203,10.09695053100586
1698079647085006600,1.972006591796875,1.7179501056671143,-14.34795093536377,7.959000587463379
1698079647094425900,1.98142578125,0.9450000524520874,-13.593000411987305,7.959000587463379
1698079647103845000,1.99084521484375,-4.800000190734863,-14.589000701904297,11.170050621032715
1698079647113264000,2.00026416015625,-11.140050888061523,-12.997050285339355,11.665950775146484
1698079647122683100,2.00968310546875,-11.409000396728516,-9.856050491333008,9.24000072479248
1698079647132102400,2.019102294921875,-7.762050151824951,-9.09000015258789,5.982000350952148
1698079647141521400,2.028521484375,-3.895050287246704,-10.762950897216797,4.858950138092041
1698079647150940700,2.037940673828125,-2.6260502338409424,-12.868050575256348,4.726950168609619
1698079647160360000,2.04735986328125,-2.5879502296447754,-13.60995101928711,3.211050033569336
1698079647169779000,2.056779052734375,-2.6670000553131104,-14.60400104522705,2.704050064086914
1698079647179198000,2.066197998046875,-2.2549500465393066,-15.322051048278809,2.0410501956939697
1698079647188617200,2.0756171875,-1.3210500478744507,-14.914950370788574,0.2880000174045563
1698079647198036500,2.085036376953125,0.11400000751018524,-13.426050186157227,-0.8910000324249268
1698079647207455500,2.09445556640625,1.8259501457214355,-11.391000747680664,-1.6000500917434692
1698079647216874500,2.10387451171875,1.2199500799179077,-8.200950622558594,-3.0199501514434814
1698079647226294000,2.1132939453125,1.543950080871582,-4.093050003051758,-5.982000350952148
1698079647235713000,2.122713134765625,2.0680501461029053,-1.9639500379562378,-5.620050430297852
1698079647245132000,2.132132080078125,-0.6649500131607056,-1.5430500507354736,-5.970000267028809
1698079647254551300,2.14155126953125,-1.815000057220459,-2.0119500160217285,-5.934000492095947
1698079647263970300,2.15097021484375,-4.174950122833252,-4.051949977874756,-5.341950416564941
1698079647273389800,2.160389892578125,-5.545050144195557,-6.03000020980835,-3.753000259399414
1698079647282808600,2.16980859375,-6.000000476837158,-8.695050239562988,-1.4490001201629639
1698079647292227800,2.179227783203125,-6.3160505294799805,-11.11305046081543,1.6909500360488892
1698079647301646800,2.188646728515625,-5.4970502853393555,-11.874000549316406,5.131950378417969
1698079647311066000,2.198066162109375,-4.942050457000732,-12.5110502243042,5.950050354003906
1698079647320485000,2.207485107421875,-3.7300500869750977,-12.669000625610352,7.204950332641602
1698079647329904000,2.216904052734375,-2.2139999866485596,-12.625950813293457,7.0759501457214355
1698079647339323400,2.226323486328125,-0.3540000021457672,-11.512950897216797,5.203050136566162
1698079647348742700,2.23574267578125,0.41805002093315125,-11.200950622558594,3.3480000495910645
1698079647358161700,2.24516162109375,1.0260000228881836,-10.930950164794922,1.6770000457763672
1698079647367581000,2.254580810546875,1.596000075340271,-10.666950225830078,0.5730000138282776
1698079647377000000,2.264,2.1570000648498535,-10.284000396728516,-0.039000000804662704
1698079647386419200,2.273419189453125,2.7019500732421875,-10.054950714111328,-0.42195001244544983
1698079647395838200,2.282838134765625,2.977950096130371,-10.435050964355469,0.06300000101327896
1698079647405257500,2.292257568359375,2.974950075149536,-11.247000694274902,0.6880500316619873
1698079647414676500,2.301676513671875,3.327000141143799,-12.283950805664062,1.5570000410079956
1698079647424095700,2.311095703125,3.6790502071380615,-13.279951095581055,2.6200501918792725
1698079647433514800,2.3205146484375,4.156050205230713,-13.936050415039062,2.9740500450134277
1698079647442934000,2.32993408203125,4.681950092315674,-14.17500114440918,2.482950210571289
1698079647452353300,2.339353271484375,4.675050258636475,-14.773950576782227,2.413950204849243
1698079647461772500,2.3487724609375,4.230000019073486,-14.982000350952148,3.003000259399414
1698079647471191600,2.358191650390625,3.186000108718872,-15.508951187133789,3.558000087738037
1698079647480610600,2.367610595703125,1.9650001525878906,-16.63395118713379,3.6280500888824463
1698079647490029800,2.37702978515625,0.527999997138977,-18.244951248168945,3.681000232696533
1698079647499448800,2.38644873046875,-1.162950038909912,-19.203001022338867,3.2160000801086426
1698079647508868000,2.3958681640625,-3.4860000610351562,-18.65505027770996,2.5360500812530518
1698079647518287400,2.405287353515625,-6.124050140380859,-17.416950225830078,1.8079501390457153
1698079647527706400,2.414706298828125,-8.521050453186035,-15.673951148986816,0.4630500078201294
1698079647537125400,2.42412548828125,-9.655950546264648,-13.600050926208496,-1.9930500984191895
1698079647546544400,2.43354443359375,-9.831000328063965,-12.16200065612793,-4.215000152587891
1698079647555964000,2.4429638671875,-9.772950172424316,-11.472000122070312,-5.75700044631958
1698079647565383000,2.4523828125,-9.646050453186035,-11.470050811767578,-6.157050132751465
1698079647574802000,2.461802001953125,-9.237000465393066,-12.118050575256348,-5.479050159454346
1698079647584221200,2.47122119140625,-8.266950607299805,-13.0260009765625,-4.378050327301025
1698079647593640200,2.48064013671875,-7.123050212860107,-13.81605052947998,-3.702000141143799
1698079647603059200,2.49005908203125,-5.818050384521484,-14.247000694274902,-3.8989500999450684
1698079647612478700,2.499478759765625,-4.951050281524658,-14.740050315856934,-3.7789502143859863
1698079647621897700,2.508897705078125,-2.8849501609802246,-15.535050392150879,-2.991000175476074
1698079647631317000,2.51831689453125,-2.4250500202178955,-16.21500015258789,-4.480950355529785
1698079647640736300,2.527736328125,-1.3620001077651978,-16.744050979614258,-4.933050155639648
1698079647650155300,2.5371552734375,0.45900002121925354,-16.552949905395508,-5.800050258636475
1698079647659574300,2.54657421875,-0.45900002121925354,-15.76305103302002,-5.515050411224365
1698079647668993300,2.5559931640625,-4.13700008392334,-16.06395149230957,-2.2609500885009766
1698079647678412500,2.56541259765625,-0.32505002617836,-17.43105125427246,3.6469502449035645
1698079647687831800,2.574831787109375,7.98900032043457,-18.30000114440918,5.788050174713135
1698079647697250600,2.58425048828125,11.449050903320312,-14.283000946044922,0.15405000746250153
1698079647706670000,2.593670166015625,12.313050270080566,-11.407050132751465,-4.3030500411987305
1698079647716089000,2.603089111328125,11.803050994873047,-10.854000091552734,-4.404000282287598
1698079647725508000,2.612508056640625,2.5849502086639404,-11.85300064086914,-0.7770000100135803
1698079647734927400,2.62192724609375,-12.87405014038086,-14.695050239562988,2.9260501861572266
1698079647744346600,2.6313466796875,-19.084951400756836,-15.934950828552246,2.3419501781463623
1698079647753765600,2.640765625,-11.812950134277344,-17.539051055908203,3.180000066757202
1698079647763184600,2.6501845703125,-4.462950229644775,-16.921051025390625,2.6770501136779785
1698079647772604200,2.659604248046875,1.443000078201294,-16.2580509185791,3.889050245285034
1698079647782023200,2.669023193359375,2.6760001182556152,-14.458050727844238,3.95805025100708
1698079647791442200,2.678442138671875,1.480950117111206,-12.268950462341309,2.445000171661377
1698079647800861400,2.687861328125,2.2519500255584717,-10.423050880432129,2.124000072479248
1698079647810280400,2.697280517578125,2.0269501209259033,-8.461950302124023,0.8770500421524048
1698079647819699700,2.70669970703125,1.3380000591278076,-6.880050182342529,0.46995002031326294
1698079647829119000,2.716118896484375,1.429050087928772,-5.797950267791748,0.6589500308036804
1698079647838538000,2.7255380859375,2.118000030517578,-4.462050437927246,0.5269500017166138
1698079647847957000,2.73495703125,2.4250500202178955,-3.115950107574463,-0.6589500308036804
1698079647857376500,2.74437646484375,2.5350000858306885,-2.16795015335083,-0.597000002861023
1698079647866795500,2.75379541015625,1.9870500564575195,-1.39395010471344,-0.48705002665519714
1698079647876214500,2.763214599609375,2.1160500049591064,-0.10905000567436218,-1.6980000734329224
1698079647885633800,2.7726337890625,3.307950258255005,1.1640000343322754,-2.445000171661377
1698079647895052800,2.782052734375,3.3799500465393066,0.973050057888031,-2.3329501152038574
1698079647904472000,2.79147216796875,2.8630502223968506,0.2179500162601471,-1.8250501155853271
1698079647913891000,2.80089111328125,-0.036000002175569534,-1.0230000019073486,-0.6330000162124634
1698079647923310300,2.810310302734375,-1.3480501174926758,-2.5129501819610596,-0.7170000076293945
1698079647932729300,2.819729248046875,-2.2170000076293945,-3.5440502166748047,-0.8629500269889832
1698079647942148900,2.82914892578125,-2.2789502143859863,-3.613950252532959,-1.7970000505447388
1698079647951568000,2.83856787109375,-2.449050188064575,-3.262050151824951,-2.0340001583099365
1698079647960987000,2.84798681640625,-3.0979502201080322,-2.455050230026245,-1.2649500370025635
1698079647970406000,2.857406005859375,-3.6060001850128174,-1.231950044631958,-1.4350500106811523
1698079647979825400,2.866825439453125,-4.0819501876831055,0.2950500249862671,-2.3830502033233643
1698079647989244400,2.876244384765625,-5.0590500831604,1.363050103187561,-3.1999502182006836
1698079647998663400,2.885663330078125,-5.518950462341309,1.7239500284194946,-3.3259501457214355
1698079648008082700,2.895082763671875,-6.067050457000732,1.8850500583648682,-3.2860500812530518
1698079648017501700,2.904501708984375,-6.955050468444824,1.3290001153945923,-2.485950231552124
1698079648026921000,2.9139208984375,-7.489050388336182,0.2179500162601471,-1.4470500946044922
1698079648036340200,2.92334033203125,-10.033950805664062,-0.41505002975463867,-2.3449501991271973
1698079648045759200,2.93275927734375,-15.040950775146484,-0.48000001907348633,-3.3409502506256104
1698079648055178500,2.942178466796875,-21.823951721191406,-0.8220000267028809,-4.174050331115723
1698079648064597800,2.95159765625,-18.60795021057129,-1.7200500965118408,-5.685000419616699
1698079648074016500,2.9610166015625,2.1640501022338867,-3.6499502658843994,-4.033050060272217
1698079648083435800,2.970435791015625,2.1280500888824463,-4.897050380706787,-0.35295000672340393
1698079648092855000,2.97985498046875,-13.350000381469727,-5.544000148773193,0.42900002002716064
1698079648102274000,2.989274169921875,-10.76400089263916,-6.982950210571289,-4.873050212860107
1698079648111693000,2.998693115234375,-4.386000156402588,-8.580000877380371,-14.236950874328613
1698079648121112600,3.008112548828125,-3.808950185775757,-6.798000335693359,-23.404951095581055
1698079648130531600,3.017531494140625,-13.743000984191895,-8.86500072479248,-14.005050659179688
1698079648139950600,3.02695068359375,-7.839000225067139,-8.175000190734863,-6.877050399780273
1698079648149369900,3.036369873046875,-4.084050178527832,-4.600050449371338,-7.797000408172607
1698079648158789000,3.0457890625,-0.7110000252723694,-2.7690000534057617,-8.860050201416016
1698079648168208100,3.0552080078125,-4.377000331878662,-3.1060502529144287,-8.055000305175781
1698079648177627400,3.06462744140625,-4.573050022125244,-4.198050022125244,-7.492950439453125
1698079648187046400,3.07404638671875,-3.9840002059936523,-5.764050483703613,-6.826950550079346
1698079648196465400,3.08346533203125,-3.826050281524658,-7.272000312805176,-6.007950305938721
1698079648205884400,3.092884521484375,-2.6670000553131104,-8.043000221252441,-6.0010504722595215
1698079648215303700,3.1023037109375,-3.5430002212524414,-8.09595012664795,-6.058050155639648
1698079648224723000,3.111722900390625,-4.666050434112549,-8.005050659179688,-5.437950134277344
1698079648234142000,3.121141845703125,-4.240050315856934,-7.854000568389893,-4.858950138092041
1698079648243561200,3.130561279296875,-2.6449501514434814,-7.6870503425598145,-4.449000358581543
1698079648252980500,3.13998046875,-2.1450002193450928,-7.282050132751465,-4.758000373840332
1698079648262399500,3.1493994140625,-1.0270500183105469,-6.8580002784729,-3.7450501918792725
1698079648271818800,3.15881884765625,-0.9409500360488892,-7.099950313568115,-2.0460000038146973
1698079648281238000,3.168238037109375,-2.0440499782562256,-7.723050594329834,-0.6210000514984131
1698079648290657000,3.177656982421875,-3.0259501934051514,-8.319000244140625,0.7120500206947327
1698079648300076300,3.187076171875,-3.031050205230713,-8.63700008392334,1.380000114440918
1698079648309495300,3.196495361328125,-1.759950041770935,-8.910000801086426,1.1640000343322754
1698079648318914300,3.205914306640625,-1.870050072669983,-9.391050338745117,0.15900000929832458
1698079648328333600,3.21533349609375,-2.40405011177063,-10.27500057220459,-0.24300001561641693
1698079648337752800,3.2247529296875,-2.968950033187866,-11.410050392150879,-0.43905001878738403
1698079648347171800,3.234171875,-3.330000162124634,-12.312000274658203,-0.7410000562667847
1698079648356591000,3.243591064453125,-2.6479501724243164,-12.765000343322754,-0.4819500148296356
1698079648366010000,3.253010009765625,-2.095050096511841,-13.174050331115723,0.40995001792907715
1698079648375429400,3.262429443359375,-2.4780001640319824,-13.359000205993652,1.7290500402450562
1698079648384848400,3.271848388671875,-3.3040502071380615,-13.519050598144531,2.890050172805786
1698079648394267600,3.281267578125,-3.81600022315979,-13.23900032043457,3.493950128555298
1698079648403686700,3.290686767578125,-4.116000175476074,-12.985050201416016,3.075000047683716
1698079648413106000,3.30010595703125,-3.9979500770568848,-11.932050704956055,2.3590500354766846
1698079648422525200,3.309525146484375,-3.325050115585327,-10.902000427246094,1.3890000581741333
1698079648431944200,3.318944091796875,-3.0480000972747803,-9.577950477600098,0.6349500417709351
1698079648441363500,3.328363525390625,-3.072000026702881,-8.437950134277344,0.15105000138282776
1698079648450782700,3.33778271484375,-3.637050151824951,-7.677000522613525,-0.33105000853538513
1698079648460201700,3.34720166015625,-4.507950305938721,-7.25100040435791,-1.5210000276565552
1698079648469620700,3.356620849609375,-5.4370503425598145,-7.047000408172607,-2.4529500007629395
1698079648479040000,3.3660400390625,-6.031050205230713,-6.790950298309326,-3.922950267791748
1698079648488459300,3.375459228515625,-5.583000183105469,-6.487050533294678,-5.341950416564941
1698079648497878300,3.384878173828125,-4.840950012207031,-6.264000415802002,-6.853050231933594
1698079648507297500,3.394297607421875,-4.104000091552734,-5.805000305175781,-7.2870001792907715
1698079648516716500,3.403716552734375,-3.1720502376556396,-5.368950366973877,-6.4800004959106445
1698079648526135800,3.4131357421875,-3.1459500789642334,-5.139000415802002,-6.541950225830078
1698079648535554800,3.422554931640625,-3.4810502529144287,-4.773000240325928,-6.391050338745117
1698079648544974000,3.43197412109375,-3.907050132751465,-4.629000186920166,-4.9830002784729
1698079648554393000,3.44139306640625,-3.807000160217285,-4.9360504150390625,-2.584050178527832
1698079648563812400,3.450812255859375,-3.28695011138916,-5.45805025100708,-0.49605002999305725
1698079648573231600,3.460231689453125,-2.6430001258850098,-6.3510003089904785,1.4610000848770142
1698079648582650600,3.469650634765625,-1.9489500522613525,-7.693950176239014,4.114050388336182
1698079648592070000,3.47906982421875,-1.336050033569336,-9.379050254821777,6.288000106811523
1698079648601489000,3.488489013671875,-0.5029500126838684,-11.33595085144043,7.863000392913818
1698079648610908200,3.497908203125,-0.18900001049041748,-12.772050857543945,8.566950798034668
1698079648620327000,3.507326904296875,0.27000001072883606,-13.696050643920898,7.999950408935547
1698079648629746400,3.516746337890625,0.37995001673698425,-14.0149507522583,6.424050331115723
1698079648639165400,3.52616552734375,0.046950001269578934,-14.187000274658203,3.6949501037597656
1698079648648584700,3.535584716796875,0.7579500079154968,-14.524950981140137,0.08895000070333481
1698079648658003700,3.545003662109375,2.5060501098632812,-15.031950950622559,-3.2260501384735107
1698079648667423000,3.554423095703125,3.5880000591278076,-15.745950698852539,-4.0159502029418945
1698079648676842200,3.56384228515625,2.7049500942230225,-16.5,-4.111950397491455
1698079648686261200,3.57326123046875,0.004050000105053186,-16.53795051574707,-3.9679501056671143
1698079648695680500,3.582680419921875,-2.8969502449035645,-15.858000755310059,-4.030050277709961
1698079648705099500,3.592099609375,-5.133000373840332,-15.166050910949707,-4.768050193786621
1698079648714518500,3.6015185546875,-5.425050258636475,-15.432001113891602,-5.8090500831604
1698079648723937800,3.610937744140625,-5.550000190734863,-17.326051712036133,-4.107000350952148
1698079648733357000,3.620357177734375,-6.381000518798828,-19.65795135498047,0.040950000286102295
1698079648742776000,3.629776123046875,-7.554000377655029,-21.16200065612793,3.8479502201080322
1698079648752195300,3.6391953125,-8.796000480651855,-19.308000564575195,4.519050121307373
1698079648761614300,3.6486142578125,-10.4170503616333,-15.784050941467285,2.886000156402588
1698079648771033600,3.65803369140625,-10.76400089263916,-12.994950294494629,0.5370000004768372
1698079648780452600,3.66745263671875,-11.443950653076172,-10.609950065612793,-2.587050199508667
1698079648789871600,3.67687158203125,-11.575950622558594,-9.130050659179688,-4.501950263977051
1698079648799291000,3.686290771484375,-9.778050422668457,-9.315000534057617,-4.906949996948242
1698079648808710100,3.695710205078125,-8.113950729370117,-10.927950859069824,-3.991950273513794
1698079648818129200,3.705129150390625,-8.397000312805176,-12.862950325012207,-2.2110002040863037
1698079648827548400,3.71454833984375,-9.009000778198242,-14.628000259399414,-1.4899500608444214
1698079648836967400,3.723967529296875,-9.282000541687012,-16.45905113220215,-1.804050087928772
1698079648846386700,3.73338671875,-8.077950477600098,-17.785951614379883,-3.8170502185821533
1698079648855806000,3.742805908203125,-5.029950141906738,-18.121051788330078,-6.693000316619873
1698079648865225000,3.752224853515625,-1.807050108909607,-17.950950622558594,-8.152950286865234
1698079648874644000,3.76164404296875,0.7080000042915344,-17.625,-7.806000232696533
1698079648884063200,3.771063232421875,2.0370001792907715,-17.541000366210938,-6.598950386047363
1698079648893482200,3.780482177734375,2.061000108718872,-16.94805145263672,-5.014050006866455
1698079648902901800,3.78990185546875,2.4649500846862793,-15.352951049804688,-6.2910003662109375
1698079648912320800,3.79932080078125,3.009000062942505,-13.632000923156738,-7.5450005531311035
1698079648921739800,3.80873974609375,4.656000137329102,-12.633000373840332,-8.682000160217285
1698079648931159000,3.818158935546875,7.647000312805176,-12.577950477600098,-8.196000099182129
1698079648940578000,3.827578125,7.144050121307373,-12.636000633239746,-5.575050354003906
1698079648949997300,3.836997314453125,1.4910000562667847,-14.055000305175781,-1.9690500497817993
1698079648959416300,3.846416259765625,-9.313950538635254,-16.912050247192383,3.204000234603882
1698079648968835800,3.8558359375,-17.46405029296875,-21.28605079650879,7.282050132751465
1698079648978254600,3.865254638671875,-9.318000793457031,-23.803050994873047,10.843950271606445
1698079648987673900,3.874673828125,-0.4240500330924988,-24.004051208496094,13.357950210571289
1698079648997093000,3.884093017578125,0.5689499974250793,-22.288951873779297,14.071950912475586
1698079649006512000,3.89351220703125,1.1650500297546387,-20.041051864624023,13.12605094909668
1698079649015931100,3.90293115234375,1.0549499988555908,-16.65795135498047,9.087000846862793
1698079649025350400,3.912350341796875,0.34200000762939453,-12.259950637817383,4.705049991607666
1698079649034769700,3.921769775390625,2.5129501819610596,-7.942950248718262,1.1470500230789185
1698079649044188700,3.931188720703125,4.507950305938721,-5.260950088500977,0.04800000041723251
1698079649053608000,3.94060791015625,5.820000171661377,-3.1590001583099365,0.5700000524520874
1698079649063027000,3.95002685546875,7.126950263977051,-1.0660500526428223,0.06300000101327896
1698079649072446200,3.9594462890625,6.4609503746032715,0.6109500527381897,-1.270050048828125
1698079649081865200,3.968865234375,6.442050457000732,2.388000011444092,-2.8620002269744873
1698079649091284700,3.97828466796875,5.959050178527832,3.838050127029419,-4.236000061035156
1698079649100703700,3.987703857421875,2.899050235748291,4.2619500160217285,-4.768050193786621
1698079649110123000,3.997123046875,1.90500009059906,3.0079500675201416,-3.9679501056671143
1698079649119542000,4.0065419921875,3.436950206756592,1.068000078201294,-1.533000111579895
1698079649128961000,4.0159609375,2.140050172805786,0.040950000286102295,-1.7730001211166382
1698079649138380300,4.02538037109375,1.3810501098632812,-0.8800500631332397,-1.045050024986267
1698079649147799600,4.034799560546875,0.909000039100647,-1.576050043106079,-0.9900000691413879
1698079649157218600,4.044218505859375,0.7300500273704529,-2.0050501823425293,-0.6379500031471252
1698079649166637800,4.053637939453125,0.8010000586509705,-1.7749500274658203,-1.284000039100647
1698079649176057000,4.06305712890625,0.9109500646591187,-0.33900001645088196,-2.5530002117156982
1698079649185476000,4.07247607421875,0.7890000343322754,1.8460501432418823,-3.658950090408325
1698079649194895400,4.081895263671875,-0.8110500574111938,3.0960001945495605,-3.432000160217285
1698079649204314400,4.091314453125,-2.932950258255005,2.9410500526428223,-2.4720001220703125
1698079649213733600,4.100733642578125,-4.69005012512207,1.8990000486373901,-1.4689500331878662
1698079649223152600,4.110152587890625,-6.28695011138916,1.492050051689148,-1.64805006980896
1698079649232572000,4.119572021484375,-6.727950096130371,0.7000500559806824,-1.593000054359436
1698079649241991000,4.128990966796875,-8.704950332641602,-0.30300000309944153,-0.8719500303268433
1698079649251410200,4.13841015625,-10.390950202941895,-0.6430500149726868,-1.3320000171661377
1698079649260829400,4.147829345703125,-8.974050521850586,-1.0330500602722168,-2.0310001373291016
1698079649270248400,4.15724853515625,0.922950029373169,-1.0900501012802124,-0.9270000457763672
1698079649279667500,4.16666748046875,11.833950996398926,-1.4449501037597656,3.015000104904175
1698079649289087000,4.1760869140625,-7.285950183868408,-0.25200000405311584,0.06300000101327896
1698079649298506000,4.185506103515625,-52.923004150390625,1.423050045967102,-14.194050788879395
1698079649307925000,4.194925048828125,-9.511950492858887,-7.272000312805176,-21.672000885009766
1698079649317344300,4.20434423828125,-3.400050163269043,-12.208950996398926,-25.80405044555664
1698079649326763300,4.21376318359375,-35.730003356933594,-21.09000015258789,-9.439050674438477
1698079649336182300,4.223182373046875,12.295950889587402,-19.624950408935547,-3.6880502700805664
1698079649345601800,4.232601806640625,11.338950157165527,-9.42495059967041,-7.5259504318237305
1698079649355020800,4.242020751953125,-6.199050426483154,-0.7020000219345093,-13.902000427246094
1698079649364439800,4.251439697265625,-14.305951118469238,2.6080501079559326,-12.346050262451172
1698079649373859300,4.260859375,-6.649050235748291,0.5890500545501709,-5.074050426483154
1698079649383278300,4.2702783203125,0.48795002698898315,-1.915950059890747,-1.0519500970840454
1698079649392697300,4.279697265625,-0.7969500422477722,-3.81000018119812,-1.3579500913619995
1698079649402116400,4.289116455078125,-6.163050174713135,-6.38700008392334,-2.953050136566162
1698079649411535600,4.29853564453125,-6.928950309753418,-9.094050407409668,-3.0870001316070557
1698079649420955000,4.307954833984375,-5.9659504890441895,-9.748050689697266,-3.3979501724243164
1698079649430374000,4.317373779296875,-4.41195011138916,-9.406050682067871,-3.034050226211548
1698079649439793400,4.32679345703125,-3.639000177383423,-9.303000450134277,-1.818000078201294
1698079649449212400,4.33621240234375,-3.925950288772583,-9.352950096130371,-0.8700000643730164
1698079649458631200,4.345631103515625,-4.075050354003906,-9.219000816345215,-0.6210000514984131
1698079649468050700,4.35505078125,-3.634050130844116,-8.69895076751709,-0.9130500555038452
1698079649477469700,4.3644697265625,-3.8779501914978027,-8.290050506591797,-0.7000500559806824
1698079649486889000,4.373888916015625,-2.7270002365112305,-8.67300033569336,1.13100004196167
1698079649496308200,4.38330810546875,-2.514000177383423,-8.829000473022461,1.1400001049041748
1698079649505727200,4.392727294921875,-2.430000066757202,-8.725950241088867,0.42705002427101135
1698079649515146200,4.402146240234375,-1.4239500761032104,-9.451050758361816,-0.5610000491142273
1698079649524565800,4.411565673828125,-1.5799500942230225,-10.180950164794922,-1.3819500207901
1698079649533984500,4.420984619140625,-1.065000057220459,-10.933050155639648,-1.5430500507354736
1698079649543403500,4.430403564453125,-1.0410000085830688,-11.866950988769531,-1.0780500173568726
1698079649552823000,4.439822998046875,-1.3999500274658203,-12.478050231933594,-0.625950038433075
1698079649562242000,4.449241943359375,-1.7070001363754272,-14.749950408935547,0.8650500178337097
1698079649571661000,4.4586611328125,-2.2480502128601074,-15.985051155090332,1.1380500793457031
1698079649581080600,4.46808056640625,-2.808000087738037,-16.23900032043457,0.62295001745224
1698079649590499600,4.47749951171875,-2.848950147628784,-15.364951133728027,0.8119500279426575
1698079649599918600,4.486918701171875,-2.205000162124634,-13.504950523376465,1.1830500364303589
1698079649609337900,4.496337890625,-2.1499500274658203,-11.749950408935547,0.8700000643730164
1698079649618757000,4.505757080078125,-2.101950168609619,-10.372950553894043,0.6250500082969666
1698079649628176100,4.515176025390625,-1.6279500722885132,-9.310050010681152,0.5370000004768372
1698079649637595400,4.524595458984375,-1.3170000314712524,-8.563050270080566,0.5920500159263611
1698079649647014400,4.534014404296875,-1.065000057220459,-8.256000518798828,0.5029500126838684
1698079649656433700,4.54343359375,-0.9340500235557556,-8.223000526428223,-0.29100000858306885
1698079649665853000,4.55285302734375,-1.0459500551223755,-8.413949966430664,-1.117050051689148
1698079649675272000,4.56227197265625,-1.4170501232147217,-8.620050430297852,-1.6579500436782837
1698079649684691000,4.57169091796875,-1.602000117301941,-9.022950172424316,-1.7850000858306885
1698079649694110200,4.581110107421875,-1.6210501194000244,-9.407999992370605,-1.3129500150680542
1698079649703529500,4.590529541015625,-1.8340500593185425,-9.46095085144043,-1.7370001077651978
1698079649712948500,4.599948486328125,-1.446000099182129,-9.355050086975098,-2.115000009536743
1698079649722368000,4.609367919921875,-0.7660500407218933,-8.890950202941895,-2.368950128555298
1698079649731786800,4.618786865234375,-0.22995001077651978,-8.26395034790039,-3.391050100326538
1698079649741206000,4.6282060546875,-0.7180500626564026,-7.878000259399414,-3.481950283050537
1698079649750625000,4.637625,-1.4550000429153442,-7.678950309753418,-3.8959500789642334
1698079649760044300,4.647044189453125,-2.1349501609802246,-7.576050281524658,-3.2160000801086426
1698079649769463300,4.65646337890625,-2.4400501251220703,-7.533000469207764,-2.946000099182129
1698079649778882600,4.665882568359375,-2.4439501762390137,-7.581000328063965,-2.6730000972747803
1698079649788301800,4.6753017578125,-2.1229500770568848,-7.786950588226318,-2.1100502014160156
1698079649797720800,4.684720947265625,-1.8460501432418823,-7.914000511169434,-1.3870500326156616
1698079649807139800,4.694139892578125,-1.603950023651123,-7.792050361633301,-0.8149500489234924
1698079649816559400,4.703559326171875,-1.2709500789642334,-7.749000549316406,-0.4459500312805176
1698079649825978400,4.712978271484375,-1.162950038909912,-7.711050510406494,-0.45600003004074097
1698079649835397400,4.7223974609375,-1.0890001058578491,-7.53795051574707,-0.7690500617027283
1698079649844816600,4.731816650390625,-1.01295006275177,-7.52400016784668,-0.906000018119812
1698079649854236000,4.74123583984375,-0.8590500354766846,-7.653000354766846,-0.906000018119812
1698079649863655000,4.750655029296875,-0.6889500617980957,-7.809000492095947,-0.5040000081062317
1698079649873074200,4.76007421875,-0.38805001974105835,-8.164950370788574,-0.32895001769065857
1698079649882493400,4.769493408203125,-0.032999999821186066,-8.668050765991211,-0.15900000929832458
1698079649891912400,4.778912353515625,-0.09300000220537186,-9.20895004272461,-0.1969500035047531
1698079649901331700,4.788331787109375,-0.45000001788139343,-9.801000595092773,-0.3379500210285187
1698079649910750700,4.797750732421875,-1.2090001106262207,-10.435050964355469,-0.62295001745224
1698079649920169700,4.807169677734375,-2.004000186920166,-11.182050704956055,-0.9559500217437744
1698079649929589000,4.816589111328125,-2.9380500316619873,-12.097050666809082,-0.931950032711029
1698079649939008300,4.82600830078125,-3.9100501537323,-13.147950172424316,-0.4410000145435333
1698079649948427300,4.83542724609375,-4.9009504318237305,-13.825950622558594,0.673050045967102
1698079649957846500,4.844846435546875,-5.374950408935547,-13.696050643920898,1.3459500074386597
1698079649967265500,4.854265625,-6.033000469207764,-13.071001052856445,1.4830501079559326
1698079649976684800,4.863684814453125,-6.160050392150879,-12.243000984191895,0.999000072479248
1698079649986104000,4.87310400390625,-5.85105037689209,-11.379000663757324,0.5179499983787537
1698079649995523000,4.882523193359375,-4.336050033569336,-10.684050559997559,-0.5779500007629395
1698079650004942000,4.891942138671875,-2.265000104904175,-10.366050720214844,-1.1599500179290771
1698079650014361300,4.901361328125,-0.8659500479698181,-10.56195068359375,-0.859950065612793
1698079650023780600,4.910780517578125,-0.6510000228881836,-11.368950843811035,0.025050001218914986
1698079650033199600,4.92019970703125,-1.1950500011444092,-13.087950706481934,0.7399500608444214
1698079650042619000,4.929618896484375,-1.4479501247406006,-14.56095027923584,1.7479500770568848
1698079650052038000,4.939037841796875,-1.6879501342773438,-15.942000389099121,4.023000240325928
1698079650061457200,4.94845703125,-1.4479501247406006,-16.993051528930664,6.505950450897217
1698079650070876200,4.957876220703125,-0.700950026512146,-17.067001342773438,7.828050136566162
1698079650080295400,4.96729541015625,0.010950000956654549,-15.391050338745117,7.332000255584717
1698079650089714400,4.97671435546875,0.046950001269578934,-12.937050819396973,5.551050186157227
1698079650099133700,4.9861337890625,0.037950001657009125,-11.338050842285156,4.320000171661377
1698079650108553000,4.995552978515625,-0.07605000585317612,-10.921050071716309,3.7600502967834473
1698079650117972000,5.004971923828125,-0.1870500147342682,-11.671051025390625,4.138050079345703
1698079650127391200,5.01439111328125,-0.13095000386238098,-13.330050468444824,5.044950008392334
1698079650136810500,5.023810546875,0.26295000314712524,-15.444001197814941,5.653050422668457
1698079650146229500,5.0332294921875,0.9000000357627869,-17.328001022338867,5.329950332641602
1698079650155648500,5.0426484375,1.5390000343322754,-18.8700008392334,4.528050422668457
1698079650165067800,5.05206787109375,2.0940001010894775,-19.62900161743164,4.021049976348877
1698079650174487000,5.061487060546875,2.6860501766204834,-19.167001724243164,3.1060502529144287
1698079650183906000,5.070906005859375,3.535950183868408,-17.23995018005371,2.224950075149536
1698079650193325300,5.0803251953125,3.2290501594543457,-15.055951118469238,2.662950038909912
1698079650202744300,5.089744384765625,2.956050157546997,-12.882000923156738,2.6389501094818115
1698079650212163600,5.09916357421875,2.788950204849243,-10.974000930786133,3.100950241088867
1698079650221582800,5.108582763671875,2.635050058364868,-9.69105052947998,3.640050172805786
1698079650231001900,5.118001953125,2.6430001258850098,-8.776050567626953,4.042050361633301
1698079650240420900,5.1274208984375,3.0949501991271973,-8.047950744628906,3.9460501670837402
1698079650249840000,5.136840087890625,6.421050071716309,-7.978950500488281,5.4310503005981445
1698079650259259400,5.14625927734375,13.891050338745117,-8.826000213623047,7.579050540924072
1698079650268678400,5.155678466796875,12.784950256347656,-8.505000114440918,6.0610504150390625
1698079650278097400,5.165097412109375,5.959050178527832,-7.1770501136779785,2.4280500411987305
1698079650287517000,5.174516845703125,2.098950147628784,-5.974950313568115,0.07200000435113907
1698079650296936000,5.18393603515625,2.508000135421753,-6.19005012512207,1.0399500131607056
1698079650306355000,5.19335498046875,-21.285001754760742,-8.95305061340332,6.219000339508057
1698079650315774200,5.202774169921875,-15.214950561523438,-12.279000282287598,9.484050750732422
1698079650325193200,5.212193115234375,-9.151050567626953,-13.354050636291504,8.251049995422363
1698079650334612500,5.221612548828125,-3.925950288772583,-13.632000923156738,6.714000225067139
1698079650344031700,5.23103173828125,0.6070500016212463,-13.540950775146484,6.088950157165527
1698079650353451000,5.240450927734375,2.9800500869750977,-13.069050788879395,5.266050338745117
1698079650362870000,5.2498701171875,4.2370500564575195,-11.628000259399414,3.9130501747131348
1698079650372289000,5.2592890625,5.7430500984191895,-9.595050811767578,0.24495001137256622
1698079650381708300,5.268708251953125,7.126950263977051,-7.750950336456299,-2.7930002212524414
1698079650391127600,5.27812744140625,6.732000350952148,-6.549000263214111,-4.488000392913818
1698079650400546600,5.287546630859375,5.194950103759766,-5.304000377655029,-5.395050048828125
1698079650409965600,5.296965576171875,4.599000453948975,-4.597949981689453,-4.846950054168701
1698079650419385000,5.306385009765625,4.084050178527832,-4.014000415802002,-4.6720499992370605
1698079650428804000,5.31580419921875,2.8600502014160156,-3.4870500564575195,-3.4270501136779785
1698079650438223000,5.32522314453125,2.845950126647949,-2.9790000915527344,-2.716050148010254
1698079650447642400,5.334642333984375,3.0829501152038574,-2.3430001735687256,-2.7880501747131348
1698079650457061400,5.344061279296875,2.9059500694274902,-1.555050015449524,-3.0889501571655273
1698079650466480600,5.353480712890625,2.0659501552581787,-0.8149500489234924,-3.403050184249878
1698079650475900000,5.36289990234375,1.6680001020431519,-0.32895001769065857,-3.7189502716064453
1698079650485319000,5.37231884765625,2.4409501552581787,-0.3430500030517578,-3.195000171661377
1698079650494738000,5.381738037109375,2.556000232696533,-0.8959500193595886,-1.6410000324249268
1698079650504157400,5.391157470703125,1.3189500570297241,-2.218050003051758,-0.3460500240325928
1698079650513576200,5.400576171875,-3.736950159072876,-4.215000152587891,-2.059950113296509
1698079650522995500,5.409995361328125,-15.819001197814941,-6.760050296783447,-5.239950180053711
1698079650532414700,5.419414794921875,-37.06800079345703,-9.8100004196167,-11.34000015258789
1698079650541833700,5.428833740234375,-23.527950286865234,-13.471050262451172,-14.551051139831543
1698079650551253000,5.4382529296875,-10.575000762939453,-16.53795051574707,-12.97800064086914
1698079650560672300,5.44767236328125,-18.81599998474121,-19.20600128173828,-9.364950180053711
1698079650570091300,5.45709130859375,-25.048952102661133,-21.958951950073242,-1.4130001068115234
1698079650579510300,5.46651025390625,-18.61305046081543,-19.53404998779297,3.9300003051757812
1698079650588929500,5.475929443359375,-10.402950286865234,-15.268950462341309,3.7140002250671387
1698079650598348800,5.485348876953125,-12.009000778198242,-12.145051002502441,1.2169500589370728
1698079650607767800,5.494767822265625,-13.61400032043457,-11.656050682067871,0.28995001316070557
1698079650617186800,5.504186767578125,7.311000347137451,-10.462050437927246,2.199000120162964
1698079650626606000,5.513606201171875,17.655000686645508,-6.669000148773193,1.5430500507354736
1698079650636025000,5.523025146484375,11.430000305175781,-4.669950008392334,0.38100001215934753
1698079650645444400,5.5324443359375,3.847050189971924,-4.6080002784729,-2.764050245285034
1698079650654864000,5.54186376953125,0.37005001306533813,-5.887950420379639,-9.199950218200684
1698079650664283000,5.551282958984375,-5.971050262451172,-8.167950630187988,-15.37695026397705
1698079650673702000,5.560701904296875,4.9770002365112305,-10.600050926208496,-11.878950119018555
1698079650683121200,5.57012109375,7.006950378417969,-10.27695083618164,-6.481950283050537
1698079650692540400,5.57954052734375,6.361050128936768,-9.949050903320312,-2.3809502124786377
1698079650701959200,5.588959228515625,7.299000263214111,-9.589950561523438,0.06000000238418579
1698079650711378400,5.59837841796875,6.559950351715088,-10.081050872802734,1.240950107574463
1698079650720797700,5.607797607421875,6.856050491333008,-12.283950805664062,2.9290502071380615
1698079650730216700,5.617216796875,6.636000156402588,-15.379050254821777,5.632050037384033
1698079650739636200,5.62663623046875,5.773950099945068,-18.054000854492188,6.100950241088867
1698079650749055200,5.63605517578125,4.845000267028809,-20.071950912475586,5.356950283050537
1698079650758474200,5.64547412109375,3.7510502338409424,-21.32400131225586,4.4730000495910645
1698079650767893500,5.6548935546875,2.7310500144958496,-20.059951782226562,4.447050094604492
1698079650777312500,5.6643125,1.9429501295089722,-17.476951599121094,4.923000335693359
1698079650786731800,5.673731689453125,1.543950080871582,-14.874000549316406,5.2819504737854
1698079650796150800,5.68315087890625,1.3639500141143799,-12.469950675964355,4.713000297546387
1698079650805570000,5.692570068359375,-2.581050157546997,-9.26205062866211,2.1700501441955566
1698079650814989300,5.7019892578125,-1.963050127029419,-7.741950511932373,0.9340500235557556
1698079650824408300,5.711408203125,-1.1830500364303589,-7.7149505615234375,1.1260499954223633
1698079650833827600,5.72082763671875,-1.4770500659942627,-8.179950714111328,1.0470000505447388
1698079650843246600,5.73024658203125,-1.4119501113891602,-8.789999961853027,1.0330500602722168
1698079650852665900,5.739665771484375,-1.2829500436782837,-9.019950866699219,0.8790000677108765
1698079650862085000,5.749085205078125,-1.333050012588501,-8.968050003051758,0.6780000329017639
1698079650871504100,5.758504150390625,-1.350000023841858,-8.709000587463379,0.04800000041723251
1698079650880923100,5.767923095703125,-1.0049999952316284,-8.319000244140625,-0.7020000219345093
1698079650890342400,5.77734228515625,-0.226950004696846,-8.023950576782227,-1.6360501050949097
1698079650899761700,5.78676171875,0.5929500460624695,-7.921050548553467,-3.3379502296447754
1698079650909181000,5.796180908203125,1.3470001220703125,-8.011950492858887,-5.184000015258789
1698079650918600000,5.805599853515625,1.8049501180648804,-7.852050304412842,-6.738000392913818
1698079650928019000,5.81501904296875,1.76895010471344,-8.12505054473877,-7.179000377655029
1698079650937438000,5.82443798828125,1.2469500303268433,-8.802000045776367,-7.701000213623047
1698079650946857500,5.833857421875,-0.2560500204563141,-9.999000549316406,-4.519050121307373
1698079650956276500,5.8432763671875,-0.5070000290870667,-10.11405086517334,-1.9830000400543213
1698079650965695700,5.85269580078125,-0.21000000834465027,-8.413949966430664,-2.8789501190185547
1698079650975114800,5.86211474609375,0.556950032711029,-7.23900032043457,-5.2920002937316895
1698079650984534000,5.871533935546875,0.7630500197410583,-7.234050273895264,-5.368950366973877
1698079650993953000,5.880953125,-0.43800002336502075,-7.753950595855713,-3.520050048828125
1698079651003372000,5.8903720703125,-1.6210501194000244,-8.497950553894043,-1.5570000410079956
1698079651012791600,5.89979150390625,-1.9969501495361328,-9.516000747680664,0.283050000667572
1698079651022210600,5.90921044921875,-2.0850000381469727,-10.533000946044922,1.4710500240325928
1698079651031629600,5.918629638671875,-1.9339500665664673,-11.247000694274902,1.76295006275177
1698079651041049000,5.928049072265625,-1.8460501432418823,-11.980051040649414,1.5349500179290771
1698079651050468000,5.937468017578125,-1.9800001382827759,-12.97800064086914,1.308000087738037
1698079651059887000,5.94688720703125,-1.636950135231018,-13.86600112915039,1.2739500999450684
1698079651069306400,5.956306396484375,-0.09300000220537186,-14.470050811767578,1.6740000247955322
1698079651078725400,5.965725341796875,0.7579500079154968,-15.097050666809082,2.098050117492676
1698079651088144600,5.97514453125,-1.7880001068115234,-15.916050910949707,3.570000171661377
1698079651097563600,5.984563720703125,-5.3680500984191895,-16.21500015258789,4.570950031280518
1698079651106983000,5.99398291015625,-9.82800006866455,-15.69795036315918,4.215000152587891
1698079651116402000,6.00340185546875,-13.510951042175293,-14.472001075744629,2.4280500411987305
1698079651125821200,6.0128212890625,-13.99695110321045,-13.452000617980957,-0.29100000858306885
1698079651135240400,6.022240478515625,-11.245950698852539,-12.982950210571289,-3.145050048828125
1698079651144659500,6.031659423828125,-7.353000164031982,-13.062000274658203,-5.329950332641602
1698079651154078700,6.04107861328125,-4.803000450134277,-14.06295108795166,-6.385950088500977
1698079651163497700,6.050497802734375,-3.2130000591278076,-16.210050582885742,-4.947000026702881
1698079651172917000,6.0599169921875,-2.3839499950408936,-17.284950256347656,-2.505000114440918
1698079651182336300,6.069336181640625,-2.1000001430511475,-17.0080509185791,-1.91100013256073
1698079651191755300,6.07875537109375,-2.5540502071380615,-16.159950256347656,-2.086050033569336
1698079651201174500,6.088174560546875,-3.2059502601623535,-15.42495059967041,-2.0220000743865967
1698079651210593500,6.097593505859375,-3.2700002193450928,-14.920050621032715,-2.218050003051758
1698079651220012800,6.1070126953125,-2.9640002250671387,-14.72295093536377,-2.983950138092041
1698079651229431800,6.116431884765625,-2.7270002365112305,-15.247950553894043,-3.832050085067749
1698079651238851000,6.12585107421875,-3.0210001468658447,-16.617000579833984,-3.1560001373291016
1698079651248270000,6.13527001953125,-2.521050214767456,-17.76405143737793,-2.533950090408325
1698079651257689000,6.144689208984375,0.31095001101493835,-19.07400131225586,-2.0190000534057617
1698079651267108400,6.1541083984375,2.9440500736236572,-19.990951538085938,-1.495050072669983
1698079651276527600,6.163527587890625,3.80400013923645,-20.472000122070312,-0.5419500470161438
1698079651285947000,6.17294677734375,4.552950382232666,-20.932050704956055,0.9540000557899475
1698079651295366000,6.182365966796875,5.7019500732421875,-20.556001663208008,1.453950047492981
1698079651304785200,6.19178515625,6.4110002517700195,-20.158050537109375,4.456050395965576
1698079651314204200,6.2012041015625,5.523000240325928,-17.713951110839844,3.799950122833252
1698079651323623400,6.21062353515625,6.166950225830078,-15.649950981140137,2.931000232696533
1698079651333042400,6.22004248046875,4.069950103759766,-14.428950309753418,5.44005012512207
1698079651342461700,6.229461669921875,-12.574950218200684,-16.80900001525879,9.367050170898438
1698079651351880700,6.238880615234375,-11.409000396728516,-17.898000717163086,7.372950553894043
1698079651361300000,6.248300048828125,-2.619000196456909,-17.551050186157227,5.4910502433776855
1698079651370719000,6.257718994140625,-1.6300500631332397,-16.522050857543945,5.505000114440918
1698079651380138200,6.26713818359375,-3.5839502811431885,-16.01205062866211,3.601950168609619
1698079651389557200,6.27655712890625,-0.2989500164985657,-14.601000785827637,1.6429500579833984
1698079651398976500,6.2859765625,0.5430000424385071,-13.258050918579102,-0.5490000247955322
1698079651408395800,6.295395751953125,2.419950008392334,-11.956050872802734,-1.477950096130371
1698079651417814800,6.304814697265625,3.2320501804351807,-10.962000846862793,-1.2550500631332397
1698079651427234000,6.314234130859375,0.934950053691864,-9.391050338745117,-1.9380000829696655
1698079651436653000,6.323653076171875,4.34505033493042,-9.123000144958496,0.2970000207424164
1698079651446072300,6.333072265625,5.614050388336182,-8.0910005569458,2.2320001125335693
1698079651455491300,6.3424912109375,4.896000385284424,-6.886950492858887,4.792050361633301
1698079651464910600,6.35191064453125,5.355000019073486,-5.695050239562988,5.005050182342529
1698079651474329600,6.36132958984375,6.234000205993652,-3.3960001468658447,2.5860002040863037
1698079651483748900,6.370748779296875,6.9810004234313965,-1.2559500932693481,-0.12495000660419464
1698079651493168000,6.380168212890625,5.439000129699707,0.9049500226974487,-2.5360500812530518
1698079651502587100,6.389587158203125,3.9210002422332764,2.4310500621795654,-5.335050106048584
1698079651512006400,6.39900634765625,1.8760501146316528,3.259050130844116,-7.308000564575195
1698079651521425700,6.40842578125,-0.6250500082969666,2.067000150680542,-5.826000213623047
1698079651530844700,6.4178447265625,-2.02305006980896,0.4939500093460083,-4.657950401306152
1698079651540263700,6.427263671875,-3.418950080871582,-0.6430500149726868,-3.892050266265869
1698079651549683000,6.436682861328125,-2.868000030517578,-0.9850500226020813,-3.0649502277374268
1698079651559102000,6.44610205078125,-3.2059502601623535,-0.21195000410079956,-2.473950147628784
1698079651568521500,6.455521484375,-4.549050331115723,1.3459500074386597,-3.0460500717163086
1698079651577940500,6.4649404296875,-6.5460004806518555,2.671950101852417,-3.123000144958496
1698079651587359500,6.474359375,-7.261950492858887,2.9410500526428223,-3.0580501556396484
1698079651596778800,6.48377880859375,-7.398000240325928,2.0809500217437744,-2.1010501384735107
1698079651606197800,6.49319775390625,-9.63705062866211,0.7159500122070312,-1.8709501028060913
1698079651615617000,6.502616943359375,-12.724950790405273,-1.0420500040054321,-0.4320000112056732
1698079651625036300,6.512036376953125,-12.169950485229492,-2.6730000972747803,0.38100001215934753
1698079651634455300,6.521455322265625,-3.706050157546997,-3.394050121307373,0.5130000114440918
1698079651643874300,6.530874267578125,5.061000347137451,-2.848050117492676,2.5909500122070312
1698079651653293800,6.5402939453125,-4.633050441741943,-0.40095001459121704,2.0190000534057617
1698079651662712800,6.549712890625,-32.239051818847656,1.1230500936508179,-10.741950035095215
1698079651672132000,6.559132080078125,-18.02400016784668,-4.957050323486328,-21.406051635742188
1698079651681551000,6.568551025390625,9.655050277709961,-11.40000057220459,-17.110050201416016
1698079651690970400,6.577970458984375,-12.996000289916992,-12.942000389099121,-10.642950057983398
1698079651700389400,6.587389404296875,-11.008950233459473,-12.502050399780273,-1.3200000524520874
1698079651709809000,6.596808837890625,6.684000492095947,-4.597949981689453,-5.134050369262695
1698079651719227600,6.6062275390625,1.6800000667572021,-1.1860500574111938,-5.539050102233887
1698079651728647000,6.61564697265625,-8.944950103759766,-1.0380001068115234,-5.659050464630127
1698079651738066200,6.625066162109375,-4.029000282287598,-3.1470000743865967,-4.437000274658203
1698079651747485200,6.634485107421875,0.1189500093460083,-5.340000152587891,-5.00700044631958
1698079651756904200,6.643904296875,-2.8819501399993896,-7.2270002365112305,-6.652050495147705
1698079651766323500,6.653323486328125,-4.324050426483154,-8.431050300598145,-8.967000007629395
1698079651775742700,6.66274267578125,-2.5380001068115234,-9.319950103759766,-9.094050407409668
1698079651785161700,6.67216162109375,-0.20595000684261322,-10.231950759887695,-7.258050441741943
1698079651794581000,6.6815810546875,0.7969500422477722,-10.714950561523438,-4.7059502601623535
1698079651804000300,6.691000244140625,0.5809500217437744,-10.951950073242188,-1.7149500846862793
1698079651813419300,6.700419189453125,0.6049500107765198,-10.641000747680664,0.34995001554489136
1698079651822838500,6.709838623046875,0.028050001710653305,-10.906950950622559,1.5210000276565552
1698079651832257800,6.7192578125,-1.6110000610351562,-11.26395034790039,0.37905001640319824
1698079651841676500,6.728676513671875,-1.3810501098632812,-11.608050346374512,-1.7100000381469727
1698079651851096000,6.738095947265625,-0.31095001101493835,-11.970000267028809,-2.931000232696533
1698079651860515000,6.74751513671875,-0.5460000038146973,-12.616050720214844,-2.4720001220703125
1698079651869934000,6.75693408203125,-0.742050051689148,-13.267951011657715,-2.0530500411987305
1698079651879353600,6.766353515625,-0.7519500255584717,-14.041050910949707,-0.8080500364303589
1698079651888772400,6.7757724609375,-2.1160500049591064,-14.697000503540039,0.24495001137256622
1698079651898191600,6.785191650390625,-3.0640501976013184,-15.355950355529785,1.4970000982284546
1698079651907611000,6.79461083984375,-3.2370002269744873,-15.367051124572754,2.7060000896453857
1698079651917030100,6.804030029296875,-2.950050115585327,-14.599050521850586,2.7660000324249268
1698079651926449200,6.81344921875,-2.4630000591278076,-12.846000671386719,2.3610000610351562
1698079651935868200,6.8228681640625,-1.9990501403808594,-11.532000541687012,2.9170501232147217
1698079651945287700,6.83228759765625,-2.052000045776367,-10.354050636291504,3.172950267791748
1698079651954706400,6.84170654296875,-2.82705020904541,-9.07800006866455,2.6610000133514404
1698079651964125700,6.851125732421875,-3.8929502964019775,-8.11305046081543,1.9260001182556152
1698079651973545000,6.860544921875,-4.539000034332275,-7.4569501876831055,1.2430500984191895
1698079651982964000,6.8699638671875,-4.444050312042236,-7.05495023727417,1.1569499969482422
1698079651992383200,6.87938330078125,-4.387950420379639,-7.026000499725342,0.9970500469207764
1698079652001802200,6.88880224609375,-4.843050003051758,-6.753000259399414,-0.2689500153064728
1698079652011221500,6.898221435546875,-5.085000038146973,-6.682950496673584,-0.5230500102043152
1698079652020640500,6.907640625,-5.0970001220703125,-7.1260504722595215,0.31200000643730164
1698079652030059800,6.917059814453125,-4.884000301361084,-7.294050216674805,-1.0279500484466553
1698079652039478800,6.926478759765625,-4.969950199127197,-7.3060503005981445,-0.7429500222206116
1698079652048898000,6.93589794921875,-4.1509504318237305,-6.8680500984191895,-0.8479500412940979
1698079652058317000,6.945317138671875,-3.3130502700805664,-6.109050273895264,-2.146050214767456
1698079652067736300,6.954736328125,-2.9110500812530518,-5.251950263977051,-3.8010001182556152
1698079652077155600,6.964155517578125,-2.3490002155303955,-4.963950157165527,-4.726950168609619
1698079652086574600,6.97357470703125,-1.6879501342773438,-4.830000400543213,-5.2420501708984375
1698079652095993900,6.982993896484375,-1.1370000839233398,-5.247000217437744,-2.725950241088867
1698079652105413000,6.9924130859375,-0.3570000231266022,-6.157050132751465,-0.1489500105381012
1698079652114832000,7.001831787109375,0.7890000343322754,-7.414050579071045,2.6130001544952393
1698079652124251000,7.0112509765625,1.9150501489639282,-8.862000465393066,3.658950090408325
1698079652133670400,7.02067041015625,2.5060501098632812,-11.440950393676758,4.240950107574463
1698079652143089400,7.03008935546875,3.057000160217285,-13.545001029968262,4.815000057220459
1698079652152508700,7.0395087890625,3.724950075149536,-15.054000854492188,4.962000370025635
1698079652161928000,7.048927978515625,4.2709503173828125,-16.141050338745117,5.038050174713135
1698079652171347000,7.058346923828125,4.855050086975098,-16.54800033569336,4.413000106811523
1698079652180766000,7.067765869140625,5.20395040512085,-16.929000854492188,2.863950252532959
1698079652190185500,7.077185546875,3.7390501499176025,-17.575050354003906,1.2960000038146973
1698079652199604500,7.0866044921875,-0.4810500144958496,-18.52305030822754,0.6210000514984131
1698079652209023500,7.0960234375,-5.121000289916992,-19.33005142211914,-0.6780000329017639
1698079652218442800,7.10544287109375,-6.87600040435791,-20.035951614379883,-2.2489500045776367
1698079652227862000,7.114862060546875,-7.1010003089904785,-20.53005027770996,-2.682000160217285
1698079652237281000,7.124281005859375,-5.950050354003906,-20.424001693725586,-4.183950424194336
1698079652246700300,7.1337001953125,-5.181000232696533,-20.302051544189453,-7.504950523376465
1698079652256119300,7.143119384765625,-7.329000473022461,-20.599050521850586,-10.186050415039062
1698079652265538600,7.15253857421875,-11.1670503616333,-20.50605010986328,-7.497000217437744
1698079652274957300,7.161957275390625,-12.850050926208496,-18.367950439453125,-2.2540500164031982
1698079652284376800,7.171376953125,-12.934050559997559,-15.004050254821777,-0.5539500117301941
1698079652293795800,7.1807958984375,-12.028950691223145,-12.196950912475586,-1.64805006980896
1698079652303215000,7.190215087890625,-10.695000648498535,-10.428000450134277,-3.850950241088867
1698079652312634400,7.19963427734375,-9.229950904846191,-10.135950088500977,-4.77495002746582
1698079652322053400,7.209053466796875,-9.261000633239746,-11.227950096130371,-4.23900032043457
1698079652331472600,7.21847265625,-10.345050811767578,-12.909000396728516,-3.1399500370025635
1698079652340892000,7.227891845703125,-11.149950981140137,-14.60400104522705,-2.047950029373169
1698079652350310700,7.237310546875,-10.675950050354004,-15.873001098632812,-0.9970500469207764
1698079652359730000,7.24672998046875,-8.23799991607666,-17.281051635742188,-1.2120000123977661
1698079652369149200,7.256149169921875,-3.220050096511841,-19.339950561523438,-2.364000082015991
1698079652378568200,7.265568115234375,2.6950502395629883,-19.53404998779297,-5.164950370788574
1698079652387987200,7.2749873046875,5.47005033493042,-18.565950393676758,-7.011000156402588
1698079652397406500,7.284406494140625,6.859050273895264,-17.179950714111328,-5.4720001220703125
1698079652406825700,7.29382568359375,7.105050563812256,-16.194000244140625,-4.054049968719482
1698079652416244700,7.30324462890625,5.820000171661377,-14.707050323486328,-4.296000003814697
1698079652425664000,7.3126640625,9.199950218200684,-14.32395076751709,-5.689950466156006
1698079652435083300,7.322083251953125,16.687049865722656,-12.523050308227539,-7.165050506591797
1698079652444502300,7.331502197265625,12.082950592041016,-10.228950500488281,-6.403050422668457
1698079652453921500,7.340921630859375,10.948050498962402,-9.157050132751465,-4.399050235748291
1698079652463340800,7.3503408203125,0.06405000388622284,-9.43695068359375,-0.022050000727176666
1698079652472759800,7.359759765625,-32.217002868652344,-13.849950790405273,7.192950248718262
1698079652482178800,7.3691787109375,-20.425050735473633,-17.203950881958008,10.1089506149292
1698079652491598000,7.37859814453125,-8.4660005569458,-18.76995086669922,11.280000686645508
1698079652501017000,7.38801708984375,-1.01295006275177,-19.05000114440918,11.1510009765625
1698079652510436400,7.397436279296875,-0.4140000343322754,-18.58500099182129,9.778950691223145
1698079652519855600,7.406855712890625,2.182950019836426,-16.689001083374023,5.199000358581543
1698079652529274600,7.416274658203125,2.8150501251220703,-14.374051094055176,3.372000217437744
1698079652538693600,7.425693603515625,1.7730001211166382,-11.87700080871582,1.152000069618225
1698079652548113000,7.43511279296875,2.7690000534057617,-9.904050827026367,-0.21900001168251038
1698079652557532200,7.4445322265625,5.130000114440918,-7.870950222015381,-0.5440500378608704
1698079652566951200,7.453951171875,5.959050178527832,-4.2870001792907715,-0.8410500288009644
1698079652576370200,7.4633701171875,4.141050338745117,-0.08700000494718552,-1.6939500570297241
1698079652585789400,7.47278955078125,4.651050090789795,3.139050245285034,-2.11995005607605
1698079652595208700,7.482208740234375,5.748000144958496,5.064000129699707,-3.8269500732421875
1698079652604627700,7.491627685546875,4.242000102996826,5.835000514984131,-4.195950031280518
1698079652614047000,7.501046875,3.7320001125335693,5.218050479888916,-4.1449503898620605
1698079652623466200,7.51046630859375,3.3730502128601074,3.658950090408325,-3.9370501041412354
1698079652632885200,7.51988525390625,1.5840001106262207,1.377000093460083,-2.6200501918792725
1698079652642304500,7.529304443359375,-1.1470500230789185,-0.7549500465393066,-1.5450000762939453
1698079652651723300,7.53872314453125,-2.7270002365112305,-2.580000162124634,-0.10905000567436218
1698079652661142800,7.548142822265625,-2.574000120162964,-3.7699501514434814,0.6660000085830688
1698079652670562000,7.55756201171875,-2.6479501724243164,-3.7770001888275146,0.7480500340461731
1698079652679981000,7.56698095703125,-3.6409502029418945,-2.677950143814087,0.5730000138282776
1698079652689400000,7.576400146484375,-5.3269500732421875,-0.8010000586509705,0.6829500198364258
1698079652698819300,7.5858193359375,-6.94605016708374,2.0280001163482666,0.07200000435113907
1698079652708238600,7.595238525390625,-8.443950653076172,3.123000144958496,-0.7930500507354736
1698079652717657300,7.6046572265625,-9.052950859069824,3.2179501056671143,-0.906000018119812
1698079652727076600,7.61407666015625,-12.855000495910645,3.160950183868408,-1.9090501070022583
1698079652736495900,7.623495849609375,-18.421051025390625,2.54295015335083,-2.77305006980896
1698079652745915000,7.632914794921875,-21.01395034790039,1.675950050354004,-3.8580002784729004
1698079652755334100,7.642334228515625,-7.6900506019592285,-0.41505002975463867,-3.8989500999450684
1698079652764753400,7.65175341796875,17.635950088500977,-2.632050037384033,-0.034050002694129944
1698079652774172400,7.66117236328125,11.980051040649414,-1.9360500574111938,-0.2160000056028366
1698079652783591400,7.67059130859375,-18.59400177001953,0.04605000093579292,-10.504950523376465
1698079652793010700,7.6800107421875,-23.667001724243164,-3.0870001316070557,-22.05000114440918
1698079652802430000,7.689429931640625,-7.207050323486328,-6.777000427246094,-23.707050323486328
1698079652811849000,7.698848876953125,-12.757050514221191,-10.902000427246094,-4.714950084686279
1698079652821268200,7.708268310546875,-1.50600004196167,-8.896050453186035,0.2350500077009201
1698079652830687200,7.717687255859375,-1.3120501041412354,-4.050000190734863,-7.162050247192383
1698079652840106500,7.7271064453125,-4.171050071716309,-1.6939500570297241,-10.167000770568848
1698079652849525800,7.73652587890625,-2.5279500484466553,-2.3590500354766846,-7.428000450134277
1698079652858944800,7.74594482421875,-4.273950099945068,-3.7099502086639404,-5.529000282287598
1698079652868364000,7.755364013671875,-7.051050186157227,-5.557950496673584,-4.344000339508057
1698079652877783300,7.764783203125,-4.444050312042236,-7.071000099182129,-3.373950242996216
1698079652887202000,7.7742021484375,-4.276050090789795,-7.7059502601623535,-3.5059502124786377
1698079652896621300,7.783621337890625,-4.2709503173828125,-8.029050827026367,-3.5520002841949463
1698079652906040600,7.79304052734375,-3.129000186920166,-8.107950210571289,-3.192000150680542
1698079652915459800,7.8024599609375,-1.4839500188827515,-8.38800048828125,-1.8109500408172607
1698079652924878600,7.811878662109375,-3.697050094604492,-8.443050384521484,-1.2600001096725464
1698079652934297900,7.8212978515625,-3.756000280380249,-8.260950088500977,-1.831950068473816
1698079652943717000,7.830717041015625,-2.9230501651763916,-8.482049942016602,-1.4520000219345093
1698079652953136000,7.84013623046875,-3.3420002460479736,-8.93595027923584,-1.0230000019073486
1698079652962555400,7.849555419921875,-3.3109500408172607,-9.577950477600098,-0.2160000056028366
1698079652971974700,7.858974609375,-4.072050094604492,-10.015950202941895,-0.23295001685619354
1698079652981393700,7.8683935546875,-3.4639501571655273,-10.773000717163086,-0.22800001502037048
1698079652990812700,7.877812744140625,-3.06000018119812,-11.247000694274902,-0.817050039768219
1698079653000232200,7.887232177734375,-3.1120500564575195,-11.581950187683105,-0.9559500217437744
1698079653009651200,7.896651123046875,-3.52905011177063,-12.135000228881836,-0.8800500631332397
1698079653019070200,7.9060703125,-3.3040502071380615,-12.672000885009766,-0.5400000214576721
1698079653028489500,7.915489501953125,-3.5190000534057617,-13.047000885009766,-0.3910500109195709
1698079653037908500,7.924908447265625,-3.6730501651763916,-13.450050354003906,-0.36000001430511475
1698079653047327500,7.934327392578125,-4.398000240325928,-12.796051025390625,-1.0690500736236572
1698079653056746800,7.943746826171875,-3.6850502490997314,-12.106050491333008,-0.690000057220459
1698079653066166000,7.953166015625,-3.241950035095215,-11.581950187683105,0.3859500288963318
1698079653075585000,7.9625849609375,-3.390000104904175,-11.223000526428223,0.36705002188682556
1698079653085004300,7.97200439453125,-3.6130502223968506,-11.002950668334961,0.0990000069141388
1698079653094423300,7.98142333984375,-3.6060001850128174,-10.85205078125,-0.20205001533031464
1698079653103842800,7.9908427734375,-2.5830001831054688,-10.372950553894043,-0.62295001745224
1698079653113261800,8.00026171875,-3.7129502296447754,-9.20895004272461,-1.7820000648498535
1698079653122681000,8.00968115234375,-2.2699501514434814,-8.320950508117676,-2.6130001544952393
1698079653132099800,8.019099853515625,-2.49495005607605,-7.41795015335083,-3.949050188064575
1698079653141519400,8.028519287109376,-3.0169501304626465,-6.046950340270996,-5.437950134277344
1698079653150938400,8.0379384765625,-4.258950233459473,-4.560000419616699,-9.231000900268555
1698079653160357400,8.047357421875,-6.388050079345703,-4.132950305938721,-9.52500057220459
1698079653169777000,8.05677685546875,-7.693050384521484,-4.450050354003906,-8.742000579833984
1698079653179196000,8.06619580078125,-6.87600040435791,-5.695050239562988,-6.424950122833252
1698079653188615000,8.075614990234374,-4.180050373077393,-7.669950485229492,-2.9890501499176025
1698079653198034200,8.0850341796875,-0.6370500326156616,-9.42495059967041,1.1569499969482422
1698079653207453200,8.094453125,2.0340001583099365,-10.596000671386719,3.7860002517700195
1698079653216872200,8.1038720703125,3.7609500885009766,-11.848050117492676,5.329950332641602
1698079653226291700,8.113291748046874,2.9350502490997314,-13.528950691223145,6.925050258636475
1698079653235710700,8.122710693359375,0.5620500445365906,-15.135001182556152,6.907950401306152
1698079653245130000,8.1321298828125,-2.434950113296509,-16.516950607299805,5.503050327301025
1698079653254549000,8.141549072265626,-0.7159500122070312,-16.677000045776367,3.2400002479553223
1698079653263968300,8.15096826171875,1.2469500303268433,-16.195951461791992,1.9729501008987427
1698079653273387300,8.16038720703125,1.519950032234192,-16.033050537109375,1.4629501104354858
1698079653282806300,8.16980615234375,-0.5380499958992004,-15.765000343322754,0.286050021648407
1698079653292225500,8.1792255859375,-3.9720001220703125,-15.384000778198242,-1.6240500211715698
1698079653301644800,8.188644775390625,-6.514950275421143,-14.773950576782227,-3.702000141143799
1698079653311063800,8.198063720703125,-8.27400016784668,-14.295001029968262,-5.356950283050537
1698079653320483000,8.207483154296876,-8.194950103759766,-14.836050987243652,-5.5410003662109375
1698079653329902000,8.216902099609374,-7.6900506019592285,-15.717000961303711,-5.3020501136779785
1698079653339321000,8.226321044921875,-7.5420002937316895,-15.985051155090332,-5.922000408172607
1698079653348740400,8.235740234375,-7.294950485229492,-15.68595027923584,-5.5410003662109375
1698079653358159600,8.24515966796875,-7.788000583648682,-15.178050994873047,-2.9479501247406006
1698079653367578600,8.25457861328125,-7.957950592041016,-13.765950202941895,-0.42705002427101135
1698079653376998000,8.263997802734375,-7.699950218200684,-11.580000877380371,0.906000018119812
1698079653386417000,8.2734169921875,-7.71405029296875,-9.949050903320312,1.8709501028060913
1698079653395836200,8.282836181640626,-7.129950523376465,-8.671050071716309,1.689000129699707
1698079653405255200,8.292255126953124,-5.952000141143799,-8.749950408935547,-0.3169500231742859
1698079653414674400,8.30167431640625,-4.434000015258789,-9.564000129699707,-1.9519500732421875
1698079653424093400,8.311093505859375,-3.5620501041412354,-10.939950942993164,-2.3179500102996826
1698079653433512700,8.3205126953125,-3.4930500984191895,-11.946000099182129,-1.593000054359436
1698079653442932000,8.329931884765625,-3.948000192642212,-12.286050796508789,-1.0300500392913818
1698079653452351000,8.33935107421875,-4.422000408172607,-12.466050148010254,-0.8359500169754028
1698079653461770000,8.34877001953125,-4.699950218200684,-12.814950942993164,-0.3240000009536743
1698079653471189200,8.358189208984374,-4.422000408172607,-13.330050468444824,0.24495001137256622
1698079653480608500,8.3676083984375,-3.1630501747131348,-13.774950981140137,-0.030000001192092896
1698079653490027500,8.377027587890625,-0.26295000314712524,-13.986001014709473,-0.47700002789497375
1698079653499446800,8.38644677734375,3.1740002632141113,-13.926000595092773,-0.6450000405311584
1698079653508865800,8.39586572265625,5.509050369262695,-13.464000701904297,-0.6619500517845154
1698079653518285000,8.40528515625,5.44605016708374,-13.53600025177002,-0.30000001192092896
1698079653527704000,8.4147041015625,5.2759504318237305,-13.821001052856445,-0.14400000870227814
1698079653537123300,8.424123291015626,6.1120500564575195,-13.656001091003418,-0.3049500286579132
1698079653546542300,8.433542236328124,6.784950256347656,-13.129050254821777,0.3360000252723694
1698079653555961600,8.442961669921875,6.484950542449951,-12.580950736999512,1.4850000143051147
1698079653565380900,8.452380859375,6.832950115203857,-11.26395034790039,1.537950038909912
1698079653574800000,8.4617998046875,6.748950481414795,-9.78600025177002,1.665000081062317
1698079653584219000,8.471218994140624,6.1810503005981445,-8.359050750732422,1.4160000085830688
1698079653593638100,8.48063818359375,6.028050422668457,-7.14300012588501,1.0210500955581665
1698079653603057400,8.490057373046875,5.379000186920166,-6.183000087738037,0.44805002212524414
1698079653612476400,8.499476318359376,5.1160502433776855,-5.697000503540039,0.1469999998807907
1698079653621895400,8.5088955078125,4.812000274658203,-5.4910502433776855,0.28095000982284546
1698079653631315000,8.51831494140625,1.8240001201629639,-6.025050163269043,1.5540000200271606
1698079653640734000,8.52773388671875,-10.621050834655762,-6.760050296783447,3.123000144958496
1698079653650153000,8.537153076171874,-21.253950119018555,-7.609950542449951,3.139050245285034
1698079653659572200,8.546572265625,-15.972001075744629,-8.29995059967041,3.532050132751465
1698079653668991200,8.5559912109375,-5.799000263214111,-8.14905071258545,2.83305025100708
1698079653678410200,8.56541015625,0.6940500140190125,-7.243950366973877,2.743950128555298
1698079653687829500,8.57482958984375,3.5809502601623535,-6.379050254821777,2.9100000858306885
1698079653697248800,8.584248779296875,5.359950065612793,-6.078000068664551,3.1660501956939697
1698079653706667800,8.593667724609375,6.481050491333008,-5.898000240325928,2.505000114440918
1698079653716086800,8.603086669921876,4.630050182342529,-4.98105001449585,0.661050021648407
1698079653725506000,8.612506103515624,1.4650501012802124,-4.870950222015381,-0.15900000929832458
1698079653734925300,8.62192529296875,-0.6079500317573547,-4.654950141906738,-0.9750000238418579
1698079653744344300,8.63134423828125,-0.6169500350952148,-4.248000144958496,-1.576050043106079
1698079653753763600,8.640763671875,0.43695002794265747,-3.844050168991089,-1.7179501056671143
1698079653763182600,8.6501826171875,1.0690500736236572,-3.576000213623047,-1.6000500917434692
1698079653772601900,8.659601806640625,1.8690000772476196,-3.6379501819610596,-1.2750000953674316
1698079653782021000,8.669021240234375,2.0659501552581787,-3.5440502166748047,-1.1620500087738037
1698079653791440100,8.678440185546876,2.118000030517578,-3.4870500564575195,-1.0330500602722168
1698079653800859400,8.687859375,2.2139999866485596,-3.481950283050537,-0.931950032711029
1698079653810278400,8.6972783203125,2.1469500064849854,-3.595050096511841,-0.7380000352859497
1698079653819697700,8.70669775390625,2.2380001544952393,-3.934950113296509,-0.7410000562667847
1698079653829116700,8.71611669921875,1.738050103187561,-4.201050281524658,-1.114050030708313
1698079653838536000,8.725535888671875,1.2510000467300415,-4.464000225067139,-1.3440001010894775
1698079653847955000,8.734954833984375,1.2750000953674316,-4.746000289916992,-1.5949500799179077
1698079653857374000,8.7443740234375,1.1989500522613525,-4.903950214385986,-1.8490500450134277
1698079653866793200,8.753793212890624,0.7030500173568726,-5.107950210571289,-2.035950183868408
1698079653876212500,8.76321240234375,-0.5430000424385071,-5.28000020980835,-2.047950029373169
1698079653885631500,8.772631591796875,-1.9339500665664673,-5.484000205993652,-2.1630001068115234
1698079653895050800,8.78205078125,-2.7720000743865967,-5.766000270843506,-2.4600000381469727
1698079653904470000,8.791469970703124,-3.864000082015991,-5.974950313568115,-2.9890501499176025
1698079653913889000,8.800888916015625,-5.835000514984131,-7.014000415802002,-3.2470500469207764
1698079653923308000,8.81030810546875,-9.172050476074219,-8.563050270080566,-3.4770002365112305
1698079653932727300,8.819727294921876,-14.940000534057617,-10.158000946044922,-3.3960001468658447
1698079653942146600,8.829146484375,-20.34600067138672,-12.018000602722168,-3.6379501819610596
1698079653951565600,8.838565673828125,-21.268051147460938,-13.950000762939453,-3.8560502529144287
1698079653960984800,8.84798486328125,-21.847951889038086,-15.892050743103027,-3.037050247192383
1698079653970403800,8.85740380859375,-18.735000610351562,-16.759050369262695,-2.5630500316619873
1698079653979822800,8.86682275390625,-12.474000930786133,-15.640050888061523,-1.537950038909912
1698079653989242000,8.8762421875,-8.57805061340332,-13.453950881958008,0.30000001192092896
1698079653998661400,8.885661376953125,-8.136000633239746,-11.239950180053711,2.176950216293335
1698079654008080400,8.895080322265626,-8.788949966430664,-9.331050872802734,2.8759500980377197
1698079654017499400,8.90449951171875,-10.980000495910645,-8.611050605773926,2.373000144958496
1698079654026918700,8.913918701171875,-10.932000160217285,-8.53695011138916,2.155050039291382
1698079654036337700,8.923337646484375,-5.394000053405762,-9.051000595092773,3.052950143814087
1698079654045757000,8.9327568359375,1.891050100326538,-9.09000015258789,2.3519999980926514
1698079654055176200,8.94217626953125,7.960050582885742,-8.64900016784668,-1.240950107574463
1698079654064595200,8.95159521484375,4.771050453186035,-9.48705005645752,-3.3889501094818115
1698079654074014200,8.96101416015625,2.118000030517578,-10.765950202941895,-5.563050270080566
1698079654083433500,8.97043359375,-11.563950538635254,-13.27500057220459,-10.093050003051758
1698079654092852700,8.979852783203125,-5.514000415802002,-14.154000282287598,-10.780050277709961
1698079654102271700,8.989271728515625,7.744950294494629,-11.200950622558594,-4.714950084686279
1698079654111691000,8.99869091796875,6.436950206756592,-8.647050857543945,-1.7989500761032104
1698079654121110300,9.0081103515625,5.788950443267822,-7.6459503173828125,-0.28095000982284546
1698079654130529000,9.017529052734375,6.1210503578186035,-8.079000473022461,0.4990500211715698
1698079654139948300,9.0269482421875,4.717950344085693,-9.50100040435791,0.9340500235557556
1698079654149367600,9.036367431640626,2.809950113296509,-10.972050666809082,1.0950000286102295
1698079654158786600,9.04578662109375,1.8550500869750977,-12.44895076751709,1.059000015258789
1698079654168205600,9.05520556640625,1.9870500564575195,-13.801950454711914,1.4010000228881836
1698079654177625000,9.064625,2.5279500484466553,-15.00105094909668,2.2320001125335693
1698079654187044000,9.074044189453126,2.728950023651123,-15.47805118560791,3.1680002212524414
1698079654196463000,9.083463134765625,2.6929500102996826,-15.343950271606445,3.819000244140625
1698079654205882400,9.09288232421875,2.8939502239227295,-14.31195068359375,3.991950273513794
1698079654215301600,9.102301513671875,3.658050060272217,-12.532950401306152,3.573000192642212
1698079654224720400,9.111720458984376,4.254000186920166,-10.873050689697266,2.9580001831054688
1698079654234139600,9.1211396484375,3.6910502910614014,-9.930000305175781,2.4240000247955322
1698079654243559200,9.13055908203125,2.137050151824951,-9.472949981689453,2.026050090789795
1698079654252978200,9.139978271484376,0.5929500460624695,-9.279000282287598,1.7170500755310059
1698079654262397200,9.149397216796874,-0.45900002121925354,-9.279000282287598,1.2499500513076782
1698079654271816400,9.15881640625,-1.2619500160217285,-9.364950180053711,0.8940000534057617
1698079654281235500,9.1682353515625,-1.432050108909607,-9.351000785827637,0.18495000898838043
1698079654290654700,9.17765478515625,-1.3290001153945923,-9.135000228881836,-0.8530500531196594
1698079654300073700,9.18707373046875,-0.7870500087738037,-8.752050399780273,-1.9429501295089722
1698079654309493000,9.196492919921875,-0.04800000041723251,-8.170050621032715,-3.2569501399993896
1698079654318912300,9.205912353515625,0.49500003457069397,-7.729950428009033,-4.234050273895264
1698079654328331300,9.215331298828126,0.7699500322341919,-7.555050373077393,-4.427999973297119
1698079654337750300,9.224750244140624,0.921000063419342,-7.609950542449951,-4.576050281524658
1698079654347169500,9.23416943359375,0.9589500427246094,-7.69605016708374,-4.830000400543213
1698079654356588800,9.2435888671875,0.6240000128746033,-8.25195026397705,-4.222050189971924
1698079654366007800,9.2530078125,-0.14295001327991486,-8.725950241088867,-3.6349501609802246
1698079654375426800,9.2624267578125,-0.559950053691864,-8.826000213623047,-2.5819501876831055
1698079654384846000,9.27184619140625,-0.8620500564575195,-7.969050407409668,-3.8010001182556152
1698079654394265000,9.28126513671875,-1.0530000925064087,-6.874950408935547,-6.21405029296875
1698079654403684000,9.29068408203125,-1.1470500230789185,-6.300000190734863,-5.93595027923584
1698079654413103600,9.300103515625,-1.3410000801086426,-6.403050422668457,-4.372950077056885
1698079654422522600,9.309522705078125,-1.5109500885009766,-6.999000549316406,-2.2159500122070312
1698079654431942000,9.31894189453125,-1.29705011844635,-7.483050346374512,-0.6310500502586365
1698079654441361200,9.328361083984374,-0.8689500689506531,-8.182050704956055,0.5460000038146973
1698079654450780200,9.3377802734375,-0.6340500116348267,-8.737950325012207,1.0900501012802124
1698079654460199200,9.34719921875,-0.4930500090122223,-9.327000617980957,1.2550500631332397
1698079654469618400,9.356618408203126,-0.33000001311302185,-9.982950210571289,1.5570000410079956
1698079654479037700,9.36603759765625,-0.032999999821186066,-10.5600004196167,1.8540000915527344
1698079654488456400,9.37545654296875,0.41100001335144043,-10.866000175476074,1.8630000352859497
1698079654497876000,9.3848759765625,0.9570000171661377,-11.379000663757324,1.6360501050949097
1698079654507295000,9.394294921875,1.864050030708313,-11.69895076751709,1.537950038909912
1698079654516714000,9.4037138671875,1.651050090789795,-12.207000732421875,1.9830000400543213
1698079654526133200,9.41313330078125,0.24105000495910645,-12.834000587463379,2.515050172805786
1698079654535552500,9.422552490234375,-0.9019500613212585,-13.179000854492188,2.2320001125335693
1698079654544971500,9.431971435546876,-1.9870500564575195,-12.931950569152832,1.2529500722885132
1698079654554390500,9.441390625,-3.20805025100708,-12.387001037597656,0.4630500078201294
1698079654563809500,9.4508095703125,-3.8830502033233643,-11.9170503616333,0.7999500632286072
1698079654573229000,9.46022900390625,-4.324050426483154,-11.379000663757324,1.1329500675201416
1698079654582648000,9.46964794921875,-4.921950340270996,-11.314050674438477,1.4610000848770142
1698079654592067000,9.479067138671875,-5.82705020904541,-12.042000770568848,1.321950078010559
1698079654601486300,9.488486328125,-6.418950080871582,-12.408000946044922,0.0799500048160553
1698079654610905300,9.4979052734375,-6.574050426483154,-12.5110502243042,-1.2990000247955322
1698079654620324600,9.50732470703125,-5.8660502433776855,-12.868050575256348,-2.565000057220459
1698079654629743600,9.51674365234375,-4.420050144195557,-13.81605052947998,-2.884050130844116
1698079654639163000,9.526162841796875,-2.731950044631958,-14.182050704956055,-2.047950029373169
1698079654648582000,9.535581787109376,-1.9270501136779785,-13.81605052947998,-0.003000000026077032
1698079654658001200,9.545001220703124,-1.4530500173568726,-13.23900032043457,2.2510499954223633
1698079654667420400,9.55442041015625,-1.7119500637054443,-12.367050170898438,1.9470001459121704
1698079654676839400,9.56383935546875,-2.491950035095215,-11.668050765991211,2.1030001640319824
1698079654686258400,9.573258544921876,-2.9449501037597656,-11.766000747680664,3.6180002689361572
1698079654695677700,9.582677734375,-2.593050241470337,-12.331950187683105,4.3560004234313965
1698079654705097000,9.592096923828125,-1.7860500812530518,-12.604050636291504,3.5970001220703125
1698079654714515700,9.601515625,-0.6919500231742859,-12.793951034545898,3.472050189971924
1698079654723935200,9.610935302734376,0.3730500042438507,-13.095000267028809,3.8389501571655273
1698079654733354200,9.620354248046874,0.9829500317573547,-13.471050262451172,3.724050283432007
1698079654742773200,9.629773193359375,1.5840001106262207,-14.11500072479248,2.9220001697540283
1698079654752192500,9.639192626953125,2.013000011444092,-14.848051071166992,1.8060001134872437
1698079654761611500,9.648611572265626,2.07705020904541,-15.669000625610352,1.1160000562667847
1698079654771030800,9.65803076171875,2.1090002059936523,-16.153051376342773,1.0350000858306885
1698079654780450000,9.667449951171875,2.31000018119812,-16.468950271606445,0.5350500345230103
1698079654789869000,9.676869140625,2.416950225830078,-16.404001235961914,0.8670000433921814
1698079654799288000,9.6862880859375,3.0640501976013184,-15.77505111694336,1.300950050354004
1698079654808707300,9.695707275390625,7.696950435638428,-15.340950965881348,2.545950174331665
1698079654818126600,9.705126708984375,7.9770002365112305,-13.581000328063965,3.025050163269043
1698079654827545600,9.714545654296876,9.07395076751709,-11.08905029296875,1.6219500303268433
1698079654836964900,9.72396484375,12.538050651550293,-9.943950653076172,1.801050066947937
1698079654846383900,9.7333837890625,10.905000686645508,-8.898000717163086,2.1600000858306885
1698079654855803000,9.742802978515625,6.961950302124023,-7.521000385284424,0.9799500703811646
1698079654865222000,9.752221923828126,3.346050262451172,-6.2910003662109375,0.8269500136375427
1698079654874641400,9.761641357421874,-0.34005001187324524,-5.749950408935547,0.859950065612793
1698079654884060400,9.771060302734375,-24.735000610351562,-9.184950828552246,6.271050453186035
1698079654893479700,9.780479736328125,-12.682050704956055,-10.183950424194336,6.025050163269043
1698079654902898700,9.789898681640626,-3.1240501403808594,-9.790950775146484,4.452000141143799
1698079654912318000,9.79931787109375,1.7830500602722168,-9.217050552368164,3.4200000762939453
1698079654921737000,9.808737060546875,3.6150002479553223,-8.557950019836426,2.7090001106262207
1698079654931156200,9.81815625,3.6889500617980957,-7.870950222015381,2.485950231552124
1698079654940575200,9.8275751953125,5.980050086975098,-7.7749505043029785,3.283050060272217
1698079654949994200,9.836994140625,7.375950336456299,-7.095000267028809,3.2089500427246094
1698079654959413800,9.846413818359375,7.254000186920166,-6.712050437927246,2.4160501956939697
1698079654968832800,9.855832763671875,5.968050479888916,-6.31695032119751,1.1860500574111938
1698079654978251800,9.865251708984376,5.068050384521484,-5.8999505043029785,-0.04905000329017639
1698079654987671000,9.874671142578125,4.093050003051758,-5.215950012207031,-0.931950032711029
1698079654997090000,9.884090087890625,3.753000259399414,-4.584000110626221,-1.0330500602722168
1698079655006509300,9.89350927734375,2.7240002155303955,-3.700050115585327,-1.6240500211715698
1698079655015928300,9.90292822265625,1.3639500141143799,-2.8690500259399414,-1.8520500659942627
1698079655025347600,9.91234765625,0.16905000805854797,-2.1630001068115234,-1.7179501056671143
1698079655034766600,9.9217666015625,-0.44700002670288086,-1.7610000371932983,-1.3339500427246094
1698079655044185900,9.931185791015626,0.22200001776218414,-1.651050090789795,-0.1879500150680542
1698079655053604900,9.94060498046875,1.921950101852417,-2.0910000801086426,0.025050001218914986
1698079655063024000,9.950024169921875,3.145050048828125,-3.391050100326538,-0.6660000085830688
1698079655072443400,9.959443359375,1.258950114250183,-5.224950313568115,-2.284950017929077
1698079655081862400,9.9688623046875,-4.341000080108643,-7.762950420379639,-4.425000190734863
1698079655091281700,9.97828173828125,-21.742050170898438,-11.034000396728516,-7.91895055770874
1698079655100700400,9.987700439453125,-26.080951690673828,-14.994000434875488,-14.3899507522583
1698079655110120000,9.997119873046875,-11.836950302124023,-19.68000030517578,-14.850000381469727
1698079655119539000,10.0065390625,-16.96095085144043,-22.747051239013672,-16.308000564575195
1698079655128958000,10.0159580078125,-23.334001541137695,-25.27695083618164,-12.481950759887695
1698079655138377500,10.02537744140625,-17.302949905395508,-21.790950775146484,-7.557000160217285
1698079655147796500,10.03479638671875,-6.445050239562988,-14.536951065063477,-4.33905029296875
1698079655157215500,10.044215576171876,-6.2659502029418945,-8.107950210571289,-2.1559500694274902
1698079655166634500,10.053634521484375,-14.77500057220459,-4.849050045013428,-1.3369500637054443
1698079655176053800,10.0630537109375,-1.2540000677108765,-4.6720499992370605,-0.10095000267028809
1698079655185472800,10.07247265625,15.658050537109375,-4.938000202178955,1.1069999933242798
1698079655194891800,10.081891845703124,14.142000198364258,-6.039000511169434,1.4040000438690186
1698079655204311000,10.09131103515625,3.3390002250671387,-7.44705057144165,2.9770500659942627
1698079655213730000,10.10072998046875,2.9130001068115234,-7.086000442504883,-0.10395000129938126
1698079655223149300,10.1101494140625,2.5279500484466553,-7.267950534820557,-1.5070500373840332
1698079655232568600,10.119568603515624,4.326000213623047,-9.019950866699219,-2.206050157546997
1698079655241987600,10.128987548828125,6.0859503746032715,-11.845050811767578,-1.5400500297546387
1698079655251406800,10.13840673828125,5.8560004234313965,-14.9170503616333,-0.520050048828125
1698079655260825900,10.147825927734376,5.278950214385986,-16.143001556396484,0.19500000774860382
1698079655270245000,10.1572451171875,5.491950035095215,-15.832050323486328,0.7669500112533569
1698079655279664000,10.1666640625,4.975050449371338,-15.154050827026367,2.4760501384735107
1698079655289083100,10.176083251953125,4.126950263977051,-14.88900089263916,4.198050022125244
1698079655298502400,10.18550244140625,3.436950206756592,-15.00105094909668,5.373000144958496
1698079655307921700,10.194921630859374,3.046950101852417,-14.92905044555664,5.791950225830078
1698079655317340700,10.204340576171875,2.6430001258850098,-14.68005084991455,5.5219502449035645
1698079655326759700,10.213759765625,2.389050006866455,-14.37600040435791,4.059000015258789
1698079655336179000,10.223178955078126,2.499000072479248,-13.675050735473633,2.4619500637054443
1698079655345598000,10.232597900390624,2.5660500526428223,-12.504000663757324,0.9220500588417053
1698079655355017200,10.242017333984375,2.4079501628875732,-11.57295036315918,0.7260000109672546
1698079655364436500,10.2514365234375,1.6230000257492065,-11.359050750732422,1.3870500326156616
1698079655373855500,10.26085546875,0.8970000147819519,-11.443050384521484,1.3990501165390015
1698079655383274800,10.270274658203125,0.5020500421524048,-11.632050514221191,0.8239500522613525
1698079655392693800,10.27969384765625,0.17400000989437103,-11.545950889587402,-0.006000000052154064
1698079655402113000,10.289113037109376,-0.0019500000635161996,-10.998000144958496,-0.6070500016212463
1698079655411532000,10.298531982421874,-0.019050000235438347,-10.105050086975098,-1.3579500913619995
1698079655420951300,10.307951416015625,0.13305000960826874,-9.336000442504883,-2.368950128555298
1698079655430370300,10.317370361328125,0.0880500078201294,-8.343000411987305,-3.4960501194000244
1698079655439789300,10.326789306640626,-1.450950026512146,-7.087950229644775,-5.958000183105469
1698079655449208800,10.336208740234374,-2.1000001430511475,-6.388950347900391,-6.6469502449035645
1698079655458627600,10.345627685546875,-1.5559500455856323,-6.88200044631958,-5.035950183868408
1698079655468046800,10.355046875,-0.9769500494003296,-8.034000396728516,-2.884050130844116
1698079655477466000,10.364466064453126,-0.45000001788139343,-8.3860502243042,-2.91195011138916
1698079655486885000,10.373885009765624,0.013950000517070293,-8.119950294494629,-4.282050132751465
1698079655496304000,10.38330419921875,0.05895000323653221,-7.474050521850586,-5.5410003662109375
1698079655505723600,10.3927236328125,-0.46905001997947693,-7.342050552368164,-5.6419501304626465
1698079655515142700,10.402142578125,-2.095050096511841,-7.497000217437744,-4.82295036315918
1698079655524561700,10.411561767578124,-2.7940502166748047,-7.789950370788574,-3.5590500831604004
1698079655533980700,10.420980712890625,-3.031050205230713,-8.296950340270996,-2.244000196456909
1698079655543400000,10.43039990234375,-2.868000030517578,-8.806950569152832,-0.8479500412940979
1698079655552819200,10.439819091796876,-2.6929500102996826,-9.24000072479248,0.34995001554489136
1698079655562238000,10.449238037109374,-2.811000108718872,-9.790950775146484,1.432050108909607
1698079655571657500,10.458657470703125,-3.117000102996826,-10.378050804138184,1.7820000648498535
1698079655581076500,10.468076416015625,-2.952000141143799,-11.290050506591797,2.694000244140625
1698079655590495500,10.47749560546875,-2.521050214767456,-12.196950912475586,2.134050130844116
1698079655599914500,10.48691455078125,-2.193000078201294,-12.790950775146484,1.5810000896453857
1698079655609334000,10.496333984375,-2.620950222015381,-13.390050888061523,2.067000150680542
1698079655618753000,10.5057529296875,-3.6319501399993896,-14.308950424194336,2.934000253677368
1698079655628171800,10.515171875,-4.885950088500977,-15.304950714111328,3.580050230026245
1698079655637591300,10.52459130859375,-6.9120001792907715,-15.894001007080078,3.8269500732421875
1698079655647010300,10.53401025390625,-9.120000839233398,-15.862950325012207,3.640050172805786
1698079655656429300,10.54342919921875,-10.563000679016113,-15.399001121520996,2.634000062942505
1698079655665848600,10.5528486328125,-10.63800048828125,-14.611050605773926,0.4990500211715698
1698079655675267600,10.562267578125,-8.72504997253418,-13.749000549316406,-2.806950092315674
1698079655684686800,10.571686767578125,-6.522000312805176,-13.660050392150879,-5.836050510406494
1698079655694105900,10.58110595703125,-4.956000328063965,-14.671051025390625,-6.859950542449951
1698079655703525000,10.590525146484374,-3.895050287246704,-15.693000793457031,-6.013050079345703
1698079655712944000,10.599944091796875,-3.100050210952759,-15.921000480651855,-4.73205041885376
1698079655722363400,10.60936328125,-2.422950029373169,-15.490050315856934,-3.8050501346588135
1698079655731782400,10.618782470703126,-2.133000135421753,-14.211000442504883,-3.463050127029419
1698079655741201700,10.62820166015625,-2.860950231552124,-12.72900104522705,-4.138050079345703
1698079655750620700,10.63762060546875,-3.80400013923645,-11.836050987243652,-4.497000217437744
1698079655760040200,10.647040283203125,-3.928950071334839,-12.718950271606445,-3.58305025100708
1698079655769459000,10.656458984375,-3.7920002937316895,-14.821950912475586,-2.247000217437744
1698079655778878200,10.665878173828125,-2.788950204849243,-17.142000198364258,-1.9690500497817993
1698079655788297200,10.675297119140625,-1.1920500993728638,-18.76995086669922,-1.168950080871582
1698079655797716500,10.684716552734375,1.0140000581741333,-20.356950759887695,-0.325950026512146
1698079655807135500,10.694135498046874,1.8600001335144043,-22.00200080871582,1.15500009059906
1698079655816554800,10.7035546875,1.371000051498413,-23.035951614379883,3.369000196456909
1698079655825974000,10.71297412109375,1.5100500583648682,-23.00295066833496,4.368000030517578
1698079655835393000,10.72239306640625,2.1280500888824463,-21.790950775146484,4.7220001220703125
1698079655844812000,10.73181201171875,4.045950412750244,-20.769001007080078,4.666950225830078
1698079655854231300,10.741231201171875,6.0259504318237305,-19.423051834106445,4.396049976348877
1698079655863650300,10.750650390625,-9.202950477600098,-19.68000030517578,7.9069504737854
1698079655873069300,10.7600693359375,-13.290000915527344,-21.705001831054688,6.412050247192383
1698079655882488800,10.76948876953125,-9.131999969482422,-21.36495018005371,5.38800048828125
1698079655891907800,10.778907958984375,-3.864000082015991,-20.15595054626465,5.47605037689209
1698079655901326800,10.788326904296875,-2.0089499950408936,-18.589950561523438,3.9150002002716064
1698079655910746000,10.79774609375,-0.21300001442432404,-16.488000869750977,1.4350500106811523
1698079655920165000,10.8071650390625,1.7539501190185547,-14.194050788879395,0.043950002640485764
1698079655929584400,10.81658447265625,3.8400001525878906,-11.812050819396973,0.6160500049591064
1698079655939003600,10.826003662109375,2.5470001697540283,-9.894000053405762,1.662000060081482
1698079655948422400,10.83542236328125,1.9410001039505005,-8.211000442504883,3.490950107574463
1698079655957841700,10.844841552734374,2.788950204849243,-7.384950160980225,4.045050144195557
1698079655967260700,10.8542607421875,4.672950267791748,-6.576000213623047,4.180950164794922
1698079655976680000,10.863679931640625,6.993000507354736,-4.938000202178955,3.139050245285034
1698079655986099000,10.873098876953126,7.852950572967529,-3.90405011177063,1.758000135421753
1698079655995518200,10.882518310546875,7.62000036239624,-3.436950206756592,0.7810500264167786
1698079656004937200,10.891937255859375,6.279000282287598,-2.533950090408325,-1.6909500360488892
1698079656014356500,10.9013564453125,4.32105016708374,-1.5400500297546387,-4.729950428009033
1698079656023775500,10.910775390625,4.165050029754639,-0.999000072479248,-5.131950378417969
1698079656033194800,10.92019482421875,4.639050006866455,0.028950002044439316,-7.70805025100708
1698079656042614000,10.929614013671875,2.968050241470337,1.0180500745773315,-9.553950309753418
1698079656052033000,10.939032958984376,0.7510500550270081,2.4379501342773438,-9.874950408935547
1698079656061452300,10.948452392578124,-0.8400000333786011,2.4190502166748047,-7.102050304412842
1698079656070871300,10.957871337890625,-1.5150001049041748,1.8229501247406006,-4.464000225067139
1698079656080290300,10.967290283203125,-2.2740001678466797,1.8390001058578491,-3.3550500869750977
1698079656089709600,10.97670947265625,-4.197000026702881,2.1790502071380615,-2.6700000762939453
1698079656099128800,10.98612890625,-6.072000503540039,2.565000057220459,-2.0620501041412354
1698079656108547800,10.9955478515625,-6.943050384521484,1.9900500774383545,-0.14400000870227814
1698079656117966800,11.004966796875,-8.350950241088867,0.778950035572052,0.3430500030517578
1698079656127386000,11.01438623046875,-10.075050354003906,-0.8050500154495239,0.6970500349998474
1698079656136805000,11.02380517578125,-12.56505012512207,-2.086050033569336,0.9540000557899475
1698079656146224400,11.033224365234375,-13.810050964355469,-3.391050100326538,0.4320000112056732
1698079656155643600,11.0426435546875,-8.479949951171875,-4.312950134277344,0.6300000548362732
1698079656165062400,11.0520625,-3.8020501136779785,-3.750000238418579,-0.40995001792907715
1698079656174481700,11.061481689453124,-7.945950508117676,-2.067000150680542,-2.953050136566162
1698079656183901000,11.07090087890625,-21.62295150756836,-1.4209500551223755,-11.472000122070312
1698079656193320000,11.08031982421875,-8.956950187683105,-5.5600504875183105,-16.579050064086914
1698079656202739000,11.089739013671876,4.390050411224365,-10.030950546264648,-13.207950592041016
1698079656212158200,11.099158203125,-5.0209503173828125,-8.704050064086914,-12.706950187683105
1698079656221577200,11.1085771484375,-13.183050155639648,-6.624000549316406,-8.805000305175781
1698079656230996500,11.11799658203125,-0.4710000157356262,-2.058000087738037,-8.946000099182129
1698079656240415500,11.12741552734375,-1.0219500064849854,-0.45600003004074097,-6.505950450897217
1698079656249834500,11.13683447265625,-10.012950897216797,-0.8700000643730164,-6.091950416564941
1698079656259253500,11.14625341796875,-5.844000339508057,-3.5059502124786377,-5.299050331115723
1698079656268672800,11.1556728515625,-0.6580500602722168,-5.307000160217285,-6.025050163269043
1698079656278091800,11.165091796875,-2.245950222015381,-6.57105016708374,-6.901050090789795
1698079656287511000,11.174510986328125,-2.3080501556396484,-7.864050388336182,-6.820050239562988
1698079656296930300,11.183930419921875,-2.980950117111206,-8.449950218200684,-6.4270501136779785
1698079656306349300,11.193349365234376,-3.2659502029418945,-8.926950454711914,-5.20395040512085
1698079656315768300,11.202768310546874,-2.490000009536743,-9.027000427246094,-3.9750001430511475
1698079656325187600,11.2121875,-0.5070000290870667,-8.814000129699707,-2.515050172805786
1698079656334606600,11.221606689453125,-1.9530000686645508,-8.575050354003906,-1.1620500087738037
1698079656344025600,11.231025634765626,-2.133000135421753,-8.392950057983398,-0.1660500019788742
1698079656353444900,11.24044482421875,-2.4970500469207764,-8.472000122070312,-0.30705001950263977
1698079656362864000,11.249864013671875,-2.1910500526428223,-8.596050262451172,-0.3840000033378601
1698079656372283400,11.259283447265625,-2.422950029373169,-8.8410005569458,-1.4010000228881836
1698079656381702400,11.268702392578126,-2.7910501956939697,-9.157050132751465,-2.1750001907348633
1698079656391121700,11.27812158203125,-3.0450000762939453,-9.6739501953125,-2.5960500240325928
1698079656400540700,11.287540771484375,-2.638050079345703,-10.360950469970703,-2.1720001697540283
1698079656409960000,11.2969599609375,-2.7960002422332764,-11.13705062866211,-1.758000135421753
1698079656419379000,11.30637890625,-3.261000156402588,-11.94795036315918,-0.8080500364303589
1698079656428798000,11.3157978515625,-3.2749502658843994,-12.742950439453125,-0.013050000183284283
1698079656438217500,11.325217529296875,-2.350950002670288,-13.083000183105469,0.09600000083446503
1698079656447636500,11.334636474609376,-1.8630000352859497,-13.347001075744629,0.6520500183105469
1698079656457055500,11.344055419921874,-1.5180001258850098,-13.58595085144043,1.5109500885009766
1698079656466474500,11.353474609375,-2.2789502143859863,-13.159950256347656,1.7839500904083252
1698079656475893800,11.362893798828125,-4.897950172424316,-11.695050239562988,0.931950032711029
1698079656485312800,11.372312744140626,-6.001950263977051,-10.023000717163086,0.3720000088214874
1698079656494731800,11.381731689453124,-5.088000297546387,-8.788050651550293,0.26205000281333923
1698079656504151300,11.3911513671875,-4.132050037384033,-8.284950256347656,0.17805001139640808
1698079656513570000,11.400570068359375,-3.1720502376556396,-8.046000480651855,-0.09405000507831573
1698079656522989300,11.4099892578125,-2.6329500675201416,-8.074049949645996,-0.17805001139640808
1698079656532408600,11.41940869140625,-3.2749502658843994,-8.175000190734863,-0.5749500393867493
1698079656541827600,11.42882763671875,-4.659000396728516,-8.623050689697266,-1.0470000505447388
1698079656551246800,11.438246826171875,-5.1570000648498535,-8.986950874328613,-0.7210500240325928
1698079656560665900,11.447665771484376,-4.630050182342529,-8.934000015258789,-1.5589500665664673
1698079656570084900,11.4570849609375,-3.450000047683716,-8.721000671386719,-1.284000039100647
1698079656579504000,11.466504150390625,-2.076000213623047,-7.468950271606445,-2.386050224304199
1698079656588923400,11.47592333984375,-2.155050039291382,-6.469950199127197,-2.893050193786621
1698079656598342400,11.48534228515625,-2.431950092315674,-6.0420002937316895,-5.448000431060791
1698079656607761400,11.494761474609374,-2.8249502182006836,-5.794950485229492,-6.658950328826904
1698079656617180400,11.504180419921875,-2.9230501651763916,-6.31695032119751,-6.0420002937316895
1698079656626599700,11.513599609375,-2.479950189590454,-7.581000328063965,-3.939000129699707
1698079656636018700,11.523018798828126,-2.3749501705169678,-9.73905086517334,-0.2350500077009201
1698079656645438000,11.53243798828125,-0.8860500454902649,-12.15000057220459,3.30495023727417
1698079656654857200,11.541857177734375,1.4500501155853271,-14.395051002502441,6.147000312805176
1698079656664276200,11.551276123046875,2.5920000076293945,-16.464000701904297,7.483050346374512
1698079656673695200,11.5606953125,3.646050214767456,-17.371950149536133,7.06095027923584
1698079656683114500,11.570114501953125,4.129050254821777,-17.347949981689453,4.7989501953125
1698079656692533800,11.57953369140625,2.5060501098632812,-17.206050872802734,1.5090000629425049
1698079656701952500,11.588952392578125,-0.1980000138282776,-16.78995132446289,-1.4520000219345093
1698079656711372000,11.5983720703125,-2.9280002117156982,-16.08795166015625,-3.7140002250671387
1698079656720791000,11.607791015625,-4.755000114440918,-15.367051124572754,-5.970000267028809
1698079656730210000,11.6172099609375,-6.2820000648498535,-15.085050582885742,-6.613950252532959
1698079656739629000,11.626629150390626,-6.463950157165527,-15.432001113891602,-6.472950458526611
1698079656749048300,11.63604833984375,-6.2820000648498535,-15.706951141357422,-6.750000476837158
1698079656758467600,11.645467529296875,-7.2210001945495605,-15.705000877380371,-7.549950122833252
1698079656767886600,11.654886474609375,-8.053950309753418,-16.009050369262695,-7.224000453948975
1698079656777305900,11.664305908203126,-10.14900016784668,-16.729949951171875,-5.211000442504883
1698079656786724900,11.673724853515624,-13.506000518798828,-17.31195068359375,-1.9330500364303589
1698079656796143900,11.683143798828125,-17.686050415039062,-16.275001525878906,0.8149500489234924
1698079656805563100,11.692563232421875,-20.073001861572266,-14.296950340270996,2.055000066757202
1698079656814982100,11.701982177734376,-18.34695053100586,-12.54900074005127,1.5739500522613525
1698079656824401400,11.7114013671875,-13.18005084991455,-11.812050819396973,0.3550500273704529
1698079656833820400,11.7208203125,-7.06095027923584,-12.544950485229492,-1.5739500522613525
1698079656843239700,11.73023974609375,-3.7350001335144043,-13.738950729370117,-3.451050281524658
1698079656852658700,11.73965869140625,-1.5510001182556152,-14.731050491333008,-5.15595006942749
1698079656862077700,11.74907763671875,0.8470500111579895,-15.241050720214844,-6.51300048828125
1698079656871496700,11.75849658203125,1.0840500593185425,-15.526050567626953,-7.4569501876831055
1698079656880916200,11.767916259765625,2.4529500007629395,-16.047000885009766,-9.163949966430664
1698079656890335200,11.777335205078124,3.7990500926971436,-15.970951080322266,-10.027950286865234
1698079656899754200,11.786754150390625,4.338000297546387,-15.664051055908203,-9.327000617980957
1698079656909173200,11.79617333984375,4.219950199127197,-14.227951049804688,-9.45300006866455
1698079656918592500,11.805592529296876,4.096050262451172,-11.611050605773926,-9.529950141906738
1698079656928011500,11.815011474609374,3.334050178527832,-9.892050743103027,-8.829000473022461
1698079656937430800,11.8244306640625,4.80495023727417,-9.682950019836426,-6.235950469970703
1698079656946849800,11.833849853515625,6.021000385284424,-9.862950325012207,-4.600050449371338
1698079656956268800,11.843268798828126,8.427000045776367,-10.480950355529785,-2.7690000534057617
1698079656965687800,11.852687744140624,1.88100004196167,-11.284950256347656,0.286050021648407
1698079656975107300,11.862107421875,-14.3100004196167,-14.082000732421875,3.697050094604492
1698079656984526300,11.8715263671875,-21.310951232910156,-16.825950622558594,3.9439501762390137
1698079656993945300,11.8809453125,-14.401050567626953,-18.9060001373291,4.380000114440918
1698079657003364400,11.8903642578125,-3.8400001525878906,-20.314050674438477,7.846950531005859
1698079657012783900,11.899783935546875,0.6859500408172607,-19.990951538085938,8.353950500488281
1698079657022202600,11.90920263671875,1.2469500303268433,-18.572999954223633,6.817050457000732
1698079657031621600,11.91862158203125,0.5790000557899475,-15.946950912475586,2.6800501346588135
1698079657041041200,11.928041259765624,0.6649500131607056,-13.234050750732422,-0.5040000081062317
1698079657050460200,11.937460205078125,1.350000023841858,-11.737950325012207,-1.8079501390457153
1698079657059879200,11.946879150390625,2.1349501609802246,-9.664050102233887,-1.1640000343322754
1698079657069298200,11.956298095703126,2.848050117492676,-7.70805025100708,0.17805001139640808
1698079657078717400,11.965717529296874,4.065000057220459,-5.671050071716309,0.7639500498771667
1698079657088136700,11.97513671875,4.761000156402588,-3.573000192642212,0.9580500721931458
1698079657097555700,11.9845556640625,3.787050247192383,-1.7680500745773315,0.8719500303268433
1698079657106975000,11.99397509765625,4.582050323486328,0.38805001974105835,0.5370000004768372
1698079657116394000,12.00339404296875,6.624000549316406,2.7229502201080322,0.09405000507831573
1698079657125813000,12.01281298828125,5.6860504150390625,5.19795036315918,-1.8349500894546509
1698079657135232000,12.02223193359375,2.158950090408325,6.628050327301025,-6.172950267791748
