time,seconds_elapsed,z,y,x
1701881491201782000,0.109781982421875,5.889455318450928,7.689349174499512,1.535773754119873
1701881491211374600,0.11937451171875,5.793200492858887,7.750892639160156,1.59149968624115
1701881491220966400,0.12896630859375,5.712381839752197,7.801087856292725,1.637711763381958
1701881491230559000,0.13855908203125,5.80231237411499,7.711463451385498,1.7426670789718628
1701881491240152300,0.14815234375,5.91978645324707,7.547276973724365,2.040867805480957
1701881491249744600,0.15774462890625,6.078462600708008,7.326551914215088,2.354637861251831
1701881491259336400,0.16733642578125,6.23170804977417,7.104275226593018,2.620206117630005
1701881491268929000,0.176928955078125,6.377293586730957,6.898841857910156,2.8118510246276855
1701881491278522400,0.1865224609375,6.492969036102295,6.7534098625183105,2.8988261222839355
1701881491288115000,0.196114990234375,6.5947651863098145,6.638032913208008,2.9352986812591553
1701881491297706800,0.205706787109375,6.702504634857178,6.517111778259277,2.9621059894561768
1701881491307299300,0.21529931640625,6.816591262817383,6.394558429718018,2.968853712081909
1701881491316892700,0.224892578125,6.917858123779297,6.274933815002441,2.9897878170013428
1701881491326485200,0.2344853515625,6.996867656707764,6.163257598876953,3.0378427505493164
1701881491336076800,0.244076904296875,7.0393781661987305,6.079533576965332,3.1075429916381836
1701881491345669400,0.25366943359375,7.0421648025512695,6.035098075866699,3.186830759048462
1701881491355262700,0.2632626953125,7.011505603790283,6.032349109649658,3.2588274478912354
1701881491364855300,0.272855224609375,6.965066909790039,6.062976360321045,3.30129337310791
1701881491374447000,0.282447021484375,6.915541648864746,6.112936973571777,3.313258409500122
1701881491384039700,0.292039794921875,6.87302827835083,6.163946151733398,3.3072104454040527
1701881491393633000,0.301633056640625,6.841549873352051,6.204771518707275,3.296117067337036
1701881491403225600,0.3112255859375,6.821039199829102,6.230059623718262,3.2909209728240967
1701881491412817200,0.320817138671875,6.801271915435791,6.245535850524902,3.302478075027466
1701881491422410000,0.330409912109375,6.778273105621338,6.25065279006958,3.339872121810913
1701881491432003000,0.340003173828125,6.751633644104004,6.246364593505859,3.4012880325317383
1701881491441595600,0.349595703125,6.728550434112549,6.229481220245361,3.477146625518799
1701881491451187500,0.3591875,6.7181572914123535,6.191009044647217,3.5648515224456787
1701881491460780000,0.368780029296875,6.704361915588379,6.150192737579346,3.6601972579956055
1701881491470373400,0.378373291015625,6.687633991241455,6.107911109924316,3.760233163833618
1701881491479966000,0.387966064453125,6.671323299407959,6.057564735412598,3.8690762519836426
1701881491489557800,0.397557861328125,6.653543472290039,5.998854637145996,3.98929762840271
1701881491499150300,0.407150390625,6.644763946533203,5.931064605712891,4.103652477264404
1701881491508743700,0.41674365234375,6.665734767913818,5.840571403503418,4.198343276977539
1701881491518336300,0.426336181640625,6.697634220123291,5.7423996925354,4.282165050506592
1701881491527927800,0.435927734375,6.7313923835754395,5.6437811851501465,4.359640598297119
1701881491537520600,0.445520751953125,6.751352787017822,5.547502040863037,4.451387882232666
1701881491547114000,0.455114013671875,6.754036903381348,5.457686901092529,4.557085037231445
1701881491556706300,0.464706298828125,6.741042137145996,5.3794121742248535,4.668047904968262
1701881491566298000,0.474298095703125,6.725734710693359,5.316263198852539,4.761537075042725
1701881491575890700,0.483890625,6.72203254699707,5.2625017166137695,4.826047897338867
1701881491585484000,0.493484130859375,6.734020709991455,5.210852146148682,4.865220546722412
1701881491595076600,0.50307666015625,6.759410858154297,5.1595845222473145,4.884612083435059
1701881491604668400,0.51266845703125,6.793067932128906,5.107611179351807,4.892538547515869
1701881491614261000,0.522260986328125,6.8260016441345215,5.057736396789551,4.8985090255737305
1701881491623854300,0.531854248046875,6.852814674377441,5.015463829040527,4.904531955718994
1701881491633447000,0.541447021484375,6.871623516082764,4.986521244049072,4.90772819519043
1701881491643038700,0.551038818359375,6.887789249420166,4.968229293823242,4.9036149978637695
1701881491652631300,0.56063134765625,6.90179967880249,4.95839786529541,4.893857479095459
1701881491662224600,0.570224609375,6.910658359527588,4.9575676918029785,4.8821821212768555
1701881491671817000,0.57981689453125,6.914365291595459,4.963340759277344,4.87105655670166
1701881491681408800,0.58940869140625,6.913048267364502,4.97597599029541,4.860021591186523
1701881491691001600,0.599001708984375,6.907544136047363,4.992863655090332,4.850518703460693
1701881491700594700,0.6085947265625,6.898548126220703,5.010649681091309,4.844976425170898
1701881491710187300,0.618187255859375,6.884345054626465,5.028757572174072,4.846419334411621
1701881491719779000,0.627779052734375,6.8651041984558105,5.045080184936523,4.85673713684082
1701881491729371600,0.63737158203125,6.84435510635376,5.053980827331543,4.876726150512695
1701881491738965000,0.646965087890625,6.825287818908691,5.050882816314697,4.9065680503845215
1701881491748557600,0.6565576171875,6.813845634460449,5.032136917114258,4.94160795211792
1701881491758149400,0.6661494140625,6.813754081726074,4.997034072875977,4.977227210998535
1701881491767742000,0.675741943359375,6.824217319488525,4.944406986236572,5.015305042266846
1701881491777335300,0.685335205078125,6.8407368659973145,4.876214027404785,5.059370517730713
1701881491786927900,0.694927978515625,6.8565239906311035,4.797653675079346,5.112824440002441
1701881491796519700,0.704519775390625,6.864222526550293,4.708550453186035,5.184823036193848
1701881491806112300,0.7141123046875,6.861225128173828,4.606274127960205,5.279793739318848
1701881491815705600,0.72370556640625,6.844862937927246,4.496858596801758,5.394118309020996
1701881491825298200,0.733298095703125,6.818676471710205,4.388524055480957,5.5151519775390625
1701881491834890000,0.742889892578125,6.793766498565674,4.276886940002441,5.632349491119385
1701881491844482600,0.752482666015625,6.778987407684326,4.156872272491455,5.739002227783203
1701881491854076000,0.762075927734375,6.779544353485107,4.023566246032715,5.8325886726379395
1701881491863668500,0.77166845703125,6.795087814331055,3.8734147548675537,5.915558338165283
1701881491873260000,0.781260009765625,6.817383289337158,3.707578420639038,5.995626449584961
1701881491882852600,0.7908525390625,6.837810039520264,3.5345423221588135,6.076327800750732
1701881491892446200,0.8004462890625,6.852883815765381,3.3594462871551514,6.15812349319458
1701881491902038500,0.81003857421875,6.855091094970703,3.185580015182495,6.2474141120910645
1701881491911630300,0.81963037109375,6.833954334259033,3.0175154209136963,6.353113651275635
1701881491921223000,0.829222900390625,6.783357620239258,2.858680486679077,6.479536533355713
1701881491930816300,0.838816162109375,6.7044148445129395,2.7067995071411133,6.625287055969238
1701881491940408800,0.848408935546875,6.604413032531738,2.556248188018799,6.783635139465332
1701881491950000600,0.858000732421875,6.4877729415893555,2.397197723388672,6.952167987823486
1701881491959593200,0.86759326171875,6.355433940887451,2.2299294471740723,7.127851486206055
1701881491969186600,0.8771865234375,6.2205071449279785,2.065078020095825,7.294595718383789
1701881491978779100,0.886779052734375,6.099084377288818,1.9038910865783691,7.439540386199951
1701881491988371000,0.896370849609375,5.995563507080078,1.7434121370315552,7.562017917633057
1701881491997963500,0.905963623046875,5.911346435546875,1.5847610235214233,7.662564277648926
1701881492007556900,0.915556884765625,5.842764377593994,1.426682472229004,7.745777130126953
1701881492017149400,0.9251494140625,5.780523300170898,1.2705973386764526,7.819303512573242
1701881492026741200,0.9347412109375,5.719172477722168,1.1191664934158325,7.887263298034668
1701881492036333800,0.944333740234375,5.661540508270264,0.9746782779693604,7.947788238525391
1701881492045927200,0.95392724609375,5.614514350891113,0.838631272315979,7.996519565582275
1701881492055519700,0.963519775390625,5.58584451675415,0.7126014828681946,8.028756141662598
1701881492065111600,0.973111572265625,5.583444595336914,0.5965225696563721,8.039881706237793
1701881492074704100,0.9827041015625,5.61294412612915,0.4867260158061981,8.026726722717285
1701881492084297500,0.99229736328125,5.67535400390625,0.37968626618385315,7.988528251647949
1701881492093890000,1.00189013671875,5.763030529022217,0.275981068611145,7.929798126220703
1701881492103481900,1.01148193359375,5.863968372344971,0.18115438520908356,7.858208179473877
1701881492113074400,1.021074462890625,5.966674327850342,0.09713602811098099,7.782013893127441
1701881492122667800,1.030667724609375,6.06303071975708,0.021296467632055283,7.707762241363525
1701881492132260400,1.04026025390625,6.1480255126953125,-0.05104512348771095,7.6399970054626465
1701881492141852200,1.04985205078125,6.215250015258789,-0.12513746321201324,7.584549903869629
1701881492151444700,1.05944482421875,6.255171775817871,-0.20204506814479828,7.549992084503174
1701881492161038000,1.0690380859375,6.262729167938232,-0.28496894240379333,7.5410475730896
1701881492170630700,1.078630615234375,6.237881660461426,-0.3808263838291168,7.557394027709961
1701881492180222500,1.088222412109375,6.182313442230225,-0.49515894055366516,7.596327781677246
1701881492189815000,1.09781494140625,6.096004962921143,-0.6301401853561401,7.655849456787109
1701881492199408400,1.107408447265625,5.976728439331055,-0.7865729331970215,7.735011577606201
1701881492209001000,1.1170009765625,5.823561191558838,-0.9654204845428467,7.830995559692383
1701881492218592500,1.126592529296875,5.635701656341553,-1.168410062789917,7.940030574798584
1701881492228185300,1.136185302734375,5.414292812347412,-1.398535966873169,8.056047439575195
1701881492237778700,1.14577880859375,5.162508964538574,-1.65596604347229,8.171699523925781
1701881492247371000,1.15537109375,4.89343786239624,-1.9338312149047852,8.27556324005127
1701881492256962800,1.164962890625,4.62647819519043,-2.229038953781128,8.354488372802734
1701881492266555600,1.1745556640625,4.36649227142334,-2.539909601211548,8.405533790588379
1701881492276149000,1.18414892578125,4.109930515289307,-2.863306760787964,8.430914878845215
1701881492285741300,1.1937412109375,3.8533241748809814,-3.196880578994751,8.43221378326416
1701881492295333400,1.20333349609375,3.5951900482177734,-3.5336833000183105,8.411782264709473
1701881492304926000,1.212926025390625,3.342288017272949,-3.8628547191619873,8.371251106262207
1701881492314519300,1.222519287109375,3.1093027591705322,-4.177420616149902,8.309741020202637
1701881492324112000,1.23211181640625,2.9111058712005615,-4.475555419921875,8.225890159606934
1701881492333703400,1.241703369140625,2.7534220218658447,-4.759943008422852,8.119851112365723
1701881492343296300,1.251296142578125,2.632467746734619,-5.035025119781494,7.993061065673828
1701881492352889600,1.2608896484375,2.5378823280334473,-5.300248622894287,7.850917816162109
1701881492362482000,1.27048193359375,2.4546799659729004,-5.553247928619385,7.7010626792907715
1701881492372073700,1.28007373046875,2.354743719100952,-5.788767337799072,7.557495594024658
1701881492381666300,1.289666259765625,2.215141773223877,-5.9995436668396,7.4343132972717285
1701881492391260000,1.299260009765625,2.0242972373962402,-6.183802127838135,7.3371124267578125
1701881492400852200,1.308852294921875,1.8180978298187256,-6.357933521270752,7.241656303405762
1701881492410444000,1.318444091796875,1.6457250118255615,-6.539166450500488,7.120482921600342
1701881492420036900,1.328036865234375,1.5231906175613403,-6.725747108459473,6.972417831420898
1701881492429630000,1.3376298828125,1.4260923862457275,-6.920480728149414,6.80026388168335
1701881492439222800,1.347222900390625,1.324619174003601,-7.112746715545654,6.620016098022461
1701881492448814300,1.356814453125,1.21354341506958,-7.293796539306641,6.4419121742248535
1701881492458407200,1.3664072265625,1.1060367822647095,-7.467932224273682,6.259157657623291
1701881492468000300,1.376000244140625,0.9986279010772705,-7.626198768615723,6.083931922912598
1701881492477592800,1.3855927734375,0.9009419679641724,-7.757098197937012,5.931788444519043
1701881492487184600,1.3951845703125,1.011800765991211,-7.773488998413086,5.892326831817627
1701881492496777200,1.404777099609375,1.1648674011230469,-7.742585182189941,5.904730796813965
1701881492506370800,1.414370849609375,1.200655221939087,-7.769677639007568,5.861819744110107
1701881492515963100,1.423963134765625,1.1998181343078613,-7.829190731048584,5.782266139984131
1701881492525555000,1.433554931640625,1.2086889743804932,-7.892362117767334,5.693864345550537
1701881492535147500,1.4431474609375,1.22490394115448,-7.957691192626953,5.598674297332764
1701881492544740900,1.452740966796875,1.2368189096450806,-8.02627944946289,5.497226238250732
1701881492554333400,1.46233349609375,1.238283634185791,-8.09630298614502,5.393229007720947
1701881492563925200,1.47192529296875,1.2291148900985718,-8.164072036743164,5.292220592498779
1701881492573517800,1.481517822265625,1.2119733095169067,-8.230916023254395,5.191679000854492
1701881492583111200,1.491111083984375,1.182866096496582,-8.301703453063965,5.084577560424805
1701881492592704000,1.5007041015625,1.1470316648483276,-8.376174926757812,4.969344139099121
1701881492602295600,1.510295654296875,1.101001501083374,-8.452363967895508,4.849301815032959
1701881492611888000,1.51988818359375,1.046469807624817,-8.529674530029297,4.724399089813232
1701881492621481500,1.5294814453125,0.9892469048500061,-8.605910301208496,4.596747398376465
1701881492631074000,1.539073974609375,0.933729887008667,-8.680672645568848,4.465922832489014
1701881492640665900,1.548665771484375,0.8797066807746887,-8.755158424377441,4.329399585723877
1701881492650258400,1.558258544921875,0.8272405862808228,-8.82685661315918,4.1919779777526855
1701881492659851800,1.567851806640625,0.7713792324066162,-8.894919395446777,4.056570529937744
1701881492669444400,1.5774443359375,0.7131239175796509,-8.959333419799805,3.923288106918335
1701881492679036200,1.5870361328125,0.6582727432250977,-9.018174171447754,3.7959976196289062
1701881492688628700,1.596628662109375,0.6082214713096619,-9.071929931640625,3.674307346343994
1701881492698222000,1.60622216796875,0.5583940148353577,-9.119183540344238,3.563577890396118
1701881492707814700,1.615814697265625,0.5048400163650513,-9.159627914428711,3.466519832611084
1701881492717406500,1.625406494140625,0.44642388820648193,-9.19283390045166,3.385690927505493
1701881492726999000,1.6349990234375,0.3831017315387726,-9.221543312072754,3.314629077911377
1701881492736592400,1.64459228515625,0.3139883875846863,-9.249326705932617,3.243723154067993
1701881492746185000,1.65418505859375,0.24001666903495789,-9.280025482177734,3.1613175868988037
1701881492755776800,1.66377685546875,0.15853257477283478,-9.319522857666016,3.048239231109619
1701881492765369300,1.673369384765625,0.07128395140171051,-9.374634742736816,2.8777620792388916
1701881492774962700,1.682962646484375,-0.015340731479227543,-9.44028377532959,2.6554067134857178
1701881492784555300,1.69255517578125,-0.08650638908147812,-9.511561393737793,2.3860232830047607
1701881492794147000,1.70214697265625,-0.15178850293159485,-9.582138061523438,2.0808627605438232
1701881492803739600,1.71173974609375,-0.21036337316036224,-9.648868560791016,1.7393826246261597
1701881492813333000,1.7213330078125,-0.26898983120918274,-9.704143524169922,1.388390064239502
1701881492822925600,1.730925537109375,-0.33931636810302734,-9.742963790893555,1.0629693269729614
1701881492832517400,1.740517333984375,-0.41981878876686096,-9.7696533203125,0.7402845621109009
1701881492842110000,1.75010986328125,-0.4856051802635193,-9.78449821472168,0.44516754150390625
1701881492851703300,1.759703369140625,-0.47215309739112854,-9.792061805725098,0.250980406999588
1701881492861295900,1.7692958984375,-0.5156927704811096,-9.792102813720703,0.1385115087032318
1701881492870887700,1.7788876953125,-0.5506869554519653,-9.790804862976074,0.08529721945524216
1701881492880480300,1.788480224609375,-0.5761910080909729,-9.789483070373535,0.06636913120746613
1701881492890073600,1.798073486328125,-0.6186546683311462,-9.786890029907227,0.06670879572629929
1701881492899666200,1.807666259765625,-0.6864480972290039,-9.782236099243164,0.08382875472307205
1701881492909258000,1.817258056640625,-0.7675222158432007,-9.775944709777832,0.1104883924126625
1701881492918850600,1.8268505859375,-0.8339225649833679,-9.770129203796387,0.13976363837718964
1701881492928444000,1.83644384765625,-0.8674944043159485,-9.76672649383545,0.1699656993150711
1701881492938036500,1.846036376953125,-0.8711236715316772,-9.766073226928711,0.18798032402992249
1701881492947628300,1.855628173828125,-0.8666486740112305,-9.766411781311035,0.1911013126373291
1701881492957220900,1.865220947265625,-0.8795823454856873,-9.766146659851074,0.13822077214717865
1701881492966814200,1.874814208984375,-0.913111686706543,-9.763971328735352,-0.038642894476652145
1701881492976406800,1.88440673828125,-0.9110444784164429,-9.764012336730957,-0.06668505817651749
1701881492985998600,1.89399853515625,-0.8736256957054138,-9.767658233642578,-0.003264382714405656
1701881492995591200,1.903591064453125,-0.8577871918678284,-9.769061088562012,-0.005596451926976442
1701881493005184500,1.9131845703125,-0.8574709296226501,-9.769086837768555,-0.009470636025071144
1701881493014777000,1.922777099609375,-0.8601506948471069,-9.768855094909668,0.0019772478844970465
1701881493024369000,1.932368896484375,-0.865121066570282,-9.768412590026855,0.007835714146494865
1701881493033961500,1.94196142578125,-0.8721109628677368,-9.767790794372559,0.00730306887999177
1701881493043554800,1.951554931640625,-0.8814639449119568,-9.76695442199707,0.004145125858485699
1701881493053147400,1.9611474609375,-0.8928191065788269,-9.765923500061035,0.00020326420781202614
1701881493062739200,1.9707392578125,-0.9056943655014038,-9.764737129211426,-0.004288116469979286
1701881493072331800,1.980331787109375,-0.921276330947876,-9.763276100158691,-0.008917422965168953
1701881493081925000,1.989925048828125,-0.9418385624885559,-9.761309623718262,-0.013050723820924759
1701881493091517700,1.999517578125,-0.967233419418335,-9.758821487426758,-0.01577993854880333
1701881493101109500,2.009109619140625,-0.9963887929916382,-9.755888938903809,-0.01540708914399147
1701881493110702000,2.0187021484375,-1.0276824235916138,-9.752647399902344,-0.01103755459189415
1701881493120295400,2.02829541015625,-1.0562649965286255,-9.749598503112793,-0.0036465353332459927
1701881493129888000,2.037887939453125,-1.0772953033447266,-9.747294425964355,0.009326895698904991
1701881493139479800,2.047479736328125,-1.0891467332839966,-9.745953559875488,0.023434733971953392
1701881493149072400,2.057072265625,-1.0906394720077515,-9.745771408081055,0.028805432841181755
1701881493158665700,2.066665771484375,-1.0878264904022217,-9.746064186096191,0.03536609187722206
1701881493168258300,2.07625830078125,-1.0772475004196167,-9.747206687927246,0.04352722316980362
1701881493177850000,2.08585009765625,-1.0718344449996948,-9.747762680053711,0.051735710352659225
1701881493187442700,2.095442626953125,-1.0795135498046875,-9.746867179870605,0.060126692056655884
1701881493197036000,2.1050361328125,-1.0866063833236694,-9.746057510375977,0.06346624344587326
1701881493206628600,2.114628662109375,-1.0874288082122803,-9.745916366577148,0.07071304321289062
1701881493216220400,2.124220458984375,-1.0846354961395264,-9.746140480041504,0.08184260129928589
1701881493225813000,2.13381298828125,-1.081065058708191,-9.746438026428223,0.09281206130981445
1701881493235406300,2.14340625,-1.0771406888961792,-9.746769905090332,0.10305658727884293
1701881493244999000,2.1529990234375,-1.0727156400680542,-9.74715805053711,0.11212369799613953
1701881493254590700,2.1625908203125,-1.0683413743972778,-9.747539520263672,0.12050464749336243
1701881493264183300,2.172183349609375,-1.0647238492965698,-9.747838020324707,0.12807250022888184
1701881493273776600,2.181776611328125,-1.062245488166809,-9.748021125793457,0.1345679759979248
1701881493283369200,2.191369140625,-1.0606560707092285,-9.7481050491333,0.14085344970226288
1701881493292961000,2.2009609375,-1.0597178936004639,-9.748122215270996,0.14662352204322815
1701881493302553600,2.2105537109375,-1.0587486028671265,-9.748140335083008,0.15228424966335297
1701881493312147000,2.22014697265625,-1.0568883419036865,-9.74825382232666,0.15787382423877716
1701881493321739500,2.229739501953125,-1.0538384914398193,-9.748491287231445,0.16349777579307556
1701881493331331300,2.239331298828125,-1.0492439270019531,-9.748897552490234,0.16875895857810974
1701881493340924000,2.248923828125,-1.043323040008545,-9.749460220336914,0.17286978662014008
1701881493350517200,2.258517333984375,-1.0362907648086548,-9.750154495239258,0.17602244019508362
1701881493360109800,2.26810986328125,-1.0285872220993042,-9.750944137573242,0.1774570792913437
1701881493369701600,2.27770166015625,-1.020135521888733,-9.751852989196777,0.17630110681056976
1701881493379294200,2.287294189453125,-1.010839819908142,-9.752877235412598,0.1731135994195938
1701881493388887600,2.296887451171875,-1.001549243927002,-9.753922462463379,0.1681959331035614
1701881493398480100,2.306480224609375,-0.9924442172050476,-9.754963874816895,0.16162711381912231
1701881493408071700,2.31607177734375,-0.9833621978759766,-9.756012916564941,0.1536409705877304
1701881493417664500,2.32566455078125,-0.9738770723342896,-9.757099151611328,0.1448078602552414
1701881493427257900,2.3352578125,-0.9641698598861694,-9.758190155029297,0.1360032856464386
1701881493436850200,2.34485009765625,-0.9544233679771423,-9.759258270263672,0.12777838110923767
1701881493446442000,2.35444189453125,-0.9446103572845459,-9.760303497314453,0.12072194367647171
1701881493456034800,2.364034912109375,-0.9354042410850525,-9.761258125305176,0.11504465341567993
1701881493465628200,2.373628173828125,-0.9271801114082336,-9.762091636657715,0.1108463928103447
1701881493475220500,2.383220458984375,-0.9202713370323181,-9.762774467468262,0.10825296491384506
1701881493484812300,2.392812255859375,-0.9145821332931519,-9.76331901550293,0.1073533222079277
1701881493494405000,2.402405029296875,-0.9106454253196716,-9.763677597045898,0.10829076170921326
1701881493503998500,2.41199853515625,-0.9076983332633972,-9.763925552368164,0.11058979481458664
1701881493513591000,2.421591064453125,-0.9054001569747925,-9.764103889465332,0.11366389691829681
1701881493523182600,2.4311826171875,-0.9035354852676392,-9.764226913452148,0.11782287061214447
1701881493532775200,2.440775146484375,-0.9023054838180542,-9.764283180236816,0.12248487025499344
1701881493542368800,2.45036865234375,-0.9014758467674255,-9.764298439025879,0.12734901905059814
1701881493551961000,2.459961181640625,-0.9007537961006165,-9.764299392700195,0.13219702243804932
1701881493561553000,2.469552978515625,-0.900031566619873,-9.764307022094727,0.1364549994468689
1701881493571145500,2.4791455078125,-0.8989801406860352,-9.764358520507812,0.13973110914230347
1701881493580738800,2.48873876953125,-0.8973647952079773,-9.764474868774414,0.1419934183359146
1701881493590331400,2.498331298828125,-0.8950015902519226,-9.764665603637695,0.14376334846019745
1701881493599923200,2.507923095703125,-0.891343891620636,-9.764979362487793,0.14512750506401062
1701881493609515800,2.517515869140625,-0.8871404528617859,-9.765381813049316,0.1437835395336151
1701881493619109000,2.527109130859375,-0.8825675249099731,-9.765859603881836,0.1394832879304886
1701881493628701700,2.53670166015625,-0.8829168677330017,-9.765867233276367,0.13673035800457
1701881493638293500,2.54629345703125,-0.8807105422019958,-9.766125679016113,0.13244546949863434
1701881493647886000,2.555885986328125,-0.8760133981704712,-9.766637802124023,0.12553389370441437
1701881493657479400,2.5654794921875,-0.8706738948822021,-9.767210006713867,0.1179497167468071
1701881493667072000,2.575072021484375,-0.8648743033409119,-9.76781940460205,0.10999630391597748
1701881493676663800,2.584663818359375,-0.8582612872123718,-9.768524169921875,0.09856101870536804
1701881493686256400,2.59425634765625,-0.8503848910331726,-9.769346237182617,0.08431404083967209
1701881493695849700,2.603849609375,-0.842027485370636,-9.77020263671875,0.06730310618877411
1701881493705442300,2.6134423828125,-0.8328004479408264,-9.77110767364502,0.04801126942038536
1701881493715034000,2.6230341796875,-0.8225799798965454,-9.772052764892578,0.027226872742176056
1701881493724626700,2.632626708984375,-0.8121687769889832,-9.77295970916748,0.005986193660646677
1701881493734220000,2.642219970703125,-0.8023138046264648,-9.773764610290527,-0.01461091823875904
1701881493743812600,2.6518125,-0.792978823184967,-9.7744779586792,-0.034161027520895004
1701881493753404400,2.661404296875,-0.7831750512123108,-9.775189399719238,-0.051882945001125336
1701881493762997000,2.6709970703125,-0.7728099822998047,-9.775919914245605,-0.06745050102472305
1701881493772590300,2.68059033203125,-0.7618587017059326,-9.776674270629883,-0.081161268055439
1701881493782183000,2.690182861328125,-0.7506287693977356,-9.777436256408691,-0.09320206195116043
1701881493791774700,2.699774658203125,-0.7393213510513306,-9.778191566467285,-0.10385772585868835
1701881493801367300,2.7093671875,-0.7280009984970093,-9.778944969177246,-0.11240220069885254
1701881493810960600,2.718960693359375,-0.7146914601325989,-9.779837608337402,-0.11984799802303314
1701881493820553200,2.72855322265625,-0.7001639604568481,-9.780800819396973,-0.12688368558883667
1701881493830145000,2.73814501953125,-0.6856814026832581,-9.781733512878418,-0.13383083045482635
1701881493839737600,2.747737548828125,-0.6699460744857788,-9.78272533416748,-0.14084096252918243
1701881493849331000,2.7573310546875,-0.6523708701133728,-9.783805847167969,-0.14811745285987854
1701881493858923500,2.766923583984375,-0.6408452987670898,-9.784610748291016,-0.14526116847991943
1701881493868515300,2.776515380859375,-0.628471314907074,-9.785443305969238,-0.1431673914194107
1701881493878108000,2.78610791015625,-0.615363359451294,-9.786303520202637,-0.14134448766708374
1701881493887701200,2.795701171875,-0.6020008325576782,-9.787154197692871,-0.13996638357639313
1701881493897293800,2.8052939453125,-0.5885034203529358,-9.787989616394043,-0.13896691799163818
1701881493906885400,2.814885498046875,-0.5745444297790527,-9.78882884979248,-0.13825076818466187
1701881493916478200,2.824478271484375,-0.559795618057251,-9.789692878723145,-0.13755585253238678
1701881493926071600,2.834071533203125,-0.5447984933853149,-9.790556907653809,-0.13630403578281403
1701881493935664000,2.8436640625,-0.529860258102417,-9.79140567779541,-0.1342020034790039
1701881493945255700,2.853255615234375,-0.5148690342903137,-9.792243957519531,-0.1313573718070984
1701881493954848500,2.8628486328125,-0.500945508480072,-9.793012619018555,-0.12786759436130524
1701881493964441900,2.87244189453125,-0.48879721760749817,-9.79368782043457,-0.1230873167514801
1701881493974034200,2.8820341796875,-0.47822868824005127,-9.794276237487793,-0.11758477985858917
1701881493983626000,2.8916259765625,-0.4687984883785248,-9.794805526733398,-0.11139577627182007
1701881493993218600,2.901218505859375,-0.45825424790382385,-9.79541015625,-0.10153982043266296
1701881494002812000,2.91081201171875,-0.44920408725738525,-9.795944213867188,-0.08994508534669876
1701881494012404500,2.920404541015625,-0.44140374660491943,-9.796402931213379,-0.0776543840765953
1701881494021996300,2.929996337890625,-0.4362182915210724,-9.796713829040527,-0.06701158732175827
1701881494031588900,2.9395888671875,-0.43108561635017395,-9.797005653381348,-0.05684395134449005
1701881494041182200,2.94918212890625,-0.4244873821735382,-9.797353744506836,-0.0453215092420578
1701881494050775600,2.958775634765625,-0.4151345193386078,-9.797808647155762,-0.03136426582932472
1701881494060367600,2.96836767578125,-0.4021531045436859,-9.798391342163086,-0.014099221676588058
1701881494069960200,2.977960205078125,-0.3856038451194763,-9.799063682556152,0.007352401036769152
1701881494079553500,2.987553466796875,-0.36661913990974426,-9.7997407913208,0.032605938613414764
1701881494089146400,2.997146484375,-0.34492602944374084,-9.800393104553223,0.06094793975353241
1701881494098738000,3.006738037109375,-0.3203791081905365,-9.800992012023926,0.09115857630968094
1701881494108330500,3.01633056640625,-0.293366402387619,-9.801502227783203,0.12201092392206192
1701881494117923800,3.025923828125,-0.2674342393875122,-9.80185604095459,0.149973526597023
1701881494127516400,3.035516357421875,-0.2463638037443161,-9.80202579498291,0.17318309843540192
1701881494137108200,3.045108154296875,-0.23143962025642395,-9.802056312561035,0.19107496738433838
1701881494146700800,3.05470068359375,-0.2229945957660675,-9.802010536193848,0.20306327939033508
1701881494156294100,3.064294189453125,-0.22052867710590363,-9.801948547363281,0.20872287452220917
1701881494165886700,3.07388671875,-0.22237852215766907,-9.801907539367676,0.20870834589004517
1701881494175478500,3.083478515625,-0.22550295293331146,-9.801939964294434,0.20375193655490875
1701881494185071000,3.093071044921875,-0.2273518592119217,-9.802083969116211,0.19454342126846313
1701881494194664400,3.10266455078125,-0.2272844761610031,-9.802334785461426,0.18159617483615875
1701881494204257000,3.112257080078125,-0.22534653544425964,-9.802657127380371,0.16585403680801392
1701881494213848800,3.121848876953125,-0.22246931493282318,-9.803001403808594,0.14852364361286163
1701881494223441400,3.13144140625,-0.22026623785495758,-9.803311347961426,0.13023458421230316
1701881494233034800,3.14103466796875,-0.220363587141037,-9.803549766540527,0.11056888103485107
1701881494242627300,3.15062744140625,-0.22428517043590546,-9.803674697875977,0.08974512666463852
1701881494252219100,3.16021923828125,-0.2328183352947235,-9.803650856018066,0.06787654012441635
1701881494261811700,3.169811767578125,-0.24614748358726501,-9.803452491760254,0.04597262665629387
1701881494271405000,3.179405029296875,-0.26471397280693054,-9.803043365478516,0.025632960721850395
1701881494280997600,3.18899755859375,-0.2871885597705841,-9.802441596984863,0.008104878477752209
1701881494290589400,3.19858935546875,-0.3113895058631897,-9.801703453063965,-0.006294576916843653
1701881494300182000,3.20818212890625,-0.3341912031173706,-9.80093765258789,-0.017958421260118484
1701881494309775400,3.217775390625,-0.35193127393722534,-9.800296783447266,-0.02665780298411846
1701881494319368000,3.227367919921875,-0.36203300952911377,-9.799909591674805,-0.03298703208565712
1701881494328959500,3.23695947265625,-0.36504191160202026,-9.799779891967773,-0.03803855553269386
1701881494338552000,3.246552001953125,-0.36225366592407227,-9.799861907958984,-0.04311047121882439
1701881494348145700,3.256145751953125,-0.35493090748786926,-9.800106048583984,-0.04829762503504753
1701881494357738000,3.265738037109375,-0.34363889694213867,-9.800481796264648,-0.05347433313727379
1701881494367329800,3.275329833984375,-0.32845696806907654,-9.800975799560547,-0.058057837188243866
1701881494376922400,3.28492236328125,-0.30901846289634705,-9.801582336425781,-0.06222796440124512
1701881494386515700,3.294515625,-0.28548920154571533,-9.802268981933594,-0.06635602563619614
1701881494396108300,3.3041083984375,-0.2594684958457947,-9.802958488464355,-0.0710492879152298
1701881494405700000,3.3137001953125,-0.23279587924480438,-9.803586959838867,-0.0766439214348793
1701881494415292700,3.323292724609375,-0.20733918249607086,-9.804099082946777,-0.0838238075375557
1701881494424886000,3.332885986328125,-0.185264453291893,-9.804459571838379,-0.09289859980344772
1701881494434478600,3.342478515625,-0.1684625893831253,-9.804651260375977,-0.10402660071849823
1701881494444070400,3.3520703125,-0.15917585790157318,-9.80466079711914,-0.11693616211414337
1701881494453663000,3.3616630859375,-0.15803076326847076,-9.804498672485352,-0.13117234408855438
1701881494463256300,3.37125634765625,-0.16507881879806519,-9.804174423217773,-0.14595171809196472
1701881494472849000,3.380848876953125,-0.17868000268936157,-9.803720474243164,-0.15983173251152039
1701881494482440700,3.390440673828125,-0.1966676115989685,-9.80316162109375,-0.17244665324687958
1701881494492033300,3.400033203125,-0.21630080044269562,-9.802536964416504,-0.18404656648635864
1701881494501626600,3.409626708984375,-0.23522312939167023,-9.80189323425293,-0.19477955996990204
1701881494511219200,3.41921923828125,-0.25141769647598267,-9.801297187805176,-0.20433580875396729
1701881494520811000,3.42881103515625,-0.2635056674480438,-9.800801277160645,-0.21269358694553375
1701881494530403600,3.438403564453125,-0.2708740532398224,-9.800444602966309,-0.21974919736385345
1701881494539997000,3.447996826171875,-0.2735339105129242,-9.800243377685547,-0.2253553420305252
1701881494549589200,3.45758935546875,-0.2728691101074219,-9.800161361694336,-0.2296970635652542
1701881494559181000,3.46718115234375,-0.27055424451828003,-9.800139427185059,-0.2333759069442749
1701881494568773600,3.476773681640625,-0.2674003541469574,-9.800152778625488,-0.23640559613704681
1701881494578367200,3.4863671875,-0.26399916410446167,-9.80018424987793,-0.23893895745277405
1701881494587959600,3.49595947265625,-0.26038801670074463,-9.8002290725708,-0.24104426801204681
1701881494597551400,3.50555126953125,-0.25729554891586304,-9.800259590148926,-0.24307943880558014
1701881494607144000,3.51514404296875,-0.2552921175956726,-9.80025863647461,-0.2452768087387085
1701881494616737300,3.5247373046875,-0.25460538268089294,-9.800211906433105,-0.24781952798366547
1701881494626329900,3.534329833984375,-0.25569596886634827,-9.800110816955566,-0.25066521763801575
1701881494635921700,3.543921630859375,-0.2584523558616638,-9.799959182739258,-0.25375574827194214
1701881494645514200,3.55351416015625,-0.2630023956298828,-9.799756050109863,-0.25687840580940247
1701881494655107600,3.563107666015625,-0.269428014755249,-9.799508094787598,-0.25967350602149963
1701881494664700200,3.5727001953125,-0.27700918912887573,-9.799234390258789,-0.2620258033275604
1701881494674292000,3.5822919921875,-0.28535157442092896,-9.798949241638184,-0.26377496123313904
1701881494683884500,3.591884521484375,-0.29426223039627075,-9.798645973205566,-0.26521924138069153
1701881494693478000,3.601477783203125,-0.3030428886413574,-9.79833984375,-0.2666136920452118
1701881494703070500,3.611070556640625,-0.3112807273864746,-9.798044204711914,-0.2679855227470398
1701881494712662300,3.620662353515625,-0.3188267946243286,-9.797765731811523,-0.2692817151546478
1701881494722254800,3.6302548828125,-0.32560455799102783,-9.797500610351562,-0.27081453800201416
1701881494731848200,3.63984814453125,-0.3314746022224426,-9.797258377075195,-0.27246949076652527
1701881494741440500,3.6494404296875,-0.3390392065048218,-9.796929359436035,-0.2749992609024048
1701881494751032300,3.6590322265625,-0.34463071823120117,-9.79667854309082,-0.276943564414978
1701881494760625200,3.668625244140625,-0.34788891673088074,-9.796514511108398,-0.27869001030921936
1701881494770218500,3.678218505859375,-0.3489697277545929,-9.796435356140137,-0.2800900936126709
1701881494779810800,3.687810791015625,-0.34863102436065674,-9.79641056060791,-0.28141918778419495
1701881494789402600,3.697402587890625,-0.34776124358177185,-9.796405792236328,-0.2826426923274994
1701881494798995200,3.7069951171875,-0.34662744402885437,-9.796408653259277,-0.28390592336654663
1701881494808588500,3.716588623046875,-0.3461637794971466,-9.796371459960938,-0.2857518494129181
1701881494818181000,3.72618115234375,-0.34612277150154114,-9.796304702758789,-0.28810063004493713
1701881494827773000,3.73577294921875,-0.3462008237838745,-9.79623031616211,-0.29052892327308655
1701881494837365500,3.745365478515625,-0.34637340903282166,-9.796142578125,-0.29325565695762634
1701881494846958800,3.754958740234375,-0.3459944725036621,-9.796070098876953,-0.2961266040802002
1701881494856551400,3.764551513671875,-0.34432685375213623,-9.796050071716309,-0.29870420694351196
1701881494866143200,3.774143310546875,-0.342327356338501,-9.796063423156738,-0.3005844056606293
1701881494875735800,3.78373583984375,-0.3405939042568207,-9.796090126037598,-0.3016442060470581
1701881494885329200,3.7933291015625,-0.33950701355934143,-9.796130180358887,-0.3015879988670349
1701881494894921700,3.802921630859375,-0.33946093916893005,-9.796173095703125,-0.30025091767311096
1701881494904513500,3.812513427734375,-0.34003859758377075,-9.796221733093262,-0.2980060875415802
1701881494914106000,3.822106201171875,-0.3414153456687927,-9.79628849029541,-0.2942172586917877
1701881494923699500,3.831699462890625,-0.34325936436653137,-9.796365737915039,-0.28942784667015076
1701881494933292000,3.8412919921875,-0.34567490220069885,-9.796448707580566,-0.28370946645736694
1701881494942883600,3.850883544921875,-0.34825947880744934,-9.79654312133789,-0.2772209644317627
1701881494952476400,3.860476318359375,-0.35109665989875793,-9.79663372039795,-0.27033764123916626
1701881494962069500,3.870069580078125,-0.3540762662887573,-9.796740531921387,-0.26246458292007446
1701881494971662000,3.879662109375,-0.3574492037296295,-9.796810150146484,-0.25522154569625854
1701881494981254000,3.88925390625,-0.3603784739971161,-9.796875,-0.24852783977985382
1701881494990846500,3.898846435546875,-0.3629477620124817,-9.7969331741333,-0.2423953413963318
1701881495000439800,3.908439697265625,-0.3653285503387451,-9.797001838684082,-0.2359897792339325
1701881495010032400,3.918032470703125,-0.3676263689994812,-9.797052383422852,-0.23022893071174622
1701881495019624200,3.927624267578125,-0.37000319361686707,-9.797087669372559,-0.22485361993312836
1701881495029216800,3.937216796875,-0.3723693788051605,-9.79709529876709,-0.22057372331619263
1701881495038810000,3.94681005859375,-0.37496277689933777,-9.797070503234863,-0.21728314459323883
1701881495048402700,3.956402587890625,-0.3778870403766632,-9.797000885009766,-0.21529527008533478
1701881495057994500,3.965994384765625,-0.38029807806015015,-9.796917915344238,-0.2148246169090271
1701881495067587000,3.975587158203125,-0.3819921016693115,-9.796843528747559,-0.21522006392478943
1701881495077180400,3.985180419921875,-0.3822757303714752,-9.796798706054688,-0.21678978204727173
1701881495086773000,3.99477294921875,-0.38214510679244995,-9.79675579071045,-0.21894702315330505
1701881495096364800,4.00436474609375,-0.381597638130188,-9.796711921691895,-0.22181810438632965
1701881495105957400,4.013957275390625,-0.38083264231681824,-9.796671867370605,-0.22492843866348267
1701881495115550700,4.02355078125,-0.38034945726394653,-9.796615600585938,-0.2281106561422348
1701881495125143000,4.03314306640625,-0.380210816860199,-9.79654312133789,-0.23145686089992523
1701881495134734800,4.04273486328125,-0.3806002736091614,-9.7964506149292,-0.234699547290802
1701881495144327400,4.052327392578125,-0.3810080587863922,-9.79636001586914,-0.23780642449855804
1701881495153920800,4.061920654296875,-0.38137638568878174,-9.79627513885498,-0.2406919151544571
1701881495163513300,4.071513427734375,-0.3813559114933014,-9.796225547790527,-0.24273139238357544
1701881495173105200,4.081105224609375,-0.38130983710289,-9.79619312286377,-0.24413810670375824
1701881495182697700,4.09069775390625,-0.3815586566925049,-9.796152114868164,-0.2453508973121643
1701881495192291000,4.100291015625,-0.3816276490688324,-9.796127319335938,-0.2462586760520935
1701881495201883600,4.109883544921875,-0.38139739632606506,-9.796112060546875,-0.24722686409950256
1701881495211475500,4.119475341796875,-0.3809317648410797,-9.796111106872559,-0.24794596433639526
1701881495221068000,4.129068115234375,-0.3805537223815918,-9.796103477478027,-0.24884790182113647
1701881495230661400,4.138661376953125,-0.3801170289516449,-9.796095848083496,-0.24983933568000793
1701881495240254000,4.14825390625,-0.37961331009864807,-9.796088218688965,-0.25083810091018677
1701881495249845800,4.157845703125,-0.37954458594322205,-9.796076774597168,-0.2514171004295349
1701881495259438300,4.167438232421875,-0.3800980746746063,-9.796042442321777,-0.25193047523498535
1701881495269031700,4.17703173828125,-0.38063672184944153,-9.796008110046387,-0.25247567892074585
1701881495278624000,4.1866240234375,-0.38123857975006104,-9.795969009399414,-0.2530129849910736
1701881495288215800,4.1962158203125,-0.38209936022758484,-9.795924186706543,-0.2535119950771332
1701881495297808400,4.205808349609375,-0.38229215145111084,-9.79590892791748,-0.25377514958381653
1701881495307402000,4.215402099609375,-0.3817390203475952,-9.79592514038086,-0.2539755403995514
1701881495316994300,4.224994384765625,-0.38119491934776306,-9.79594612121582,-0.2539854347705841
1701881495326586000,4.234586181640625,-0.3804680109024048,-9.79599380493164,-0.2532727122306824
1701881495336178700,4.2441787109375,-0.37922942638397217,-9.796074867248535,-0.2519449293613434
1701881495345772000,4.25377197265625,-0.3779623508453369,-9.796159744262695,-0.2505283057689667
1701881495355364600,4.263364501953125,-0.37691056728363037,-9.796229362487793,-0.24940600991249084
1701881495364956400,4.272956298828125,-0.3755291998386383,-9.796306610107422,-0.24850521981716156
1701881495374549000,4.282549072265625,-0.3736776113510132,-9.796380996704102,-0.24836651980876923
1701881495384142300,4.292142333984375,-0.37127912044525146,-9.796467781066895,-0.24850507080554962
1701881495393735000,4.30173486328125,-0.3689228892326355,-9.796548843383789,-0.2488219141960144
1701881495403326700,4.31132666015625,-0.366832971572876,-9.79662036895752,-0.24909116327762604
1701881495412919300,4.320919189453125,-0.3647626042366028,-9.796677589416504,-0.24988184869289398
1701881495422512600,4.3305126953125,-0.3628177046775818,-9.796733856201172,-0.25051149725914
1701881495432105200,4.340105224609375,-0.3608957529067993,-9.796769142150879,-0.2518882751464844
1701881495441696800,4.34969677734375,-0.35929206013679504,-9.796791076660156,-0.25333836674690247
1701881495451289600,4.35928955078125,-0.35777074098587036,-9.796793937683105,-0.2553699016571045
1701881495460882700,4.368882568359375,-0.3563953638076782,-9.79677963256836,-0.2578307092189789
1701881495470475300,4.378475341796875,-0.35489264130592346,-9.7967529296875,-0.26091018319129944
1701881495480067000,4.388067138671875,-0.3525574803352356,-9.796746253967285,-0.2643071115016937
1701881495489659600,4.39765966796875,-0.34945687651634216,-9.796757698059082,-0.2679485082626343
1701881495499253000,4.4072529296875,-0.3460835814476013,-9.796793937683105,-0.27096909284591675
1701881495508845600,4.416845458984375,-0.34213194251060486,-9.796844482421875,-0.27416741847991943
1701881495518437400,4.426437255859375,-0.33798959851264954,-9.79689884185791,-0.2773451805114746
1701881495528030000,4.436030029296875,-0.33369210362434387,-9.796952247619629,-0.2806524634361267
1701881495537623300,4.445623291015625,-0.3297441303730011,-9.796993255615234,-0.2838294804096222
1701881495547216000,4.4552158203125,-0.3260669410228729,-9.79700756072998,-0.2876277565956116
1701881495556807400,4.464807373046875,-0.3227425217628479,-9.796995162963867,-0.291747123003006
1701881495566400300,4.474400146484375,-0.31937676668167114,-9.796977996826172,-0.2959778904914856
1701881495575993600,4.48399365234375,-0.3162417709827423,-9.796939849853516,-0.3005758225917816
1701881495585586000,4.4935859375,-0.3133004903793335,-9.79687786102295,-0.30561789870262146
1701881495595177700,4.503177734375,-0.31110879778862,-9.796784400939941,-0.31079596281051636
1701881495604770300,4.512770263671875,-0.30911800265312195,-9.796680450439453,-0.3160542845726013
1701881495614363600,4.52236376953125,-0.30642926692962646,-9.79658317565918,-0.3216039836406708
1701881495623956200,4.531956298828125,-0.30356648564338684,-9.796485900878906,-0.32724300026893616
1701881495633548000,4.541548095703125,-0.30037957429885864,-9.796414375305176,-0.3323066234588623
1701881495643140600,4.551140625,-0.2972967326641083,-9.79633903503418,-0.3372669219970703
1701881495652734000,4.56073388671875,-0.29413607716560364,-9.796265602111816,-0.34214553236961365
1701881495662326500,4.570326416015625,-0.29106175899505615,-9.7962007522583,-0.3465792238712311
1701881495671918300,4.57991845703125,-0.28736644983291626,-9.796158790588379,-0.35082486271858215
1701881495681511000,4.589510986328125,-0.28365713357925415,-9.796110153198242,-0.3551937937736511
1701881495691104300,4.599104248046875,-0.2797624170780182,-9.796056747436523,-0.35971203446388245
1701881495700696800,4.60869677734375,-0.2758558690547943,-9.796008110046387,-0.3640328645706177
1701881495710288400,4.618288330078125,-0.27221524715423584,-9.795947074890137,-0.36839786171913147
1701881495719881200,4.627881103515625,-0.26969432830810547,-9.795842170715332,-0.3729921579360962
1701881495729474600,4.637474609375,-0.26727476716041565,-9.795716285705566,-0.3780113458633423
1701881495739067000,4.64706689453125,-0.2642907500267029,-9.795581817626953,-0.3835573196411133
1701881495748658700,4.65665869140625,-0.2608412206172943,-9.795467376708984,-0.3887913227081299
1701881495758251300,4.666251220703125,-0.25686466693878174,-9.795356750488281,-0.39421001076698303
1701881495767844600,4.6758447265625,-0.25286728143692017,-9.795210838317871,-0.40036386251449585
1701881495777437200,4.685437255859375,-0.24861353635787964,-9.795034408569336,-0.4072960615158081
1701881495787029000,4.695029052734375,-0.24285875260829926,-9.794819831848145,-0.41584664583206177
1701881495796621600,4.70462158203125,-0.2356235682964325,-9.794571876525879,-0.42570796608924866
1701881495806215000,4.71421484375,-0.2271268367767334,-9.794310569763184,-0.43620753288269043
1701881495815807500,4.723807373046875,-0.21744811534881592,-9.793999671936035,-0.44796934723854065
1701881495825399300,4.7333994140625,-0.2066972404718399,-9.79364013671875,-0.4607386291027069
1701881495834991900,4.742991943359375,-0.19550177454948425,-9.793192863464355,-0.47488757967948914
1701881495844585200,4.752585205078125,-0.18384744226932526,-9.79265308380127,-0.49043771624565125
1701881495854177500,4.762177490234375,-0.17223860323429108,-9.792015075683594,-0.5070876479148865
1701881495863769300,4.771769287109375,-0.15966953337192535,-9.791285514831543,-0.5249858498573303
1701881495873362000,4.78136181640625,-0.1462201327085495,-9.7904691696167,-0.5438006520271301
1701881495882955300,4.790955322265625,-0.13279297947883606,-9.789523124694824,-0.563914954662323
1701881495892547800,4.8005478515625,-0.11821021884679794,-9.788492202758789,-0.584672749042511
1701881495902139600,4.8101396484375,-0.10038590431213379,-9.787321090698242,-0.607181966304779
1701881495911732200,4.819732177734375,-0.07985461503267288,-9.785922050476074,-0.6322516798973083
1701881495921325600,4.82932568359375,-0.05820620805025101,-9.784377098083496,-0.6579937934875488
1701881495930918100,4.838918212890625,-0.035106778144836426,-9.782669067382812,-0.6845154762268066
1701881495940510000,4.848510009765625,-0.010166882537305355,-9.780664443969727,-0.7133581638336182
1701881495950102500,4.8581025390625,0.013564745895564556,-9.778339385986328,-0.7444950938224792
1701881495959696000,4.86769580078125,0.03572174906730652,-9.775688171386719,-0.7778398394584656
1701881495969288400,4.877288330078125,0.056114036589860916,-9.772771835327148,-0.8125199675559998
1701881495978880000,4.8868798828125,0.07571534812450409,-9.76943588256836,-0.8501601815223694
1701881495988472800,4.896472900390625,0.0988435447216034,-9.765381813049316,-0.8932647705078125
1701881495998066000,4.90606591796875,0.12442559748888016,-9.760581970214844,-0.9412442445755005
1701881496007658500,4.915658447265625,0.1512189656496048,-9.755256652832031,-0.9912108182907104
1701881496017250300,4.925250244140625,0.1769830733537674,-9.749485969543457,-1.0423961877822876
1701881496026843000,4.9348427734375,0.2013644576072693,-9.74288272857666,-1.098210096359253
1701881496036436200,4.944436279296875,0.22498764097690582,-9.736160278320312,-1.1519298553466797
1701881496046028800,4.95402880859375,0.24873946607112885,-9.72933292388916,-1.2035751342773438
1701881496055620600,4.96362060546875,0.27474868297576904,-9.722628593444824,-1.251158356666565
1701881496065213200,4.973213134765625,0.3021373450756073,-9.716056823730469,-1.295120120048523
1701881496074806500,4.982806640625,0.3275430202484131,-9.709328651428223,-1.3386726379394531
1701881496084399000,4.992399169921875,0.3477203845977783,-9.70259952545166,-1.3816790580749512
1701881496093990700,5.00199072265625,0.3645334243774414,-9.695443153381348,-1.4268462657928467
1701881496103583500,5.01158349609375,0.3873894214630127,-9.687155723571777,-1.4762617349624634
1701881496113176800,5.0211767578125,0.4031086266040802,-9.680489540100098,-1.515263319015503
1701881496122769200,5.03076904296875,0.41383397579193115,-9.673789024353027,-1.5546455383300781
1701881496132361000,5.04036083984375,0.4156845510005951,-9.666755676269531,-1.5973166227340698
1701881496141953500,5.04995361328125,0.4150243103504181,-9.659972190856934,-1.6380128860473633
1701881496151547000,5.059546875,0.4133903384208679,-9.654958724975586,-1.667715072631836
1701881496161139500,5.069139404296875,0.4060189127922058,-9.652442932128906,-1.6840050220489502
1701881496170731300,5.078731201171875,0.3902258276939392,-9.652128219604492,-1.6895396709442139
1701881496180323800,5.08832373046875,0.3670375645160675,-9.65334415435791,-1.6877799034118652
1701881496189917200,5.097917236328125,0.3372708559036255,-9.655381202697754,-1.6823333501815796
1701881496199509800,5.107509765625,0.30338621139526367,-9.657414436340332,-1.6771069765090942
1701881496209101600,5.1171015625,0.27012014389038086,-9.65903091430664,-1.6734790802001953
1701881496218694100,5.126694091796875,0.24188785254955292,-9.659903526306152,-1.672763466835022
1701881496228287500,5.13628759765625,0.2203749567270279,-9.659894943237305,-1.6757854223251343
1701881496237879800,5.1458798828125,0.2053832858800888,-9.65898609161377,-1.6829112768173218
1701881496247471600,5.1554716796875,0.1974482238292694,-9.657078742980957,-1.694770336151123
1701881496257064200,5.165064208984375,0.1952783614397049,-9.654339790344238,-1.7105532884597778
1701881496266657500,5.174657470703125,0.19645017385482788,-9.651124000549316,-1.7284687757492065
1701881496276250000,5.18425,0.2013295441865921,-9.647971153259277,-1.7454233169555664
1701881496285842000,5.193842041015625,0.20943540334701538,-9.64471435546875,-1.7623871564865112
1701881496295434500,5.2034345703125,0.21882399916648865,-9.640849113464355,-1.7822779417037964
1701881496305027800,5.21302783203125,0.22871647775173187,-9.636899948120117,-1.8022819757461548
1701881496314620400,5.222620361328125,0.23920099437236786,-9.63301944732666,-1.821567177772522
1701881496324212200,5.232212158203125,0.24961766600608826,-9.629837036132812,-1.8369340896606445
1701881496333804800,5.2418046875,0.2599259316921234,-9.62742805480957,-1.8480981588363647
1701881496343398100,5.251398193359375,0.2725280821323395,-9.625289916992188,-1.8573929071426392
1701881496352990500,5.260990478515625,0.2869030237197876,-9.624700546264648,-1.8582843542099
1701881496362582300,5.270582275390625,0.30039188265800476,-9.625794410705566,-1.850467562675476
1701881496372174800,5.2801748046875,0.3104322850704193,-9.628347396850586,-1.83547043800354
1701881496381768200,5.289768310546875,0.31416478753089905,-9.631990432739258,-1.8156088590621948
1701881496391360800,5.29936083984375,0.30970442295074463,-9.6364164352417,-1.7927511930465698
1701881496400952600,5.30895263671875,0.29833704233169556,-9.640826225280762,-1.7708309888839722
1701881496410545200,5.318545166015625,0.28260326385498047,-9.644514083862305,-1.7532461881637573
1701881496420138500,5.328138427734375,0.2654631733894348,-9.647085189819336,-1.7417436838150024
1701881496429731000,5.33773095703125,0.24971513450145721,-9.648598670959473,-1.7356798648834229
1701881496439323000,5.347322998046875,0.2370232194662094,-9.650003433227539,-1.7296319007873535
1701881496448915500,5.35691552734375,0.22781528532505035,-9.651748657226562,-1.7211151123046875
1701881496458508800,5.3665087890625,0.21829017996788025,-9.654298782348633,-1.707999348640442
1701881496468101000,5.37610107421875,0.20728842914104462,-9.658191680908203,-1.6872349977493286
1701881496477693000,5.38569287109375,0.19573837518692017,-9.663400650024414,-1.658539056777954
1701881496487285500,5.395285400390625,0.1827906221151352,-9.669729232788086,-1.6227500438690186
1701881496496878800,5.40487890625,0.16820423305034637,-9.676478385925293,-1.5836220979690552
1701881496506471400,5.414471435546875,0.15519912540912628,-9.683061599731445,-1.5442254543304443
1701881496516063200,5.424063232421875,0.1463647186756134,-9.689014434814453,-1.507309079170227
1701881496525655800,5.43365576171875,0.1417037397623062,-9.693965911865234,-1.4755784273147583
1701881496535249200,5.443249267578125,0.14121553301811218,-9.698172569274902,-1.4477189779281616
1701881496544841700,5.452841796875,0.1463179886341095,-9.701869010925293,-1.4222265481948853
1701881496554433500,5.46243359375,0.1562136709690094,-9.704964637756348,-1.399876594543457
1701881496564026000,5.472026123046875,0.1694878190755844,-9.707867622375488,-1.378029704093933
1701881496573619500,5.481619384765625,0.18401667475700378,-9.71092700958252,-1.35439932346344
1701881496583212000,5.4912119140625,0.1987805962562561,-9.714264869689941,-1.328139305114746
1701881496592803600,5.500803466796875,0.21074429154396057,-9.717884063720703,-1.2994954586029053
1701881496602396200,5.510396240234375,0.21763573586940765,-9.72204303741455,-1.2668447494506836
1701881496611989500,5.519989501953125,0.21995176374912262,-9.726527214050293,-1.2315318584442139
1701881496621582000,5.52958203125,0.21721947193145752,-9.731528282165527,-1.1918665170669556
1701881496631174000,5.539173828125,0.2095465511083603,-9.737725257873535,-1.141564965248108
1701881496640766500,5.548766357421875,0.20156970620155334,-9.744207382202148,-1.0863605737686157
1701881496650359800,5.55835986328125,0.1882283091545105,-9.750275611877441,-1.032997727394104
1701881496659952400,5.567952392578125,0.16690558195114136,-9.755555152893066,-0.9857364892959595
1701881496669544000,5.5775439453125,0.13893578946590424,-9.760100364685059,-0.9442017674446106
1701881496679136800,5.58713671875,0.10632568597793579,-9.764095306396484,-0.9063766002655029
1701881496688730000,5.596730224609375,0.07124222815036774,-9.767754554748535,-0.8696434497833252
1701881496698322400,5.606322509765625,0.03618729114532471,-9.771331787109375,-0.8307541608810425
1701881496707914200,5.615914306640625,0.0003696243220474571,-9.775254249572754,-0.7840870022773743
1701881496717506800,5.6255068359375,-0.03278873860836029,-9.779341697692871,-0.7306047081947327
1701881496727100200,5.63510009765625,-0.06499073654413223,-9.782841682434082,-0.679833173751831
1701881496736692700,5.644692626953125,-0.10218635201454163,-9.785774230957031,-0.6313160061836243
1701881496746284500,5.654284423828125,-0.14369264245033264,-9.788290977478027,-0.582341730594635
1701881496755877000,5.663877197265625,-0.18982288241386414,-9.790385246276855,-0.5317186713218689
1701881496765470500,5.673470458984375,-0.2377483993768692,-9.79200553894043,-0.48008304834365845
1701881496775063000,5.68306298828125,-0.28754526376724243,-9.793110847473145,-0.42742234468460083
1701881496784654800,5.69265478515625,-0.3365415036678314,-9.793923377990723,-0.3690502345561981
1701881496794247400,5.702247314453125,-0.3788153827190399,-9.794567108154297,-0.30551257729530334
1701881496803840800,5.7118408203125,-0.4170796573162079,-9.79479694366455,-0.24162299931049347
1701881496813433000,5.72143310546875,-0.4589379131793976,-9.794300079345703,-0.17733684182167053
1701881496823025000,5.73102490234375,-0.5058400630950928,-9.792976379394531,-0.11010809987783432
1701881496832617500,5.740617431640625,-0.5619485974311829,-9.790480613708496,-0.03285940736532211
1701881496842210800,5.7502109375,-0.6253029108047485,-9.786523818969727,0.057703256607055664
1701881496851803400,5.759803466796875,-0.6869578957557678,-9.781435012817383,0.1484283059835434
1701881496861395200,5.769395263671875,-0.7441431879997253,-9.775691032409668,0.22912023961544037
1701881496870987800,5.77898779296875,-0.8015012145042419,-9.769271850585938,0.2988332509994507
1701881496880581000,5.7885810546875,-0.8618385791778564,-9.761918067932129,0.3641240894794464
1701881496890173700,5.798173583984375,-0.9270955920219421,-9.753080368041992,0.4339370131492615
1701881496899765200,5.80776513671875,-0.9912199378013611,-9.743461608886719,0.5028172135353088
1701881496909358000,5.817358154296875,-1.0537452697753906,-9.733091354370117,0.5718007683753967
1701881496918951400,5.826951416015625,-1.1140931844711304,-9.721953392028809,0.6425006985664368
1701881496928543700,5.836543701171875,-1.1711485385894775,-9.71027660369873,0.7136726379394531
1701881496938135600,5.846135498046875,-1.2228670120239258,-9.698662757873535,0.7816066741943359
1701881496947728100,5.85572802734375,-1.2721123695373535,-9.686944007873535,0.8457213640213013
1701881496957321500,5.865321533203125,-1.3193198442459106,-9.674827575683594,0.9096666574478149
1701881496966914000,5.8749140625,-1.3641256093978882,-9.662727355957031,0.9701746702194214
1701881496976505900,5.884505859375,-1.4065102338790894,-9.650890350341797,1.0258839130401611
1701881496986098400,5.894098388671875,-1.4481077194213867,-9.638962745666504,1.0787854194641113
1701881496995691800,5.90369189453125,-1.4907017946243286,-9.626304626464844,1.1324549913406372
1701881497005284000,5.9132841796875,-1.5375579595565796,-9.612091064453125,1.1891191005706787
1701881497014876000,5.9228759765625,-1.5894949436187744,-9.595867156982422,1.2502856254577637
1701881497024468500,5.932468505859375,-1.6457676887512207,-9.57730770111084,1.3179632425308228
1701881497034061800,5.942061767578125,-1.7055232524871826,-9.55614185333252,1.3934602737426758
1701881497043654400,5.951654296875,-1.7698144912719727,-9.532166481018066,1.4751108884811401
1701881497053246200,5.96124609375,-1.8383413553237915,-9.505871772766113,1.5586144924163818
1701881497062838800,5.9708388671875,-1.9147446155548096,-9.476147651672363,1.6452252864837646
1701881497072432000,5.98043212890625,-1.9980812072753906,-9.442450523376465,1.737290859222412
1701881497082024700,5.990024658203125,-2.090888738632202,-9.404485702514648,1.831452488899231
1701881497091616500,5.999616455078125,-2.193260431289673,-9.362353324890137,1.9251818656921387
1701881497101209000,6.009208984375,-2.3034520149230957,-9.31617259979248,2.0182747840881348
1701881497110802400,6.018802490234375,-2.419097661972046,-9.266352653503418,2.110222816467285
1701881497120394800,6.028394775390625,-2.5363082885742188,-9.213690757751465,2.2012314796447754
1701881497129986600,6.037986572265625,-2.6508781909942627,-9.1590576171875,2.292354106903076
1701881497139579100,6.0475791015625,-2.7607219219207764,-9.103129386901855,2.383662223815918
1701881497149172500,6.05717236328125,-2.8649184703826904,-9.046369552612305,2.475040912628174
1701881497158765000,6.06676513671875,-2.964077949523926,-8.988828659057617,2.5662410259246826
1701881497168356900,6.07635693359375,-3.0600109100341797,-8.929853439331055,2.6578989028930664
1701881497177949400,6.085949462890625,-3.1543478965759277,-8.868708610534668,2.7507266998291016
1701881497187542800,6.095542724609375,-3.2495524883270264,-8.804606437683105,2.8442413806915283
1701881497197135400,6.10513525390625,-3.3466570377349854,-8.737421035766602,2.9373021125793457
1701881497206727000,6.114726806640625,-3.446159839630127,-8.66736888885498,3.028378963470459
1701881497216319700,6.12431982421875,-3.547178268432617,-8.595113754272461,3.1163980960845947
1701881497225913000,6.1339130859375,-3.648043632507324,-8.521533012390137,3.2008814811706543
1701881497235505400,6.14350537109375,-3.7478206157684326,-8.447033882141113,3.2820510864257812
1701881497245097200,6.15309716796875,-3.84483003616333,-8.37258243560791,3.3596928119659424
1701881497254689800,6.162689697265625,-3.9376816749572754,-8.298590660095215,3.434887409210205
1701881497264283100,6.172283203125,-4.025993347167969,-8.22535228729248,3.5078959465026855
1701881497273875700,6.181875732421875,-4.1098408699035645,-8.15302562713623,3.5787956714630127
1701881497283467500,6.191467529296875,-4.1890411376953125,-8.081873893737793,3.6476893424987793
1701881497293060000,6.20106005859375,-4.2623701095581055,-8.012763023376465,3.714595079421997
1701881497302653400,6.2106533203125,-4.332283973693848,-7.944242000579834,3.780306339263916
1701881497312245800,6.220245849609375,-4.400312423706055,-7.877017021179199,3.841904401779175
1701881497321837600,6.229837646484375,-4.466745853424072,-7.811421871185303,3.898749351501465
1701881497331430100,6.23943017578125,-4.530930042266846,-7.74763298034668,3.9516117572784424
1701881497341023500,6.2490234375,-4.592505931854248,-7.685770034790039,4.001028060913086
1701881497350616000,6.258615966796875,-4.651422500610352,-7.625192165374756,4.048591613769531
1701881497360208000,6.268207763671875,-4.708499431610107,-7.56561279296875,4.094133377075195
1701881497369800400,6.277800537109375,-4.7634429931640625,-7.507462024688721,4.137392044067383
1701881497379393800,6.287393798828125,-4.814303874969482,-7.452319622039795,4.178015232086182
1701881497388986400,6.296986328125,-4.860833168029785,-7.400463104248047,4.21613883972168
1701881497398578000,6.306577880859375,-4.904539585113525,-7.351303577423096,4.251379489898682
1701881497408170500,6.31617041015625,-4.9464802742004395,-7.304170608520508,4.283902168273926
1701881497417763800,6.325763916015625,-4.987060070037842,-7.258721828460693,4.313998222351074
1701881497427356400,6.3353564453125,-5.026191234588623,-7.215404033660889,4.341166973114014
1701881497436948200,6.3449482421875,-5.063459873199463,-7.174688339233398,4.365271091461182
1701881497446540800,6.354540771484375,-5.098596572875977,-7.1361517906188965,4.387486457824707
1701881497456134100,6.364134033203125,-5.1313323974609375,-7.099555969238281,4.408640384674072
1701881497465726700,6.373726806640625,-5.1598029136657715,-7.065439224243164,4.4301676750183105
1701881497475318500,6.383318603515625,-5.18391227722168,-7.033935070037842,4.452102184295654
1701881497484911000,6.3929111328125,-5.204927921295166,-7.004437446594238,4.474031448364258
1701881497494504400,6.40250439453125,-5.2240214347839355,-6.976367473602295,4.495584487915039
1701881497504096800,6.4120966796875,-5.2415242195129395,-6.949620723724365,4.516589164733887
1701881497513688600,6.4216884765625,-5.2577033042907715,-6.924591064453125,4.5361857414245605
1701881497523281200,6.43128125,-5.2725019454956055,-6.901552677154541,4.554084300994873
1701881497532874500,6.44087451171875,-5.286076068878174,-6.880130767822266,4.570732116699219
1701881497542467000,6.450467041015625,-5.298007011413574,-6.860342502593994,4.586634635925293
1701881497552059000,6.460058837890625,-5.309297561645508,-6.841518878936768,4.601668834686279
1701881497561651500,6.4696513671875,-5.3202595710754395,-6.823707580566406,4.615435600280762
1701881497571244800,6.479244873046875,-5.331010818481445,-6.807151794433594,4.627460479736328
1701881497580837400,6.48883740234375,-5.341927528381348,-6.7918524742126465,4.637341499328613
1701881497590429200,6.49842919921875,-5.352849960327148,-6.7781662940979,4.6447649002075195
1701881497600021800,6.508021728515625,-5.364649772644043,-6.7653703689575195,4.649805068969727
1701881497609615000,6.517614990234375,-5.376519203186035,-6.753407001495361,4.653485298156738
1701881497619207400,6.52720751953125,-5.387611389160156,-6.742258071899414,4.656821250915527
1701881497628799200,6.53679931640625,-5.397957801818848,-6.7315192222595215,4.660373687744141
1701881497638391800,6.546391845703125,-5.407801151275635,-6.720912456512451,4.664267539978027
1701881497647985200,6.555985107421875,-5.416992664337158,-6.710813045501709,4.668145179748535
1701881497657577700,6.56557763671875,-5.425777912139893,-6.700883865356445,4.672201156616211
1701881497667169500,6.57516943359375,-5.434193134307861,-6.690698623657227,4.677016258239746
1701881497676762000,6.58476220703125,-5.442084789276123,-6.6803717613220215,4.682599067687988
1701881497686355500,6.59435546875,-5.449080467224121,-6.6703715324401855,4.688714981079102
1701881497695947800,6.60394775390625,-5.45520544052124,-6.66054105758667,4.695562839508057
1701881497705539600,6.61353955078125,-5.459751129150391,-6.651082992553711,4.703678607940674
1701881497715132200,6.623132080078125,-5.4626359939575195,-6.642168998718262,4.712917327880859
1701881497724725500,6.6327255859375,-5.463779926300049,-6.634310245513916,4.722649574279785
1701881497734318000,6.642318115234375,-5.463940620422363,-6.627405643463135,4.732149600982666
1701881497743910000,6.651909912109375,-5.463438510894775,-6.621445178985596,4.741063594818115
1701881497753502500,6.66150244140625,-5.462269306182861,-6.616563320159912,4.7492194175720215
1701881497763095800,6.671095703125,-5.4607110023498535,-6.612570762634277,4.75656795501709
1701881497772688400,6.6806884765625,-5.458728313446045,-6.609318256378174,4.7633585929870605
1701881497782280000,6.690280029296875,-5.458257675170898,-6.605055332183838,4.769804954528809
1701881497791872800,6.699872802734375,-5.456064701080322,-6.6021833419799805,4.776288986206055
1701881497801465900,6.7094658203125,-5.452995300292969,-6.598861217498779,4.7843756675720215
1701881497811058400,6.719058349609375,-5.448432445526123,-6.595780372619629,4.793814659118652
1701881497820650200,6.728650146484375,-5.442490100860596,-6.5921735763549805,4.805511951446533
1701881497830242800,6.738242919921875,-5.435670375823975,-6.587895393371582,4.819077968597412
1701881497839836200,6.747836181640625,-5.428563117980957,-6.583511829376221,4.833059310913086
1701881497849428700,6.7574287109375,-5.421627998352051,-6.579387664794922,4.846440315246582
1701881497859020300,6.767020263671875,-5.416553974151611,-6.573282718658447,4.860379695892334
1701881497868613000,6.776613037109375,-5.412855625152588,-6.566807270050049,4.87323522567749
1701881497878206500,6.78620654296875,-5.410085201263428,-6.560166358947754,4.88524055480957
1701881497887798800,6.795798828125,-5.407787799835205,-6.553728103637695,4.896414756774902
1701881497897390600,6.805390625,-5.404966354370117,-6.548487663269043,4.90653133392334
1701881497906983200,6.814983154296875,-5.401648998260498,-6.543969631195068,4.916202068328857
1701881497916576500,6.824576416015625,-5.397940158843994,-6.540484428405762,4.924905300140381
1701881497926169000,6.834169189453125,-5.39499568939209,-6.537693500518799,4.9318318367004395
1701881497935761000,6.843760986328125,-5.391643524169922,-6.536288738250732,4.937355995178223
1701881497945353500,6.853353515625,-5.388506889343262,-6.535730838775635,4.941518306732178
1701881497954946800,6.86294677734375,-5.385572910308838,-6.535689830780029,4.944770336151123
1701881497964539100,6.8725390625,-5.383204460144043,-6.535862922668457,4.947120189666748
1701881497974131000,6.882130859375,-5.380094051361084,-6.536456108093262,4.949718952178955
1701881497983723500,6.8917236328125,-5.377570629119873,-6.536346435546875,4.952605724334717
1701881497993316900,6.90131689453125,-5.375874996185303,-6.535371780395508,4.955731391906738
1701881498002909400,6.910909423828125,-5.375235080718994,-6.533550262451172,4.95882511138916
1701881498012501200,6.920501220703125,-5.375382423400879,-6.531348705291748,4.96156644821167
1701881498022093800,6.93009375,-5.376950263977051,-6.528297424316406,4.963881492614746
1701881498031687200,6.939687255859375,-5.37964391708374,-6.524524211883545,4.9659247398376465
1701881498041279700,6.94927978515625,-5.382040977478027,-6.521799564361572,4.96690559387207
1701881498050871300,6.958871337890625,-5.384324073791504,-6.519705772399902,4.967179298400879
1701881498060464000,6.968464111328125,-5.387197017669678,-6.517910003662109,4.966421604156494
1701881498070057200,6.97805712890625,-5.390811443328857,-6.515915393829346,4.965118885040283
1701881498079649800,6.98764990234375,-5.3945817947387695,-6.514274597167969,4.963175296783447
1701881498089241600,6.99724169921875,-5.398876667022705,-6.512220859527588,4.961197853088379
1701881498098834200,7.006834228515625,-5.403505802154541,-6.50955057144165,4.959662914276123
1701881498108427500,7.016427490234375,-5.408382892608643,-6.5063557624816895,4.958539962768555
1701881498118020000,7.02602001953125,-5.414079189300537,-6.502647876739502,4.957186698913574
1701881498127611600,7.035611572265625,-5.420461177825928,-6.4980034828186035,4.956302642822266
1701881498137204500,7.04520458984375,-5.426769733428955,-6.49253511428833,4.9565653800964355
1701881498146797800,7.0547978515625,-5.432076454162598,-6.486691474914551,4.958402633666992
1701881498156390100,7.06439013671875,-5.435468673706055,-6.481587886810303,4.961359024047852
1701881498165982000,7.07398193359375,-5.437623500823975,-6.4776811599731445,4.964099884033203
1701881498175574500,7.083574462890625,-5.438746452331543,-6.475450038909912,4.965780735015869
1701881498185168000,7.09316796875,-5.43963623046875,-6.4749531745910645,4.965453624725342
1701881498194760400,7.102760498046875,-5.440474987030029,-6.475610256195068,4.963677883148193
1701881498204352300,7.112352294921875,-5.441305160522461,-6.47701358795166,4.960935115814209
1701881498213944600,7.121944580078125,-5.441911697387695,-6.478771209716797,4.957973003387451
1701881498223538200,7.1315380859375,-5.442038536071777,-6.480906009674072,4.955043792724609
1701881498233130500,7.141130615234375,-5.441793441772461,-6.483166217803955,4.952356338500977
1701881498242722300,7.150722412109375,-5.441446304321289,-6.4850592613220215,4.950258731842041
1701881498252315000,7.16031494140625,-5.4410576820373535,-6.486334800720215,4.949014663696289
1701881498261908200,7.169908203125,-5.440496921539307,-6.4870500564575195,4.948693752288818
1701881498271500800,7.179500732421875,-5.439991474151611,-6.48691463470459,4.949426174163818
1701881498281092600,7.189092529296875,-5.439598083496094,-6.4862260818481445,4.950760364532471
1701881498290685200,7.198685302734375,-5.439406871795654,-6.484840393066406,4.952785491943359
1701881498300278500,7.208278564453125,-5.439183235168457,-6.483165740966797,4.9552226066589355
1701881498309870800,7.217870849609375,-5.438878059387207,-6.48106575012207,4.958303451538086
1701881498319462700,7.227462646484375,-5.438756942749023,-6.4788007736206055,4.961394786834717
1701881498329055200,7.23705517578125,-5.439001083374023,-6.476670265197754,4.96390962600708
1701881498338648600,7.246648681640625,-5.439347267150879,-6.474896430969238,4.965843677520752
1701881498348241200,7.2562412109375,-5.440141201019287,-6.473312854766846,4.967038631439209
1701881498357833000,7.2658330078125,-5.441585063934326,-6.4720540046691895,4.967098236083984
1701881498367425500,7.275425537109375,-5.447022914886475,-6.468374729156494,4.965928554534912
1701881498377019000,7.285018798828125,-5.449460029602051,-6.467231273651123,4.964744567871094
1701881498386611500,7.294611572265625,-5.451850891113281,-6.466050148010254,4.963658332824707
1701881498396203000,7.304203125,-5.45246696472168,-6.465946674346924,4.963116645812988
1701881498405795800,7.3137958984375,-5.452130317687988,-6.466010093688965,4.963403224945068
1701881498415389200,7.32338916015625,-5.449970245361328,-6.466549396514893,4.965073108673096
1701881498424981500,7.3329814453125,-5.448501110076904,-6.465923309326172,4.967501163482666
1701881498434573300,7.3425732421875,-5.446905612945557,-6.465362548828125,4.969979763031006
1701881498444166000,7.352165771484375,-5.4454874992370605,-6.464593410491943,4.972532749176025
1701881498453759200,7.36175927734375,-5.444914817810059,-6.4633002281188965,4.974841117858887
1701881498463351800,7.371351806640625,-5.445415019989014,-6.461219310760498,4.976995944976807
1701881498472943400,7.380943359375,-5.4463090896606445,-6.458638668060303,4.979365348815918
1701881498482536200,7.3905361328125,-5.44691276550293,-6.455900192260742,4.982255935668945
1701881498492129500,7.400129638671875,-5.449421405792236,-6.45235013961792,4.984111309051514
1701881498501721900,7.409721923828125,-5.4497199058532715,-6.450430393218994,4.986269950866699
1701881498511313700,7.419313720703125,-5.450833320617676,-6.448921203613281,4.98700475692749
1701881498520906200,7.42890625,-5.451282978057861,-6.44845724105835,4.9871134757995605
1701881498530499600,7.43849951171875,-5.452019214630127,-6.448701858520508,4.985992908477783
1701881498540092200,7.448092041015625,-5.4537739753723145,-6.448761463165283,4.983996391296387
1701881498549684000,7.45768408203125,-5.455698490142822,-6.449036121368408,4.981534004211426
1701881498559276500,7.467276611328125,-5.457808017730713,-6.449460983276367,4.978672027587891
1701881498568870000,7.476869873046875,-5.459873199462891,-6.450112342834473,4.975563049316406
1701881498578462200,7.486462158203125,-5.462136268615723,-6.450718879699707,4.972291469573975
1701881498588054000,7.496053955078125,-5.464465618133545,-6.451369285583496,4.968886852264404
1701881498597646600,7.505646484375,-5.466681480407715,-6.452150821685791,4.965432643890381
1701881498607240000,7.515239990234375,-5.469058990478516,-6.452861785888672,4.961889743804932
1701881498616832500,7.52483251953125,-5.471713066101074,-6.453603267669678,4.957997798919678
1701881498626424300,7.53442431640625,-5.474813938140869,-6.454549789428711,4.953340530395508
1701881498636017000,7.544016845703125,-5.478415012359619,-6.4554619789123535,4.9481682777404785
1701881498645610200,7.5536103515625,-5.481602668762207,-6.4560866355896,4.943819999694824
1701881498655202600,7.56320263671875,-5.485235691070557,-6.4559006690979,4.940032482147217
1701881498664794400,7.57279443359375,-5.488447666168213,-6.455505847930908,4.9369797706604
1701881498674387000,7.582386962890625,-5.490850925445557,-6.454920768737793,4.935072898864746
1701881498683980300,7.591980224609375,-5.492146968841553,-6.454453468322754,4.934243202209473
1701881498693572900,7.60157275390625,-5.492051601409912,-6.454193592071533,4.934686660766602
1701881498703164700,7.61116455078125,-5.489597797393799,-6.4546003341674805,4.936885833740234
1701881498712757200,7.62075732421875,-5.484468460083008,-6.455097198486328,4.941934585571289
1701881498722350600,7.6303505859375,-5.475573539733887,-6.456714630126953,4.949678897857666
1701881498731943000,7.63994287109375,-5.456952095031738,-6.461145877838135,4.9644389152526855
1701881498741534700,7.64953466796875,-5.435198783874512,-6.466195583343506,4.981698036193848
1701881498751127300,7.659127197265625,-5.41446590423584,-6.472466468811035,4.996110916137695
1701881498760720600,7.668720703125,-5.392316818237305,-6.481794834136963,5.0079569816589355
1701881498770313200,7.678313232421875,-5.379273891448975,-6.490921497344971,5.0101637840271
1701881498779905000,7.687905029296875,-5.375234127044678,-6.500979423522949,5.0014495849609375
1701881498789497600,7.69749755859375,-5.379628658294678,-6.508864879608154,4.986448287963867
1701881498799091000,7.707091064453125,-5.388365745544434,-6.513620853424072,4.970778942108154
1701881498808683300,7.716683349609375,-5.397594451904297,-6.515307903289795,4.958541393280029
1701881498818275000,7.726275146484375,-5.404043674468994,-6.515408515930176,4.951380729675293
1701881498827867600,7.73586767578125,-5.405694484710693,-6.5152812004089355,4.949745178222656
1701881498837461000,7.7454609375,-5.402763366699219,-6.515983581542969,4.952019691467285
1701881498847053600,7.755053466796875,-5.396327972412109,-6.517955780029297,4.956437587738037
1701881498856645400,7.764645263671875,-5.388428211212158,-6.520810127258301,4.961276531219482
1701881498866238000,7.774238037109375,-5.380683422088623,-6.524055480957031,4.965412616729736
1701881498875831300,7.783831298828125,-5.374810695648193,-6.5268425941467285,4.968111991882324
1701881498885423900,7.793423828125,-5.371066093444824,-6.529480457305908,4.96869421005249
1701881498895015400,7.803015380859375,-5.3691606521606445,-6.532180309295654,4.967202663421631
1701881498904608000,7.81260791015625,-5.368804454803467,-6.534931659698486,4.9639692306518555
1701881498914201300,7.822201416015625,-5.369340896606445,-6.537970066070557,4.959386348724365
1701881498923794000,7.8317939453125,-5.370694637298584,-6.540718078613281,4.9542951583862305
1701881498933385700,7.8413857421875,-5.372727394104004,-6.542819499969482,4.949312686920166
1701881498942978300,7.850978271484375,-5.3760504722595215,-6.544236660003662,4.943828582763672
1701881498952571600,7.860571533203125,-5.3804755210876465,-6.5447492599487305,4.9383320808410645
1701881498962164200,7.870164306640625,-5.385885238647461,-6.544523239135742,4.932732582092285
1701881498971755800,7.879755859375,-5.39251708984375,-6.543891429901123,4.9263200759887695
1701881498981348600,7.8893486328125,-5.400059223175049,-6.542623043060303,4.919739246368408
1701881498990941700,7.898941650390625,-5.408459186553955,-6.540632724761963,4.913154125213623
1701881499000534300,7.9085341796875,-5.4173970222473145,-6.5381855964660645,4.906559944152832
1701881499010126000,7.9181259765625,-5.426370143890381,-6.535079479217529,4.9007792472839355
1701881499019718700,7.92771875,-5.435020923614502,-6.531381607055664,4.896120071411133
1701881499029312000,7.93731201171875,-5.442986965179443,-6.526950836181641,4.8931779861450195
1701881499038904600,7.946904541015625,-5.449782371520996,-6.5222344398498535,4.891903877258301
1701881499048496000,7.95649609375,-5.455115795135498,-6.517885684967041,4.891755104064941
1701881499058089000,7.9660888671875,-5.459697246551514,-6.513827800750732,4.892049312591553
1701881499067682300,7.975682373046875,-5.463842868804932,-6.510286808013916,4.892135143280029
1701881499077274600,7.985274658203125,-5.46779727935791,-6.507713794708252,4.891139030456543
1701881499086866400,7.994866455078125,-5.471675872802734,-6.506063938140869,4.888996124267578
1701881499096459000,8.004458984375,-5.475351333618164,-6.505504608154297,4.88562536239624
1701881499106052400,8.01405224609375,-5.479444980621338,-6.5049967765808105,4.881709098815918
1701881499115645000,8.02364501953125,-5.483352184295654,-6.504694938659668,4.877722263336182
1701881499125236700,8.03323681640625,-5.486312389373779,-6.504410743713379,4.874770641326904
1701881499134829300,8.042829345703124,-5.488833427429199,-6.50341272354126,4.873264312744141
1701881499144422700,8.052422607421875,-5.489988327026367,-6.502163887023926,4.873631000518799
1701881499154015000,8.062014892578125,-5.4902143478393555,-6.501155376434326,4.874722480773926
1701881499163606800,8.071606689453125,-5.489773273468018,-6.500319004058838,4.876335144042969
1701881499173199400,8.081199462890625,-5.489792823791504,-6.499356746673584,4.877594470977783
1701881499182792700,8.090792724609376,-5.4900994300842285,-6.498693943023682,4.8781328201293945
1701881499192385300,8.10038525390625,-5.489936351776123,-6.499405860900879,4.87736701965332
1701881499201977000,8.10997705078125,-5.490967273712158,-6.498929977416992,4.876841068267822
1701881499211569700,8.119569580078124,-5.493155479431152,-6.498227596282959,4.875311851501465
1701881499221163000,8.1291630859375,-5.494819641113281,-6.4975266456604,4.874371528625488
1701881499230755300,8.13875537109375,-5.4956769943237305,-6.496582508087158,4.874663352966309
1701881499240347100,8.14834716796875,-5.494914531707764,-6.49619722366333,4.876035690307617
1701881499249939700,8.157939697265626,-5.492852210998535,-6.496114730834961,4.878468990325928
1701881499259533000,8.167532958984374,-5.489847183227539,-6.496343612670898,4.881545543670654
1701881499269125600,8.177125732421874,-5.4867424964904785,-6.4969258308410645,4.884261608123779
1701881499278717400,8.186717529296875,-5.486494541168213,-6.496165752410889,4.885549068450928
1701881499288310000,8.19631005859375,-5.483148097991943,-6.496969699859619,4.888237476348877
1701881499297903400,8.2059033203125,-5.480003356933594,-6.498566150665283,4.8896403312683105
1701881499307495700,8.21549560546875,-5.479428768157959,-6.49900484085083,4.889703273773193
1701881499317087500,8.22508740234375,-5.480489730834961,-6.498762607574463,4.888833999633789
1701881499326680000,8.23468017578125,-5.483074188232422,-6.497737407684326,4.887298107147217
1701881499336273400,8.2442734375,-5.487253665924072,-6.495800018310547,4.885183334350586
1701881499345866000,8.253865966796875,-5.491780757904053,-6.4939141273498535,4.882602691650391
1701881499355457800,8.263457763671875,-5.4964985847473145,-6.492173671722412,4.879608631134033
1701881499365050400,8.27305029296875,-5.5009684562683105,-6.490887641906738,4.876280784606934
1701881499374643700,8.282643798828126,-5.506252288818359,-6.489438056945801,4.872243881225586
1701881499384236000,8.292236083984376,-5.5101637840271,-6.488616466522217,4.868916034698486
1701881499393827800,8.301827880859374,-5.512527942657471,-6.489278793334961,4.865355491638184
1701881499403420400,8.31142041015625,-5.513989448547363,-6.491090774536133,4.861280918121338
1701881499413013800,8.321013671875,-5.515439033508301,-6.492803573608398,4.857347011566162
1701881499422606300,8.3306064453125,-5.517179489135742,-6.494044303894043,4.853709697723389
1701881499432198100,8.3401982421875,-5.5188751220703125,-6.494776248931885,4.850801467895508
1701881499441790500,8.34979052734375,-5.521408557891846,-6.4946441650390625,4.848095893859863
1701881499451384000,8.359384033203124,-5.523563861846924,-6.494265556335449,4.846148490905762
1701881499460976400,8.368976318359374,-5.52532434463501,-6.494070053100586,4.84440279006958
1701881499470568200,8.378568115234375,-5.526198863983154,-6.494322776794434,4.843066215515137
1701881499480160800,8.388160888671875,-5.526326656341553,-6.495089054107666,4.841890811920166
1701881499489754000,8.397754150390625,-5.525746822357178,-6.496323585510254,4.8408966064453125
1701881499499346700,8.4073466796875,-5.5250444412231445,-6.497888088226318,4.839599132537842
1701881499508938500,8.4169384765625,-5.523777961730957,-6.499922752380371,4.838313579559326
1701881499518531000,8.426531005859376,-5.5225396156311035,-6.501965045928955,4.836981773376465
1701881499528124400,8.43612451171875,-5.521572589874268,-6.503721237182617,4.835724830627441
1701881499537716700,8.445716796875,-5.521023750305176,-6.505181312561035,4.834386348724365
1701881499547308500,8.45530859375,-5.52047061920166,-6.506338596343994,4.833462715148926
1701881499556901000,8.464901123046875,-5.519864082336426,-6.507381439208984,4.8327507972717285
1701881499566494500,8.474494384765626,-5.518902778625488,-6.508373737335205,4.8325114250183105
1701881499576087000,8.484087158203126,-5.517874240875244,-6.50911808013916,4.832683086395264
1701881499585678800,8.493678955078124,-5.516361713409424,-6.509843826293945,4.833432197570801
1701881499595271400,8.503271484375,-5.515394687652588,-6.510348796844482,4.833856582641602
1701881499604864800,8.51286474609375,-5.514824390411377,-6.5106706619262695,4.834072589874268
1701881499614457000,8.52245703125,-5.514548301696777,-6.5105156898498535,4.834595203399658
1701881499624049000,8.532048828125,-5.514655113220215,-6.509805679321289,4.835431098937988
1701881499633641500,8.541641357421875,-5.514941692352295,-6.508493900299072,4.836868762969971
1701881499643234800,8.55123486328125,-5.5155134201049805,-6.506824493408203,4.838464260101318
1701881499652827400,8.560827392578124,-5.515824794769287,-6.505116939544678,4.840405464172363
1701881499662419200,8.570419189453125,-5.516138076782227,-6.503108978271484,4.84274435043335
1701881499672011800,8.58001171875,-5.515881061553955,-6.501380920410156,4.845357894897461
1701881499681605000,8.589605224609375,-5.515486240386963,-6.499893665313721,4.847802639007568
1701881499691197400,8.599197509765625,-5.514702796936035,-6.498619079589844,4.850401401519775
1701881499700789200,8.608789306640626,-5.513522624969482,-6.4975762367248535,4.853139877319336
1701881499710381800,8.6183818359375,-5.511892318725586,-6.4967780113220215,4.856058120727539
1701881499719975200,8.62797509765625,-5.509774684906006,-6.496384620666504,4.858987808227539
1701881499729567700,8.637567626953125,-5.507657527923584,-6.496035099029541,4.861855506896973
1701881499739159600,8.64715966796875,-5.5057477951049805,-6.495351791381836,4.86492919921875
1701881499748752100,8.656752197265625,-5.503779411315918,-6.494411468505859,4.868410587310791
1701881499758345500,8.666345458984376,-5.501663684844971,-6.493802070617676,4.8716139793396
1701881499767937800,8.675937744140626,-5.4999518394470215,-6.493563652038574,4.873865127563477
1701881499777529600,8.685529541015624,-5.499031066894531,-6.493611812591553,4.874838829040527
1701881499787122200,8.6951220703125,-5.498432159423828,-6.494024276733398,4.874964714050293
1701881499796715500,8.704715576171875,-5.49793815612793,-6.49417781829834,4.875317573547363
1701881499806308000,8.71430810546875,-5.497207164764404,-6.494232177734375,4.876070022583008
1701881499815900000,8.72389990234375,-5.496171474456787,-6.494706153869629,4.876605033874512
1701881499825492500,8.733492431640625,-5.495183944702148,-6.495276927947998,4.876958847045898
1701881499835085800,8.7430859375,-5.494218826293945,-6.495990753173828,4.87709379196167
1701881499844678100,8.75267822265625,-5.4931464195251465,-6.496181011199951,4.878048419952393
1701881499854270000,8.76227001953125,-5.492204666137695,-6.4952216148376465,4.880386829376221
1701881499863862500,8.771862548828125,-5.491246223449707,-6.494452476501465,4.882487773895264
1701881499873455900,8.781455810546875,-5.491513729095459,-6.494232654571533,4.882481098175049
1701881499883048400,8.79104833984375,-5.492371559143066,-6.493998050689697,4.8818278312683105
1701881499892640300,8.80064013671875,-5.491580486297607,-6.49653434753418,4.8793416023254395
1701881499902232800,8.81023291015625,-5.493687152862549,-6.4975905418396,4.875560760498047
1701881499911826200,8.819826171875,-5.496859073638916,-6.4988112449646,4.870357036590576
1701881499921418500,8.82941845703125,-5.501852035522461,-6.499297618865967,4.864065647125244
1701881499931010300,8.83901025390625,-5.508066177368164,-6.498422145843506,4.8582000732421875
1701881499940603000,8.848602783203125,-5.514604091644287,-6.496548175811768,4.8532867431640625
1701881499950196200,8.8581962890625,-5.520982265472412,-6.49392557144165,4.849543571472168
1701881499959788800,8.867788818359376,-5.526637554168701,-6.4908061027526855,4.847276210784912
1701881499969380600,8.877380615234374,-5.530022144317627,-6.488173484802246,4.846940994262695
1701881499978973200,8.88697314453125,-5.5311994552612305,-6.486235618591309,4.848191738128662
1701881499988566500,8.89656640625,-5.528114318847656,-6.4868879318237305,4.850837230682373
1701881499998158800,8.906158935546875,-5.524107456207275,-6.487646102905273,4.854386806488037
1701881500007750700,8.915750732421875,-5.517366886138916,-6.490477561950684,4.858266353607178
1701881500017343200,8.92534326171875,-5.512002944946289,-6.491765975952148,4.8626322746276855
1701881500026936600,8.9349365234375,-5.505143165588379,-6.493279933929443,4.868378162384033
1701881500036529200,8.944529052734374,-5.497358798980713,-6.494292736053467,4.87581729888916
1701881500046120700,8.95412060546875,-5.488574028015137,-6.495710372924805,4.883818626403809
1701881500055713500,8.963713623046875,-5.479290008544922,-6.497340202331543,4.892068386077881
1701881500065307000,8.973306884765625,-5.4709062576293945,-6.499208927154541,4.8989644050598145
1701881500074899200,8.982899169921875,-5.4635090827941895,-6.501607894897461,4.904033660888672
1701881500084491000,8.992490966796876,-5.459047317504883,-6.5039849281311035,4.905849933624268
1701881500094083600,9.00208349609375,-5.4560394287109375,-6.5063042640686035,4.906120300292969
1701881500103677000,9.011677001953124,-5.452873229980469,-6.509071350097656,4.905970096588135
1701881500113269500,9.02126953125,-5.448784828186035,-6.512670993804932,4.905736923217773
1701881500122861300,9.030861328125,-5.444381237030029,-6.516326427459717,4.9057698249816895
1701881500132454000,9.040453857421875,-5.441403865814209,-6.518622398376465,4.906024932861328
1701881500142047200,9.050047119140626,-5.438282012939453,-6.520907402038574,4.906448841094971
1701881500151639600,9.0596396484375,-5.435234546661377,-6.522684097290039,4.907464027404785
1701881500161231400,9.0692314453125,-5.432241439819336,-6.524425983428955,4.908463001251221
1701881500170824000,9.078823974609374,-5.4298415184021,-6.526320934295654,4.908599376678467
1701881500180417300,9.088417236328125,-5.428398132324219,-6.52841329574585,4.907413482666016
1701881500190009900,9.098009765625,-5.428309440612793,-6.530436992645264,4.904816627502441
1701881500199601700,9.1076015625,-5.430189609527588,-6.531723499298096,4.901021957397461
1701881500209194200,9.1171943359375,-5.434122085571289,-6.532127380371094,4.896122932434082
1701881500218787300,9.126787353515626,-5.440171718597412,-6.531731605529785,4.889928340911865
1701881500228380000,9.1363798828125,-5.44746732711792,-6.531148910522461,4.882580757141113
1701881500237971700,9.1459716796875,-5.455400466918945,-6.530829429626465,4.874142646789551
1701881500247564300,9.155564208984375,-5.463068962097168,-6.5304155349731445,4.866100311279297
1701881500257157600,9.16515771484375,-5.469187259674072,-6.53025484085083,4.859440803527832
1701881500266750200,9.174750244140625,-5.473738193511963,-6.530068397521973,4.854562282562256
1701881500276341800,9.184341796875,-5.477231025695801,-6.530194282531738,4.8504509925842285
1701881500285934600,9.1939345703125,-5.480188369750977,-6.5303544998168945,4.846895694732666
1701881500295528000,9.20352783203125,-5.483937740325928,-6.531074047088623,4.841683387756348
1701881500305120300,9.213120361328125,-5.488011837005615,-6.532328128814697,4.835369110107422
1701881500314712000,9.222712158203125,-5.492591857910156,-6.5340189933776855,4.827879428863525
1701881500324304600,9.2323046875,-5.498564720153809,-6.536014080047607,4.818370342254639
1701881500333898000,9.24189794921875,-5.505197048187256,-6.538481712341309,4.807436943054199
1701881500343490600,9.251490478515626,-5.511253833770752,-6.541599750518799,4.796241283416748
1701881500353082000,9.26108203125,-5.515713214874268,-6.54433012008667,4.78738260269165
1701881500362675000,9.270675048828124,-5.518786907196045,-6.545536041259766,4.782189846038818
1701881500372268000,9.28026806640625,-5.520261287689209,-6.5459699630737305,4.779892921447754
1701881500381860600,9.289860595703125,-5.521183967590332,-6.545212745666504,4.779864311218262
1701881500391452400,9.299452392578125,-5.5214409828186035,-6.543776035308838,4.781534194946289
1701881500401045000,9.309044921875,-5.522531032562256,-6.542253494262695,4.782358646392822
1701881500410638300,9.318638427734374,-5.525136947631836,-6.541046619415283,4.781000137329102
1701881500420231000,9.32823095703125,-5.5295209884643555,-6.539836883544922,4.777584075927734
1701881500429822500,9.337822509765624,-5.537026405334473,-6.538379192352295,4.770882606506348
1701881500439415000,9.3474150390625,-5.544942378997803,-6.536850452423096,4.763778209686279
1701881500449008400,9.35700830078125,-5.551402568817139,-6.5359368324279785,4.757504940032959
1701881500458601000,9.36660107421875,-5.554129600524902,-6.536894798278809,4.753002166748047
1701881500468192800,9.37619287109375,-5.557290077209473,-6.537015438079834,4.749141693115234
1701881500477785300,9.385785400390626,-5.55975341796875,-6.537261962890625,4.745917797088623
1701881500487378700,9.395378662109374,-5.560655117034912,-6.538830280303955,4.742699146270752
1701881500496971300,9.40497119140625,-5.561647415161133,-6.540366172790527,4.739415645599365
1701881500506562800,9.414562744140625,-5.563124656677246,-6.541811466217041,4.735686302185059
1701881500516155400,9.4241552734375,-5.564940452575684,-6.542979717254639,4.731938362121582
1701881500525748700,9.433748779296875,-5.567122936248779,-6.543724536895752,4.7283406257629395
1701881500535341300,9.44334130859375,-5.568301200866699,-6.544658184051514,4.725658893585205
1701881500544933000,9.45293310546875,-5.5685625076293945,-6.54567289352417,4.723947048187256
1701881500554525700,9.462525634765624,-5.567507266998291,-6.546831130981445,4.723584175109863
1701881500564119000,9.472119140625,-5.565213680267334,-6.547967433929443,4.7247114181518555
1701881500573711600,9.481711669921875,-5.562517166137695,-6.5489726066589355,4.726495742797852
1701881500583303200,9.49130322265625,-5.560682773590088,-6.549790382385254,4.72752046585083
1701881500592895700,9.500895751953125,-5.559357166290283,-6.5503058433532715,4.728363513946533
1701881500602489000,9.510489013671876,-5.564783573150635,-6.547211170196533,4.726267337799072
1701881500612081700,9.52008154296875,-5.573938846588135,-6.543883323669434,4.720083713531494
1701881500621673500,9.529673583984374,-5.584117412567139,-6.541758060455322,4.710989475250244
1701881500631266000,9.53926611328125,-5.593815326690674,-6.540802478790283,4.700800895690918
1701881500640859400,9.548859375,-5.601880073547363,-6.541143894195557,4.690709114074707
1701881500650451700,9.55845166015625,-5.609074115753174,-6.541570663452148,4.681509017944336
1701881500660043500,9.56804345703125,-5.615839958190918,-6.541406631469727,4.673620700836182
1701881500669636000,9.577635986328126,-5.621150493621826,-6.541299819946289,4.6673808097839355
1701881500679229400,9.5872294921875,-5.625380039215088,-6.5410027503967285,4.662699222564697
1701881500688822000,9.596822021484375,-5.628819942474365,-6.539778232574463,4.66026496887207
1701881500698413800,9.606413818359375,-5.631135940551758,-6.537868976593018,4.660147666931152
1701881500708006400,9.61600634765625,-5.6325812339782715,-6.53486442565918,4.6626129150390625
1701881500717599700,9.625599853515626,-5.6335625648498535,-6.531291961669922,4.666431427001953
1701881500727192000,9.635192138671876,-5.634308815002441,-6.527494430541992,4.670843124389648
1701881500736784000,9.644783935546876,-5.634566307067871,-6.524257659912109,4.675051212310791
1701881500746376400,9.65437646484375,-5.635112762451172,-6.521559238433838,4.678156852722168
1701881500755969800,9.6639697265625,-5.634979248046875,-6.521149158477783,4.678889751434326
1701881500765562400,9.673562255859375,-5.632444381713867,-6.524796485900879,4.676856994628906
1701881500775154200,9.683154296875,-5.630292892456055,-6.527699947357178,4.675395965576172
1701881500784746800,9.692746826171875,-5.628812313079834,-6.528952598571777,4.675429821014404
1701881500794340000,9.702340087890626,-5.6264190673828125,-6.530984878540039,4.67547082901001
1701881500803932400,9.711932373046874,-5.6255903244018555,-6.530726432800293,4.676827907562256
1701881500813524200,9.721524169921874,-5.623775005340576,-6.531518936157227,4.677905082702637
1701881500823116800,9.73111669921875,-5.624361991882324,-6.528059482574463,4.682028293609619
1701881500832710100,9.740710205078125,-5.628087043762207,-6.521089553833008,4.687260627746582
1701881500842302700,9.750302734375,-5.629168510437012,-6.518294811248779,4.689849853515625
1701881500851894500,9.75989453125,-5.628874778747559,-6.518139839172363,4.6904168128967285
1701881500861487000,9.769487060546876,-5.629007816314697,-6.517769813537598,4.690770626068115
1701881500871080400,9.77908056640625,-5.6321797370910645,-6.514059066772461,4.692117691040039
1701881500880672800,9.7886728515625,-5.6328229904174805,-6.511874198913574,4.6943769454956055
1701881500890264600,9.7982646484375,-5.629891872406006,-6.511937618255615,4.6978044509887695
1701881500899857200,9.807857177734375,-5.627493381500244,-6.513041973114014,4.699147701263428
1701881500909450500,9.817450439453125,-5.626495838165283,-6.514496326446533,4.698327541351318
1701881500919043000,9.82704296875,-5.627109050750732,-6.515196323394775,4.696620464324951
1701881500928634600,9.836634521484376,-5.626842021942139,-6.516877174377441,4.694608211517334
1701881500938227500,9.8462275390625,-5.62598180770874,-6.5173468589782715,4.694985389709473
1701881500947820800,9.85582080078125,-5.623152732849121,-6.517822265625,4.69771671295166
1701881500957413000,9.8654130859375,-5.616037845611572,-6.520734786987305,4.702181816101074
1701881500967005000,9.8750048828125,-5.6061906814575195,-6.524375915527344,4.7088775634765625
1701881500976597500,9.884597412109375,-5.595984935760498,-6.525995254516602,4.718764305114746
1701881500986190800,9.89419091796875,-5.583813190460205,-6.527362823486328,4.7312750816345215
1701881500995783400,9.903783447265624,-5.5707807540893555,-6.536797523498535,4.733610153198242
1701881501005375000,9.913375,-5.578322410583496,-6.528553009033203,4.7361063957214355
1701881501014967600,9.922967529296875,-5.5887603759765625,-6.518020153045654,4.738307952880859
1701881501024561000,9.932560791015625,-5.596942901611328,-6.510217189788818,4.739376068115234
1701881501034153500,9.942153564453125,-5.605614185333252,-6.503163814544678,4.738811492919922
1701881501043745300,9.951745361328125,-5.614613056182861,-6.496941566467285,4.736693382263184
1701881501053337900,9.961337890625,-5.620208263397217,-6.49393892288208,4.734172821044922
1701881501062931200,9.97093115234375,-5.621427536010742,-6.493712425231934,4.733035564422607
1701881501072523500,9.9805234375,-5.617946147918701,-6.496801376342773,4.732930660247803
1701881501082115300,9.990115234375,-5.610363483428955,-6.50320291519165,4.733134746551514
1701881501091708000,9.9997080078125,-5.599425315856934,-6.512662410736084,4.733081340789795
1701881501101301200,10.00930126953125,-5.591776371002197,-6.522024631500244,4.7292304039001465
1701881501110893800,10.018893798828126,-5.589056015014648,-6.528666973114014,4.723278522491455
1701881501120485600,10.028485595703126,-5.5899481773376465,-6.529940605163574,4.720459461212158
1701881501130078200,10.038078125,-5.590248107910156,-6.530726432800293,4.719017028808594
1701881501139671600,10.047671630859375,-5.5867438316345215,-6.532358646392822,4.7209086418151855
1701881501149264100,10.05726416015625,-5.5800957679748535,-6.534814357757568,4.725369453430176
1701881501158855700,10.066855712890625,-5.56842041015625,-6.540487289428711,4.731289863586426
1701881501168448300,10.0764482421875,-5.557248115539551,-6.5456156730651855,4.737330436706543
1701881501178041600,10.08604150390625,-5.550379753112793,-6.548091888427734,4.741957187652588
1701881501187634200,10.09563427734375,-5.544456958770752,-6.549905300140381,4.7463788986206055
1701881501197226000,10.10522607421875,-5.53524923324585,-6.554463863372803,4.750830173492432
1701881501206818600,10.114818603515625,-5.520310401916504,-6.5619797706604,4.7578349113464355
1701881501216412000,10.124411865234375,-5.507936000823975,-6.567420482635498,4.764664649963379
1701881501226004200,10.134004150390625,-5.49860143661499,-6.567258358001709,4.775655746459961
1701881501235596000,10.143595947265625,-5.49911642074585,-6.562591552734375,4.781474590301514
1701881501245188600,10.153188720703126,-5.495275020599365,-6.565828800201416,4.78144645690918
1701881501254782000,10.162781982421874,-5.486836910247803,-6.571600437164307,4.783207893371582
1701881501264374500,10.17237451171875,-5.4781060218811035,-6.577791213989258,4.784704685211182
1701881501273966300,10.18196630859375,-5.47097110748291,-6.585128307342529,4.782776355743408
1701881501283559000,10.191558837890625,-5.46859884262085,-6.5897297859191895,4.779150485992432
1701881501293152300,10.20115234375,-5.47015905380249,-6.593101501464844,4.77271032333374
1701881501302744600,10.21074462890625,-5.47578763961792,-6.593481063842773,4.7657246589660645
1701881501312336400,10.22033642578125,-5.4837775230407715,-6.590864658355713,4.760154724121094
1701881501321929000,10.229928955078124,-5.488831043243408,-6.589320659637451,4.756466388702393
1701881501331522300,10.239522216796875,-5.490047931671143,-6.5901384353637695,4.753931045532227
1701881501341115000,10.249114990234375,-5.48846435546875,-6.592475414276123,4.752516746520996
1701881501350706400,10.25870654296875,-5.486814498901367,-6.59518575668335,4.750659465789795
1701881501360299300,10.26829931640625,-5.486699104309082,-6.596970558166504,4.748313903808594
1701881501369892600,10.277892578125,-5.488863468170166,-6.595654010772705,4.7476420402526855
1701881501379485000,10.28748486328125,-5.490346908569336,-6.5944037437438965,4.747664451599121
1701881501389076700,10.29707666015625,-5.4914374351501465,-6.592525959014893,4.749008655548096
1701881501398669300,10.30666943359375,-5.491122245788574,-6.590361595153809,4.752378940582275
1701881501408262700,10.3162626953125,-5.489439487457275,-6.588173866271973,4.757352828979492
1701881501417855200,10.325855224609375,-5.485657215118408,-6.594832420349121,4.752488136291504
1701881501427446800,10.33544677734375,-5.478618621826172,-6.599977016448975,4.75346565246582
1701881501437039400,10.345039306640626,-5.477346897125244,-6.599980354309082,4.754925727844238
1701881501446632700,10.3546328125,-5.475690841674805,-6.5957350730896,4.762716770172119
1701881501456225300,10.364225341796875,-5.472519874572754,-6.591296195983887,4.772497653961182
1701881501465817000,10.373817138671875,-5.466503143310547,-6.587646007537842,4.784418106079102
1701881501475409700,10.38340966796875,-5.454122066497803,-6.590034484863281,4.795246124267578
1701881501485003000,10.3930029296875,-5.450687408447266,-6.583069801330566,4.808697700500488
1701881501494595600,10.402595703125,-5.449676990509033,-6.574619770050049,4.821387767791748
1701881501504187100,10.412187255859376,-5.448925971984863,-6.568844795227051,4.830101490020752
1701881501513780000,10.421780029296874,-5.446681022644043,-6.566367149353027,4.835998058319092
1701881501523373000,10.431373046875,-5.442574501037598,-6.565804958343506,4.841381549835205
1701881501532965600,10.440965576171875,-5.436741828918457,-6.566941261291504,4.846390724182129
1701881501542557400,10.450557373046875,-5.429973125457764,-6.570054531097412,4.849758148193359
1701881501552150000,10.46014990234375,-5.423163414001465,-6.573919296264648,4.852139949798584
1701881501561743400,10.469743408203126,-5.417308330535889,-6.577402591705322,4.8539605140686035
1701881501571335700,10.479335693359374,-5.4135823249816895,-6.578237056732178,4.8569865226745605
1701881501580927500,10.488927490234374,-5.410907745361328,-6.576974391937256,4.861672878265381
1701881501590520000,10.49852001953125,-5.409019470214844,-6.57442045211792,4.867226600646973
1701881501600113400,10.508113525390625,-5.407811164855957,-6.571524620056152,4.8724775314331055
1701881501609706000,10.5177060546875,-5.4076361656188965,-6.568135738372803,4.877237796783447
1701881501619297800,10.5272978515625,-5.409978866577148,-6.563689708709717,4.880624294281006
1701881501628890400,10.536890380859376,-5.413369178771973,-6.559382438659668,4.882657051086426
1701881501638483700,10.546483642578124,-5.417913913726807,-6.554840087890625,4.88371467590332
1701881501648076000,10.556075927734375,-5.422691822052002,-6.550071716308594,4.884809970855713
1701881501657667800,10.565667724609375,-5.427126407623291,-6.545425891876221,4.886111259460449
1701881501667260400,10.575260498046875,-5.431567668914795,-6.541205883026123,4.88682746887207
1701881501676853800,10.584853759765625,-5.436036586761475,-6.537129878997803,4.887312889099121
1701881501686446300,10.5944462890625,-5.440692901611328,-6.533164024353027,4.887434482574463
1701881501696038100,10.6040380859375,-5.445734024047852,-6.529257774353027,4.887041091918945
1701881501705630700,10.613630615234374,-5.450611114501953,-6.525555610656738,4.886548042297363
1701881501715224000,10.62322412109375,-5.454690456390381,-6.522636413574219,4.885893821716309
1701881501724816400,10.63281640625,-5.458165645599365,-6.520493030548096,4.88487434387207
1701881501734408200,10.642408203125,-5.461665630340576,-6.51796817779541,4.884331703186035
1701881501744000800,10.652000732421875,-5.464758396148682,-6.514898777008057,4.8849663734436035
1701881501753594000,10.661593994140626,-5.4668121337890625,-6.511594295501709,4.887073516845703
1701881501763186700,10.671186767578124,-5.4682464599609375,-6.507920265197754,4.8903632164001465
1701881501772778500,10.680778564453124,-5.469851493835449,-6.5048604011535645,4.892637729644775
1701881501782370800,10.690370849609375,-5.473021030426025,-6.502009868621826,4.892881393432617
1701881501791964200,10.699964111328125,-5.477808952331543,-6.4996490478515625,4.890661716461182
1701881501801556700,10.709556640625,-5.48347806930542,-6.499070167541504,4.885074138641357
1701881501811148500,10.7191484375,-5.489632606506348,-6.499666213989258,4.877363204956055
1701881501820741000,10.7287412109375,-5.4967122077941895,-6.4998579025268555,4.869126796722412
1701881501830334500,10.73833447265625,-5.505091190338135,-6.498392581939697,4.8616108894348145
1701881501839927000,10.747927001953125,-5.513226509094238,-6.495948314666748,4.855653762817383
1701881501849518600,10.7575185546875,-5.521316051483154,-6.491810321807861,4.85199499130249
1701881501859111400,10.767111328125,-5.527711868286133,-6.487423896789551,4.850578784942627
1701881501868704500,10.77670458984375,-5.533186912536621,-6.482785701751709,4.850538730621338
1701881501878297000,10.786297119140626,-5.537076950073242,-6.47875452041626,4.8514838218688965
1701881501887889000,10.795888916015626,-5.5405497550964355,-6.475701332092285,4.851596832275391
1701881501897481500,10.8054814453125,-5.543352127075195,-6.474403381347656,4.850127220153809
1701881501907074800,10.81507470703125,-5.544854640960693,-6.475889682769775,4.846424579620361
1701881501916667100,10.824667236328125,-5.547034740447998,-6.477373123168945,4.841945171356201
1701881501926259000,10.834259033203125,-5.549523830413818,-6.479213237762451,4.836627960205078
1701881501935851500,10.8438515625,-5.551192760467529,-6.482636451721191,4.8301215171813965
1701881501945444900,10.85344482421875,-5.55156135559082,-6.487991809844971,4.822501182556152
1701881501955037400,10.863037353515624,-5.550907611846924,-6.496694087982178,4.811525344848633
1701881501964629200,10.872629150390624,-5.5487446784973145,-6.508921146392822,4.797474384307861
1701881501974221800,10.882221923828125,-5.545718193054199,-6.522410869598389,4.782630920410156
1701881501983815200,10.891815185546875,-5.540065288543701,-6.538077354431152,4.767767429351807
1701881501993407500,10.901407470703125,-5.533208847045898,-6.554220199584961,4.753544807434082
1701881502002999300,10.910999267578125,-5.523368835449219,-6.570434093475342,4.742593765258789
1701881502012591900,10.920591796875,-5.505794048309326,-6.591073036193848,4.734381675720215
1701881502022185200,10.930185302734374,-5.483298301696777,-6.613320350646973,4.729465007781982
1701881502031777800,10.93977783203125,-5.460957050323486,-6.6343841552734375,4.7258100509643555
1701881502041369600,10.94936962890625,-5.4276909828186035,-6.660580158233643,4.727286338806152
1701881502050962200,10.958962158203125,-5.394044876098633,-6.686252117156982,4.729555130004883
1701881502060555500,10.968555419921875,-5.355679512023926,-6.712032318115234,4.736635208129883
1701881502070147800,10.97814794921875,-5.313709735870361,-6.739302635192871,4.745173454284668
1701881502079739600,10.98773974609375,-5.26488733291626,-6.768455982208252,4.758082389831543
1701881502089332200,10.997332275390624,-5.219771862030029,-6.7925214767456055,4.773470401763916
1701881502098925600,11.006925537109375,-5.1798200607299805,-6.813567638397217,4.786977291107178
1701881502108518100,11.01651806640625,-5.139532089233398,-6.83495569229126,4.799892902374268
1701881502118109700,11.026109619140625,-5.090051174163818,-6.875631332397461,4.794525146484375
1701881502127702300,11.035702392578125,-5.013803005218506,-6.93839693069458,4.784434795379639
1701881502137295600,11.045295654296876,-4.9286580085754395,-7.014782428741455,4.761465072631836
1701881502146888200,11.05488818359375,-4.842226982116699,-7.087693214416504,4.742132663726807
1701881502156480000,11.06447998046875,-4.744767665863037,-7.168953895568848,4.718439102172852
1701881502166072600,11.074072509765625,-4.639212131500244,-7.255457401275635,4.69110107421875
1701881502175666000,11.083666015625,-4.526250839233398,-7.341989040374756,4.666758060455322
1701881502185258500,11.093258544921875,-4.407963752746582,-7.425100803375244,4.648454189300537
1701881502194850000,11.10285009765625,-4.284985065460205,-7.506120681762695,4.633296966552734
1701881502204442600,11.112442626953126,-4.157496929168701,-7.580212116241455,4.628823280334473
1701881502214036000,11.122035888671874,-4.022266864776611,-7.646302223205566,4.639591693878174
1701881502223628500,11.131628662109375,-3.8729660511016846,-7.7116875648498535,4.658369064331055
1701881502233220400,11.141220458984375,-3.7215116024017334,-7.7787766456604,4.670264720916748
1701881502242813000,11.15081298828125,-3.5723392963409424,-7.841691970825195,4.681521415710449
1701881502252406300,11.16040625,-3.4175407886505127,-7.904131889343262,4.692068576812744
1701881502261998600,11.16999853515625,-3.2363545894622803,-7.97062873840332,4.708022594451904
1701881502271590400,11.17959033203125,-3.058250904083252,-8.02730655670166,4.730732440948486
1701881502281183000,11.189182861328124,-2.8602864742279053,-8.080784797668457,4.7634100914001465
1701881502290776300,11.1987763671875,-2.6151058673858643,-8.144359588623047,4.795937538146973
1701881502300369000,11.208368896484375,-2.3717219829559326,-8.207357406616211,4.8150410652160645
1701881502309960700,11.217960693359375,-2.120549201965332,-8.266003608703613,4.831858158111572
1701881502319553300,11.22755322265625,-1.8555142879486084,-8.320282936096191,4.847715377807617
1701881502329146600,11.237146728515626,-1.5814450979232788,-8.368782043457031,4.861368656158447
1701881502338739000,11.246739013671874,-1.2965433597564697,-8.410591125488281,4.873532772064209
1701881502348330800,11.256330810546874,-0.9939414262771606,-8.446978569030762,4.881701946258545
1701881502357923300,11.26592333984375,-0.6723203659057617,-8.475370407104492,4.887380123138428
1701881502367516700,11.2755166015625,-0.3394702970981598,-8.488259315490723,4.899448871612549
1701881502377109200,11.285109130859375,0.0005864580161869526,-8.484085083007812,4.918402194976807
1701881502386701000,11.294701171875,0.32474371790885925,-8.46745777130127,4.936304569244385
1701881502396293600,11.304293701171876,0.6318854689598083,-8.441597938537598,4.95081090927124
1701881502405886700,11.31388671875,0.9271853566169739,-8.401288986206055,4.972832202911377
1701881502415479300,11.323479248046874,1.1513315439224243,-8.345135688781738,5.020312786102295
1701881502425071000,11.333071044921875,1.373462438583374,-8.268996238708496,5.089959621429443
1701881502434663700,11.34266357421875,1.6151739358901978,-8.18087100982666,5.16090726852417
1701881502444257000,11.352257080078125,1.8448328971862793,-8.083422660827637,5.236914157867432
1701881502453849600,11.361849609375,2.053952932357788,-7.968685626983643,5.33401346206665
1701881502463441200,11.371441162109376,2.2422046661376953,-7.833163738250732,5.457512855529785
1701881502473033700,11.38103369140625,2.425898551940918,-7.674410820007324,5.602573394775391
1701881502482627000,11.390626953125,2.6205081939697266,-7.48776912689209,5.765122890472412
1701881502492219600,11.4002197265625,2.8255069255828857,-7.267796516418457,5.946934223175049
1701881502501811500,11.4098115234375,3.032806634902954,-7.008810043334961,6.152158260345459
1701881502511404000,11.419404052734375,3.238457679748535,-6.705144882202148,6.381520748138428
1701881502520997400,11.428997314453126,3.4426498413085938,-6.35232400894165,6.6307268142700195
1701881502530589700,11.438589599609376,3.6469547748565674,-5.947309970855713,6.891995429992676
1701881502540181500,11.448181396484374,3.861572504043579,-5.483384132385254,7.15479850769043
1701881502549774000,11.457774169921874,4.089696884155273,-4.950538635253906,7.411945343017578
1701881502559367400,11.467367431640625,4.318388938903809,-4.348880290985107,7.655660629272461
1701881502568960000,11.4769599609375,4.542074203491211,-3.683124303817749,7.8723907470703125
1701881502578551800,11.4865517578125,4.762485027313232,-2.960115432739258,8.04529857635498
1701881502588144400,11.496144287109376,4.989620208740234,-2.191188097000122,8.153083801269531
1701881502597737700,11.50573779296875,5.2280592918396,-1.3938319683074951,8.178936958312988
1701881502607330000,11.515330078125,5.471548557281494,-0.5928024649620056,8.116718292236328
1701881502616921900,11.524921875,5.711856365203857,0.18574288487434387,7.969353199005127
1701881502626514400,11.534514404296875,5.966573715209961,0.9230954051017761,7.727760314941406
1701881502636107800,11.544107666015625,6.261891841888428,1.6150164604187012,7.372300148010254
1701881502645700400,11.553700439453126,6.578359603881836,2.2444241046905518,6.917957782745361
1701881502655292000,11.5632919921875,6.8850836753845215,2.787003755569458,6.403017044067383
1701881502664884700,11.572884765625,7.154102802276611,3.2273833751678467,5.879896640777588
1701881502674478000,11.58247802734375,7.367877006530762,3.5678553581237793,5.3995537757873535
1701881502684070400,11.5920703125,7.522177219390869,3.8266382217407227,4.994402885437012
1701881502693662200,11.601662109375,7.628197193145752,4.024258613586426,4.667582988739014
1701881502703254800,11.6112548828125,7.705846786499023,4.17533540725708,4.399646282196045
1701881502712848100,11.62084814453125,7.771661281585693,4.292299747467041,4.165072917938232
1701881502722440700,11.630440673828126,7.8339667320251465,4.38814115524292,3.942533254623413
1701881502732032300,11.6400322265625,7.895634174346924,4.471600532531738,3.7194275856018066
1701881502741624800,11.649624755859374,7.956279277801514,4.546623706817627,3.492309331893921
1701881502751218200,11.65921826171875,8.01043701171875,4.614050388336182,3.2731971740722656
1701881502760810800,11.668810791015625,8.052508354187012,4.6742844581604,3.078728199005127
1701881502770402600,11.678402587890625,8.085977554321289,4.732215881347656,2.897153854370117
1701881502779995100,11.6879951171875,8.11704158782959,4.795520305633545,2.6994457244873047
1701881502789588500,11.69758837890625,8.145096778869629,4.867527008056641,2.476886510848999
1701881502799181000,11.70718115234375,8.168031692504883,4.9450507164001465,2.2360944747924805
1701881502808772600,11.716772705078125,8.184711456298828,5.018302917480469,1.9993795156478882
1701881502818365200,11.726365234375,8.198868751525879,5.074216842651367,1.7892040014266968
1701881502827958500,11.73595849609375,8.22261905670166,5.100013732910156,1.596492052078247
1701881502837551000,11.745551025390625,8.259529113769531,5.102298259735107,1.3845959901809692
1701881502847143000,11.755142822265626,8.301563262939453,5.095489025115967,1.1359754800796509
1701881502856735500,11.764735595703126,8.3414306640625,5.0822906494140625,0.8724889755249023
1701881502866328800,11.774328857421875,8.374872207641602,5.062863349914551,0.6319191455841064
1701881502875921200,11.783921142578125,8.400412559509277,5.0392279624938965,0.457852303981781
1701881502885513000,11.793512939453125,8.417835235595703,5.017462253570557,0.3681245446205139
1701881502895105500,11.80310546875,8.42614459991455,5.005745887756348,0.33615192770957947
1701881502904699000,11.812698974609376,8.425436973571777,5.0077714920043945,0.32343780994415283
1701881502914291500,11.82229150390625,8.417195320129395,5.022427558898926,0.3105359971523285
1701881502923883300,11.83188330078125,8.40282154083252,5.047192573547363,0.29803597927093506
1701881502933475600,11.8414755859375,8.383429527282715,5.079526901245117,0.29478418827056885
1701881502943069200,11.851069091796875,8.360984802246094,5.115725040435791,0.30606183409690857
1701881502952661500,11.86066162109375,8.337703704833984,5.152655124664307,0.3213067352771759
1701881502962253300,11.87025341796875,8.316288948059082,5.187231540679932,0.31991931796073914
1701881502971846000,11.879845947265625,8.299834251403809,5.215437412261963,0.2869679033756256
1701881502981439200,11.889439208984374,8.290624618530273,5.233209133148193,0.22237838804721832
1701881502991031800,11.89903173828125,8.288957595825195,5.238864421844482,0.13365218043327332
1701881503000623400,11.908623291015624,8.293566703796387,5.233198165893555,0.02781466580927372
1701881503010216200,11.91821630859375,8.303193092346191,5.217287063598633,-0.0854857861995697
1701881503019809300,11.927809326171875,8.316096305847168,5.193681240081787,-0.19646687805652618
1701881503029401900,11.93740185546875,8.331127166748047,5.164506435394287,-0.30095842480659485
1701881503038993700,11.94699365234375,8.348357200622559,5.129742622375488,-0.4013121426105499
1701881503048586200,11.956586181640626,8.368321418762207,5.087891578674316,-0.5049170255661011
1701881503058179600,11.9661796875,8.390357971191406,5.038738250732422,-0.619182825088501
1701881503067772000,11.97577197265625,8.411109924316406,4.9866251945495605,-0.7464562654495239
1701881503077363700,11.98536376953125,8.419916152954102,4.948546886444092,-0.8872905969619751
1701881503086956300,11.994956298828125,8.420421600341797,4.92567253112793,-1.0023128986358643
1701881503096549600,12.004549560546875,8.420232772827148,4.911971569061279,-1.0689218044281006
1701881503106142200,12.01414208984375,8.41750431060791,4.909291744232178,-1.1022052764892578
1701881503115734000,12.023734130859374,8.408400535583496,4.918970584869385,-1.1282374858856201
1701881503125326600,12.03332666015625,8.395613670349121,4.9339399337768555,-1.1577097177505493
1701881503134920000,12.042919921875,8.383279800415039,4.9467339515686035,-1.191986083984375
1701881503144512300,12.05251220703125,8.37440013885498,4.9514384269714355,-1.2341228723526
1701881503154104000,12.06210400390625,8.369346618652344,4.946129322052002,-1.2884973287582397
1701881503163696600,12.071696533203125,8.368464469909668,4.930572509765625,-1.352270245552063
