time,seconds_elapsed,z,y,x
1701857770788823300,0.1088232421875,9.059525489807129,4.193122386932373,1.2864413261413574
1701857770798416000,0.118415771484375,7.8888373374938965,4.05194616317749,1.4659029245376587
1701857770808009200,0.12800927734375,9.492626190185547,4.284049987792969,1.4730814695358276
1701857770817603300,0.137603271484375,9.361021041870117,4.2194437980651855,2.004587173461914
1701857770827196400,0.147196533203125,9.9140625,3.989433526992798,2.1170499324798584
1701857770836789000,0.1567890625,9.92841911315918,4.240979194641113,2.169692039489746
1701857770846382300,0.16638232421875,9.784850120544434,4.123730659484863,2.3733808994293213
1701857770855976400,0.1759765625,9.56471061706543,4.06630277633667,2.576770782470703
1701857770865569800,0.18556982421875,9.207880973815918,4.099802494049072,2.5169503688812256
1701857770875162000,0.195162109375,9.191130638122559,4.159623146057129,2.0931215286254883
1701857770884755500,0.20475537109375,9.315557479858398,4.310370922088623,1.5065809488296509
1701857770894349600,0.214349609375,8.99970531463623,4.535296440124512,1.0998010635375977
1701857770903943000,0.22394287109375,8.226224899291992,4.679164886474609,1.2696914672851562
1701857770913535200,0.23353515625,6.955038070678711,4.671986103057861,2.1409780979156494
1701857770923128600,0.243128662109375,5.626423358917236,4.126123428344727,3.7689948081970215
1701857770932722700,0.25272265625,4.762016296386719,3.2593235969543457,5.236692428588867
1701857770942316000,0.26231591796875,4.695017337799072,3.549154281616211,4.9516472816467285
1701857770951908600,0.27190869140625,5.240880012512207,5.023731231689453,3.184846878051758
1701857770961502000,0.281501953125,6.306283950805664,6.5512495040893555,0.7812566161155701
1701857770971095800,0.291095703125,7.304689407348633,7.362715244293213,-1.184447169303894
1701857770980689200,0.300689208984375,7.6636128425598145,6.984649181365967,-1.3591232299804688
1701857770990281700,0.31028173828125,8.018049240112305,5.694020748138428,-0.22432711720466614
1701857770999875000,0.319875,8.262117385864258,5.006981372833252,0.9367900490760803
1701857771009469000,0.329468994140625,8.764909744262695,4.861019134521484,2.004587173461914
1701857771019062300,0.339062255859375,9.5862455368042,4.7126641273498535,2.7203402519226074
1701857771028654800,0.34865478515625,10.07468032836914,4.535296440124512,2.9072794914245605
1701857771038248200,0.358248291015625,10.062716484069824,4.786841869354248,2.0165512561798096
1701857771047842300,0.36784228515625,9.02841854095459,5.030909538269043,1.2792627811431885
1701857771057435400,0.377435302734375,9.128917694091797,4.676771640777588,1.908874273300171
1701857771067028000,0.387028076171875,9.768099784851074,4.482654094696045,2.888136863708496
1701857771076621300,0.396621337890625,9.717850685119629,4.554438591003418,3.8024942874908447
1701857771086215400,0.40621533203125,8.717052459716797,4.7126641273498535,4.257429599761963
1701857771095808500,0.41580859375,7.555935859680176,4.8227338790893555,4.037290096282959
1701857771105401000,0.425401123046875,7.7593255043029785,4.791627407073975,3.249453067779541
1701857771114994400,0.434994384765625,8.638090133666992,4.784449100494385,2.308774709701538
1701857771124588500,0.444588623046875,9.308379173278809,4.7126641273498535,1.932802438735962
1701857771134181600,0.454181640625,9.437591552734375,4.418047904968262,2.4212374687194824
1701857771143774200,0.463774169921875,9.598209381103516,4.092624187469482,2.7538397312164307
1701857771153367600,0.473367431640625,9.918848037719727,3.989433526992798,2.5169503688812256
1701857771162961700,0.482961669921875,9.851848602294922,4.162015914916992,2.1744775772094727
1701857771172555000,0.492554931640625,9.435198783874512,4.456333160400391,1.975873351097107
1701857771182147300,0.502147216796875,8.956634521484375,4.561617374420166,1.674377679824829
1701857771191740700,0.51174072265625,9.186345100402832,4.547260284423828,1.2601202726364136
1701857771201334800,0.521334716796875,9.68913745880127,4.477868556976318,0.9463613629341125
1701857771210928000,0.53092822265625,9.559925079345703,4.334299087524414,1.0516455173492432
1701857771220520400,0.5405205078125,8.654839515686035,4.269692897796631,1.334297776222229
1701857771230113800,0.55011376953125,7.747361660003662,4.420440673828125,1.5951154232025146
1701857771239708000,0.5597080078125,7.2349982261657715,4.499403953552246,1.688734531402588
1701857771249301200,0.56930126953125,7.254140853881836,4.391726970672607,1.571187138557434
1701857771258893800,0.578893798828125,7.65164852142334,4.391726970672607,1.0683952569961548
1701857771268487200,0.588487060546875,8.233403205871582,4.444368839263916,0.5395814776420593
1701857771278081000,0.5980810546875,8.556734085083008,4.360620021820068,0.33110684156417847
1701857771287674400,0.60767431640625,8.559126853942871,4.214657783508301,0.16839489340782166
1701857771297267000,0.617266845703125,8.187939643859863,4.087838172912598,-0.10707881301641464
1701857771306860300,0.6268603515625,7.802396297454834,4.202693939208984,-0.31764721870422363
1701857771316454400,0.636454345703125,7.613363265991211,4.5113677978515625,-0.24825534224510193
1701857771326047500,0.646047607421875,7.603792190551758,4.758127689361572,0.05593222752213478
1701857771335640000,0.65564013671875,7.486543655395508,4.954339504241943,0.3454637825489044
1701857771345233400,0.6652333984375,7.340581893920898,5.062016487121582,0.5802595019340515
1701857771354827500,0.67482763671875,7.227819919586182,5.02133846282959,0.7334001660346985
1701857771364420600,0.684420654296875,7.132106781005859,5.059623718261719,0.8865407705307007
1701857771374013200,0.69401318359375,7.170392036437988,5.114658355712891,0.6999006271362305
1701857771383606500,0.7036064453125,7.290332317352295,5.160121917724609,0.376570463180542
1701857771393200600,0.71320068359375,7.350152969360352,5.265705108642578,0.1947159469127655
1701857771402793700,0.722793701171875,7.510472297668457,5.471487998962402,-0.052043892443180084
1701857771412386300,0.73238623046875,8.140083312988281,5.655735492706299,-0.09511470049619675
1701857771421979600,0.741979736328125,8.695517539978027,5.528915882110596,0.5105685591697693
1701857771431573800,0.75157373046875,8.764909744262695,5.344668388366699,1.0396814346313477
1701857771441166800,0.761166748046875,8.58066177368164,5.201098918914795,1.2768700122833252
1701857771450759400,0.770759521484375,8.183154106140137,5.258526802062988,1.2457633018493652
1701857771460352800,0.780352783203125,7.639684677124023,5.466702461242676,0.9415757060050964
1701857771469947000,0.78994677734375,6.945466995239258,5.6724853515625,0.589830756187439
1701857771479540200,0.799540283203125,6.40438985824585,5.868995666503906,0.20189441740512848
1701857771489132500,0.809132568359375,6.208178520202637,5.993422508239746,-0.12622138857841492
1701857771498726000,0.818725830078125,6.62213659286499,5.950351715087891,-0.030209386721253395
1701857771508320000,0.828320068359375,7.491329669952393,5.787639617919922,0.3646063506603241
1701857771517913300,0.837913330078125,8.333902359008789,5.569593906402588,0.8913264274597168
1701857771527506000,0.847505859375,8.889336585998535,5.3614182472229,1.444367527961731
1701857771537099300,0.857099365234375,9.016454696655273,5.251348495483398,1.4826527833938599
1701857771546693000,0.866693115234375,8.937192916870117,5.186742305755615,1.1309077739715576
1701857771556286500,0.876286376953125,8.676374435424805,5.260919570922852,0.5249254703521729
1701857771565879000,0.885879150390625,8.482556343078613,5.373382568359375,-0.1501496136188507
1701857771575472400,0.895472412109375,8.235795974731445,5.497808933258057,-0.605085015296936
1701857771585066500,0.90506640625,8.003692626953125,5.56241512298584,-0.9089735150337219
1701857771594659600,0.91465966796875,8.058727264404297,5.514558792114258,-1.1051849126815796
1701857771604252200,0.924252197265625,8.461020469665527,5.426024436950684,-1.0357930660247803
1701857771613845500,0.933845458984375,9.035597801208496,5.2369914054870605,-0.5955137610435486
1701857771623439600,0.943439697265625,9.55513858795166,4.951946258544922,-0.17168502509593964
1701857771633033000,0.953032958984375,9.916455268859863,4.7796630859375,0.23300109803676605
1701857771642625300,0.962625244140625,9.971489906311035,4.6887359619140625,0.537188708782196
1701857771652218600,0.972218505859375,9.780064582824707,4.705485820770264,0.6544370055198669
1701857771661812700,0.981812744140625,9.351449966430664,4.784449100494385,0.5467599630355835
1701857771671405800,0.99140576171875,8.800801277160645,4.920839786529541,0.2641077935695648
1701857771680998400,1.000998291015625,8.228617668151855,5.078765869140625,-0.06161518394947052
1701857771690591700,1.010591796875,7.692326545715332,5.191527843475342,-0.28654050827026367
1701857771700185900,1.020185791015625,7.3884382247924805,5.270491123199463,-0.49710890650749207
1701857771709779200,1.029779296875,7.350152969360352,5.375775337219238,-0.5234299302101135
1701857771719371500,1.03937158203125,7.876873016357422,5.294419288635254,0.07986045628786087
1701857771728964900,1.04896484375,8.70508861541748,5.124229907989502,0.9343972206115723
1701857771738559000,1.05855908203125,9.38016414642334,4.956732273101807,1.516152262687683
1701857771748152300,1.06815234375,9.64367389678955,4.932804107666016,1.6791633367538452
1701857771757745000,1.077744873046875,9.53360366821289,4.9878387451171875,1.6405789852142334
1701857771767338000,1.087337890625,9.24855899810791,5.0117669105529785,1.4156537055969238
1701857771776932000,1.09693212890625,8.762516975402832,5.140979290008545,1.0926226377487183
1701857771786525400,1.106525390625,8.161619186401367,5.2992048263549805,0.8195417523384094
1701857771796118000,1.116117919921875,7.740182876586914,5.363811016082764,0.5946164131164551
1701857771805711400,1.12571142578125,7.642077445983887,5.351847171783447,0.6520441770553589
1701857771815305500,1.135305419921875,7.814360618591309,5.3542399406433105,1.0325030088424683
1701857771824898600,1.144898681640625,8.06112003326416,5.282454967498779,1.4108680486679077
1701857771834491100,1.1544912109375,8.185546875,5.234598636627197,1.6600207090377808
1701857771844084500,1.16408447265625,8.204689979553223,5.20588493347168,1.755733609199524
1701857771853678600,1.1736787109375,8.223832130432129,5.198706150054932,1.7509479522705078
1701857771863271700,1.183271728515625,8.353044509887695,5.184349536895752,1.5903297662734985
1701857771872864300,1.1928642578125,8.403593063354492,5.1218366622924805,1.425225019454956
1701857771882457600,1.20245751953125,8.283653259277344,5.076373100280762,1.4587244987487793
1701857771892051700,1.2120517578125,8.087441444396973,5.02851676940918,1.5089738368988037
1701857771901644800,1.221644775390625,7.881658554077148,4.956732273101807,1.3725829124450684
1701857771911237400,1.2312373046875,7.816753387451172,4.851448059082031,1.3606188297271729
1701857771920830700,1.240830810546875,7.872087478637695,4.722235679626465,1.6046867370605469
1701857771930424800,1.2504248046875,7.955836296081543,4.612165451049805,1.7509479522705078
1701857771940018200,1.26001806640625,8.142476081848145,4.530510425567627,1.76051926612854
1701857771949610500,1.269610595703125,8.343473434448242,4.458725929260254,1.810768485069275
1701857771959203800,1.279203857421875,8.575876235961914,4.360620021820068,1.8897316455841064
1701857771968798000,1.2887978515625,8.709874153137207,4.317549228668213,1.7916259765625
1701857771978391300,1.298391357421875,8.707481384277344,4.3295135498046875,1.7078771591186523
1701857771987983600,1.307983642578125,8.757730484008789,4.341477394104004,1.6310077905654907
1701857771997577000,1.317576904296875,8.827122688293457,4.30797815322876,1.444367527961731
1701857772007171000,1.327171142578125,9.00688362121582,4.296013832092285,1.2601202726364136
1701857772016764400,1.336764404296875,9.250951766967773,4.255335807800293,1.3175479173660278
1701857772026357000,1.34635693359375,9.428020477294922,4.1883368492126465,1.4084752798080444
1701857772035950300,1.355950439453125,9.478269577026367,4.138087749481201,1.4419747591018677
1701857772045544200,1.365544189453125,9.492626190185547,4.12851619720459,1.5687943696975708
1701857772055137500,1.375137451171875,9.411270141601562,4.171586990356445,1.851446509361267
1701857772064730000,1.384730224609375,9.155238151550293,4.18355131149292,2.035693883895874
1701857772074323500,1.394323486328125,8.927620887756348,4.18355131149292,2.052443504333496
1701857772083917600,1.40391748046875,8.762516975402832,4.317549228668213,1.9806588888168335
1701857772093510700,1.4135107421875,8.568697929382324,4.372584342956543,1.9471594095230103
1701857772103103200,1.423103271484375,8.394021987915039,4.446761608123779,1.8993029594421387
1701857772112696600,1.432696533203125,8.276473999023438,4.528117656707764,1.7916259765625
1701857772122290700,1.442290771484375,8.175975799560547,4.542474746704102,1.8299111127853394
1701857772131883800,1.4518837890625,8.111370086669922,4.590331077575684,1.8251254558563232
1701857772141476400,1.461476318359375,8.190332412719727,4.607080936431885,1.7629120349884033
1701857772151069700,1.471069580078125,8.307580947875977,4.602295398712158,1.7198412418365479
1701857772160663800,1.480663818359375,8.4562349319458,4.559224605560303,1.7102699279785156
1701857772170257000,1.4902568359375,8.700303077697754,4.5257248878479,1.7365909814834595
1701857772179849500,1.499849365234375,9.12413215637207,4.418047904968262,2.1003000736236572
1701857772189442800,1.50944287109375,9.439984321594238,4.355834484100342,2.4140589237213135
1701857772199037000,1.519036865234375,9.57906723022461,4.279263973236084,2.5241286754608154
1701857772208630300,1.52863037109375,9.502496719360352,4.37019157409668,2.6198415756225586
1701857772218222600,1.53822265625,9.150452613830566,4.4946184158325195,2.5648066997528076
1701857772227816200,1.547816162109375,8.676374435424805,4.583152770996094,2.315953254699707
1701857772237410000,1.55741015625,8.247760772705078,4.6887359619140625,2.042872428894043
1701857772247003400,1.56700341796875,7.986942768096924,4.738985061645508,1.9112670421600342
1701857772256596000,1.576595947265625,8.003692626953125,4.746163845062256,1.8729819059371948
1701857772266189300,1.586189208984375,8.350651741027832,4.729413986206055,2.035693883895874
1701857772275783200,1.595783203125,8.666803359985352,4.698307037353516,2.2417757511138916
1701857772285376500,1.60537646484375,9.071489334106445,4.643272399902344,2.3805594444274902
1701857772294969000,1.614968994140625,9.382556915283203,4.585545539855957,2.449951171875
1701857772304562400,1.6245625,9.485447883605957,4.552045822143555,2.3925235271453857
1701857772314156500,1.634156494140625,9.468698501586914,4.5568318367004395,2.3494527339935303
1701857772323749600,1.64374951171875,9.236594200134277,4.5807600021362305,2.301596164703369
1701857772333342200,1.65334228515625,8.86780071258545,4.645665168762207,2.292025089263916
1701857772342935600,1.662935546875,8.425128936767578,4.738985061645508,2.2250258922576904
1701857772352529700,1.67252978515625,8.135297775268555,4.791627407073975,2.222633123397827
1701857772362122800,1.682122802734375,8.073084831237793,4.794020175933838,2.356631278991699
1701857772371715300,1.69171533203125,8.113762855529785,4.76530647277832,2.3183460235595703
1701857772381308700,1.70130859375,8.173583030700684,4.7126641273498535,2.169692039489746
1701857772390902800,1.71090283203125,8.271688461303711,4.628915309906006,1.9902302026748657
1701857772400496000,1.72049609375,8.417949676513672,4.544867515563965,1.8705891370773315
1701857772410088400,1.73008837890625,8.671588897705078,4.480261325836182,1.8370895385742188
1701857772419681800,1.739681884765625,8.956634521484375,4.446761608123779,1.8921245336532593
1701857772429276000,1.74927587890625,9.126524925231934,4.434797763824463,1.7772690057754517
1701857772438869200,1.758869140625,9.119346618652344,4.425226211547852,1.5855441093444824
1701857772448461600,1.768461669921875,9.085846900939941,4.391726970672607,1.4946168661117554
1701857772458055000,1.778054931640625,8.968598365783691,4.37019157409668,1.4778671264648438
1701857772467649000,1.78764892578125,8.788837432861328,4.372584342956543,1.5329020023345947
1701857772477242400,1.797242431640625,8.630910873413086,4.3773698806762695,1.6863417625427246
1701857772486835000,1.8068349609375,8.518448829650879,4.3223347663879395,1.9567307233810425
1701857772496428000,1.816427978515625,8.461020469665527,4.291228294372559,2.1409780979156494
1701857772506022100,1.826022216796875,8.446663856506348,4.267300128936768,2.2872393131256104
1701857772515615500,1.835615478515625,8.441878318786621,4.274478435516357,2.3350958824157715
1701857772525208000,1.8452080078125,8.434700012207031,4.296013832092285,2.356631278991699
1701857772534801400,1.854801513671875,8.499305725097656,4.274478435516357,2.490629196166992
1701857772544395500,1.8643955078125,8.609375953674316,4.250550270080566,2.734697103500366
1701857772553988600,1.873988525390625,8.645268440246582,4.276871204376221,2.830709218978882
1701857772563581200,1.883581298828125,8.614161491394043,4.296013832092285,2.785245656967163
1701857772573174500,1.893174560546875,8.518448829650879,4.382155418395996,2.715554714202881
1701857772582768600,1.9027685546875,8.504091262817383,4.4635114669799805,2.734697103500366
1701857772592361700,1.91236181640625,8.449056625366211,4.520939350128174,2.7900311946868896
1701857772601954300,1.921954345703125,8.338687896728516,4.566402912139893,2.7442684173583984
1701857772611547600,1.931547607421875,8.154440879821777,4.621737003326416,2.6892335414886475
1701857772621141800,1.941141845703125,8.015656471252441,4.652843475341797,2.6581268310546875
1701857772630734800,1.95073486328125,7.970192909240723,4.585545539855957,2.7059834003448486
1701857772640327400,1.960327392578125,8.001299858093262,4.552045822143555,2.756232500076294
1701857772649920800,1.969920654296875,8.013263702392578,4.633700847625732,2.7275187969207764
1701857772659515000,1.979514892578125,8.003692626953125,4.662415027618408,2.6653053760528564
1701857772669108000,1.98910791015625,7.95344352722168,4.750949382781982,2.449951171875
1701857772678700500,1.998700439453125,7.893622875213623,4.789234638214111,2.2322044372558594
1701857772688294000,2.0082939453125,7.804789066314697,4.796412944793701,1.9926230907440186
1701857772697888000,2.017887939453125,7.845766544342041,4.832305431365967,1.7461622953414917
1701857772707481300,2.0274814453125,7.986942768096924,4.851448059082031,1.5329020023345947
1701857772717073700,2.03707373046875,8.221439361572266,4.8059844970703125,1.4730814695358276
1701857772726667000,2.0466669921875,8.518448829650879,4.731806755065918,1.511366605758667
1701857772736261000,2.05626123046875,8.858229637145996,4.662415027618408,1.6405789852142334
1701857772745854500,2.0658544921875,9.107381820678711,4.5807600021362305,1.8945173025131226
1701857772755446800,2.07544677734375,9.317950248718262,4.489832401275635,1.9854445457458496
1701857772765040000,2.0850400390625,9.456734657287598,4.358227252960205,2.0404794216156006
1701857772774634200,2.09463427734375,9.432806015014648,4.269692897796631,2.1026928424835205
1701857772784227600,2.1042275390625,9.282057762145996,4.257728576660156,2.1720848083496094
1701857772793820200,2.113820068359375,9.085846900939941,4.288835525512695,2.1122641563415527
1701857772803413200,2.123413330078125,8.903693199157715,4.267300128936768,2.0141584873199463
1701857772813007400,2.13300732421875,8.81515884399414,4.248157501220703,2.028515338897705
1701857772822600700,2.1426005859375,8.879764556884766,4.2361931800842285,2.1744775772094727
1701857772832193300,2.152193359375,8.99252700805664,4.24576473236084,2.3829522132873535
1701857772841786400,2.161786376953125,9.081061363220215,4.23858642578125,2.5169503688812256
1701857772851380500,2.17138037109375,9.040383338928223,4.2122650146484375,2.670090913772583
1701857772860973800,2.180973876953125,8.963812828063965,4.264907360076904,2.5887351036071777
1701857772870566400,2.19056640625,8.851051330566406,4.269692897796631,2.5097718238830566
1701857772880159700,2.20015966796875,8.709874153137207,4.30797815322876,2.5073790550231934
1701857772889753900,2.20975390625,8.630910873413086,4.334299087524414,2.4547369480133057
1701857772899347000,2.219346923828125,8.4562349319458,4.341477394104004,2.4044876098632812
1701857772908939500,2.228939453125,8.336295127868652,4.398905277252197,2.3446671962738037
1701857772918532900,2.238532958984375,8.221439361572266,4.446761608123779,2.2896320819854736
1701857772928127000,2.248126953125,8.166404724121094,4.475475788116455,2.2178475856781006
1701857772937720000,2.257719970703125,8.238189697265625,4.506582260131836,2.152942180633545
1701857772947312600,2.267312744140625,8.362615585327148,4.482654094696045,2.186441659927368
1701857772956906000,2.276906005859375,8.444271087646484,4.475475788116455,2.2561326026916504
1701857772966500000,2.2865,8.523234367370605,4.468297004699707,2.284846544265747
1701857772976093200,2.29609326171875,8.542376518249512,4.434797763824463,2.1816561222076416
1701857772985685800,2.305685791015625,8.559126853942871,4.415655136108398,2.1266210079193115
1701857772995279000,2.315279052734375,8.606983184814453,4.389334201812744,2.236989974975586
1701857773004873200,2.324873291015625,8.61894702911377,4.37019157409668,2.2944178581237793
1701857773014466600,2.334466552734375,8.590232849121094,4.374977111816406,2.1960129737854004
1701857773024059000,2.344058837890625,8.48734188079834,4.410869598388672,2.0931215286254883
1701857773033652200,2.35365234375,8.362615585327148,4.451547622680664,1.9926230907440186
1701857773043246300,2.363246337890625,8.262117385864258,4.458725929260254,1.8897316455841064
1701857773052839400,2.37283935546875,8.28126049041748,4.477868556976318,1.8729819059371948
1701857773062432000,2.382431884765625,8.341080665588379,4.4635114669799805,1.8849459886550903
1701857773072025300,2.392025390625,8.48016357421875,4.449154376983643,1.932802438735962
1701857773081619500,2.401619384765625,8.640482902526855,4.382155418395996,2.0213370323181152
1701857773091212500,2.411212646484375,8.8438720703125,4.288835525512695,2.2417757511138916
1701857773100805000,2.42080517578125,8.925228118896484,4.25294303894043,2.418844699859619
1701857773110398500,2.4303984375,8.781659126281738,4.260121822357178,2.3829522132873535
1701857773119992600,2.43999267578125,8.530412673950195,4.298406600952148,2.186441659927368
1701857773129585700,2.449585693359375,8.350651741027832,4.327120780944824,2.026122570037842
1701857773139178200,2.45917822265625,8.307580947875977,4.394119739532471,1.973480463027954
1701857773148771600,2.468771484375,8.331509590148926,4.4324049949646,1.9710876941680908
1701857773158365700,2.47836572265625,8.374580383300781,4.446761608123779,1.9615163803100586
1701857773167958800,2.487958740234375,8.47298526763916,4.4874396324157715,1.9782661199569702
1701857773177551400,2.49755126953125,8.654839515686035,4.485046863555908,2.0620148181915283
1701857773187144700,2.507144775390625,8.748159408569336,4.422833442687988,2.1481566429138184
1701857773196738800,2.51673876953125,8.764909744262695,4.410869598388672,2.1984057426452637
1701857773206332000,2.526331787109375,8.82233715057373,4.386941432952881,2.354238271713257
1701857773215924500,2.535924560546875,8.810373306274414,4.339084625244141,2.552842617034912
1701857773225517800,2.545517822265625,8.693124771118164,4.346263408660889,2.5863420963287354
1701857773235112000,2.55511181640625,8.446663856506348,4.358227252960205,2.4762723445892334
1701857773244705000,2.564705078125,8.207082748413086,4.408476829528809,2.2944178581237793
1701857773254297600,2.574297607421875,8.058727264404297,4.456333160400391,2.1266210079193115
1701857773263891000,2.583890869140625,8.089834213256836,4.4395833015441895,2.073979139328003
1701857773273485000,2.593485107421875,8.300402641296387,4.437190532684326,1.9806588888168335
1701857773283078100,2.603078125,8.535198211669922,4.4324049949646,1.9208383560180664
1701857773292670700,2.612670654296875,8.70508861541748,4.47068977355957,1.975873351097107
1701857773302264000,2.62226416015625,8.547162055969238,4.374977111816406,1.8753747940063477
1701857773311858200,2.631858154296875,8.269295692443848,4.288835525512695,1.8562321662902832
1701857773321451300,2.641451171875,8.671588897705078,4.3295135498046875,2.090728759765625
1701857773331043800,2.6510439453125,8.882157325744629,4.406083583831787,2.622234582901001
1701857773340637200,2.66063720703125,8.896514892578125,4.386941432952881,2.7059834003448486
1701857773350231300,2.670231201171875,8.827122688293457,4.386941432952881,2.457129716873169
1701857773359824400,2.679824462890625,8.520841598510742,4.3055853843688965,2.260918378829956
1701857773369417000,2.6894169921875,8.343473434448242,4.339084625244141,2.207977056503296
1701857773379010300,2.69901025390625,8.147261619567871,4.413262367248535,2.0691933631896973
1701857773388604400,2.7086044921875,8.097012519836426,4.430012226104736,2.059622049331665
1701857773398197800,2.71819775390625,8.135297775268555,4.456333160400391,2.207977056503296
1701857773407790000,2.7277900390625,8.228617668151855,4.504189491271973,2.2800607681274414
1701857773417383400,2.737383544921875,8.657232284545898,4.406083583831787,2.3733808994293213
1701857773426977500,2.7469775390625,9.121739387512207,4.262514591217041,2.497807741165161
1701857773436571000,2.75657080078125,9.430413246154785,4.104588031768799,2.646162748336792
1701857773446163200,2.7661630859375,9.521639823913574,4.075874328613281,2.387737989425659
1701857773455756500,2.775756591796875,9.241379737854004,3.8051862716674805,2.8354947566986084
1701857773465350700,2.7853505859375,9.109774589538574,3.8386857509613037,2.8211379051208496
1701857773474944000,2.794944091796875,9.186345100402832,4.022933006286621,2.8187451362609863
1701857773484536300,2.804536376953125,9.109774589538574,4.090231418609619,2.857030153274536
1701857773494129700,2.814129638671875,9.093025207519531,4.071088790893555,2.837887763977051
1701857773503723800,2.823723876953125,9.358628273010254,3.9870407581329346,2.8115665912628174
1701857773513317000,2.833317138671875,9.701101303100586,3.8075790405273438,2.837887763977051
1701857773522909400,2.842909423828125,9.969097137451172,3.6807594299316406,2.8737800121307373
1701857773532502800,2.852502685546875,10.443175315856934,3.841078519821167,2.7610182762145996
1701857773542097000,2.862096923828125,10.117751121520996,3.8530426025390625,2.694019079208374
1701857773551690200,2.871690185546875,9.430413246154785,4.0420756340026855,2.2055842876434326
1701857773561282600,2.881282470703125,8.908478736877441,3.3741791248321533,3.022135019302368
1701857773570876000,2.8908759765625,8.367402076721191,2.6177480220794678,4.221537113189697
1701857773580470000,2.900469970703125,7.929515361785889,2.3183460235595703,5.033302307128906
1701857773590063000,2.91006298828125,7.917551040649414,2.339881420135498,4.891826629638672
1701857773599655700,2.91965576171875,8.001299858093262,2.347059965133667,4.154538154602051
1701857773609249000,2.9292490234375,8.19511890411377,2.2250258922576904,3.1680972576141357
1701857773618843100,2.938843017578125,8.262117385864258,1.911566138267517,2.4930222034454346
1701857773628436200,2.948436279296875,7.9366936683654785,1.576271891593933,2.363809585571289
1701857773638028800,2.95802880859375,7.543971538543701,1.3369896411895752,2.519343137741089
1701857773647622100,2.9676220703125,7.311867713928223,1.2074781656265259,2.770589590072632
1701857773657216300,2.97721630859375,6.974180698394775,1.0926226377487183,2.5241286754608154
1701857773666809300,2.986809326171875,6.337390899658203,0.7456633448600769,2.306381940841675
1701857773676402000,2.99640185546875,5.700600624084473,0.2787638306617737,2.213061809539795
1701857773685995300,3.005995361328125,5.070989608764648,-0.08285148441791534,1.913659930229187
1701857773695589400,3.01558935546875,4.342973232269287,-0.4707878530025482,2.176870346069336
1701857773705182500,3.025182373046875,3.6487553119659424,-0.46839502453804016,2.490629196166992
1701857773714775000,3.034775146484375,2.7197420597076416,-0.11874382197856903,2.0165512561798096
1701857773724368400,3.044368408203125,1.628016710281372,-0.13070793449878693,1.7198412418365479
1701857773733962500,3.05396240234375,0.6107679605484009,-0.6143572330474854,1.8921245336532593
1701857773743555300,3.063555419921875,-0.20817556977272034,-1.7132610082626343,3.077169895172119
1701857773753147400,3.0731474609375,-2.372483730316162,-2.4074785709381104,4.870291233062744
1701857773762740700,3.08274072265625,-3.2054851055145264,-2.5821547508239746,6.0146589279174805
1701857773772334800,3.0923349609375,-2.0228323936462402,-2.7427730560302734,6.948457717895508
1701857773781928000,3.101927978515625,-0.4546363055706024,-2.9772696495056152,8.009076118469238
1701857773791520500,3.1115205078125,0.01704886183142662,-3.537489175796509,9.055337905883789
1701857773801113900,3.12111376953125,0.31854450702667236,-4.095315933227539,9.806983947753906
1701857773810707700,3.130707763671875,0.6801598072052002,-4.36091947555542,9.66819953918457
1701857773820301000,3.140301025390625,0.7806583642959595,-4.669892311096191,9.342476844787598
1701857773829893600,3.1498935546875,0.5027918815612793,-4.9501519203186035,10.075279235839844
1701857773839487000,3.159487060546875,-4.179962158203125,-10.743773460388184,27.28386116027832
1701857773849080800,3.169080810546875,-9.425328254699707,-6.285944938659668,38.569610595703125
1701857773858674200,3.178674072265625,0.9625129103660583,12.012269020080566,-2.877070188522339
1701857773868266800,3.188266845703125,-3.823132276535034,1.1261221170425415,5.737091541290283
1701857773877859800,3.19785986328125,-12.77468204498291,-9.553942680358887,15.888043403625488
1701857773887454000,3.207453857421875,-15.60927963256836,-4.461717128753662,17.673986434936523
1701857773897047300,3.21704736328125,-14.843276977539062,-0.11395817995071411,15.940685272216797
1701857773906640000,3.226639892578125,-10.816455841064453,-1.3899308443069458,14.966208457946777
1701857773916233000,3.23623291015625,-3.8805601596832275,-2.936591625213623,26.879175186157227
1701857773925827000,3.2458271484375,0.00029910283046774566,-1.0836495161056519,23.367109298706055
1701857773935420400,3.25542041015625,0.00029910283046774566,-1.6103696823120117,13.919946670532227
1701857773945012700,3.2650126953125,0.03858426585793495,-3.42981219291687,9.2826566696167
1701857773954606000,3.274606201171875,0.9720842242240906,-5.167898654937744,9.759127616882324
1701857773964200200,3.2842001953125,2.322533369064331,-4.444967269897461,7.858328819274902
1701857773973793500,3.29379345703125,4.041477680206299,-3.4704902172088623,6.419344902038574
1701857773983385900,3.3033857421875,4.321437835693359,-2.998805046081543,5.265406131744385
1701857773992979200,3.312979248046875,3.581756353378296,-3.0514471530914307,5.600700378417969
1701857774002573300,3.3225732421875,2.4661028385162354,-3.0514471530914307,6.663413047790527
1701857774012166400,3.33216650390625,1.659422516822815,-3.2237303256988525,8.004290580749512
1701857774021759000,3.341759033203125,2.1786649227142334,-4.327419757843018,11.219646453857422
1701857774031352300,3.351352294921875,3.9290146827697754,-5.969793319702148,12.035898208618164
1701857774040946400,3.360946533203125,-2.1664018630981445,-2.586940288543701,6.7570319175720215
1701857774050539500,3.37053955078125,-1.7715860605239868,-4.315455436706543,8.245965957641602
1701857774060132000,3.380132080078125,-2.5256242752075195,-4.655535697937012,8.092824935913086
1701857774069725400,3.389725341796875,-3.5910286903381348,-5.785545825958252,7.654639720916748
1701857774079319600,3.399319580078125,-1.0914262533187866,-5.091328144073486,7.233203887939453
1701857774088912600,3.40891259765625,-1.721037745475769,-4.767998218536377,6.656234264373779
1701857774098505200,3.418505126953125,-2.8824539184570312,-5.486144065856934,7.013063907623291
1701857774108098600,3.4280986328125,-1.927119493484497,-5.783153057098389,6.438487529754639
1701857774117692700,3.437692626953125,-1.1225329637527466,-6.503692150115967,7.2813591957092285
1701857774127285800,3.44728564453125,-0.4666004180908203,-8.205885887145996,8.681758880615234
1701857774136878300,3.45687841796875,1.3648061752319336,-7.437490940093994,6.582056999206543
1701857774146471700,3.4664716796875,-0.5120640397071838,-3.812962770462036,3.6349966526031494
1701857774156065500,3.4760654296875,-5.949155330657959,-3.810570001602173,6.862316131591797
1701857774165659000,3.485658935546875,-4.742574691772461,-4.291527271270752,8.466404914855957
1701857774175251500,3.49525146484375,-1.689931035041809,-5.199005603790283,7.719245910644531
1701857774184844800,3.5048447265625,-1.1081759929656982,-5.957829475402832,7.4847493171691895
1701857774194438700,3.514438720703125,-1.8505492210388184,-5.692225933074951,6.6418776512146
1701857774204032000,3.524031982421875,-2.551945447921753,-7.229315280914307,5.004289627075195
1701857774213624300,3.533624267578125,-2.2190439701080322,-8.955437660217285,4.65733003616333
1701857774223217700,3.5432177734375,-1.7883358001708984,-7.118946552276611,9.23719310760498
1701857774232811800,3.552811767578125,-1.92951238155365,-8.095816612243652,8.102396965026855
1701857774242405000,3.562405029296875,-3.5096726417541504,-10.564311981201172,6.448058605194092
1701857774251997400,3.57199755859375,-2.865704298019409,-13.925629615783691,8.013862609863281
1701857774261590800,3.5815908203125,-1.7018951177597046,-15.960426330566406,7.963613033294678
1701857774271185000,3.591184814453125,-1.378864049911499,-16.152151107788086,7.317251682281494
1701857774280778200,3.6007783203125,-0.1986042857170105,-15.433706283569336,5.744269847869873
1701857774290370600,3.61037060546875,-1.3597214221954346,-12.855439186096191,5.504688262939453
1701857774299964000,3.6199638671875,-1.8170497417449951,-8.871688842773438,7.716853141784668
1701857774309558000,3.62955810546875,-2.8704898357391357,-7.001698017120361,5.6916279792785645
1701857774319151000,3.639151123046875,-2.856132984161377,-4.969294548034668,4.480261325836182
1701857774328743700,3.64874365234375,-2.688336133956909,-3.405884027481079,4.827220439910889
1701857774338337000,3.6583369140625,-2.0228323936462402,-4.990829944610596,5.732305526733398
1701857774347931100,3.66793115234375,-1.2400803565979004,-6.149554252624512,4.755435943603516
1701857774357524200,3.677524169921875,-1.3381860256195068,-7.138089179992676,4.872684001922607
1701857774367116800,3.68711669921875,-1.350150227546692,-8.321041107177734,4.970789909362793
1701857774376710000,3.6967099609375,-1.2448660135269165,-9.16122055053711,6.187241077423096
1701857774386304300,3.70630419921875,-1.1081759929656982,-9.400503158569336,6.943672180175781
1701857774395897300,3.7158974609375,-1.46500563621521,-9.166006088256836,5.449653625488281
1701857774405490000,3.725489990234375,-1.721037745475769,-8.459824562072754,3.740280866622925
1701857774415083000,3.7350830078125,-1.9917258024215698,-7.69830846786499,4.276572227478027
1701857774424677000,3.744677001953125,-2.077867269515991,-7.576274871826172,4.822434902191162
1701857774434270500,3.7542705078125,-2.2214367389678955,-7.849355697631836,4.111467361450195
1701857774443863000,3.763863037109375,-2.5974090099334717,-7.997710704803467,3.4794633388519287
1701857774453456100,3.7734560546875,-2.6596224308013916,-8.328219413757324,3.3622148036956787
1701857774463050200,3.78305029296875,-2.5399811267852783,-8.560322761535645,3.680460214614868
1701857774472643600,3.7926435546875,-2.6045875549316406,-8.941081047058105,4.049253940582275
1701857774482236000,3.80223583984375,-2.1424734592437744,-9.311968803405762,4.271786689758301
1701857774491829200,3.811829345703125,-2.2453649044036865,-10.43958568572998,4.475475788116455
1701857774501423400,3.82142333984375,-1.4003994464874268,-11.897712707519531,5.7873406410217285
1701857774511016700,3.8310166015625,-1.2305090427398682,-11.052447319030762,5.040481090545654
1701857774520609000,3.840609130859375,-1.555932879447937,-8.732605934143066,3.019742250442505
1701857774530202400,3.850202392578125,-1.9845472574234009,-8.572287559509277,3.3526437282562256
1701857774539796500,3.85979638671875,-1.5583257675170898,-8.522037506103516,3.311666488647461
1701857774549389600,3.8693896484375,-1.8649061918258667,-1.7563318014144897,1.3654043674468994
1701857774558982100,3.878982177734375,-2.2621147632598877,1.9570298194885254,1.3127623796463013
1701857774568575500,3.888575439453125,-0.35413774847984314,-4.116851329803467,3.711566925048828
1701857774578169600,3.898169677734375,-2.161616086959839,-6.427121639251709,3.1130621433258057
1701857774587762700,3.9077626953125,-2.11615252494812,-4.782355308532715,1.3821542263031006
1701857774597355300,3.917355224609375,-1.5750755071640015,-4.281956195831299,0.9583254456520081
1701857774606948400,3.9269482421875,-1.1635099649429321,-4.253242015838623,2.042872428894043
1701857774616542500,3.93654248046875,-2.044367790222168,-5.139184951782227,2.708376169204712
1701857774626135800,3.9461357421875,-2.748156785964966,-4.909174919128418,1.6576279401779175
1701857774635728100,3.95572802734375,-4.481457710266113,-7.071090221405029,2.4451656341552734
1701857774645321500,3.965321533203125,-3.3969109058380127,-10.453943252563477,3.1513473987579346
1701857774654915600,3.97491552734375,-4.371387958526611,-13.465909004211426,2.7804598808288574
1701857774664509000,3.984509033203125,-5.961119174957275,-13.827224731445312,1.9663020372390747
1701857774674101200,3.994101318359375,-4.67078971862793,-12.05803108215332,0.7716853022575378
1701857774683694600,4.003694580078125,-3.361018419265747,-11.337492942810059,0.5635097622871399
1701857774693288700,4.013288818359375,-1.83619225025177,-12.326326370239258,0.9726824164390564
1701857774702881800,4.0228818359375,-0.8258228898048401,-13.94955825805664,1.2792627811431885
1701857774712474400,4.032474365234375,-0.6870391964912415,-14.560027122497559,1.7820546627044678
1701857774722067700,4.042067626953125,-0.3756731450557709,-15.17288875579834,3.5081770420074463
1701857774731661800,4.051661865234375,-0.6846463680267334,-16.484752655029297,5.322834014892578
1701857774741255000,4.0612548828125,-0.8473583459854126,-18.771095275878906,7.494320392608643
1701857774750847500,4.070847412109375,-0.854536771774292,-13.142578125,4.5807600021362305
1701857774760440600,4.080440673828125,-1.896012783050537,-10.84427261352539,2.332702875137329
1701857774770034700,4.09003466796875,-2.8223342895507812,-9.855438232421875,1.9567307233810425
1701857774779628000,4.0996279296875,-2.9566314220428467,-9.412467002868652,1.999801516532898
1701857774789220600,4.109220703125,-3.109772205352783,-9.273683547973633,1.9854445457458496
1701857774798813700,4.118813720703125,-3.1671998500823975,-9.163613319396973,2.0237298011779785
1701857774808407800,4.12840771484375,-2.678765058517456,-8.658429145812988,1.4826527833938599
1701857774818001200,4.138001220703125,-3.2078778743743896,-8.71346378326416,1.0612168312072754
1701857774827593500,4.147593505859375,-3.0714869499206543,-9.211469650268555,1.5759727954864502
1701857774837186800,4.157186767578125,-2.8752756118774414,-9.675976753234863,1.9615163803100586
1701857774846781000,4.166781005859375,-2.1257238388061523,-9.43190860748291,1.7126628160476685
1701857774856374000,4.1763740234375,-2.020439624786377,-8.878867149353027,0.4698905348777771
1701857774865966600,4.185966552734375,-2.551945447921753,-9.276076316833496,1.9519450664520264
1701857774875560000,4.195559814453125,-2.9542386531829834,-10.523334503173828,3.5943186283111572
1701857774885154000,4.205154052734375,-3.124129056930542,-10.243374824523926,2.919243574142456
1701857774894747100,4.2147470703125,-3.0092735290527344,-9.484550476074219,2.1744775772094727
1701857774904339700,4.224339599609375,-2.9877381324768066,-9.060722351074219,1.9160526990890503
1701857774913933000,4.23393310546875,-2.7385854721069336,-8.986544609069824,1.693520188331604
1701857774923527200,4.243527099609375,-2.688336133956909,-9.149256706237793,1.9280169010162354
1701857774933120300,4.253120361328125,-2.5806591510772705,-9.158827781677246,1.9399809837341309
1701857774942712800,4.262712890625,-2.4921247959136963,-9.292825698852539,2.464308261871338
1701857774952306200,4.27230615234375,-2.5663022994995117,-9.235398292541504,2.631805896759033
1701857774961900000,4.281900146484375,-2.6141586303710938,-9.144471168518066,2.7059834003448486
1701857774971493400,4.291493408203125,-2.6189444065093994,-9.101400375366211,2.677269458770752
1701857774981085700,4.301085693359375,-2.630908489227295,-9.113364219665527,2.5863420963287354
1701857774990679000,4.310678955078125,-2.6261229515075684,-9.156435012817383,2.4930222034454346
1701857775000273200,4.320273193359375,-2.654836654663086,-9.230612754821777,2.4379870891571045
1701857775009866500,4.329866455078125,-2.647658348083496,-9.259325981140137,2.361416816711426
1701857775019458800,4.339458740234375,-2.6285157203674316,-9.256933212280273,2.2800607681274414
1701857775029052200,4.34905224609375,-2.6285157203674316,-9.249754905700684,2.213061809539795
1701857775038646300,4.358646240234375,-2.6668007373809814,-9.249754905700684,2.179263114929199
1701857775048239400,4.3682392578125,-2.7290141582489014,-9.22582721710205,2.1194427013397217
1701857775057832000,4.37783203125,-2.7529425621032715,-9.223434448242188,2.052443504333496
1701857775067425300,4.38742529296875,-2.7625136375427246,-9.197113037109375,1.9806588888168335
1701857775077019100,4.39701904296875,-2.7601208686828613,-9.16122055053711,1.8873388767242432
1701857775086612500,4.406612548828125,-2.7361927032470703,-9.087042808532715,1.7581263780593872
1701857775096205000,4.416205078125,-2.7218358516693115,-9.125328063964844,1.810768485069275
1701857775105798100,4.425798095703125,-2.6979074478149414,-9.173184394836426,1.8299111127853394
1701857775115392300,4.435392333984375,-2.6524438858032227,-9.158827781677246,1.8586249351501465
1701857775124985600,4.444985595703125,-2.6668007373809814,-9.206684112548828,1.9160526990890503
1701857775134578000,4.454577880859375,-2.6907291412353516,-9.13729190826416,1.8346967697143555
1701857775144171300,4.464171142578125,-2.6835505962371826,-9.132506370544434,1.9878374338150024
1701857775153765400,4.473765380859375,-2.695514678955078,-9.249754905700684,2.0955145359039307
1701857775163358500,4.4833583984375,-2.662015199661255,-9.333503723144531,2.145763635635376
1701857775172951000,4.492950927734375,-2.6356940269470215,-9.35025405883789,2.162513494491577
1701857775182544400,4.50254443359375,-2.544766902923584,-9.41755199432373,2.2968106269836426
1701857775192138500,4.512138427734375,-2.537588357925415,-9.398110389709473,2.253739833831787
1701857775201731600,4.521731689453125,-2.5232315063476562,-9.410074234008789,2.418844699859619
1701857775211324200,4.53132421875,-2.5088746547698975,-9.39571762084961,2.409273386001587
1701857775220917500,4.54091748046875,-2.441875457763672,-9.331110954284668,2.3662025928497314
1701857775230511400,4.550511474609375,-2.3222343921661377,-9.316754341125488,2.3255245685577393
1701857775240104700,4.560104736328125,-2.355733871459961,-9.1085786819458,2.2345972061157227
1701857775249697000,4.569697021484375,-2.396411895751953,-8.996115684509277,2.2274186611175537
1701857775259290400,4.579290283203125,-2.4011974334716797,-9.00568675994873,2.1720848083496094
1701857775268884500,4.588884521484375,-2.4059832096099854,-9.03679370880127,2.097907304763794
1701857775278477600,4.5984775390625,-2.4323041439056396,-9.053544044494629,1.9112670421600342
1701857775288070100,4.608070068359375,-2.451446771621704,-9.127720832824707,1.9543378353118896
1701857775297663500,4.61766357421875,-2.537588357925415,-9.228219985961914,1.9112670421600342
1701857775307257600,4.627257568359375,-2.6261229515075684,-9.343074798583984,1.8179470300674438
1701857775316850700,4.6368505859375,-2.757728099822998,-9.477372169494629,1.7461622953414917
1701857775326443300,4.646443359375,-2.83669114112854,-9.613762855529785,1.6477575302124023
1701857775336036400,4.656036376953125,-2.8103702068328857,-9.800403594970703,1.7700905799865723
1701857775345630500,4.66563037109375,-2.669193744659424,-9.951150894165039,1.6815561056137085
1701857775355223800,4.675223876953125,-2.3988046646118164,-10.243374824523926,1.9184455871582031
1701857775364816400,4.68481640625,-2.513660192489624,-10.178768157958984,1.688734531402588
1701857775374409500,4.694409423828125,-2.630908489227295,-10.008877754211426,1.6911274194717407
1701857775384003600,4.704003662109375,-2.5806591510772705,-10.030413627624512,1.851446509361267
1701857775393597000,4.713596923828125,-2.568695068359375,-10.123733520507812,1.9926230907440186
1701857775403189200,4.723189208984375,-2.6045875549316406,-10.166804313659668,2.145763635635376
1701857775412782600,4.732782470703125,-2.6668007373809814,-10.162018775939941,2.1409780979156494
1701857775422376700,4.742376708984375,-2.678765058517456,-10.21466064453125,2.4595224857330322
1701857775431969800,4.7519697265625,-2.7290141582489014,-10.274481773376465,2.5241286754608154
1701857775441562400,4.761562255859375,-2.717050075531006,-10.248160362243652,2.5624139308929443
1701857775451155700,4.77115576171875,-2.6668007373809814,-10.128519058227539,2.581556558609009
1701857775460749800,4.780749755859375,-2.5232315063476562,-10.051948547363281,2.701197624206543
1701857775470343000,4.790343017578125,-2.458625316619873,-9.89133071899414,2.741875648498535
1701857775479935500,4.799935546875,-2.4993033409118652,-9.632905960083008,2.756232500076294
1701857775489528800,4.80952880859375,-2.6261229515075684,-9.427123069763184,2.7203402519226074
1701857775499122700,4.819122802734375,-2.7361927032470703,-9.24018383026123,2.638984203338623
1701857775508716000,4.828716064453125,-2.7529425621032715,-9.209076881408691,2.583949327468872
1701857775518308400,4.838308349609375,-2.7433712482452393,-9.216255187988281,2.466701030731201
1701857775527901700,4.847901611328125,-2.843869686126709,-9.223434448242188,2.440380096435547
1701857775537495800,4.857495849609375,-2.913560628890991,-9.328718185424805,2.5025932788848877
1701857775547089200,4.867089111328125,-2.9470601081848145,-9.345467567443848,2.5695924758911133
1701857775556681500,4.876681396484375,-2.95184588432312,-9.35743236541748,2.6581268310546875
1701857775566274800,4.88627490234375,-3.028416156768799,-9.319147109985352,2.646162748336792
1701857775575869000,4.895868896484375,-3.0786654949188232,-9.22582721710205,2.6006991863250732
1701857775585462000,4.9054619140625,-3.1600213050842285,-9.101400375366211,2.552842617034912
1701857775595054600,4.9150546875,-3.1025936603546143,-8.953044891357422,2.5624139308929443
1701857775604647700,4.924647705078125,-3.0786654949188232,-8.835497856140137,2.5719852447509766
1701857775614241800,4.93424169921875,-3.148057222366333,-8.672785758972168,2.6102705001831055
1701857775623835100,4.943835205078125,-3.265305519104004,-8.512466430664062,2.6006991863250732
1701857775633427500,4.953427490234375,-3.305983543395996,-8.562715530395508,2.6054847240448
1701857775643020800,4.963020751953125,-3.320340633392334,-8.498109817504883,2.5002005100250244
1701857775652615000,4.972614990234375,-3.303590774536133,-8.4502534866333,2.4379870891571045
1701857775662208300,4.982208251953125,-3.428316593170166,-8.612964630126953,2.3757736682891846
1701857775671800600,4.991800537109375,-3.4570305347442627,-8.806783676147461,2.347059965133667
1701857775681394000,5.001393798828125,-3.4809587001800537,-8.902795791625977,2.284846544265747
1701857775690988000,5.010988037109375,-3.4642090797424316,-8.957830429077148,2.2417757511138916
1701857775700581000,5.0205810546875,-3.358625650405884,-8.979366302490234,2.200798511505127
1701857775710173700,5.030173583984375,-3.265305519104004,-8.99850845336914,2.1744775772094727
1701857775719767000,5.03976708984375,-3.2844481468200684,-8.955437660217285,2.0955145359039307
1701857775729361000,5.04936083984375,-3.2054851055145264,-9.16122055053711,2.1672990322113037
1701857775738954200,5.058954345703125,-3.2533414363861084,-8.811569213867188,1.8394824266433716
1701857775748546600,5.068546630859375,-3.327518939971924,-8.557929992675781,1.6863417625427246
1701857775758140000,5.078139892578125,-3.3634114265441895,-8.550751686096191,1.633400559425354
1701857775767734000,5.087734130859375,-3.3945181369781494,-8.562715530395508,1.573580026626587
1701857775777327400,5.097327392578125,-3.4067811965942383,-8.634500503540039,1.5209379196166992
1701857775786919700,5.106919677734375,-3.361018419265747,-8.763712882995605,1.5281163454055786
1701857775796513000,5.116512939453125,-3.3873395919799805,-8.869296073913574,1.5305092334747314
1701857775806107100,5.126107177734375,-3.3897323608398438,-8.902795791625977,1.5065809488296509
1701857775815700200,5.1357001953125,-3.305983543395996,-8.91954517364502,1.4898312091827393
1701857775825292800,5.145292724609375,-3.203092098236084,-8.931509971618652,1.4228321313858032
1701857775834886100,5.15488623046875,-3.155235767364502,-8.902795791625977,1.329512119293213
1701857775844480000,5.16447998046875,-3.162414312362671,-8.929117202758789,1.2505489587783813
1701857775854073300,5.1740732421875,-3.1121649742126465,-8.936295509338379,1.1596217155456543
1701857775863666000,5.183666015625,-3.1289145946502686,-8.99850845336914,1.077966570854187
1701857775873259000,5.193259033203125,-3.2868409156799316,-9.060722351074219,1.0492527484893799
1701857775882853000,5.20285302734375,-3.4618160724639893,-9.142078399658203,1.073180913925171
1701857775892446500,5.212446533203125,-3.6125640869140625,-9.209076881408691,1.0950154066085815
1701857775902038800,5.222038818359375,-3.648456335067749,-9.256933212280273,1.173978567123413
1701857775911632100,5.231632080078125,-3.6340994834899902,-9.280861854553223,1.2960125207901
1701857775921226200,5.241226318359375,-3.583850145339966,-9.206684112548828,1.3606188297271729
1701857775930819300,5.2508193359375,-3.5407793521881104,-9.14686393737793,1.4922239780426025
1701857775940412000,5.260411865234375,-3.562314748764038,-9.125328063964844,1.5807584524154663
1701857775950005200,5.270005126953125,-3.5982069969177246,-9.173184394836426,1.7126628160476685
1701857775959599400,5.279599365234375,-3.655634880065918,-9.223434448242188,1.815554141998291
1701857775969192400,5.2891923828125,-3.7082769870758057,-9.223434448242188,1.8681962490081787
1701857775978785000,5.298784912109375,-3.6915271282196045,-9.192327499389648,1.8873388767242432
1701857775988378400,5.30837841796875,-3.514458179473877,-9.149256706237793,1.9304096698760986
1701857775997972200,5.31797216796875,-3.303590774536133,-9.082257270812988,1.9471594095230103
1701857776007565600,5.327565673828125,-3.1815567016601562,-8.931509971618652,1.9112670421600342
1701857776017158000,5.337157958984375,-2.9781668186187744,-8.893224716186523,1.9615163803100586
1701857776026751200,5.346751220703125,-2.92073917388916,-8.895617485046387,1.908874273300171
1701857776036345300,5.356345458984375,-2.8824539184570312,-8.974580764770508,1.9423737525939941
1701857776045938400,5.3659384765625,-2.9638099670410156,-9.166006088256836,1.9208383560180664
1701857776055531000,5.375531005859375,-3.059522867202759,-9.422337532043457,1.8801604509353638
1701857776065124400,5.385124267578125,-3.124129056930542,-9.70229721069336,1.8801604509353638
1701857776074718500,5.394718505859375,-3.006880760192871,-9.963115692138672,2.004587173461914
1701857776084311600,5.4043115234375,-2.80558443069458,-10.099804878234863,2.2178475856781006
1701857776093904100,5.413904052734375,-2.638087034225464,-10.097412109375,2.347059965133667
1701857776103497500,5.42349755859375,-2.513660192489624,-10.078269958496094,2.53609299659729
1701857776113091300,5.43309130859375,-2.623729944229126,-9.984950065612793,2.4690937995910645
1701857776122684700,5.4426845703125,-2.702693223953247,-9.829116821289062,2.2417757511138916
1701857776132277200,5.45227734375,-2.7218358516693115,-9.678369522094727,2.0333011150360107
1701857776141870300,5.461870361328125,-2.623729944229126,-9.585049629211426,1.9567307233810425
1701857776151464400,5.47146435546875,-2.5112674236297607,-9.513264656066895,1.882553219795227
1701857776161057800,5.481057861328125,-2.5088746547698975,-9.414859771728516,1.8490537405014038
1701857776170650000,5.490650146484375,-2.5591237545013428,-9.321539878845215,1.731805443763733
1701857776180243500,5.500243408203125,-2.6261229515075684,-9.249754905700684,1.578365683555603
1701857776189837600,5.509837646484375,-2.664407968521118,-9.221040725708008,1.4300106763839722
1701857776199430700,5.5194306640625,-2.688336133956909,-9.22582721710205,1.3103694915771484
1701857776209023200,5.529023193359375,-2.6428725719451904,-9.201898574829102,1.2409776449203491
1701857776218616600,5.538616455078125,-2.5495524406433105,-9.103793144226074,1.1572288274765015
1701857776228210700,5.548210693359375,-2.4634108543395996,-9.13729190826416,1.0492527484893799
1701857776237803800,5.5578037109375,-2.0946171283721924,-9.194720268249512,1.3797613382339478
1701857776247396400,5.567396240234375,-2.092224359512329,-9.14686393737793,1.4467604160308838
1701857776256989400,5.576989501953125,-2.0228323936462402,-9.192327499389648,1.5305092334747314
1701857776266583600,5.58658349609375,-1.9630118608474731,-9.118149757385254,1.6815561056137085
1701857776276177000,5.596177001953125,-1.927119493484497,-9.024829864501953,1.8083757162094116
1701857776285769200,5.605769287109375,-1.8744773864746094,-8.967401504516602,1.9256240129470825
1701857776295362600,5.615362548828125,-1.8577276468276978,-8.976973533630371,2.0093727111816406
1701857776304956700,5.624956787109375,-1.8481563329696655,-9.039186477661133,2.097907304763794
1701857776314549800,5.6345498046875,-1.843370795249939,-9.110971450805664,2.1194427013397217
1701857776324142300,5.644142333984375,-1.843370795249939,-9.166006088256836,2.0931215286254883
1701857776333735700,5.653735595703125,-1.8290138244628906,-9.223434448242188,2.0620148181915283
1701857776343329800,5.663329833984375,-1.812264084815979,-9.319147109985352,2.0404794216156006
1701857776352923000,5.6729228515625,-1.8218353986740112,-9.427123069763184,2.0620148181915283
1701857776362515500,5.682515380859375,-1.8553348779678345,-9.54915714263916,2.0883359909057617
1701857776372108500,5.692108642578125,-1.8577276468276978,-9.635298728942871,2.1577277183532715
1701857776381702700,5.70170263671875,-1.812264084815979,-9.735796928405762,2.229811668395996
1701857776391296000,5.7112958984375,-1.776371717453003,-9.831509590148926,2.3111674785614014
1701857776400888300,5.720888427734375,-1.8290138244628906,-9.78126049041748,2.3183460235595703
1701857776410481700,5.730481689453125,-1.7356936931610107,-9.932008743286133,2.3997020721435547
1701857776420075800,5.74007568359375,-1.80508553981781,-9.953543663024902,2.3733808994293213
1701857776429668900,5.7496689453125,-1.8242281675338745,-9.963115692138672,2.3446671962738037
1701857776439261400,5.759261474609375,-1.7356936931610107,-9.970293998718262,2.3279173374176025
1701857776448854800,5.768854736328125,-1.6588243246078491,-9.987342834472656,2.3829522132873535
1701857776458449000,5.778448974609375,-1.7042878866195679,-9.963115692138672,2.3733808994293213
1701857776468042000,5.7880419921875,-1.5224334001541138,-9.999306678771973,2.545664072036743
1701857776477634600,5.797634521484375,-1.5272190570831299,-10.06869888305664,2.6198415756225586
1701857776487227600,5.8072275390625,-1.5272190570831299,-10.073484420776367,2.6748766899108887
1701857776496821800,5.81682177734375,-1.5224334001541138,-10.056734085083008,2.7035903930664062
1701857776506415000,5.8264150390625,-1.4865410327911377,-10.023235321044922,2.7131617069244385
1701857776516007400,5.83600732421875,-1.469791293144226,-9.98973560333252,2.629412889480591
1701857776525600800,5.845600830078125,-1.4195420742034912,-9.955936431884766,2.6270201206207275
1701857776535195000,5.85519482421875,-1.347757339477539,-9.953543663024902,2.550449848175049
1701857776544788000,5.8647880859375,-1.311864972114563,-9.896116256713867,2.464308261871338
1701857776554380500,5.874380615234375,-1.2592228651046753,-9.821938514709473,2.339881420135498
1701857776563974000,5.883973876953125,-1.2041879892349243,-9.759725570678711,2.260918378829956
1701857776573568000,5.893568115234375,-1.2185449600219727,-9.714262008666992,2.1649062633514404
1701857776583161000,5.9031611328125,-1.3046865463256836,-9.68076229095459,2.114656925201416
1701857776592753700,5.912753662109375,-1.3716856241226196,-9.683155059814453,2.097907304763794
1701857776602346800,5.9223466796875,-1.4195420742034912,-9.740582466125488,2.097907304763794
1701857776611940900,5.93194091796875,-1.4195420742034912,-9.79801082611084,2.129014015197754
1701857776621534200,5.9415341796875,-1.469791293144226,-9.821938514709473,2.179263114929199
1701857776631126500,5.95112646484375,-1.4602199792861938,-9.833903312683105,2.191227436065674
1701857776640720000,5.960719970703125,-1.4530415534973145,-9.81236743927002,2.246561288833618
1701857776650314000,5.97031396484375,-1.4530415534973145,-9.77408218383789,2.2704896926879883
1701857776659907300,5.9799072265625,-1.4075778722763062,-9.754940032958984,2.251347064971924
1701857776669499600,5.989499755859375,-1.3764712810516357,-9.742975234985352,2.2250258922576904
1701857776679093000,5.999093017578125,-1.3334003686904907,-9.747760772705078,2.1744775772094727
1701857776688687000,6.00868701171875,-1.2783654928207397,-9.738189697265625,2.0476579666137695
1701857776698280200,6.0182802734375,-1.2329018115997314,-9.733404159545898,2.0213370323181152
1701857776707872800,6.027872802734375,-1.1994023323059082,-9.735796928405762,2.0883359909057617
1701857776717466000,6.037466064453125,-1.2161520719528198,-9.711869239807129,2.0811574459075928
1701857776727060000,6.04706005859375,-1.256830096244812,-9.69511890411377,2.0859432220458984
1701857776736653300,6.0566533203125,-1.2592228651046753,-9.697511672973633,2.083550214767456
1701857776746245600,6.06624560546875,-1.2376874685287476,-9.69511890411377,2.0620148181915283
1701857776755839000,6.0758388671875,-1.2041879892349243,-9.70229721069336,2.0572292804718018
1701857776765433000,6.08543310546875,-1.1392827033996582,-9.716654777526855,2.052443504333496
1701857776775026200,6.095026123046875,-1.0914262533187866,-9.721440315246582,2.066800594329834
1701857776784618800,6.10461865234375,-1.0483554601669312,-9.716654777526855,2.0620148181915283
1701857776794212000,6.114212158203125,-1.012463092803955,-9.69511890411377,2.076371908187866
1701857776803806200,6.12380615234375,-1.0196415185928345,-9.685547828674316,2.073979139328003
1701857776813399300,6.1333994140625,-1.0339984893798828,-9.553942680358887,1.8897316455841064
1701857776822992000,6.142991943359375,-0.9909276962280273,-9.398110389709473,2.083550214767456
1701857776832585200,6.152585205078125,-0.8760721683502197,-9.757332801818848,2.1984057426452637
1701857776842179000,6.162178955078125,-0.8928219676017761,-9.747760772705078,2.1409780979156494
1701857776851772400,6.1717724609375,-0.9095717072486877,-9.647262573242188,2.090728759765625
1701857776861364700,6.18136474609375,-0.91914302110672,-9.515657424926758,2.0691933631896973
1701857776870958000,6.1909580078125,-0.9334999322891235,-9.443872451782227,2.076371908187866
1701857776880552200,6.20055224609375,-1.036391258239746,-9.381360054016113,2.028515338897705
1701857776890145300,6.210145263671875,-0.8162516355514526,-9.451051712036133,2.1409780979156494
1701857776899737900,6.21973779296875,-0.7707880139350891,-9.54915714263916,2.184048891067505
1701857776909331200,6.229331298828125,-0.7827520966529846,-9.55633544921875,2.2728824615478516
1701857776918925300,6.23892529296875,-0.7995018362998962,-9.558728218078613,2.3255245685577393
1701857776928518400,6.248518310546875,-0.8760721683502197,-9.513264656066895,2.299203395843506
1701857776938111000,6.258111083984375,-0.6942176818847656,-9.616155624389648,2.394916296005249
1701857776947704000,6.2677041015625,-0.7420741319656372,-9.714262008666992,2.387737989425659
1701857776957298200,6.277298095703125,-0.768395185470581,-9.685547828674316,2.2896320819854736
1701857776966891500,6.2868916015625,-0.7444669604301453,-9.692726135253906,2.347059965133667
1701857776976483800,6.29648388671875,-0.701396107673645,-9.838688850402832,2.466701030731201
1701857776986077200,6.3060771484375,-0.766002357006073,-9.829116821289062,2.3973093032836914
1701857776995671300,6.31567138671875,-0.6320042610168457,-9.853045463562012,2.4451656341552734
1701857777005264400,6.325264404296875,-0.6200401782989502,-9.821938514709473,2.361416816711426
1701857777014857000,6.33485693359375,-0.610468864440918,-9.757332801818848,2.3183460235595703
1701857777024450300,6.3444501953125,-0.6320042610168457,-9.733404159545898,2.2968106269836426
1701857777034044200,6.354044189453125,-0.5934200286865234,-9.733404159545898,2.2944178581237793
1701857777043637500,6.363637451171875,-0.5575276613235474,-9.735796928405762,2.315953254699707
1701857777053230000,6.37322998046875,-0.5862415432929993,-9.709476470947266,2.356631278991699
1701857777062823400,6.382823486328125,-0.6032904386520386,-9.683155059814453,2.3662025928497314
1701857777072417300,6.392417236328125,-0.6008976101875305,-9.671191215515137,2.385344982147217
1701857777082010600,6.4020107421875,-0.5575276613235474,-9.675976753234863,2.3901307582855225
1701857777091603000,6.41160302734375,-0.5982056856155396,-9.69511890411377,2.3662025928497314
1701857777101196300,6.4211962890625,-0.5670989751815796,-9.735796928405762,2.3662025928497314
1701857777110790400,6.430790283203125,-0.4905286431312561,-9.723833084106445,2.347059965133667
1701857777120383500,6.440383544921875,-0.49292147159576416,-9.735796928405762,2.3374886512756348
1701857777129976000,6.44997607421875,-0.48813581466674805,-9.709476470947266,2.3039891719818115
1701857777139569400,6.4595693359375,-0.5024927258491516,-9.697511672973633,2.2968106269836426
1701857777149163500,6.46916357421875,-0.5072783827781677,-9.685547828674316,2.3183460235595703
1701857777158756600,6.478756591796875,-0.5288137793540955,-9.673583984375,2.3590240478515625
1701857777168349200,6.48834912109375,-0.6224330067634583,-9.668798446655273,2.418844699859619
1701857777177942300,6.4979423828125,-0.7085745930671692,-9.68794059753418,2.490629196166992
1701857777187536400,6.507536376953125,-0.6535396575927734,-9.704689979553223,2.5169503688812256
1701857777197129700,6.517129638671875,-0.5359922647476196,-9.716654777526855,2.51216459274292
1701857777206722000,6.52672216796875,-0.46899324655532837,-9.735796928405762,2.5241286754608154
1701857777216315400,6.5363154296875,-0.4331009089946747,-9.759725570678711,2.5097718238830566
1701857777225909500,6.545909423828125,-0.34695929288864136,-9.742975234985352,2.433201551437378
1701857777235502600,6.555502685546875,-0.37806597352027893,-9.675976753234863,2.3350958824157715
1701857777245095200,6.56509521484375,-0.37088751792907715,-9.604191780090332,2.2274186611175537
1701857777254688500,6.5746884765625,-0.4378865361213684,-9.506086349487305,2.1433708667755127
1701857777264282400,6.584282470703125,-0.5551348328590393,-9.367003440856934,2.090728759765625
1701857777273875700,6.593875732421875,-0.7085745930671692,-9.594620704650879,2.1098713874816895
1701857777283468000,6.603468017578125,-0.6296114325523376,-10.030413627624512,2.378166675567627
1701857777293061400,6.613061279296875,-0.6798607110977173,-9.89850902557373,2.3207387924194336
1701857777302655500,6.622655517578125,-0.7492526173591614,-9.881759643554688,2.222633123397827
1701857777312248800,6.632248779296875,-0.7396813035011292,-9.903294563293457,2.2393829822540283
1701857777321841200,6.641841064453125,-0.6415755748748779,-9.896116256713867,2.2322044372558594
1701857777331434500,6.6514345703125,-0.5647061467170715,-9.867402076721191,2.222633123397827
1701857777341028600,6.661028564453125,-0.48574298620224,-9.824331283569336,2.2561326026916504
1701857777350621700,6.67062158203125,-0.46420758962631226,-9.786046028137207,2.244168519973755
1701857777360214300,6.68021435546875,-0.4905286431312561,-9.759725570678711,2.2250258922576904
1701857777369807600,6.6898076171875,-0.5048855543136597,-9.733404159545898,2.215454578399658
1701857777379401500,6.6994013671875,-0.5240281820297241,-9.726225852966309,2.210369825363159
1701857777388994800,6.708994873046875,-0.5814558863639832,-9.69511890411377,2.220240354537964
1701857777398587100,6.718587158203125,-0.6056832075119019,-9.675976753234863,2.2393829822540283
1701857777408180500,6.728180419921875,-0.5958128571510315,-9.647262573242188,2.2633111476898193
1701857777417774600,6.737774658203125,-0.6200401782989502,-9.592227935791016,2.2633111476898193
1701857777427367700,6.74736767578125,-0.643968403339386,-9.599406242370605,2.2704896926879883
1701857777436960300,6.756960205078125,-0.643968403339386,-9.599406242370605,2.251347064971924
1701857777446553600,6.7665537109375,-0.6248258352279663,-9.5802640914917,2.2657039165496826
1701857777456147700,6.776147705078125,-0.5599204897880554,-9.565906524658203,2.2728824615478516
1701857777465740800,6.78574072265625,-0.5575276613235474,-9.544371604919434,2.3135604858398438
1701857777475333400,6.79533349609375,-0.5862415432929993,-9.546764373779297,2.3255245685577393
1701857777484926500,6.804926513671875,-0.610468864440918,-9.597013473510742,2.3446671962738037
1701857777494520600,6.8145205078125,-0.7037889361381531,-9.37896728515625,2.253739833831787
1701857777504114000,6.824114013671875,-0.643968403339386,-9.90568733215332,2.433201551437378
1701857777513706200,6.833706298828125,-0.6415755748748779,-9.946365356445312,2.5408785343170166
1701857777523299600,6.843299560546875,-0.6655037999153137,-9.829116821289062,2.4786651134490967
1701857777532893700,6.852893798828125,-0.6822535395622253,-9.771689414978027,2.4140589237213135
1701857777542486800,6.86248681640625,-0.6056832075119019,-9.783653259277344,2.4140589237213135
1701857777552079400,6.872079345703125,-0.5335994362831116,-9.778867721557617,2.4164516925811768
1701857777561672400,6.88167236328125,-0.5072783827781677,-9.762118339538574,2.3805594444274902
1701857777571266600,6.8912666015625,-0.5670989751815796,-9.759725570678711,2.378166675567627
1701857777580860000,6.90085986328125,-0.6248258352279663,-9.673583984375,2.315953254699707
1701857777590452500,6.910452392578125,-0.6080760359764099,-9.953543663024902,2.4068803787231445
1701857777600045600,6.920045654296875,-0.6487540602684021,-9.910472869873047,2.385344982147217
1701857777609639700,6.9296396484375,-0.6607181429862976,-9.88415241241455,2.347059965133667
1701857777619232800,6.939232666015625,-0.6607181429862976,-9.881759643554688,2.3135604858398438
1701857777628825300,6.948825439453125,-0.6152545213699341,-9.860223770141602,2.3111674785614014
1701857777638418700,6.958418701171875,-0.5958128571510315,-9.81954574584961,2.292025089263916
1701857777648012800,6.9680126953125,-0.6080760359764099,-9.79083251953125,2.284846544265747
1701857777657606000,6.97760595703125,-0.6272186636924744,-9.776474952697754,2.2585253715515137
1701857777667198500,6.987198486328125,-0.6152545213699341,-9.769296646118164,2.2704896926879883
1701857777676791600,6.99679150390625,-0.6511468887329102,-9.783653259277344,2.2800607681274414
1701857777686385700,7.0063857421875,-0.643968403339386,-9.783653259277344,2.268096685409546
1701857777695979000,7.01597900390625,-0.6511468887329102,-9.628120422363281,2.2250258922576904
1701857777705571300,7.0255712890625,-0.6391827464103699,-9.838688850402832,2.2322044372558594
1701857777715164700,7.03516455078125,-0.6320042610168457,-9.802796363830566,2.2896320819854736
1701857777724758800,7.0447587890625,-0.6367899179458618,-9.78843879699707,2.2872393131256104
1701857777734352000,7.054351806640625,-0.6296114325523376,-9.831509590148926,2.3590240478515625
1701857777743944400,7.0639443359375,-0.6343970894813538,-9.735796928405762,2.330310106277466
1701857777753537800,7.073537841796875,-0.612861692905426,-9.711869239807129,2.3135604858398438
1701857777763132000,7.0831318359375,-0.5718846321105957,-9.764511108398438,2.3662025928497314
1701857777772725000,7.09272509765625,-0.5407779216766357,-9.814760208129883,2.3805594444274902
1701857777782317600,7.102317626953125,-0.550349235534668,-9.81954574584961,2.370988130569458
1701857777791910700,7.11191064453125,-0.5144568681716919,-9.836296081542969,2.3685953617095947
1701857777801504800,7.1215048828125,-0.5216353535652161,-9.821938514709473,2.3590240478515625
1701857777811097900,7.131097900390625,-0.5335994362831116,-9.807581901550293,2.361416816711426
1701857777820690400,7.1406904296875,-0.48574298620224,-9.79083251953125,2.3446671962738037
1701857777830283800,7.15028369140625,-0.4953143000602722,-9.740582466125488,2.3446671962738037
1701857777839878000,7.1598779296875,-0.5288137793540955,-9.714262008666992,2.308774709701538
1701857777849471000,7.169470947265625,-0.49292147159576416,-9.714262008666992,2.277667999267578
1701857777859063600,7.1790634765625,-0.48095735907554626,-9.70229721069336,2.2345972061157227
1701857777868656600,7.18865673828125,-0.5048855543136597,-9.69511890411377,2.251347064971924
1701857777878250800,7.198250732421875,-0.5383850932121277,-9.654440879821777,2.253739833831787
1701857777887844000,7.207843994140625,-0.5670989751815796,-9.640084266662598,2.253739833831787
1701857777897436400,7.2174365234375,-0.5742774605751038,-9.647262573242188,2.284846544265747
1701857777907029800,7.22702978515625,-0.5790630578994751,-9.632905960083008,2.301596164703369
1701857777916624000,7.236623779296875,-0.5599204897880554,-9.608977317810059,2.330310106277466
1701857777926217000,7.246217041015625,-0.5670989751815796,-9.589835166931152,2.3590240478515625
1701857777935809500,7.2558095703125,-0.5455635786056519,-9.5802640914917,2.378166675567627
1701857777945403000,7.26540283203125,-0.5048855543136597,-9.585049629211426,2.3901307582855225
1701857777954997000,7.2749970703125,-0.48095735907554626,-9.608977317810059,2.409273386001587
1701857777964590000,7.284590087890625,-0.44027936458587646,-9.508479118347168,2.3494527339935303
1701857777974182700,7.2941826171875,-0.48095735907554626,-9.7669038772583,2.5025932788848877
1701857777983775700,7.303775634765625,-0.4570291340351105,-9.699904441833496,2.495414972305298
1701857777993369900,7.313369873046875,-0.45942193269729614,-9.690333366394043,2.4475584030151367
1701857778002963200,7.322963134765625,-0.5144568681716919,-9.709476470947266,2.4762723445892334
1701857778012555500,7.332555419921875,-0.5862415432929993,-9.659226417541504,2.490629196166992
1701857778022148900,7.34214892578125,-0.6248258352279663,-9.611370086669922,2.471486806869507
1701857778031743000,7.351742919921875,-0.6415755748748779,-9.604191780090332,2.488236427307129
1701857778041336000,7.361336181640625,-0.6894320249557495,-9.640084266662598,2.5002005100250244
1701857778050928600,7.3709287109375,-0.7133602499961853,-9.642477035522461,2.5408785343170166
1701857778060522000,7.38052197265625,-0.6726822853088379,-9.69511890411377,2.56719970703125
1701857778070115800,7.39011572265625,-0.6798607110977173,-9.714262008666992,2.6054847240448
1701857778079709200,7.399709228515625,-0.6415755748748779,-9.745368003845215,2.638984203338623
1701857778089301500,7.409301513671875,-0.5934200286865234,-9.79801082611084,2.684448003768921
1701857778098894800,7.418894775390625,-0.5335994362831116,-9.829116821289062,2.7275187969207764
1701857778108489000,7.428489013671875,-0.4785645306110382,-9.814760208129883,2.7610182762145996
1701857778118082300,7.438082275390625,-0.44027936458587646,-9.802796363830566,2.778067111968994
1701857778127674600,7.447674560546875,-0.3517449200153351,-9.771689414978027,2.7681965827941895
1701857778137268000,7.45726806640625,-0.31345975399017334,-9.728618621826172,2.7466611862182617
1701857778146862000,7.466862060546875,-0.26081767678260803,-9.553942680358887,2.631805896759033
1701857778156455200,7.476455078125,-0.20099709928035736,-9.635298728942871,2.560021162033081
1701857778166047700,7.4860478515625,-0.22492532432079315,-9.723833084106445,2.686840772628784
1701857778175640800,7.495640869140625,-0.2991028428077698,-9.678369522094727,2.4786651134490967
1701857778185235000,7.50523486328125,-0.363709032535553,-9.714262008666992,2.251347064971924
1701857778194828300,7.514828369140625,-0.41874396800994873,-9.809974670410156,2.121835470199585
1701857778204420900,7.5244208984375,-0.5072783827781677,-9.860223770141602,2.042872428894043
1701857778214014000,7.534013916015625,-0.519242525100708,-9.903294563293457,1.9519450664520264
1701857778223608000,7.543608154296875,-0.5718846321105957,-9.900901794433594,1.908874273300171
1701857778233201200,7.553201171875,-0.6248258352279663,-9.867402076721191,1.9639091491699219
1701857778242793700,7.562793701171875,-0.5982056856155396,-9.800403594970703,1.968694806098938
1701857778252387000,7.572386962890625,-0.6032904386520386,-9.731011390686035,2.0093727111816406
1701857778261981200,7.581981201171875,-0.5958128571510315,-9.68794059753418,2.0404794216156006
1701857778271574300,7.59157421875,-0.5216353535652161,-9.640084266662598,2.0811574459075928
1701857778281166800,7.601166748046875,-0.4905286431312561,-9.628120422363281,2.1361923217773438
1701857778290760200,7.61076025390625,-0.4737788736820221,-9.592227935791016,2.1649062633514404
1701857778300354000,7.62035400390625,-0.39960137009620667,-9.56351375579834,2.191227436065674
1701857778309947400,7.629947509765625,-0.4019941985607147,-9.573084831237793,2.2872393131256104
1701857778319540000,7.6395400390625,-0.41156548261642456,-9.527621269226074,2.2872393131256104
1701857778329133000,7.649133056640625,-0.275174617767334,-9.46301555633545,2.1960129737854004
1701857778338727200,7.65872705078125,-0.27756741642951965,-9.544371604919434,2.4595224857330322
1701857778348320300,7.6683203125,-0.3565305769443512,-9.515657424926758,2.433201551437378
1701857778357912800,7.677912841796875,-0.3278166949748993,-9.64965534210205,2.4858436584472656
1701857778367506200,7.687506103515625,-0.35413774847984314,-9.608977317810059,2.4308087825775146
1701857778377100300,7.697100341796875,-0.33499518036842346,-9.597013473510742,2.387737989425659
1701857778386693400,7.706693359375,-0.3326023519039154,-9.620942115783691,2.363809585571289
1701857778396286000,7.716285888671875,-0.349352091550827,-9.652048110961914,2.332702875137329
1701857778405879300,7.72587939453125,-0.39960137009620667,-9.707083702087402,2.332702875137329
1701857778415473200,7.73547314453125,-0.4498506486415863,-9.769296646118164,2.3183460235595703
1701857778425066500,7.74506640625,-0.4833501875400543,-9.831509590148926,2.2968106269836426
1701857778434659000,7.7546591796875,-0.5144568681716919,-9.893723487854004,2.2585253715515137
1701857778444252200,7.764252197265625,-0.4953143000602722,-9.93679428100586,2.2178475856781006
1701857778453846300,7.77384619140625,-0.4977070987224579,-9.939187049865723,2.1672990322113037
1701857778463439600,7.783439697265625,-0.4426721930503845,-9.920044898986816,2.1098713874816895
1701857778473032000,7.793031982421875,-0.42831525206565857,-9.89133071899414,2.0883359909057617
1701857778482625300,7.802625244140625,-0.3900300860404968,-9.869794845581055,2.050050735473633
1701857778492219400,7.812219482421875,-0.3732803463935852,-9.857831001281738,2.011765718460083
1701857778501812500,7.8218125,-0.33020952343940735,-9.845867156982422,1.9806588888168335
1701857778511405000,7.831405029296875,-0.30628129839897156,-9.843474388122559,1.9016958475112915
1701857778520998400,7.840998291015625,-0.31106695532798767,-9.88415241241455,1.8705891370773315
1701857778530592500,7.850592529296875,-0.2919243574142456,-9.920044898986816,1.8394824266433716
1701857778540185600,7.860185546875,-0.2847459018230438,-9.92243766784668,1.8059829473495483
1701857778549778200,7.869778076171875,-0.34695929288864136,-9.89850902557373,1.7174484729766846
1701857778559371300,7.879371337890625,-0.39481574296951294,-9.81954574584961,1.6142579317092896
1701857778568965400,7.88896533203125,-0.45942193269729614,-9.927223205566406,1.8083757162094116
1701857778578558700,7.898558837890625,-0.4211367964744568,-9.934401512145996,1.7868403196334839
1701857778588151000,7.908151123046875,-0.43549370765686035,-9.903294563293457,1.7964116334915161
1701857778597744400,7.917744384765625,-0.44745782017707825,-9.881759643554688,1.8586249351501465
1701857778607338500,7.92733837890625,-0.4019941985607147,-9.876974105834961,1.9567307233810425
1701857778616931600,7.936931640625,-0.3732803463935852,-9.831509590148926,2.0069799423217773
1701857778626524200,7.946524169921875,-0.3278166949748993,-9.809974670410156,2.107478618621826
1701857778636117500,7.956117431640625,-0.22971096634864807,-9.807581901550293,2.1960129737854004
1701857778645711600,7.965711669921875,-0.17228323221206665,-9.786046028137207,2.2657039165496826
1701857778655304700,7.9753046875,-0.10049854964017868,-9.704689979553223,2.3279173374176025
1701857778664897300,7.984897216796875,-0.04307080805301666,-9.644869804382324,2.3255245685577393
1701857778674490600,7.99449072265625,-0.03320041298866272,-9.537193298339844,2.315953254699707
1701857778684084500,8.00408447265625,-0.0526420995593071,-9.496515274047852,2.315953254699707
1701857778693677800,8.013677734375,-0.05024927482008934,-9.479764938354492,2.275275230407715
1701857778703270400,8.0232705078125,-0.0526420995593071,-9.513264656066895,2.229811668395996
1701857778712863500,8.032863525390624,-0.040677983313798904,-9.573084831237793,2.207977056503296
1701857778722457600,8.04245751953125,-0.03798605874180794,-9.620942115783691,2.191227436065674
1701857778732051000,8.052051025390625,-0.11006984114646912,-9.699904441833496,2.2055842876434326
1701857778741643300,8.061643310546875,-0.1459621787071228,-9.731011390686035,2.222633123397827
1701857778751236600,8.071236572265626,-0.07657032459974289,-9.731011390686035,2.220240354537964
1701857778760830700,8.080830810546875,-0.040677983313798904,-9.707083702087402,2.2393829822540283
1701857778770423800,8.090423828125,-0.08135596662759781,-9.70229721069336,2.2417757511138916
1701857778780016400,8.100016357421875,-0.15314064919948578,-9.68794059753418,2.2055842876434326
1701857778789609700,8.109609619140626,-0.22013968229293823,-9.692726135253906,2.1481566429138184
1701857778799203800,8.119203857421875,-0.22492532432079315,-9.685547828674316,2.0811574459075928
1701857778808797000,8.128796875,-0.21774685382843018,-9.699904441833496,2.0309081077575684
1701857778818389500,8.138389404296875,-0.22013968229293823,-9.721440315246582,1.9782661199569702
1701857778827982600,8.147982666015626,-0.18903298676013947,-9.750154495239258,1.968694806098938
1701857778837576700,8.15757666015625,-0.18903298676013947,-9.817152976989746,2.0069799423217773
1701857778847170000,8.167170166015625,-0.2153540402650833,-9.876974105834961,2.0213370323181152
1701857778856762400,8.176762451171875,-0.24646073579788208,-9.910472869873047,2.0620148181915283
1701857778866355700,8.186355712890625,-0.21774685382843018,-9.91286563873291,2.076371908187866
1701857778875949800,8.19594970703125,-0.21296121180057526,-9.91286563873291,2.1242282390594482
1701857778885543000,8.20554296875,-0.2679961323738098,-9.908080101013184,2.1888344287872314
1701857778895135500,8.215135498046875,-0.22971096634864807,-9.896116256713867,2.251347064971924
1701857778904728800,8.224728759765625,-0.1746760457754135,-9.865009307861328,2.315953254699707
1701857778914323000,8.234322998046874,-0.15553347766399384,-9.841081619262695,2.3925235271453857
1701857778923916000,8.243916015625,-0.1818545162677765,-9.814760208129883,2.4547369480133057
1701857778933508600,8.253508544921875,-0.24167509377002716,-9.809974670410156,2.495414972305298
1701857778943102000,8.26310205078125,-0.27756741642951965,-9.800403594970703,2.50498628616333
1701857778952696000,8.272696044921876,-0.24885354936122894,-9.80518913269043,2.5097718238830566
1701857778962289200,8.2822890625,-0.23210379481315613,-9.800403594970703,2.48105788230896
1701857778971881700,8.2918818359375,-0.21774685382843018,-9.754940032958984,2.464308261871338
1701857778981475000,8.30147509765625,-0.16271193325519562,-9.726225852966309,2.4284157752990723
1701857778991069000,8.31106884765625,-0.16749759018421173,-9.664012908935547,2.409273386001587
1701857779000662300,8.320662353515624,-0.17706887423992157,-9.599406242370605,2.356631278991699
1701857779010254600,8.330254638671875,-0.16031911969184875,-9.56351375579834,2.308774709701538
1701857779019848000,8.339847900390625,-0.15314064919948578,-9.57069206237793,2.260918378829956
1701857779029442000,8.349442138671876,-0.2153540402650833,-9.594620704650879,2.2561326026916504
1701857779039035400,8.359035400390624,-0.18903298676013947,-9.640084266662598,2.2274186611175537
1701857779048627700,8.368627685546874,-0.14117653667926788,-9.690333366394043,2.1984057426452637
1701857779058221000,8.378220947265625,-0.09571290761232376,-9.719047546386719,2.229811668395996
1701857779067815200,8.387815185546875,-0.09092725813388824,-9.740582466125488,2.2657039165496826
1701857779077408300,8.397408203125,-0.13878370821475983,-9.750154495239258,2.284846544265747
1701857779087000800,8.407000732421874,-0.1339980661869049,-9.762118339538574,2.2800607681274414
1701857779096594200,8.41659423828125,-0.13878370821475983,-9.80518913269043,2.260918378829956
1701857779106188300,8.426188232421875,-0.1459621787071228,-9.857831001281738,2.210369825363159
1701857779115781400,8.435781494140626,-0.10049854964017868,-9.934401512145996,2.1337995529174805
1701857779125374000,8.4453740234375,-0.062213387340307236,-10.016056060791016,2.129014015197754
1701857779134967300,8.45496728515625,-0.040677983313798904,-10.066306114196777,2.155334949493408
1701857779144561200,8.46456103515625,-0.08374879509210587,-10.08305549621582,2.191227436065674
1701857779154154500,8.474154541015626,-0.14835500717163086,-10.049555778503418,2.1744775772094727
1701857779163746800,8.483746826171876,-0.19381862878799438,-9.984950065612793,2.1433708667755127
1701857779173340200,8.493340087890624,-0.11485548317432404,-9.920044898986816,2.073979139328003
1701857779182934300,8.502934326171875,0.007477570790797472,-9.857831001281738,1.999801516532898
1701857779192527600,8.512527587890625,0.024227328598499298,-9.769296646118164,1.9351953268051147
1701857779202120000,8.522119873046876,0.0026919255033135414,-9.668798446655273,1.8634105920791626
1701857779211713300,8.53171337890625,0.01704886183142662,-9.585049629211426,1.7916259765625
1701857779221307400,8.541307373046875,0.04576273262500763,-9.546764373779297,1.76051926612854
1701857779230900500,8.550900390625,0.057726845145225525,-9.518050193786621,1.7724833488464355
1701857779240493000,8.5604931640625,0.014656038954854012,-9.54915714263916,1.815554141998291
1701857779250086400,8.57008642578125,-0.08374879509210587,-9.5802640914917,1.8370895385742188
1701857779259680300,8.57968017578125,-0.13878370821475983,-9.608977317810059,1.8729819059371948
1701857779269273600,8.589273681640625,-0.15553347766399384,-9.587442398071289,1.8251254558563232
1701857779278866200,8.5988662109375,-0.09810572862625122,-9.551549911499023,1.755733609199524
1701857779288459500,8.60845947265625,-0.07657032459974289,-9.522835731506348,1.6863417625427246
1701857779298053400,8.618053466796875,-0.08853443711996078,-9.503693580627441,1.6528422832489014
1701857779307646700,8.627646728515625,-0.1052841991186142,-9.515657424926758,1.6504493951797485
1701857779317239300,8.6372392578125,-0.064606212079525,-9.539586067199707,1.6118651628494263
1701857779326832400,8.646832275390626,-0.026021946221590042,-9.54197883605957,1.5855441093444824
1701857779336426500,8.656426513671875,-0.040677983313798904,-9.530014038085938,1.628614902496338
1701857779346019800,8.666019775390625,-0.0933200865983963,-9.518050193786621,1.6959130764007568
1701857779355612200,8.675612060546875,-0.12442677468061447,-9.56351375579834,1.7629120349884033
1701857779365205500,8.68520556640625,-0.14835500717163086,-9.620942115783691,1.846660852432251
1701857779374799600,8.694799560546874,-0.2273181527853012,-9.68794059753418,1.8921245336532593
1701857779384392700,8.704392822265625,-0.31106695532798767,-9.721440315246582,1.8921245336532593
1701857779393985300,8.7139853515625,-0.3326023519039154,-9.735796928405762,1.8610178232192993
1701857779403578600,8.72357861328125,-0.30628129839897156,-9.673583984375,1.7796618938446045
1701857779413172700,8.7331728515625,-0.27756741642951965,-9.608977317810059,1.7174484729766846
1701857779422765800,8.742765869140625,-0.1866401731967926,-9.479764938354492,1.7030915021896362
1701857779432358400,8.7523583984375,-0.1339980661869049,-9.343074798583984,1.7222341299057007
1701857779441951700,8.76195166015625,-0.064606212079525,-9.22582721710205,1.815554141998291
1701857779451545900,8.7715458984375,0.007477570790797472,-9.089435577392578,1.968694806098938
1701857779461139000,8.781138916015625,0.1295115202665329,-8.938688278198242,2.0620148181915283
1701857779470731500,8.7907314453125,0.07208377867937088,-8.811569213867188,2.114656925201416
1701857779480324900,8.800324951171875,0.08165507018566132,-8.7445707321167,2.1816561222076416
1701857779489918700,8.809918701171876,0.1989033818244934,-8.723034858703613,2.179263114929199
1701857779499512000,8.819511962890624,0.3616153299808502,-8.723034858703613,2.0333011150360107
1701857779509104400,8.8291044921875,0.4453641176223755,-8.684749603271484,1.8418751955032349
1701857779518697700,8.83869775390625,0.23958136141300201,-8.758927345275879,1.7772690057754517
1701857779528291800,8.848291748046876,0.20368902385234833,-8.969795227050781,1.8059829473495483
1701857779537885200,8.85788525390625,0.2994019389152527,-9.242576599121094,1.9112670421600342
1701857779547477500,8.8674775390625,0.47168517112731934,-9.436694145202637,1.968694806098938
1701857779557070800,8.87707080078125,0.8045865893363953,-9.453444480895996,1.9519450664520264
1701857779566665000,8.8866650390625,0.7830511927604675,-9.300004005432129,1.8083757162094116
1701857779576258000,8.896258056640624,0.7136593461036682,-9.13011360168457,1.705484390258789
1701857779585850600,8.9058505859375,0.8715856671333313,-9.14686393737793,1.5687943696975708
1701857779595444000,8.91544384765625,1.355234980583191,-9.00568675994873,1.4395818710327148
1701857779605038000,8.9250380859375,1.867598056793213,-8.871688842773438,1.2768700122833252
1701857779614631200,8.934631103515626,2.265105724334717,-8.89801025390625,0.8817551732063293
1701857779624223700,8.9442236328125,2.4684956073760986,-8.972187995910645,0.24257239699363708
1701857779633817000,8.953817138671875,2.2459630966186523,-9.518050193786621,0.16121642291545868
1701857779643411000,8.963410888671875,2.971287488937378,-10.047163009643555,-0.28175488114356995
1701857779653004300,8.97300439453125,2.9377880096435547,-9.946365356445312,-1.033400297164917
1701857779662596600,8.9825966796875,2.1858434677124023,-9.551549911499023,-1.5002998113632202
1701857779672190000,8.99218994140625,1.568196177482605,-8.917152404785156,-3.2144582271575928
1701857779681784000,9.0017841796875,1.1422736644744873,-9.072686195373535,-3.875176191329956
1701857779691377400,9.01137744140625,-0.021236300468444824,-8.644071578979492,-3.899104595184326
1701857779700969700,9.0209697265625,-0.921535849571228,-9.88415241241455,-2.934497833251953
1701857779710563000,9.03056298828125,2.652743101119995,-9.448657989501953,-2.479562520980835
1701857779720157200,9.0401572265625,4.903192520141602,-7.389634609222412,-1.7542381286621094
1701857779729750300,9.049750244140625,4.311866283416748,-6.848557472229004,0.3406781256198883
1701857779739342800,9.0593427734375,2.049452543258667,-2.5271198749542236,1.4970096349716187
1701857779748936200,9.068936279296874,1.4270195960998535,4.674378871917725,4.2693939208984375
1701857779758530300,9.0785302734375,-1.09381902217865,4.372584342956543,10.182955741882324
1701857779768123400,9.088123291015625,-5.803193092346191,-0.3556332588195801,12.679865837097168
1701857779777716000,9.097716064453126,-7.091129779815674,-1.5574284791946411,12.222537994384766
1701857779787309300,9.107309326171874,-4.735395908355713,-1.5335001945495605,10.276275634765625
1701857779796903400,9.1169033203125,-1.7356936931610107,-0.45643091201782227,6.91974401473999
1701857779806496500,9.12649658203125,1.7216359376907349,-1.1003992557525635,5.643771171569824
1701857779816089000,9.136089111328126,2.791825771331787,-3.961317777633667,4.853541851043701
1701857779825682400,9.145682373046874,2.135594129562378,-8.174779891967773,3.3068809509277344
1701857779835276300,9.1552763671875,2.4661028385162354,-13.243077278137207,4.1521453857421875
1701857779844869600,9.16486962890625,3.433401346206665,-16.58525276184082,4.046861171722412
1701857779854462200,9.174462158203125,5.748457431793213,-17.863916397094727,4.448855400085449
1701857779864055600,9.1840556640625,4.120440483093262,-18.232410430908203,4.9277191162109375
1701857779873649400,9.1936494140625,3.677469253540039,-14.332409858703613,2.940778970718384
1701857779883242800,9.20324267578125,2.0997018814086914,-8.172386169433594,1.516152262687683
1701857779892835000,9.2128349609375,-2.044367790222168,-4.150351047515869,0.9224331378936768
1701857779902428400,9.222428466796876,-5.231009483337402,-3.6068811416625977,1.5448660850524902
1701857779912022500,9.2320224609375,-5.051248550415039,-6.3529438972473145,2.631805896759033
1701857779921616000,9.241615966796875,-4.23738956451416,-4.88763952255249,0.8267202377319336
1701857779931208200,9.251208251953125,-3.1432716846466064,-5.500800132751465,-0.19800607860088348
1701857779940801500,9.260801513671876,-1.800299882888794,-11.797213554382324,-0.04247260093688965
1701857779950395600,9.270395751953124,0.3400799036026001,-18.368803024291992,-1.3567304611206055
1701857779959988700,9.27998876953125,-2.4873390197753906,-9.750154495239258,-2.5489542484283447
1701857779969581300,9.289581298828125,-2.8079774379730225,-5.840580940246582,-2.6327030658721924
1701857779979174700,9.299174560546875,-2.8007988929748535,-8.90518856048584,-0.372682124376297
1701857779988768800,9.308768798828124,-1.7668004035949707,-12.536894798278809,2.9934210777282715
1701857779998361900,9.31836181640625,-0.9119645357131958,-16.099210739135742,6.0385870933532715
1701857780007954400,9.327954345703125,-1.649253010749817,-18.316160202026367,7.561319351196289
1701857780017547800,9.3375478515625,-2.1185452938079834,-19.240386962890625,6.560521602630615
1701857780027141600,9.3471416015625,-0.9358927607536316,-14.023735046386719,7.611568927764893
1701857780036735000,9.35673486328125,-2.003689765930176,-16.65703582763672,7.767102241516113
1701857780046327300,9.366327392578125,-1.6612170934677124,-16.094423294067383,5.880660533905029
1701857780055920600,9.375920654296875,-0.7229315638542175,-16.180864334106445,5.050052165985107
1701857780065514800,9.3855146484375,-0.0933200865983963,-16.61396598815918,5.011467933654785
1701857780075108000,9.395108154296874,0.48364928364753723,-16.611572265625,4.578367233276367
1701857780084700400,9.404700439453125,0.2706880569458008,-16.08724594116211,3.9080774784088135
1701857780094293800,9.414293701171875,0.24436701834201813,-15.538990020751953,3.4220354557037354
1701857780103888000,9.423887939453126,0.23718854784965515,-14.631811141967773,3.6493537425994873
1701857780113481000,9.43348095703125,0.5341976284980774,-13.652548789978027,3.4770703315734863
1701857780123073500,9.443073486328124,-0.28235307335853577,-12.991830825805664,2.7299115657806396
1701857780132667000,9.4526669921875,-0.8712865710258484,-12.256935119628906,1.6262221336364746
1701857780142261000,9.462260986328126,-1.5152549743652344,-12.292827606201172,0.8075776696205139
1701857780151854000,9.47185400390625,0.21804596483707428,-10.489835739135742,-0.3200400173664093
1701857780161446700,9.48144677734375,-0.9669994711875916,-10.372587203979492,-0.667298436164856
1701857780171040000,9.4910400390625,-2.051546335220337,-10.31755256652832,-0.6792625188827515
1701857780180633900,9.5006337890625,-3.384946823120117,-9.802796363830566,-0.9759725332260132
1701857780190227200,9.510227294921876,-3.768097400665283,-9.407681465148926,-1.222732424736023
1701857780199819800,9.51981982421875,-4.373780727386475,-8.965008735656738,-0.8252246975898743
1701857780209412900,9.529412841796875,-4.893322467803955,-8.500502586364746,-0.1788634955883026
1701857780219007000,9.539007080078125,-4.476672172546387,-8.545966148376465,0.3837489187717438
1701857780228600300,9.548600341796876,-3.219841957092285,-8.737391471862793,0.7238288521766663
1701857780238192600,9.558192626953126,-3.4331023693084717,-8.335397720336914,0.6975077986717224
1701857780247786000,9.567785888671875,-4.419244289398193,-7.990531921386719,0.5443671345710754
1701857780257380000,9.577380126953125,-6.3514485359191895,-7.9259257316589355,0.778863787651062
1701857780266973400,9.586973388671876,-7.325626373291016,-8.38564682006836,1.3725829124450684
1701857780276565800,9.596565673828126,-9.497113227844238,-8.205885887145996,0.9320043921470642
1701857780286159000,9.6061591796875,-8.448458671569824,-8.37129020690918,2.622234582901001
1701857780295753200,9.615753173828125,-9.56889820098877,-8.651249885559082,1.4467604160308838
1701857780305346300,9.62534619140625,-9.382257461547852,-7.1958160400390625,0.2234298139810562
1701857780314939000,9.63493896484375,-9.492327690124512,-5.732903957366943,-1.3112667798995972
1701857780324532200,9.6445322265625,-9.415757179260254,-4.097708702087402,-3.8153557777404785
1701857780334126300,9.654126220703125,-9.114261627197266,-3.1064820289611816,-5.149055004119873
1701857780343719400,9.663719482421875,-8.292924880981445,-3.3317065238952637,-5.062614440917969
1701857780353312000,9.67331201171875,-8.592327117919922,-3.0275187492370605,-5.555835247039795
1701857780362905300,9.6829052734375,-9.257830619812012,-3.132802963256836,-5.27108907699585
1701857780372499200,9.692499267578125,-9.696016311645508,-4.016352653503418,-4.682155609130859
1701857780382092500,9.702092529296875,-9.477970123291016,-4.466502666473389,-4.5338006019592285
1701857780391685000,9.71168505859375,-9.312865257263184,-4.476073741912842,-4.603192329406738
1701857780401278200,9.7212783203125,-9.358329772949219,-4.37318229675293,-4.995615482330322
1701857780410872300,9.730872314453125,-9.363115310668945,-4.061816215515137,-5.220839977264404
1701857780420465700,9.740465576171875,-9.485149383544922,-3.5566318035125732,-5.057828903198242
1701857780430058000,9.75005810546875,-9.104690551757812,-2.819343328475952,-4.96211576461792
1701857780439651300,9.7596513671875,-8.711968421936035,-2.0985054969787598,-4.911866664886475
1701857780449245400,9.769245361328124,-8.38145923614502,-1.576870083808899,-4.615156650543213
1701857780458838500,9.778838623046875,-8.094321250915527,-1.217647671699524,-4.215256214141846
1701857780468431000,9.78843115234375,-7.52931547164917,-0.9708877801895142,-3.8775691986083984
1701857780478024400,9.7980244140625,-6.892525672912598,-0.6095715761184692,-3.8488552570343018
1701857780487618600,9.80761865234375,-6.504589080810547,-0.025423740968108177,-4.22722053527832
1701857780497211600,9.817211669921875,-6.648158550262451,0.7767700552940369,-4.66779899597168
1701857780506804200,9.82680419921875,-7.0097737312316895,1.8756738901138306,-5.5366926193237305
1701857780516397600,9.8363974609375,-7.261020183563232,3.0942187309265137,-6.547061920166016
1701857780525991400,9.845991455078124,-7.5173516273498535,4.324728012084961,-7.430611610412598
1701857780535584800,9.855584716796875,-8.467900276184082,5.375775337219238,-8.335397720336914
1701857780545177300,9.86517724609375,-9.880263328552246,6.376573085784912,-9.297910690307617
1701857780554770400,9.8747705078125,-11.491530418395996,7.18086051940918,-10.212567329406738
1701857780564364500,9.884364501953126,-13.031013488769531,6.713961124420166,-10.118947982788086
1701857780573958000,9.8939580078125,-12.015857696533203,6.716353893280029,-9.4390869140625
1701857780583550200,9.90355029296875,-11.165807723999023,6.139384746551514,-8.132007598876953
1701857780593143600,9.9131435546875,-10.90738296508789,4.920839786529541,-6.8273210525512695
1701857780602737700,9.922737548828126,-10.29452133178711,3.7118661403656006,-5.539085388183594
1701857780612330800,9.932330810546874,-9.42054271697998,2.8905298709869385,-3.9687955379486084
1701857780621923300,9.94192333984375,-8.297710418701172,2.6153552532196045,-2.7427730560302734
1701857780631516700,9.9515166015625,-8.5731840133667,2.5698914527893066,-2.431705951690674
1701857780641110800,9.96111083984375,-8.048856735229492,3.1612179279327393,-2.0365912914276123
1701857780650704000,9.970703857421874,-7.845168113708496,3.1468608379364014,-1.8595223426818848
1701857780660296400,9.98029638671875,-7.835597038269043,2.110170364379883,-1.8188443183898926
1701857780669889500,9.9898896484375,-7.560422420501709,0.9562317728996277,-1.4428720474243164
1701857780679483600,9.999483642578125,-7.658527851104736,-0.29820552468299866,-1.1003992557525635
1701857780689077000,10.009076904296874,-7.46710205078125,-0.7579265832901001,-1.1362916231155396
1701857780698669600,10.018669677734374,-7.469494819641113,-1.430608868598938,-1.4715858697891235
1701857780708262700,10.0282626953125,-7.2059855461120605,-1.7778671979904175,-1.7156537771224976
1701857780717856800,10.037856689453125,-7.172485828399658,-1.8807586431503296,-1.8116658926010132
1701857780727450000,10.0474501953125,-7.272984504699707,-1.485643744468689,-1.9959131479263306
1701857780737042400,10.05704248046875,-7.354639530181885,-0.6191428303718567,-2.2256240844726562
1701857780746635800,10.0666357421875,-7.296912670135498,0.14715859293937683,-2.4269204139709473
1701857780756230000,10.07622998046875,-7.830811023712158,0.39840495586395264,-2.2734806537628174
1701857780765823000,10.085822998046876,-8.094321250915527,-0.26949164271354675,-1.837986946105957
1701857780775415600,10.09541552734375,-8.364709854125977,-0.8297112584114075,-1.5744773149490356
1701857780785009000,10.1050087890625,-8.92492961883545,-1.0812567472457886,-1.423729419708252
1701857780794603000,10.11460302734375,-9.238688468933105,-1.368395447731018,-1.3950155973434448
1701857780804196000,10.124196044921876,-9.691230773925781,-1.679761528968811,-1.5720844268798828
1701857780813788700,10.13378857421875,-10.15573787689209,-1.5649060010910034,-1.7132610082626343
1701857780823382000,10.143382080078124,-10.818848609924316,-1.2439687252044678,-1.6821542978286743
1701857780832976000,10.152975830078125,-11.223235130310059,-1.038185954093933,-1.7231314182281494
1701857780842569200,10.1625693359375,-11.003095626831055,0.5108676552772522,-1.952842354774475
1701857780852161800,10.172161865234376,-10.9002046585083,1.1285150051116943,-1.8475581407546997
1701857780861755000,10.1817548828125,-10.579267501831055,1.2266206741333008,-1.7207385301589966
1701857780871349000,10.191348876953125,-10.495518684387207,0.7241279482841492,-1.674975872039795
1701857780880942000,10.200942138671875,-10.452447891235352,0.7600203156471252,-1.9576280117034912
1701857780890534700,10.21053466796875,-11.067702293395996,0.05353940650820732,-2.1634106636047363
1701857780900128000,10.2201279296875,-11.03180980682373,-0.10438688844442368,-2.072483539581299
1701857780909722000,10.22972216796875,-11.48674488067627,-0.1666002720594406,-2.400599241256714
1701857780919315200,10.239315185546875,-11.048559188842773,0.6065805554389954,-2.692523717880249
1701857780928907800,10.24890771484375,-10.665409088134766,0.9418748021125793,-2.9679973125457764
1701857780938501000,10.258501220703126,-10.081260681152344,1.1165509223937988,-3.082852840423584
1701857780948095200,10.26809521484375,-9.851550102233887,1.0304092168807983,-2.9057838916778564
1701857780957688300,10.277688232421875,-9.44447135925293,1.277169108390808,-2.816950559616089
1701857780967281000,10.287281005859375,-9.806086540222168,0.656829833984375,-2.496312141418457
1701857780976874200,10.296874267578126,-9.626625061035156,0.35533416271209717,-2.347957134246826
1701857780986468000,10.306468017578124,-9.205188751220703,0.36251261830329895,-2.5561327934265137
1701857780996061400,10.3160615234375,-8.680861473083496,0.42711883783340454,-2.86989164352417
1701857781005653800,10.32565380859375,-8.419744491577148,0.33858439326286316,-3.1426734924316406
1701857781015247000,10.3352470703125,-8.247461318969727,-0.011066804639995098,-3.3053853511810303
1701857781024841200,10.34484130859375,-8.206783294677734,-0.5018945336341858,-3.317349433898926
1701857781034434600,10.3544345703125,-8.020143508911133,-0.6215356588363647,-3.4923245906829834
1701857781044027000,10.36402685546875,-8.091927528381348,-0.841675341129303,-3.5330026149749756
1701857781053620200,10.3736201171875,-8.022536277770996,-1.1530413627624512,-3.638286828994751
1701857781063214300,10.38321435546875,-8.056035995483398,-1.2894322872161865,-3.8632121086120605
1701857781072807400,10.392807373046875,-8.166105270385742,-1.6582261323928833,-3.686143398284912
1701857781082400000,10.40239990234375,-8.877073287963867,-2.2112672328948975,-3.8392839431762695
1701857781091993000,10.4119931640625,-9.09990406036377,-2.3524436950683594,-3.954139471054077
1701857781101587200,10.421587158203126,-8.857930183410645,-2.1200408935546875,-4.057330131530762
1701857781111180500,10.4311806640625,-8.63061237335205,-1.9286150932312012,-4.1650071144104
1701857781120772900,10.44077294921875,-8.369495391845703,-1.703689694404602,-4.04775857925415
1701857781130366200,10.4503662109375,-8.237890243530273,-1.4688940048217773,-3.9687955379486084
1701857781139960300,10.459960205078126,-8.280961036682129,-1.3923237323760986,-3.7220356464385986
1701857781149553700,10.4695537109375,-8.383852005004883,-1.2822538614273071,-3.7914273738861084
1701857781159146000,10.47914599609375,-8.475078582763672,-1.2367901802062988,-3.8943188190460205
1701857781168739300,10.4887392578125,-8.824430465698242,-1.4042878150939941,-4.0788655281066895
1701857781178333400,10.49833349609375,-9.078369140625,-1.6582261323928833,-4.086043834686279
1701857781187926500,10.507926513671874,-9.353543281555176,-1.9094724655151367,-4.17218542098999
1701857781197519000,10.51751904296875,-9.332008361816406,-1.9692929983139038,-4.3157548904418945
1701857781207112200,10.5271123046875,-9.135796546936035,-1.8305093050003052,-4.437788486480713
1701857781216706300,10.536706298828125,-8.810073852539062,-1.5502499341964722,-4.562514781951904
1701857781226299600,10.546299560546874,-8.563612937927246,-1.2224332094192505,-4.677370071411133
1701857781235892200,10.555892333984374,-8.302495956420898,-1.0812567472457886,-4.327718734741211
1701857781245485300,10.5654853515625,-8.292924880981445,-0.9302098155021667,-4.442574501037598
1701857781255079400,10.575079345703125,-8.407780647277832,-0.9397810697555542,-4.301397800445557
1701857781264672800,10.5846728515625,-8.625826835632324,-1.0549356937408447,-4.1506500244140625
1701857781274265000,10.59426513671875,-8.984749794006348,-1.2990036010742188,-3.9086756706237793
1701857781283858400,10.6038583984375,-9.107083320617676,-1.4330016374588013,-3.9421753883361816
1701857781293452500,10.61345263671875,-8.944071769714355,-1.4736796617507935,-4.107579231262207
1701857781303045600,10.623045654296876,-8.850751876831055,-1.3779667615890503,-4.2415771484375
1701857781312638200,10.63263818359375,-8.731110572814941,-1.210469126701355,-4.385146617889404
1701857781322231600,10.6422314453125,-8.666504859924316,-1.0908280611038208,-4.397110939025879
1701857781331825400,10.651825439453125,-8.714361190795898,-1.0788638591766357,-4.3085761070251465
1701857781341418800,10.661418701171876,-8.80050277709961,-1.1769696474075317,-4.191328048706055
1701857781351011300,10.67101123046875,-8.891429901123047,-1.2702897787094116,-3.997509241104126
1701857781360604400,10.6806044921875,-8.757431983947754,-1.277468204498291,-3.9326040744781494
1701857781370198500,10.690198486328125,-8.781359672546387,-1.2702897787094116,-3.9759738445281982
1701857781379791600,10.69979150390625,-8.709575653076172,-1.2583255767822266,-4.081258296966553
1701857781389384200,10.70938427734375,-8.7478609085083,-1.1937193870544434,-3.951746702194214
1701857781398977500,10.7189775390625,-8.733503341674805,-1.069292664527893,-3.9616169929504395
1701857781408571600,10.728571533203125,-8.740681648254395,-1.0142576694488525,-3.9014973640441895
1701857781418164700,10.738164794921875,-8.714361190795898,-1.002293586730957,-3.8775691986083984
1701857781427757300,10.74775732421875,-8.63779067993164,-0.9541380405426025,-3.9278182983398438
1701857781437350700,10.7573505859375,-8.592327117919922,-0.9493523836135864,-3.9711883068084717
1701857781446944500,10.766944580078125,-8.594719886779785,-0.9445667266845703,-3.9014973640441895
1701857781456537900,10.776537841796875,-8.673683166503906,-0.9804590940475464,-3.793820381164551
1701857781466130200,10.786130126953125,-8.716753959655762,-1.0501500368118286,-3.6909289360046387
1701857781475723500,10.7957236328125,-8.78375244140625,-1.088435173034668,-3.6358940601348877
1701857781485317600,10.805317626953125,-8.814859390258789,-1.0477572679519653,-3.62153697013855
1701857781494911000,10.814910888671875,-8.834002494812012,-1.0190433263778687,-3.61435866355896
1701857781504503300,10.82450341796875,-8.829216003417969,-0.9589236974716187,-3.6741790771484375
1701857781514096600,10.8340966796875,-8.860322952270508,-0.9421738982200623,-3.6885361671447754
1701857781523690800,10.843690673828124,-8.9010009765625,-0.9134600162506104,-3.700500249862671
1701857781533283800,10.853283935546875,-8.903393745422363,-0.9254241585731506,-3.655036687850952
1701857781542876400,10.86287646484375,-8.9010009765625,-0.9206385016441345,-3.62153697013855
1701857781552469500,10.872469482421875,-8.905786514282227,-0.9038887619972229,-3.6287155151367188
1701857781562063600,10.882063720703124,-8.89382266998291,-0.8991031050682068,-3.55214524269104
1701857781571657000,10.891656982421875,-8.929715156555176,-0.8321040868759155,-3.559323787689209
1701857781581249300,10.901249267578125,-8.939286231994629,-0.8057830333709717,-3.600001573562622
1701857781590842600,10.910842529296875,-8.927322387695312,-0.8488538265228271,-3.6047873497009277
1701857781600436700,10.920436767578124,-8.87946605682373,-0.8656035661697388,-3.6358940601348877
1701857781610030000,10.930030029296875,-8.855537414550781,-0.9206385016441345,-3.7052857875823975
1701857781619622400,10.939622314453125,-8.836395263671875,-0.9756734371185303,-3.7531423568725586
1701857781629215700,10.9492158203125,-8.826823234558105,-0.9517452120780945,-3.779463291168213
1701857781638809900,10.958809814453126,-8.826823234558105,-0.9493523836135864,-3.779463291168213
1701857781648403000,10.96840283203125,-8.822037696838379,-0.9254241585731506,-3.820141315460205
1701857781657995500,10.97799560546875,-8.881858825683594,-0.8679963946342468,-3.9014973640441895
1701857781667588900,10.9875888671875,-8.877073287963867,-0.8632107973098755,-3.980759620666504
1701857781677182700,10.9971826171875,-8.996713638305664,-0.786640465259552,-3.980759620666504
1701857781686776000,11.006776123046874,-9.049654960632324,-0.7244270443916321,-4.100400924682617
1701857781696368400,11.016368408203125,-9.05444049835205,-0.7100701332092285,-4.1506500244140625
1701857781705961700,11.025961669921875,-9.030512809753418,-0.6885347366333008,-4.229613304138184
1701857781715555800,11.035555908203126,-9.056833267211914,-0.722034215927124,-4.325325965881348
1701857781725149000,11.04514892578125,-9.023334503173828,-0.753140926361084,-4.459323883056641
1701857781734741500,11.054741455078124,-8.860322952270508,-0.8823533654212952,-4.519144535064697
1701857781744334800,11.0643349609375,-8.781359672546387,-1.0190433263778687,-4.567300319671631
1701857781753929000,11.073928955078125,-8.781359672546387,-1.038185954093933,-4.665405750274658
1701857781763522000,11.08352197265625,-8.618648529052734,-1.0549356937408447,-4.663012981414795
1701857781773114600,11.093114501953124,-8.530113220214844,-1.1458629369735718,-4.610371112823486
1701857781782707700,11.102707763671875,-8.525327682495117,-1.1889337301254272,-4.514358997344971
1701857781792301800,11.1123017578125,-8.530113220214844,-1.1027921438217163,-4.480859279632568
1701857781801895200,11.121895263671876,-8.522934913635254,-0.9517452120780945,-4.476073741912842
1701857781811487500,11.131487548828124,-8.487042427062988,-0.9756734371185303,-4.37318229675293
1701857781821080800,11.141080810546875,-8.518149375915527,-1.1219347715377808,-4.277469635009766
1701857781830675000,11.150675048828125,-8.640183448791504,-1.057328462600708,-4.320540428161621
1701857781840268000,11.16026806640625,-8.640183448791504,-1.0453643798828125,-4.363611221313477
1701857781849860600,11.169860595703126,-8.549256324768066,-0.999900758266449,-4.471288204193115
1701857781859454000,11.179453857421874,-8.546863555908203,-1.0429716110229492,-4.492823600769043
1701857781869047800,11.1890478515625,-8.76221752166748,-1.1051849126815796,-4.447360038757324
1701857781878641200,11.19864111328125,-8.743074417114258,-1.2583255767822266,-4.351646900177002
1701857781888233700,11.208233642578126,-8.704790115356445,-1.5263217687606812,-4.349254131317139
1701857781897826800,11.217826904296874,-8.853144645690918,-1.7132610082626343,-4.2224345207214355
1701857781907421000,11.2274208984375,-8.829216003417969,-1.9692929983139038,-4.157828330993652
1701857781917014300,11.23701416015625,-8.757431983947754,-2.208874464035034,-4.160221099853516
1701857781926606600,11.246606689453126,-8.719146728515625,-2.247159481048584,-3.937389612197876
1701857781936200000,11.256199951171874,-8.735896110534668,-2.230409860610962,-3.851248025894165
1701857781945794000,11.2657939453125,-8.606683731079102,-2.1104695796966553,-3.765106439590454
1701857781955387100,11.27538720703125,-8.448458671569824,-1.7802600860595703,-3.724428415298462
1701857781964979700,11.284979736328125,-8.292924880981445,-1.789831280708313,-3.5928232669830322
1701857781974573000,11.294572998046876,-8.316853523254395,-1.7587246894836426,-3.600001573562622
1701857781984167200,11.304167236328125,-8.158926963806152,-1.9381862878799438,-3.5066816806793213
1701857781993760300,11.31376025390625,-8.12542724609375,-2.2806591987609863,-3.559323787689209
1701857782003352800,11.323352783203125,-8.268997192382812,-2.546262502670288,-3.5377883911132812
1701857782012946000,11.33294580078125,-8.347960472106934,-2.874378204345703,-3.544966697692871
1701857782022540000,11.3425400390625,-8.484649658203125,-3.0442686080932617,-3.6646077632904053
1701857782032133000,11.352133056640625,-8.604290962219238,-3.0801608562469482,-3.544966697692871
1701857782041725700,11.3617255859375,-8.743074417114258,-3.063411235809326,-3.6095728874206543
1701857782051319000,11.371319091796876,-8.621041297912598,-2.6204400062561035,-3.8943188190460205
1701857782060913200,11.3809130859375,-8.597112655639648,-2.2663021087646484,-4.124329090118408
1701857782070506200,11.39050634765625,-8.487042427062988,-2.1323041915893555,-4.212863445281982
1701857782080098800,11.400098876953125,-8.24267578125,-2.1032910346984863,-4.1745781898498535
1701857782089692200,11.409692138671875,-8.247461318969727,-2.117648124694824,-4.042973041534424
1701857782099286000,11.4192861328125,-8.209176063537598,-2.0506489276885986,-3.9927237033843994
1701857782108879400,11.42887939453125,-8.371888160705566,-2.093719720840454,-3.9711883068084717
1701857782118471700,11.4384716796875,-8.436494827270508,-1.9932212829589844,-4.071686744689941
1701857782128065000,11.44806494140625,-8.206783294677734,-2.0673987865448,-4.119543075561523
1701857782137659100,11.4576591796875,-8.223533630371094,-2.2280170917510986,-4.088436603546143
1701857782147252500,11.46725244140625,-8.271389961242676,-2.3356940746307373,-3.9421753883361816
1701857782156844800,11.4768447265625,-8.36710262298584,-2.3380868434906006,-4.042973041534424
1701857782166438100,11.486438232421875,-8.273782730102539,-2.4218356609344482,-4.069293975830078
1701857782176032300,11.4960322265625,-8.268997192382812,-2.622832775115967,-4.031008720397949
1701857782185625300,11.505625244140624,-8.321639060974121,-2.5271198749542236,-4.090829372406006
1701857782195218000,11.515218017578125,-8.204390525817871,-2.3524436950683594,-4.289433479309082
1701857782204811000,11.52481103515625,-8.429315567016602,-2.1801605224609375,-4.660620212554932
1701857782214405000,11.534405029296876,-8.38863754272461,-2.1945173740386963,-4.593621253967285
1701857782223998500,11.54399853515625,-8.209176063537598,-2.271087884902954,-4.337290287017822
1701857782233590800,11.5535908203125,-8.76221752166748,-1.8185452222824097,-4.765904426574707
1701857782243184000,11.56318408203125,-8.75503921508789,-2.0745773315429688,-4.631906509399414
1701857782252778200,11.5727783203125,-8.75503921508789,-2.1969103813171387,-4.42103910446167
1701857782262371600,11.58237158203125,-8.56600570678711,-2.0099709033966064,-4.459323883056641
1701857782271964000,11.5919638671875,-8.487042427062988,-1.954936146736145,-4.409074783325195
1701857782281557200,11.60155712890625,-8.532505989074707,-1.9812572002410889,-4.31096887588501
1701857782291151400,11.6111513671875,-8.587541580200195,-2.076970100402832,-4.394717693328857
1701857782300744400,11.620744384765626,-8.601898193359375,-2.340479612350464,-4.265505313873291
1701857782310337000,11.6303369140625,-8.465507507324219,-2.481656074523926,-4.246362686157227
1701857782319930400,11.639930419921875,-8.371888160705566,-2.3931217193603516,-4.382753849029541
1701857782329524200,11.649524169921875,-8.302495956420898,-2.402693033218384,-4.447360038757324
1701857782339117600,11.65911767578125,-8.247461318969727,-2.3452653884887695,-4.511966228485107
1701857782348710000,11.6687099609375,-8.211568832397461,-2.429013967514038,-4.485645294189453
1701857782358303200,11.67830322265625,-8.283353805541992,-2.4625136852264404,-4.519144535064697
1701857782367897300,11.6878974609375,-8.347960472106934,-2.4481565952301025,-4.552943229675293
1701857782377490400,11.697490478515626,-8.38145923614502,-2.3356940746307373,-4.569693088531494
1701857782387083000,11.7070830078125,-8.400602340698242,-2.175374984741211,-4.610371112823486
1701857782396676400,11.71667626953125,-8.383852005004883,-2.0027925968170166,-4.660620212554932
1701857782406270500,11.7262705078125,-8.369495391845703,-1.797009825706482,-4.636692047119141
1701857782415863600,11.735863525390625,-8.436494827270508,-1.6965112686157227,-4.5338006019592285
1701857782425456000,11.7454560546875,-8.379066467285156,-1.6654045581817627,-4.516751766204834
1701857782435049200,11.75504931640625,-8.319246292114258,-1.6773686408996582,-4.519144535064697
1701857782444643300,11.764643310546875,-8.245068550109863,-1.6845471858978271,-4.60558557510376
1701857782454236700,11.774236572265625,-8.213961601257324,-1.7587246894836426,-4.562514781951904
1701857782463829000,11.7838291015625,-8.182855606079102,-1.6654045581817627,-4.715655326843262
1701857782473422300,11.79342236328125,-8.254639625549316,-1.6247265338897705,-4.672584533691406
1701857782483016400,11.803016357421875,-8.312067985534668,-1.710868239402771,-4.617549419403076
1701857782492609500,11.812609619140625,-8.302495956420898,-1.765903115272522,-4.588835716247559
1701857782502202000,11.8222021484375,-8.530113220214844,-1.8711873292922974,-4.548157691955566
1701857782511795200,11.831795166015626,-8.55882740020752,-2.0817556381225586,-4.313362121582031
1701857782521389600,11.8413896484375,-8.532505989074707,-2.2016959190368652,-4.3325042724609375
1701857782530982700,11.850982666015625,-8.448458671569824,-2.2184457778930664,-4.385146617889404
1701857782540575200,11.8605751953125,-8.376673698425293,-1.9621145725250244,-4.634299278259277
1701857782550168300,11.870168212890626,-8.479864120483398,-1.8352949619293213,-4.468895435333252
1701857782559762400,11.879762451171874,-8.489435195922852,-1.7515461444854736,-4.442574501037598
1701857782569355500,11.88935546875,-8.503792762756348,-1.7467604875564575,-4.404289245605469
1701857782578948000,11.898947998046875,-8.499007225036621,-1.7156537771224976,-4.363611221313477
1701857782588541400,11.90854150390625,-8.55882740020752,-1.7132610082626343,-4.349254131317139
1701857782598135600,11.918135498046874,-8.589934349060059,-1.7276179790496826,-4.210470676422119
1701857782607728600,11.927728759765625,-8.628219604492188,-1.765903115272522,-4.098007678985596
1701857782617321200,11.9373212890625,-8.599505424499512,-1.6917256116867065,-4.208077907562256
1701857782626914600,11.94691455078125,-8.484649658203125,-1.6510475873947144,-4.301397800445557
1701857782636508400,11.95650830078125,-8.410173416137695,-1.6414763927459717,-4.389932155609131
1701857782646101800,11.966101806640625,-8.465507507324219,-1.6630117893218994,-4.382753849029541
1701857782655694000,11.975694091796875,-8.508578300476074,-1.5960127115249634,-4.382753849029541
1701857782665287400,11.985287353515625,-8.654540061950684,-1.672582983970642,-4.30379056930542
1701857782674881500,11.994881591796876,-8.64496898651123,-1.8855443000793457,-4.124329090118408
1701857782684475000,12.004474853515624,-8.54447078704834,-1.9310078620910645,-4.05493688583374
1701857782694067200,12.014067138671875,-8.38145923614502,-1.9621145725250244,-3.9349968433380127
1701857782703660500,12.02366064453125,-8.424530029296875,-1.9621145725250244,-3.920639991760254
1701857782713254700,12.033254638671876,-8.431708335876465,-1.8687944412231445,-4.031008720397949
1701857782722847700,12.04284765625,-8.386244773864746,-1.7443677186965942,-4.155435562133789
1701857782732440300,12.0524404296875,-8.412566184997559,-1.643869161605835,-4.294219493865967
1701857782742033700,12.06203369140625,-8.45324420928955,-1.6342978477478027,-4.346861362457275
1701857782751627500,12.07162744140625,-8.482256889343262,-1.674975872039795,-4.330111503601074
1701857782761220900,12.081220947265624,-8.487042427062988,-1.7012969255447388,-4.3396830558776855
1701857782770813200,12.090813232421874,-8.479864120483398,-1.7539390325546265,-4.272684097290039
1701857782780406500,12.100406494140625,-8.487042427062988,-1.7060825824737549,-4.322933197021484
1701857782790000600,12.110000732421875,-8.446065902709961,-1.674975872039795,-4.361218452453613
1701857782799593700,12.11959375,-8.422137260437012,-1.5720844268798828,-4.382753849029541
1701857782809186300,12.129186279296874,-8.494221687316895,-1.4569299221038818,-4.442574501037598
1701857782818779600,12.138779541015625,-8.52772045135498,-1.4018949270248413,-4.471288204193115
1701857782828373500,12.14837353515625,-8.5731840133667,-1.3420743942260742,-4.502394676208496
1701857782837966800,12.157966796875,-8.561220169067383,-1.332503080368042,-4.526622295379639
1701857782847559200,12.16755908203125,-8.554041862487793,-1.4282159805297852,-4.514358997344971
1701857782857152500,12.177152587890625,-8.587541580200195,-1.6031911373138428,-4.466502666473389
1701857782866746600,12.18674658203125,-8.642576217651367,-1.820937991142273,-4.433002948760986
1701857782876340000,12.196340087890626,-8.63779067993164,-1.923829436302185,-4.397110939025879
1701857782885932300,12.205932373046876,-8.52054214477539,-1.9046868085861206,-4.3779683113098145
1701857782895525600,12.215525634765624,-8.419744491577148,-1.852044701576233,-4.409074783325195
1701857782905119700,12.22511962890625,-8.383852005004883,-1.698904037475586,-4.442574501037598
1701857782914712800,12.234712890625,-8.364709854125977,-1.6079767942428589,-4.452145576477051
1701857782924305400,12.244305419921876,-8.350353240966797,-1.552642822265625,-4.5215373039245605
1701857782933898800,12.253898681640624,-8.398209571838379,-1.5358930826187134,-4.511966228485107
1701857782943492600,12.26349267578125,-8.386244773864746,-1.5792629718780518,-4.516751766204834
1701857782953086000,12.2730859375,-8.35274600982666,-1.581655740737915,-4.492823600769043
1701857782962678300,12.28267822265625,-8.38145923614502,-1.6175481081008911,-4.536193370819092
1701857782972271600,12.292271728515624,-8.424530029296875,-1.6558332443237305,-4.4736809730529785
1701857782981865700,12.30186572265625,-8.398209571838379,-1.6390835046768188,-4.461717128753662
1701857782991458800,12.311458740234375,-8.321639060974121,-1.5720844268798828,-4.579264163970947
1701857783001051400,12.321051513671875,-8.23549747467041,-1.4880366325378418,-4.6510491371154785
