time,seconds_elapsed,z,y,x
1701882271711382300,0.16138232421875,-0.605960488319397,-0.5442649126052856,-0.7069029808044434
1701882271720975000,0.17097509765625,-0.6316160559654236,-1.0207257270812988,-0.44790375232696533
1701882271730568400,0.180568359375,-0.5974085927009583,-1.5375025272369385,-0.1766875684261322
1701882271740161300,0.190161376953125,-0.5509842038154602,-1.9369966983795166,0.0590994730591774
1701882271749753000,0.199753173828125,-0.5522059202194214,-2.097038745880127,0.164165198802948
1701882271759345700,0.209345703125,-0.5057815313339233,-2.160566806793213,0.19959434866905212
1701882271768939300,0.218939208984375,-0.3665083646774292,-2.192330837249756,0.22402822971343994
1701882271778531800,0.22853173828125,-0.23212195932865143,-2.1104772090911865,0.2166980654001236
1701882271788124000,0.2381240234375,-0.12583453953266144,-1.9418834447860718,0.17882554233074188
1701882271797716500,0.247716552734375,-0.0525328628718853,-1.7586292028427124,0.12140589207410812
1701882271807310000,0.25731005859375,0,-1.6645587682724,0.07375980913639069
1701882271816902700,0.266902587890625,0.043981000781059265,-1.6511201858520508,0.02733541466295719
1701882271826494700,0.27649462890625,0.08674030750989914,-1.614469289779663,-0.04230117425322533
1701882271836087300,0.28608740234375,0.14904673397541046,-1.4458754062652588,-0.15469707548618317
1701882271845681000,0.295680908203125,0.24311721324920654,-1.1893196105957031,-0.2951919436454773
1701882271855273500,0.3052734375,0.33230090141296387,-0.892447829246521,-0.439351886510849
1701882271864865500,0.314865478515625,0.3958290219306946,-0.5980194807052612,-0.5615213513374329
1701882271874458000,0.3244580078125,0.4556920528411865,-0.3718532621860504,-0.654370129108429
1701882271884051700,0.3340517578125,0.5204418897628784,-0.2924431264400482,-0.7276718020439148
1701882271893644300,0.343644287109375,0.5815265774726868,-0.37918344140052795,-0.778982937335968
1701882271903236000,0.353236083984375,0.629172682762146,-0.5051707029342651,-0.8021951913833618
1701882271912829000,0.362828857421875,0.6267293095588684,-0.46485477685928345,-0.7960866689682007
1701882271922422500,0.372422607421875,0.5717530250549316,-0.40850409865379333,-0.7484406232833862
1701882271932015000,0.38201513671875,0.49356457591056824,-0.4011739492416382,-0.6641436815261841
1701882271941607000,0.39160693359375,0.4092676639556885,-0.43797749280929565,-0.5517477989196777
1701882271951199700,0.40119970703125,0.33718767762184143,-0.4575245976448059,-0.41858309507369995
1701882271960793000,0.41079296875,0.2858765125274658,-0.3229855000972748,-0.26342788338661194
1701882271970386000,0.420385986328125,0.25655585527420044,-0.029778804630041122,-0.09483403712511063
1701882271979977700,0.429977783203125,0.2724378705024719,0.31229567527770996,0.0590994730591774
1701882271989570600,0.439570556640625,0.3310792148113251,0.6128324866294861,0.17882554233074188
1701882271999164000,0.449163818359375,0.41415444016456604,0.8034168481826782,0.26434415578842163
1701882272008756700,0.4587568359375,0.5094466209411621,0.8119687438011169,0.3364241421222687
1701882272018348500,0.4683486328125,0.6084038615226746,0.6617003083229065,0.40850409865379333
1701882272027941400,0.47794140625,0.6707102656364441,0.4784461259841919,0.48669254779815674
1701882272037534700,0.48753466796875,0.6780404448509216,0.2927485406398773,0.5760289430618286
1701882272047127300,0.497127197265625,0.6389462351799011,0.08994726091623306,0.6713211536407471
1701882272056719400,0.50671923828125,0.5705313682556152,-0.13484452664852142,0.7653915882110596
1701882272066312200,0.516312255859375,0.47768256068229675,-0.37796175479888916,0.8472451567649841
1701882272075905500,0.525905517578125,0.365286648273468,-0.6175665855407715,0.9168817400932312
1701882272085498000,0.535498046875,0.2602209448814392,-0.7849387526512146,0.9620844125747681
1701882272095090200,0.545090087890625,0.1844758689403534,-0.8521319031715393,0.9584193229675293
1701882272104683000,0.55468310546875,0.15393351018428802,-0.8716790676116943,0.9107732772827148
1701882272114276400,0.5642763671875,0.1588202863931656,-0.8997780084609985,0.8350282311439514
1701882272123869000,0.573868896484375,0.1820324808359146,-0.9315420985221863,0.7409577369689941
1701882272133461000,0.5834609375,0.20402298867702484,-0.9657495021820068,0.6175665855407715
1701882272143053600,0.593053466796875,0.2089097648859024,-1.0427162647247314,0.47203221917152405
1701882272152647200,0.602647216796875,0.18569757044315338,-1.1392301321029663,0.32665055990219116
1701882272162239700,0.61223974609375,0.14171656966209412,-1.1783243417739868,0.1776038408279419
1701882272171831800,0.621831787109375,0.09040539711713791,-1.152668833732605,0.011453386396169662
1701882272181424400,0.63142431640625,0.043981000781059265,-1.0989142656326294,-0.17057909071445465
1701882272191018000,0.64101806640625,0.004886778071522713,-1.0292776823043823,-0.36360684037208557
1701882272200610600,0.650610595703125,-0.014660334214568138,-0.9547542929649353,-0.5602996349334717
1701882272210202600,0.66020263671875,-0.01954711228609085,-0.9193251132965088,-0.752105712890625
1701882272219795200,0.669795166015625,-0.02076880633831024,-0.9242119193077087,-0.9329164624214172
1701882272229388800,0.679388916015625,-0.023212196305394173,-0.9535325765609741,-1.089293360710144
1701882272238981400,0.6889814453125,-0.004886778071522713,-1.0207257270812988,-1.2163496017456055
1701882272248573200,0.6985732421875,0.0647498071193695,-1.1147962808609009,-1.3055332899093628
1701882272258166000,0.708166015625,0.17348061501979828,-1.2027583122253418,-1.366618037223816
1701882272267759600,0.717759521484375,0.29565006494522095,-1.2821683883666992,-1.4008255004882812
1701882272277352200,0.727352294921875,0.40193748474121094,-1.3285927772521973,-1.4081556797027588
1701882272286944000,0.736944091796875,0.497229665517807,-1.3383663892745972,-1.3983820676803589
1701882272296536800,0.746536865234375,0.6035171151161194,-1.3481398820877075,-1.366618037223816
1701882272306130400,0.75613037109375,0.7415685653686523,-1.3444747924804688,-1.310420036315918
1701882272315723000,0.765722900390625,0.9187142848968506,-1.3017154932022095,-1.2212363481521606
1701882272325314800,0.775314697265625,1.132510781288147,-1.2137534618377686,-1.0905150175094604
1701882272334907600,0.78490771484375,1.3939534425735474,-1.129456639289856,-0.9097042679786682
1701882272344501000,0.7945009765625,1.7189241647720337,-1.1074661016464233,-0.6702521443367004
1701882272354093800,0.80409375,2.120861768722534,-1.1868761777877808,-0.3758237659931183
1701882272363685600,0.813685546875,2.5643367767333984,-1.3579134941101074,-0.02641914412379265
1701882272373278500,0.823278564453125,2.996816635131836,-1.5399459600448608,0.36818817257881165
1701882272382871800,0.832871826171875,3.404862642288208,-1.6853275299072266,0.7959339618682861
1701882272392464600,0.842464599609375,3.8165736198425293,-1.7622942924499512,1.2418525218963623
1701882272402056400,0.852056396484375,4.197895050048828,-1.7060964107513428,1.6828842163085938
1701882272411649300,0.861649169921875,4.519200801849365,-1.530172348022461,2.0762698650360107
1701882272421242600,0.87124267578125,4.807520866394043,-1.365243673324585,2.3914670944213867
1701882272430835500,0.88083544921875,5.0958404541015625,-1.295607089996338,2.629697561264038
1701882272440427300,0.89042724609375,5.397599220275879,-1.3298144340515137,2.8153951168060303
1701882272450020000,0.90002001953125,5.655376434326172,-1.4385453462600708,2.9668850898742676
1701882272459613400,0.909613525390625,5.773880958557129,-1.8759119510650635,2.9693286418914795
1701882272469206300,0.919206298828125,5.611395835876465,-2.9729936122894287,2.5930466651916504
1701882272478798000,0.928798095703125,5.301084995269775,-4.081070423126221,2.1214725971221924
1701882272488390700,0.938390625,5.059189796447754,-4.47689962387085,2.0090765953063965
1701882272497984300,0.947984375,5.0262041091918945,-4.298532009124756,2.279071092605591
1701882272507576800,0.957576904296875,5.148373603820801,-4.018764019012451,2.6920039653778076
1701882272517169000,0.9671689453125,5.314523696899414,-3.9161417484283447,3.0414085388183594
1701882272526761700,0.97676171875,5.441580295562744,-3.9503493309020996,3.2625350952148438
1701882272536355000,0.98635498046875,5.456240653991699,-3.9039249420166016,3.401808500289917
1701882272545947600,0.99594775390625,5.390268802642822,-3.676689624786377,3.4763317108154297
1701882272555539700,1.005539794921875,5.294976711273193,-3.294299364089966,3.4726667404174805
1701882272565132500,1.015132568359375,5.225340366363525,-2.7323198318481445,3.418912172317505
1701882272574726000,1.024725830078125,5.23389196395874,-2.0261802673339844,3.2649786472320557
1701882272584318500,1.034318359375,5.316967487335205,-1.349361538887024,2.9632201194763184
1701882272593910500,1.04391064453125,5.408594131469727,-0.8533536195755005,2.574721097946167
1701882272603503000,1.053503173828125,5.450131893157959,-0.5247178077697754,2.187443971633911
1701882272613096700,1.0630966796875,5.433028221130371,-0.33886751532554626,1.8343743085861206
1701882272622689300,1.072689208984375,5.363391876220703,-0.29977330565452576,1.5607147216796875
1701882272632281300,1.08228125,5.23389196395874,-0.40361732244491577,1.395785927772522
1701882272641874000,1.0918740234375,5.035977363586426,-0.6090146899223328,1.3371446132659912
1701882272651467500,1.101467529296875,4.774534702301025,-0.8240329623222351,1.342031478881836
1701882272661060000,1.11106005859375,4.463002681732178,-1.0304993391036987,1.3469182252883911
1701882272670652200,1.120652099609375,4.132992744445801,-1.2198619842529297,1.326149344444275
1701882272680244700,1.13024462890625,3.850781202316284,-1.2931636571884155,1.2650647163391113
1701882272689838300,1.13983837890625,3.63331937789917,-1.2381874322891235,1.1331216096878052
1701882272699431000,1.149430908203125,3.457395553588867,-1.119683027267456,0.9119949340820312
1701882272709023000,1.15902294921875,3.2851364612579346,-1.0146173238754272,0.6236750483512878
1701882272718615600,1.168615478515625,3.075005054473877,-0.8790091872215271,0.34131091833114624
1701882272728209200,1.178209228515625,2.8343312740325928,-0.624896764755249,0.12018419802188873
1701882272737801700,1.1878017578125,2.6083178520202637,-0.3229855000972748,-0.055739812552928925
1701882272747393800,1.197393798828125,2.429950475692749,-0.0981936976313591,-0.20722992718219757
1701882272756986400,1.206986328125,2.2747952938079834,0.004428642801940441,-0.3342861533164978
1701882272766580000,1.216580078125,2.091541051864624,-0.0713164210319519,-0.4955498278141022
1701882272776172500,1.226172607421875,1.864305853843689,-0.23868857324123383,-0.6531484127044678
1701882272785764600,1.2357646484375,1.5552171468734741,-0.3718532621860504,-0.7105680704116821
1701882272795357200,1.245357177734375,1.1679399013519287,-0.45385950803756714,-0.6983511447906494
1701882272804950800,1.25495068359375,0.8173136115074158,-0.5418215394020081,-0.6861341595649719
1701882272814543400,1.26454345703125,0.5729747414588928,-0.5809157490730286,-0.6873558759689331
1701882272824135200,1.27413525390625,0.4422534108161926,-0.5247178077697754,-0.7069029808044434
1701882272833728000,1.28372802734375,0.4043808877468109,-0.4367557764053345,-0.7863131165504456
1701882272843321600,1.293321533203125,0.41048935055732727,-0.3877353072166443,-0.8974873423576355
1701882272852914200,1.3029140625,0.3958290219306946,-0.35230615735054016,-0.9475768208503723
1701882272862506000,1.312506103515625,0.3555130958557129,-0.2667875289916992,-0.8706100583076477
1701882272872098800,1.322098876953125,0.27976804971694946,-0.13240113854408264,-0.6934643387794495
1701882272881692400,1.3316923828125,0.18936264514923096,0.0068720318377017975,-0.44668206572532654
1701882272891285000,1.341284912109375,0.09040539711713791,0.09605573117733002,-0.12659808993339539
1701882272900876800,1.350876708984375,0.046424392610788345,-0.06032116711139679,0.02733541466295719
1701882272910469600,1.3604697265625,-0.03298575058579445,-0.11774080991744995,0.11285403370857239
1701882272920063000,1.37006298828125,-0.10995250940322876,-0.35352784395217896,0.27289602160453796
1701882272929655800,1.37965576171875,-0.03298575058579445,-0.791047215461731,0.49768781661987305
1701882272939247600,1.38924755859375,0.1453816443681717,-0.9730796813964844,0.6285618543624878
1701882272948840400,1.39884033203125,0.2919849753379822,-0.92054682970047,0.5467082858085632
1701882272958434000,1.40843408203125,0.49112120270729065,-0.8680139780044556,0.28755635023117065
1701882272968026600,1.418026611328125,0.7574505805969238,-0.7262973785400391,-0.09483403712511063
1701882272977618400,1.427618408203125,1.0091196298599243,-0.4844018816947937,-0.465007483959198
1701882272987211300,1.437211181640625,1.0323318243026733,0.004428642801940441,-0.5395308136940002
1701882272996804600,1.4468046875,0.9089407324790955,0.44546034932136536,-0.44790375232696533
1701882273006397400,1.4563974609375,0.8393041491508484,0.700794517993927,-0.488219678401947
1701882273015989200,1.4659892578125,0.8515210747718811,0.853506326675415,-0.649483323097229
1701882273025582000,1.47558203125,0.9211576581001282,0.9561286568641663,-0.8254073858261108
1701882273035175400,1.485175537109375,1.012784719467163,1.0318737030029297,-0.9206995368003845
1701882273044768300,1.494768310546875,1.0970816612243652,1.0538642406463623,-0.9145910739898682
1701882273054360000,1.504360107421875,1.1691616773605347,0.8913788795471191,-0.8864920735359192
1701882273063953000,1.513952880859375,1.2155860662460327,0.5468609929084778,-0.8400676846504211
1701882273073546200,1.523546142578125,1.2632321119308472,0.27442312240600586,-0.7411104440689087
1701882273083139000,1.53313916015625,1.3072131872177124,0.1913478970527649,-0.6201626658439636
1701882273092731000,1.54273095703125,1.3157650232315063,0.2170034945011139,-0.5395308136940002
1701882273102323700,1.55232373046875,1.3084348440170288,0.333064466714859,-0.48577627539634705
1701882273111917000,1.5619169921875,1.2827792167663574,0.5529694557189941,-0.4515688419342041
1701882273121510000,1.571510009765625,1.2510151863098145,0.7374453544616699,-0.48333290219306946
1701882273131101700,1.581101806640625,1.1984822750091553,0.7863131165504456,-0.571294903755188
1701882273140694500,1.590694580078125,1.0836430788040161,0.6812474131584167,-0.6274928450584412
1701882273150288000,1.600287841796875,0.9260444641113281,0.46134239435195923,-0.5639647245407104
1701882273159880700,1.609880615234375,0.8258655071258545,0.17180079221725464,-0.4027010500431061
1701882273169472500,1.619472412109375,0.8026533126831055,-0.1629435122013092,-0.21211670339107513
1701882273179065300,1.6290654296875,0.8124268651008606,-0.42072105407714844,-0.054518118500709534
1701882273188658700,1.63865869140625,0.813648521900177,-0.5015056133270264,0.04443913698196411
1701882273198251300,1.648251220703125,0.809983491897583,-0.4746283292770386,0.07742489129304886
1701882273207843300,1.65784326171875,0.8173136115074158,-0.37918344140052795,0.06765133142471313
1701882273217436200,1.667436279296875,0.8160919547080994,-0.23746687173843384,0.03588727489113808
1701882273227029500,1.677029541015625,0.7757760286331177,-0.10796725004911423,0.021226942539215088
1701882273236622000,1.6866220703125,0.7061394453048706,0.014202198944985867,0.033443886786699295
1701882273246214100,1.696214111328125,0.6303943991661072,0.10705098509788513,0.04199574887752533
1701882273255806700,1.705806640625,0.5595360994338989,0.14736689627170563,0.031000498682260513
1701882273265400300,1.715400390625,0.499673068523407,0.14492350816726685,0.032222192734479904
1701882273274993000,1.724992919921875,0.45324867963790894,0.10216420143842697,0.06765133142471313
1701882273284585000,1.7345849609375,0.4190412163734436,0.005650337319821119,0.111632339656353
1701882273294177500,1.744177490234375,0.393385648727417,-0.2545706033706665,0.19226416945457458
1701882273303771100,1.753771240234375,0.5008947253227234,-0.6920899152755737,0.3315373361110687
1701882273313363700,1.76336376953125,0.7366818189620972,-1.254069447517395,0.4524851143360138
1701882273322955800,1.772955810546875,0.8808417320251465,-1.7183133363723755,0.555260181427002
1701882273332548400,1.78254833984375,0.9883508682250977,-1.905232548713684,0.6297835111618042
1701882273342142000,1.792141845703125,1.1312891244888306,-1.3689087629318237,0.6200099587440491
1701882273351734500,1.801734619140625,1.2827792167663574,-0.31687700748443604,0.6090146899223328
1701882273361326600,1.81132666015625,1.290109395980835,0.2011214643716812,0.8032641410827637
1701882273370919200,1.820919189453125,1.1935955286026,0.5920637249946594,0.9865183234214783
1701882273380512800,1.8305126953125,0.9700254201889038,0.6836907863616943,1.0561549663543701
1701882273390105300,1.840105224609375,0.790436327457428,0.3855973184108734,1.0781453847885132
1701882273399697200,1.849697265625,0.7684458494186401,0.02641914412379265,1.106244444847107
1701882273409290000,1.8592900390625,0.8612946271896362,-0.17393875122070312,1.1416735649108887
1701882273418883600,1.868883544921875,0.9956810474395752,-0.33031564950942993,1.0549331903457642
1701882273428476200,1.87847607421875,1.1960389614105225,-0.7336275577545166,0.6872031688690186
1701882273438068200,1.888068115234375,1.5100144147872925,-1.1038010120391846,0.17027367651462555
1701882273447660800,1.897660888671875,1.8398720026016235,-1.4849697351455688,-0.441795289516449
1701882273457254400,1.90725439453125,1.6529526710510254,-1.4947432279586792,-0.835180938243866
1701882273466847000,1.916846923828125,0.3542914092540741,-1.02683424949646,-0.9170344471931458
1701882273476438800,1.926438720703125,-0.33352261781692505,-0.11529742181301117,-0.9756757616996765
1701882273486031600,1.936031494140625,-0.2101314514875412,0.5028799772262573,-1.0453124046325684
1701882273495625200,1.945625244140625,0.09895725548267365,0.5908420085906982,-0.9524635672569275
1701882273505217800,1.9552177734375,0.35795649886131287,0.51998370885849,-0.6409314870834351
1701882273514809600,1.9648095703125,0.2895416021347046,0.21822518110275269,-0.2658712565898895
1701882273524402400,1.97440234375,-0.05497625470161438,-0.028557108715176582,-0.05207473039627075
1701882273533996000,1.98399609375,-0.1429382562637329,0.023975754156708717,-0.11560284346342087
1701882273543588600,1.993588623046875,0.007330167107284069,0.11438114941120148,-0.24021568894386292
1701882273553180400,2.003180419921875,0.03787253051996231,0.12904147803783417,-0.30252209305763245
1701882273562773200,2.012773193359375,0.021990500390529633,0.12048961967229843,-0.3318427801132202
1701882273572366600,2.02236669921875,0.01710372418165207,0.09727742522954941,-0.3721587061882019
1701882273581959400,2.03195947265625,0.01832541823387146,0.072843536734581,-0.4271349310874939
1701882273591551200,2.04155126953125,0.024433890357613564,0.07895200699567795,-0.48577627539634705
1701882273601143800,2.051143798828125,0.03298575058579445,0.11682453751564026,-0.548082709312439
1701882273610737400,2.0607373046875,0.021990500390529633,0.17424418032169342,-0.6274928450584412
1701882273620330200,2.070330322265625,0.007330167107284069,0.2915268540382385,-0.7142331600189209
1701882273629922000,2.079922119140625,-0.024433890357613564,0.46134239435195923,-0.7802046537399292
1701882273639515000,2.089514892578125,-0.0781884491443634,0.36971530318260193,-0.6617003083229065
1701882273649108200,2.099108154296875,-0.043981000781059265,0.1119377613067627,-0.40636613965034485
1701882273658700800,2.10870068359375,-0.01588202826678753,0.14370182156562805,-0.24632415175437927
1701882273668292900,2.11829296875,-0.05497625470161438,0.3477247953414917,-0.20600824058055878
1701882273677885700,2.1278857421875,-0.11117420345544815,0.5089884996414185,-0.23288552463054657
1701882273687479000,2.13747900390625,-0.11972606182098389,0.5896202921867371,-0.2670929729938507
1701882273697071600,2.147071533203125,-0.09773556143045425,0.4503471553325653,-0.2573194205760956
1701882273706663700,2.15666357421875,-0.10262233763933182,0.3379512429237366,-0.20845162868499756
1701882273716256300,2.16625634765625,-0.13927318155765533,0.3342861533164978,-0.1644706279039383
1701882273725849900,2.175849853515625,-0.17348061501979828,0.35383328795433044,-0.13148486614227295
1701882273735442400,2.1854423828125,-0.19424942135810852,0.35138988494873047,-0.1107160672545433
1701882273745034500,2.195034423828125,-0.1954711228609085,0.3184041380882263,-0.10216420143842697
1701882273754627000,2.204626953125,-0.17714570462703705,0.27686652541160583,-0.11438114941120148
1701882273764220700,2.214220703125,-0.15271180868148804,0.22189027070999146,-0.12659808993339539
1701882273773813200,2.223813232421875,-0.129499614238739,0.16935740411281586,-0.13026317954063416
1701882273783405000,2.233405029296875,-0.10628741979598999,0.1510319858789444,-0.13026317954063416
1701882273792998000,2.242997802734375,-0.08674030750989914,0.1656923145055771,-0.1363716572523117
1701882273802591500,2.252591552734375,-0.0794101431965828,0.1889045089483261,-0.1388150453567505
1701882273812184000,2.26218408203125,-0.08063183724880219,0.19256959855556488,-0.13270656764507294
1701882273821776000,2.27177587890625,-0.0794101431965828,0.20722992718219757,-0.12781979143619537
1701882273831368700,2.28136865234375,-0.08185353130102158,0.20234315097332,-0.1253764033317566
1701882273840962300,2.29096240234375,-0.08063183724880219,0.1901262104511261,-0.12171131372451782
1701882273850555000,2.300554931640625,-0.07574506103992462,0.17180079221725464,-0.11560284346342087
1701882273860146700,2.310146728515625,-0.07574506103992462,0.14370182156562805,-0.10094250738620758
1701882273869739500,2.319739501953125,-0.07085828483104706,0.13514995574951172,-0.08750387281179428
1701882273879332900,2.329332763671875,-0.07452336698770523,0.10094250738620758,-0.06306997686624527
1701882273888925700,2.33892578125,-0.07696675509214401,0.07895200699567795,-0.037414394319057465
1701882273898517500,2.348517578125,-0.07696675509214401,0.058183200657367706,-0.021532366052269936
1701882273908110300,2.3581103515625,-0.07330167293548584,0.037414394319057465,-0.01175880990922451
1701882273917703700,2.36770361328125,-0.0659715011715889,0.0068720318377017975,-0.001985253533348441
1701882273927296500,2.377296630859375,-0.05741964280605316,-0.02489202655851841,0.004123218823224306
1701882273936888300,2.386888427734375,-0.0525328628718853,-0.04810422286391258,0.013896775431931019
1701882273946481000,2.39648095703125,-0.05008947476744652,-0.06642963737249374,0.02367033064365387
1701882273956074500,2.406074462890625,-0.046424392610788345,-0.0725381150841713,0.02489202655851841
1701882273965667300,2.415667236328125,-0.04886778071522713,-0.08964183181524277,0.029778804630041122
1701882273975259100,2.425259033203125,-0.05741964280605316,-0.1385096162557602,0.052990999072790146
1701882273984851700,2.434851806640625,-0.06719319522380829,-0.16783028841018677,0.06398624926805496
1701882273994445300,2.4444453125,-0.08063183724880219,-0.18493400514125824,0.07375980913639069
1701882274004038000,2.454037841796875,-0.08674030750989914,-0.18249061703681946,0.08719844371080399
1701882274013630000,2.4636298828125,-0.09529217332601547,-0.1776038408279419,0.0981936976313591
1701882274023222500,2.473222412109375,-0.10017894953489304,-0.15439164638519287,0.10552386194467545
1701882274032816000,2.482816162109375,-0.09407047927379608,-0.11407572776079178,0.10063708573579788
1701882274042408700,2.49240869140625,-0.10628741979598999,-0.16783028841018677,0.12262758612632751
1701882274052000800,2.502000732421875,-0.10995250940322876,-0.188599094748497,0.13362284004688263
1701882274061593300,2.51159326171875,-0.11361759155988693,-0.20814619958400726,0.12629267573356628
1701882274071187000,2.52118701171875,-0.11117420345544815,-0.22036315500736237,0.1238492801785469
1701882274080779500,2.530779541015625,-0.10873081535100937,-0.23868857324123383,0.12629267573356628
1701882274090371600,2.54037158203125,-0.09407047927379608,-0.22036315500736237,0.11774080991744995
1701882274099964200,2.549964111328125,-0.0916270911693573,-0.2313583940267563,0.13240113854408264
1701882274109557800,2.559557861328125,-0.10995250940322876,-0.2680092453956604,0.1519482582807541
1701882274119150300,2.569150390625,-0.12339114397764206,-0.27533939480781555,0.1507265567779541
1701882274128742100,2.5787421875,-0.129499614238739,-0.270452618598938,0.14583978056907654
1701882274138335000,2.5883349609375,-0.13438639044761658,-0.2655658423900604,0.14339639246463776
1701882274147928600,2.597928466796875,-0.13316470384597778,-0.25945737957954407,0.14461809396743774
1701882274157521200,2.607521240234375,-0.12461283802986145,-0.2545706033706665,0.1519482582807541
1701882274167113000,2.617113037109375,-0.1172826737165451,-0.24601873755455017,0.15927842259407043
1701882274176705800,2.626705810546875,-0.1050657257437706,-0.2411319613456726,0.16660858690738678
1701882274186299100,2.636299072265625,-0.08918370306491852,-0.2423536479473114,0.1763821393251419
1701882274195892000,2.64589208984375,-0.07452336698770523,-0.2557922899723053,0.18493400514125824
1701882274205483800,2.65548388671875,-0.05864133685827255,-0.2716743052005768,0.19592925906181335
1701882274215076600,2.66507666015625,-0.04153761267662048,-0.28999972343444824,0.2044811248779297
1701882274224670000,2.674669921875,-0.029320668429136276,-0.3107685446739197,0.21058958768844604
1701882274234262800,2.6842626953125,-0.01832541823387146,-0.33031564950942993,0.2154763638973236
1701882274243854600,2.6938544921875,-0.009773556143045425,-0.34253260493278503,0.21914145350456238
1701882274253447400,2.703447509765625,-0.0012216945178806782,-0.35108447074890137,0.22280654311180115
1701882274263040800,2.713040771484375,0.0036650835536420345,-0.3706315755844116,0.22402822971343994
1701882274272633300,2.72263330078125,0.007330167107284069,-0.3852919042110443,0.22280654311180115
1701882274282225400,2.732225341796875,0.006108472589403391,-0.39506545662879944,0.22158484160900116
1701882274291818000,2.74181787109375,0.0012216945178806782,-0.4011739492416382,0.22158484160900116
1701882274301411600,2.75141162109375,-0.006108472589403391,-0.40850409865379333,0.22036315500736237
1701882274311004200,2.761004150390625,-0.014660334214568138,-0.402395635843277,0.21181128919124603
1701882274320596200,2.77059619140625,-0.02076880633831024,-0.40361732244491577,0.2044811248779297
1701882274330188800,2.780188720703125,-0.03176405653357506,-0.4109475016593933,0.19226416945457458
1701882274339782400,2.789782470703125,-0.04153761267662048,-0.4133908748626709,0.1763821393251419
1701882274349375000,2.799375,-0.046424392610788345,-0.4158342778682709,0.164165198802948
1701882274358966800,2.808966796875,-0.0525328628718853,-0.42194274067878723,0.15316994488239288
1701882274368559600,2.8185595703125,-0.05619794875383377,-0.42331716418266296,0.14217470586299896
1701882274378153200,2.8281533203125,-0.05986303091049194,-0.4306473135948181,0.13240113854408264
1701882274387745800,2.837745849609375,-0.06352811306715012,-0.43797749280929565,0.12629267573356628
1701882274397337600,2.847337646484375,-0.06963659077882767,-0.4343124032020569,0.11774080991744995
1701882274406930400,2.856930419921875,-0.05375456064939499,-0.402395635843277,0.10430216789245605
1701882274416524000,2.86652392578125,-0.06352811306715012,-0.40972578525543213,0.10674555599689484
1701882274426116600,2.87611669921875,-0.10384403169155121,-0.4294256269931793,0.10918894410133362
1701882274435708400,2.88570849609375,-0.12705622613430023,-0.4477510452270508,0.1104106456041336
1701882274445301200,2.89530126953125,-0.13682979345321655,-0.46485477685928345,0.1104106456041336
1701882274454894600,2.90489453125,-0.14660334587097168,-0.47585001587867737,0.10308047384023666
1701882274464487400,2.9144873046875,-0.15149012207984924,-0.4831801950931549,0.10185877978801727
1701882274474079200,2.924079345703125,-0.15515519678592682,-0.49051034450531006,0.09697200357913971
1701882274483672000,2.933672119140625,-0.15149012207984924,-0.4844018816947937,0.08964183181524277
1701882274493265400,2.943265380859375,-0.13682979345321655,-0.47707170248031616,0.08231166750192642
1701882274502858000,2.95285791015625,-0.1050657257437706,-0.45263782143592834,0.06887302547693253
1701882274512450000,2.962449951171875,-0.10995250940322876,-0.47951510548591614,0.07864658534526825
1701882274522043000,2.97204296875,-0.130721315741539,-0.49295374751091003,0.08353336155414581
1701882274531636200,2.98163623046875,-0.1429382562637329,-0.49051034450531006,0.09330692142248154
1701882274541228800,2.991228759765625,-0.1429382562637329,-0.4734066128730774,0.1238492801785469
1701882274550820900,3.00082080078125,-0.13316470384597778,-0.4611896872520447,0.16538690030574799
1701882274560413400,3.010413330078125,-0.129499614238739,-0.4575245976448059,0.19226416945457458
1701882274570007000,3.020007080078125,-0.12461283802986145,-0.4416425824165344,0.19837264716625214
1701882274579599600,3.029599609375,-0.11483928561210632,-0.4158342778682709,0.19348587095737457
1701882274589191700,3.039191650390625,-0.10750912129878998,-0.3987305462360382,0.18615570664405823
1701882274598784300,3.0487841796875,-0.09284878522157669,-0.3742966651916504,0.18493400514125824
1701882274608377900,3.0583779296875,-0.0647498071193695,-0.3205420970916748,0.1751604527235031
1701882274617970400,3.067970458984375,0.009773556143045425,-0.23380178213119507,0.1372879147529602
1701882274627562200,3.077562255859375,0.05008947476744652,-0.18126893043518066,0.10796725004911423
1701882274637155000,3.087155029296875,0.07696675509214401,-0.1372879147529602,0.0859767496585846
1701882274646748700,3.096748779296875,0.09651386737823486,-0.14583978056907654,0.08353336155414581
1701882274656341200,3.10634130859375,0.10384403169155121,-0.19715094566345215,0.10063708573579788
1701882274665933000,3.11593310546875,0.08796200156211853,-0.28633466362953186,0.13117945194244385
1701882274675526000,3.12552587890625,0.042759306728839874,-0.3852919042110443,0.17027367651462555
1701882274685119200,3.135119140625,-0.013438640162348747,-0.4611896872520447,0.2020377367734909
1701882274694712000,3.144712158203125,-0.025655584409832954,-0.4599680006504059,0.21181128919124603
1701882274704303900,3.154303955078125,-0.007330167107284069,-0.42331716418266296,0.2032594233751297
1701882274713896700,3.163896728515625,0.01710372418165207,-0.40361732244491577,0.1763821393251419
1701882274723490000,3.173489990234375,0.04886778071522713,-0.39262208342552185,0.1250709742307663
1701882274733083000,3.183082763671875,0.07330167293548584,-0.3877353072166443,0.06887302547693253
1701882274742674700,3.1926748046875,0.08674030750989914,-0.37918344140052795,0.02367033064365387
1701882274752267500,3.202267578125,0.08551861345767975,-0.3706315755844116,-0.005650337319821119
1701882274761860900,3.21186083984375,0.07085828483104706,-0.3608580231666565,-0.014202198944985867
1701882274771453400,3.221453369140625,0.046424392610788345,-0.35597124695777893,-0.0068720318377017975
1701882274781045500,3.23104541015625,0.013438640162348747,-0.3608580231666565,0.016340164467692375
1701882274790638000,3.24063818359375,-0.023212196305394173,-0.3828485310077667,0.05543438717722893
1701882274800231700,3.250231689453125,-0.046424392610788345,-0.402395635843277,0.10430216789245605
1701882274809824300,3.25982421875,-0.043981000781059265,-0.4109475016593933,0.12873606383800507
1701882274819416300,3.269416259765625,-0.07207997888326645,-0.46485477685928345,0.1519482582807541
1701882274829009000,3.2790087890625,-0.1050657257437706,-0.5027272701263428,0.16538690030574799
1701882274838602500,3.2886025390625,-0.09407047927379608,-0.5100574493408203,0.14583978056907654
1701882274848195000,3.298195068359375,-0.061084724962711334,-0.4990622103214264,0.0981936976313591
1701882274857787000,3.307786865234375,-0.024433890357613564,-0.4746283292770386,0.04810422286391258
1701882274867379700,3.317379638671875,0.013438640162348747,-0.4318690001964569,0.005344913341104984
1701882274876973300,3.326973388671875,0.047646086663007736,-0.37796175479888916,-0.023975754156708717
1701882274886566000,3.33656591796875,0.07330167293548584,-0.3217637836933136,-0.04963133856654167
1701882274896157700,3.34615771484375,0.08674030750989914,-0.2655658423900604,-0.072843536734581
1701882274905750500,3.35575048828125,0.08429691940546036,-0.22036315500736237,-0.09727742522954941
1701882274915344000,3.36534375,0.08063183724880219,-0.19470755755901337,-0.1241547018289566
1701882274924936700,3.374936767578125,0.08551861345767975,-0.1507265567779541,-0.14858859777450562
1701882274934528500,3.384528564453125,0.08674030750989914,-0.11529742181301117,-0.1632489264011383
1701882274944121300,3.394121337890625,0.05008947476744652,-0.11896250396966934,-0.16813570261001587
1701882274953714700,3.403714599609375,0.008551862090826035,-0.1360662281513214,-0.16080553829669952
1701882274963307500,3.4133076171875,-0.04153761267662048,-0.15561333298683167,-0.14614520967006683
1701882274972899300,3.4228994140625,-0.062306419014930725,-0.14828316867351532,-0.13270656764507294
1701882274982492200,3.4324921875,-0.07085828483104706,-0.13117945194244385,-0.11560284346342087
1701882274992085500,3.44208544921875,-0.06963659077882767,-0.11407572776079178,-0.09361234307289124
1701882275001678000,3.451677978515625,-0.04886778071522713,-0.08719844371080399,-0.07528692483901978
1701882275011270100,3.461270263671875,-0.01710372418165207,-0.04199574887752533,-0.056961506605148315
1701882275020862700,3.47086279296875,0.04031591862440109,0.017867282032966614,-0.03497100621461868
1701882275030456300,3.480456298828125,0.10995250940322876,0.0850604772567749,-0.021532366052269936
1701882275040049000,3.490048828125,0.18569757044315338,0.17180079221725464,-0.016645587980747223
1701882275049641000,3.499640869140625,0.23212195932865143,0.252432644367218,-0.014202198944985867
1701882275059233500,3.509233642578125,0.26877278089523315,0.31229567527770996,-0.020310672000050545
1701882275068827100,3.5188271484375,0.28221142292022705,0.34405970573425293,-0.03497100621461868
1701882275078419700,3.528419677734375,0.26755109429359436,0.34161633253097534,-0.058183200657367706
1701882275088011500,3.538011474609375,0.2211267054080963,0.30130040645599365,-0.08383878320455551
1701882275097604400,3.547604248046875,0.14782503247261047,0.22189027070999146,-0.10216420143842697
1701882275107198000,3.557197998046875,0.08063183724880219,0.1375933438539505,-0.10827267915010452
1701882275116790500,3.56679052734375,0.05131116881966591,0.12659808993339539,-0.10827267915010452
1701882275126382300,3.57638232421875,0.026877280324697495,0.14858859777450562,-0.09727742522954941
1701882275135975200,3.58597509765625,0.004886778071522713,0.18401773273944855,-0.07773031294345856
1701882275145568500,3.595568603515625,-0.014660334214568138,0.21822518110275269,-0.058183200657367706
1701882275155161300,3.605161376953125,-0.026877280324697495,0.26098448038101196,-0.06062658876180649
1701882275164753200,3.614753173828125,-0.026877280324697495,0.30130040645599365,-0.08994726091623306
1701882275174345700,3.624345703125,-0.03298575058579445,0.31229567527770996,-0.12171131372451782
1701882275183939300,3.633939208984375,-0.03420744836330414,0.2951919436454773,-0.14614520967006683
1701882275193532200,3.6435322265625,-0.01954711228609085,0.2658712565898895,-0.17302247881889343
1701882275203124000,3.6531240234375,-0.010995250195264816,0.22677704691886902,-0.19256959855556488
1701882275212716800,3.662716796875,-0.014660334214568138,0.18646112084388733,-0.2011214643716812
1701882275222310100,3.67231005859375,-0.013438640162348747,0.1510319858789444,-0.21333840489387512
1701882275231902700,3.68190283203125,-0.01710372418165207,0.12781979143619537,-0.22555534541606903
1701882275241494800,3.691494873046875,-0.021990500390529633,0.1107160672545433,-0.22677704691886902
1701882275251087400,3.70108740234375,-0.026877280324697495,0.10338589549064636,-0.21822518110275269
1701882275260681000,3.710680908203125,-0.030542362481355667,0.10827267915010452,-0.20234315097332
1701882275270273500,3.7202734375,-0.03665083646774292,0.1241547018289566,-0.18279604613780975
1701882275279865600,3.729865478515625,-0.04153761267662048,0.14370182156562805,-0.1644706279039383
1701882275289458200,3.739458251953125,-0.045202698558568954,0.1656923145055771,-0.14492350816726685
1701882275299051800,3.7490517578125,-0.045202698558568954,0.18768282234668732,-0.12293300777673721
1701882275308644400,3.758644287109375,-0.042759306728839874,0.2047865390777588,-0.0984991192817688
1701882275318236200,3.768236083984375,-0.03298575058579445,0.21333840489387512,-0.0716218426823616
1701882275327829000,3.7778291015625,-0.012216945178806782,0.22555534541606903,-0.0459662564098835
1701882275337422600,3.787422607421875,0.0024433890357613564,0.21944688260555267,-0.022754060104489326
1701882275347015200,3.79701513671875,0.014660334214568138,0.19379130005836487,-0.0032069480512291193
1701882275356607000,3.80660693359375,0.026877280324697495,0.17302247881889343,0.010231691412627697
1701882275366199800,3.81619970703125,0.04031591862440109,0.1656923145055771,0.017561858519911766
1701882275375793200,3.825793212890625,0.04886778071522713,0.1620272397994995,0.017561858519911766
1701882275385386000,3.835385986328125,0.05497625470161438,0.16691401600837708,0.01511846948415041
1701882275394977800,3.844977783203125,0.05741964280605316,0.17913095653057098,0.007788302376866341
1701882275404570600,3.854570556640625,0.05619794875383377,0.1889045089483261,-0.0032069480512291193
1701882275414164000,3.8641640625,0.05008947476744652,0.19745637476444244,-0.014202198944985867
1701882275423756500,3.873756591796875,0.043981000781059265,0.20967331528663635,-0.02641914412379265
1701882275433348600,3.8833486328125,0.03542914241552353,0.21944688260555267,-0.038636088371276855
1701882275442941400,3.89294140625,0.026877280324697495,0.22433365881443024,-0.054518118500709534
1701882275452534800,3.90253466796875,0.01710372418165207,0.22677704691886902,-0.06673506647348404
1701882275462127400,3.91212744140625,0.007330167107284069,0.2292204350233078,-0.07406523078680038
1701882275471719400,3.921719482421875,-0.0036650835536420345,0.2292204350233078,-0.07650861889123917
1701882275481312000,3.93131201171875,-0.013438640162348747,0.2279987335205078,-0.07040014863014221
1701882275490905600,3.940905517578125,-0.024433890357613564,0.22555534541606903,-0.06429167091846466
1701882275500498200,3.950498291015625,-0.03176405653357506,0.2170034945011139,-0.054518118500709534
1701882275510090200,3.96009033203125,-0.03665083646774292,0.20845162868499756,-0.04474456235766411
1701882275519682800,3.969682861328125,-0.0390942245721817,0.19501298666000366,-0.037414394319057465
1701882275529276400,3.9792763671875,-0.03787253051996231,0.18279604613780975,-0.0325276181101799
1701882275538869000,3.988868896484375,-0.03420744836330414,0.17913095653057098,-0.02764083817601204
1701882275548460800,3.998460693359375,-0.030542362481355667,0.1766875684261322,-0.02764083817601204
1701882275558053600,4.0080537109375,-0.029320668429136276,0.1754658818244934,-0.0325276181101799
1701882275567647200,4.017647216796875,-0.026877280324697495,0.1754658818244934,-0.039857782423496246
1701882275577239800,4.02723974609375,-0.023212196305394173,0.16935740411281586,-0.04840964451432228
1701882275586831600,4.03683154296875,-0.01832541823387146,0.1620272397994995,-0.055739812552928925
1701882275596424400,4.046424560546875,-0.012216945178806782,0.14858859777450562,-0.06184828653931618
1701882275606017800,4.056017822265625,-0.0036650835536420345,0.14003673195838928,-0.0594048947095871
1701882275615610400,4.0656103515625,0.0036650835536420345,0.13270656764507294,-0.054518118500709534
1701882275625202400,4.075202392578125,0.008551862090826035,0.13026317954063416,-0.04718795046210289
1701882275634795000,4.084794921875,0.013438640162348747,0.13026317954063416,-0.038636088371276855
1701882275644388600,4.094388671875,0.01710372418165207,0.13148486614227295,-0.03130592033267021
1701882275653981200,4.103981201171875,0.01832541823387146,0.13514995574951172,-0.025197450071573257
1701882275663573200,4.1135732421875,0.01832541823387146,0.1375933438539505,-0.020310672000050545
1701882275673165800,4.123165771484375,0.01710372418165207,0.1363716572523117,-0.019088976085186005
1701882275682759400,4.132759521484375,0.01588202826678753,0.1375933438539505,-0.020310672000050545
1701882275692352000,4.14235205078125,0.01588202826678753,0.1375933438539505,-0.023975754156708717
1701882275701943800,4.15194384765625,0.01832541823387146,0.13270656764507294,-0.02641914412379265
1701882275711536600,4.16153662109375,0.02076880633831024,0.13270656764507294,-0.02886253222823143
1701882275721130200,4.171130126953125,0.023212196305394173,0.13026317954063416,-0.03008422814309597
1701882275730722800,4.180722900390625,0.026877280324697495,0.13392825424671173,-0.02886253222823143
1701882275740314600,4.190314697265625,0.026877280324697495,0.13270656764507294,-0.0325276181101799
1701882275749907500,4.199907470703125,0.026877280324697495,0.13392825424671173,-0.03374931216239929
1701882275759500800,4.209500732421875,0.026877280324697495,0.1388150453567505,-0.03374931216239929
1701882275769093600,4.21909375,0.024433890357613564,0.14370182156562805,-0.03374931216239929
1701882275778685400,4.228685546875,0.02076880633831024,0.14858859777450562,-0.03374931216239929
1701882275788278300,4.2382783203125,0.01710372418165207,0.1498102843761444,-0.036192700266838074
1701882275797871600,4.24787158203125,0.012216945178806782,0.14858859777450562,-0.037414394319057465
1701882275807464200,4.257464111328125,0.007330167107284069,0.14736689627170563,-0.039857782423496246
1701882275817056300,4.26705615234375,0.0036650835536420345,0.14492350816726685,-0.04230117425322533
1701882275826648800,4.27664892578125,0,0.1375933438539505,-0.04474456235766411
1701882275836242400,4.286242431640625,-0.006108472589403391,0.13148486614227295,-0.04963133856654167
1701882275845835000,4.2958349609375,-0.008551862090826035,0.12781979143619537,-0.054518118500709534
1701882275855427000,4.305427001953125,-0.013438640162348747,0.12659808993339539,-0.058183200657367706
1701882275865019600,4.31501953125,-0.014660334214568138,0.1241547018289566,-0.06062658876180649
1701882275874613200,4.32461328125,-0.01710372418165207,0.11926792562007904,-0.06184828653931618
1701882275884205800,4.334205810546875,-0.01710372418165207,0.11804623156785965,-0.06184828653931618
1701882275893797600,4.343797607421875,-0.013438640162348747,0.11560284346342087,-0.06184828653931618
1701882275903390500,4.353390380859375,-0.009773556143045425,0.10949437320232391,-0.06062658876180649
1701882275912983800,4.36298388671875,-0.0036650835536420345,0.10338589549064636,-0.058183200657367706
1701882275922576600,4.37257666015625,0.0012216945178806782,0.10338589549064636,-0.055739812552928925
1701882275932168400,4.38216845703125,0.007330167107284069,0.10338589549064636,-0.05207473039627075
1701882275941761300,4.39176123046875,0.012216945178806782,0.10460758954286575,-0.04963133856654167
1701882275951354600,4.401354736328125,0.01710372418165207,0.10338589549064636,-0.04718795046210289
1701882275960947200,4.410947265625,0.02076880633831024,0.10094250738620758,-0.04718795046210289
1701882275970539300,4.420539306640625,0.025655584409832954,0.10216420143842697,-0.0459662564098835
1701882275980132000,4.430132080078125,0.03176405653357506,0.10582929104566574,-0.04718795046210289
1701882275989725400,4.439725341796875,0.03665083646774292,0.10705098509788513,-0.04963133856654167
1701882275999318000,4.449318115234375,0.04031591862440109,0.1119377613067627,-0.04963133856654167
1701882276008910000,4.45891015625,0.04153761267662048,0.11804623156785965,-0.05329642444849014
1701882276018502700,4.468502685546875,0.042759306728839874,0.1241547018289566,-0.056961506605148315
1701882276028096300,4.47809619140625,0.045202698558568954,0.13026317954063416,-0.06062658876180649
1701882276037688800,4.487688720703125,0.047646086663007736,0.13514995574951172,-0.06184828653931618
1701882276047280600,4.49728076171875,0.04886778071522713,0.14003673195838928,-0.06429167091846466
1701882276056873500,4.50687353515625,0.05008947476744652,0.14248012006282806,-0.06917845457792282
1701882276066467000,4.516467041015625,0.05008947476744652,0.14492350816726685,-0.07650861889123917
1701882276076059600,4.5260595703125,0.04886778071522713,0.14492350816726685,-0.08750387281179428
1701882276085651500,4.5356513671875,0.047646086663007736,0.1498102843761444,-0.10094250738620758
1701882276095244300,4.545244384765625,0.046424392610788345,0.15836215019226074,-0.11682453751564026
1701882276104837600,4.554837646484375,0.046424392610788345,0.17180079221725464,-0.13148486614227295
1701882276114430200,4.56443017578125,0.047646086663007736,0.18646112084388733,-0.14492350816726685
1701882276124022300,4.574022216796875,0.05008947476744652,0.20234315097332,-0.15958385169506073
1701882276133615000,4.583614990234375,0.0525328628718853,0.21333840489387512,-0.17302247881889343
1701882276143208400,4.59320849609375,0.05619794875383377,0.22555534541606903,-0.18401773273944855
1701882276152801000,4.602801025390625,0.05986303091049194,0.23777230083942413,-0.19379130005836487
1701882276162393000,4.61239306640625,0.061084724962711334,0.24876753985881805,-0.20600824058055878
1701882276171985700,4.621985595703125,0.062306419014930725,0.26220619678497314,-0.2157817929983139
1701882276181579300,4.631579345703125,0.05986303091049194,0.27686652541160583,-0.22555534541606903
1701882276191171800,4.641171875,0.05497625470161438,0.2927485406398773,-0.23410721123218536
1701882276200763600,4.650763671875,0.05008947476744652,0.30740886926651,-0.24876753985881805
1701882276210356500,4.6603564453125,0.043981000781059265,0.3171824514865875,-0.26220619678497314
1701882276219950000,4.6699501953125,0.04031591862440109,0.32573428750038147,-0.27564483880996704
1701882276229542700,4.679542724609375,0.03665083646774292,0.3318427801132202,-0.28786176443099976
1701882276239134500,4.689134521484375,0.03542914241552353,0.3318427801132202,-0.2951919436454773
1701882276248727300,4.698727294921875,0.03665083646774292,0.3306210935115814,-0.30007871985435486
1701882276258320600,4.708320556640625,0.03665083646774292,0.333064466714859,-0.30374380946159363
1701882276267913500,4.71791357421875,0.042759306728839874,0.3342861533164978,-0.3061871826648712
1701882276277505300,4.72750537109375,0.05131116881966591,0.32939937710762024,-0.31229567527770996
1701882276287097900,4.737097900390625,0.05986303091049194,0.3208475112915039,-0.3342861533164978
1701882276296691500,4.74669140625,0.07452336698770523,0.3208475112915039,-0.3623851239681244
1701882276306284000,4.756283935546875,0.08918370306491852,0.32939937710762024,-0.3892624080181122
1701882276315876000,4.7658759765625,0.10262233763933182,0.3489464819431305,-0.42102646827697754
1701882276325468700,4.77546875,0.10995250940322876,0.3733803927898407,-0.45767730474472046
1701882276335062300,4.785062255859375,0.1185043677687645,0.40758782625198364,-0.4931064546108246
1701882276344654800,4.79465478515625,0.1185043677687645,0.441795289516449,-0.5175403356552124
1701882276354246700,4.80424658203125,0.1172826737165451,0.4637857675552368,-0.5322006940841675
1701882276363839500,4.813839599609375,0.11239589750766754,0.4772244095802307,-0.548082709312439
1701882276373432800,4.823432861328125,0.1050657257437706,0.4943281412124634,-0.5725166201591492
1701882276383025700,4.833025634765625,0.09651386737823486,0.511431872844696,-0.6042806506156921
1701882276392617500,4.842617431640625,0.08796200156211853,0.5175403356552124,-0.6470399498939514
1701882276402210300,4.852210205078125,0.10384403169155121,0.5370874404907227,-0.6971294283866882
1701882276411803600,4.8618037109375,0.11239589750766754,0.5456393361091614,-0.7337802648544312
1701882276421396200,4.871396240234375,0.10873081535100937,0.5578562617301941,-0.7643226385116577
1701882276430988300,4.88098828125,0.10262233763933182,0.5810684561729431,-0.7960866689682007
1701882276440580900,4.890580810546875,0.08796200156211853,0.603058934211731,-0.8205205798149109
1701882276450174500,4.900174560546875,0.07452336698770523,0.6213843822479248,-0.830294132232666
1701882276459767000,4.90976708984375,0.06841489672660828,0.6360446810722351,-0.8290724158287048
1701882276469359000,4.919359130859375,0.06352811306715012,0.6445965766906738,-0.8266290426254272
1701882276478951700,4.92895166015625,0.06719319522380829,0.6531484127044678,-0.8290724158287048
1701882276488545300,4.938545166015625,0.07330167293548584,0.6360446810722351,-0.8437327742576599
1701882276498137900,4.948137939453125,0.0781884491443634,0.6116108298301697,-0.8706100583076477
1701882276507729700,4.957729736328125,0.0794101431965828,0.6140542030334473,-0.9023740887641907
1701882276517322500,4.967322509765625,0.08796200156211853,0.6226060390472412,-0.9304730892181396
1701882276526915800,4.976915771484375,0.1050657257437706,0.6287145614624023,-0.9512419104576111
1701882276536508700,4.9865087890625,0.10750912129878998,0.6042806506156921,-0.9683456420898438
1701882276546100500,4.9961005859375,0.11606097966432571,0.5493044257164001,-0.9988879561424255
1701882276555693000,5.005693115234375,0.1429382562637329,0.4955498278141022,-1.028208613395691
1701882276565286700,5.01528662109375,0.17225892841815948,0.4112529158592224,-1.0782980918884277
1701882276574879200,5.024879150390625,0.1979145109653473,0.35138988494873047,-1.1418262720108032
1701882276584471300,5.03447119140625,0.24189551174640656,0.39048412442207336,-1.1882506608963013
1701882276594064000,5.04406396484375,0.29442837834358215,0.5089884996414185,-1.238340139389038
1701882276603657500,5.053657470703125,0.34818294644355774,0.6287145614624023,-1.287207841873169
1701882276613250000,5.06325,0.3640649616718292,0.728893518447876,-1.3311889171600342
1701882276622841900,5.072841796875,0.3518480062484741,0.8254073858261108,-1.3678396940231323
1701882276632434700,5.0824345703125,0.342074453830719,0.9170344471931458,-1.4301460981369019
1701882276642028000,5.092028076171875,0.33352261781692505,0.9304730892181396,-1.50589120388031
1701882276651620900,5.101620849609375,0.2858765125274658,0.9243646264076233,-1.5559806823730469
1701882276661212700,5.111212646484375,0.2223484069108963,0.9145910739898682,-1.5804145336151123
1701882276670805500,5.120805419921875,0.16859383881092072,0.8974873423576355,-1.6036267280578613
1701882276680398800,5.13039892578125,0.12094775587320328,0.9206995368003845,-1.6292823553085327
1701882276689991400,5.139991455078125,0.08674030750989914,0.9536852836608887,-1.657381296157837
1701882276699583500,5.14958349609375,0.07330167293548584,0.9353598356246948,-1.6830369234085083
1701882276709176000,5.159176025390625,-0.0647498071193695,0.9231429100036621,-1.681815266609192
1701882276718769700,5.168769775390625,-0.1844758689403534,0.9659022092819214,-1.7062491178512573
1701882276728362200,5.1783623046875,-0.25289076566696167,1.08074152469635,-1.7319047451019287
1701882276737954300,5.187954345703125,-0.34696123003959656,1.097845196723938,-1.7428998947143555
1701882276747547000,5.197546875,-0.4068242609500885,0.8926005363464355,-1.7306829690933228
1701882276757140500,5.207140380859375,-0.32252734899520874,0.9512419104576111,-1.7160226106643677
1701882276766733000,5.216733154296875,-0.2993151545524597,1.0098832845687866,-1.6561596393585205
1701882276776324900,5.226324951171875,-0.45324867963790894,0.5248705148696899,-1.4142640829086304
1701882276785917700,5.235917724609375,-0.6694886088371277,0.3232909142971039,-1.2456703186035156
1701882276795511000,5.245510986328125,-0.962695300579071,0.04840964451432228,-1.1344960927963257
1701882276805103900,5.255103759765625,-1.1483927965164185,-0.27533939480781555,-1.1344960927963257
1701882276814695700,5.26469580078125,-1.0323318243026733,-0.399952232837677,-1.3226370811462402
1701882276824288500,5.27428857421875,-0.7098045349121094,-0.5125008225440979,-1.522994875907898
1701882276833881900,5.2838818359375,-0.21501824259757996,-0.5919110178947449,-1.7233527898788452
1701882276843474400,5.293474365234375,0.25533416867256165,-0.7751652002334595,-1.7135792970657349
1701882276853066500,5.30306640625,0.6389462351799011,-1.0769237279891968,-1.50589120388031
1701882276862659000,5.3126591796875,0.9907942414283752,-1.1954281330108643,-1.3324105739593506
1701882276872252700,5.322252685546875,1.235133171081543,-1.285833477973938,-1.215127944946289
1701882276881845200,5.33184521484375,1.3206517696380615,-1.355470061302185,-1.2505570650100708
1701882276891437000,5.34143701171875,1.3939534425735474,-1.2931636571884155,-1.5022261142730713
1701882276901030000,5.35102978515625,1.4135005474090576,-0.9645278453826904,-2.126512050628662
1701882276910623200,5.360623291015625,1.3304253816604614,-0.5210527181625366,-3.116084575653076
1701882276920216000,5.370216064453125,1.0934165716171265,-0.19715094566345215,-4.28891134262085
1701882276929808000,5.379807861328125,0.6230642199516296,0.2793098986148834,-5.338499546051025
1701882276939400400,5.389400390625,0.10140064358711243,0.4662291705608368,-6.047082424163818
1701882276948994000,5.398994140625,-0.3640649616718292,0.10705098509788513,-6.3366241455078125
1701882276958586600,5.408586669921875,-0.5729747414588928,-0.37918344140052795,-6.263322353363037
1701882276968178700,5.4181787109375,-0.522885262966156,-0.6578825116157532,-6.031200408935547
1701882276977771300,5.427771240234375,-0.21990501880645752,-0.9681929349899292,-5.811295509338379
1701882276987364900,5.43736474609375,0.4068242609500885,-1.4959648847579956,-5.442343711853027
1701882276996957400,5.44695751953125,1.0469921827316284,-1.521620512008667,-5.182122707366943
1701882277006549200,5.45654931640625,1.4098354578018188,-1.803831934928894,-4.915793418884277
1701882277016142000,5.46614208984375,1.4868022203445435,-2.045727491378784,-4.594335079193115
1701882277025735400,5.4757353515625,1.2864443063735962,-1.8172706365585327,-4.367099761962891
1701882277035328300,5.485328369140625,0.9785773158073425,-1.4470971822738647,-4.277915954589844
1701882277044920000,5.494920166015625,0.7061394453048706,-1.45198392868042,-4.205836296081543
1701882277054512600,5.5045126953125,0.4862344264984131,-1.1807677745819092,-4.229048252105713
1701882277064106200,5.514106201171875,0.24189551174640656,-0.6273401379585266,-4.356104373931885
1701882277073698800,5.52369873046875,0.004886778071522713,-0.10185877978801727,-4.413524150848389
1701882277083291000,5.533290771484375,-0.18691925704479218,0.09605573117733002,-4.30845832824707
1701882277092883500,5.542883544921875,-0.35917818546295166,0.12781979143619537,-4.081223011016846
1701882277102477000,5.55247705078125,-0.4850127100944519,0.12048961967229843,-3.858874797821045
1701882277112069600,5.562069580078125,-0.5289937257766724,0.021532366052269936,-3.6719555854797363
1701882277121661400,5.571661376953125,-0.6084038615226746,-0.14217470586299896,-3.4874796867370605
1701882277131254300,5.581254150390625,-0.7330167293548584,-0.3865135908126831,-3.281013250350952
1701882277140847600,5.59084765625,-0.8246437907218933,-0.6994200944900513,-3.0965373516082764
1701882277150440400,5.6004404296875,-0.8893936276435852,-0.8276980519294739,-2.991471767425537
1701882277160032300,5.6100322265625,-0.8845068216323853,-0.7372926473617554,-2.987806558609009
1701882277169624800,5.619624755859375,-0.9089407324790955,-0.6529957056045532,-3.0354528427124023
1701882277179218400,5.629218505859375,-0.9859074950218201,-0.6053496599197388,-3.083098888397217
1701882277188811000,5.63881103515625,-1.0250016450881958,-0.555260181427002,-3.205268383026123
1701882277198403000,5.648403076171875,-0.9003888368606567,-0.5894675850868225,-3.283456802368164
1701882277207995600,5.65799560546875,-0.7342383861541748,-0.527161180973053,-3.2614662647247314
1701882277217589200,5.66758935546875,-0.6132906675338745,-0.2557922899723053,-3.1429617404937744
1701882277227181800,5.677181884765625,-0.4960079789161682,0.18279604613780975,-2.9022879600524902
1701882277236773600,5.686773681640625,-0.4190412163734436,0.5908420085906982,-2.589534282684326
1701882277246366500,5.696366455078125,-0.3970507085323334,0.8327375054359436,-2.306101083755493
1701882277255959800,5.705959716796875,-0.3921639323234558,0.8437327742576599,-2.0935263633728027
1701882277265552600,5.715552734375,-0.36284327507019043,0.7032378911972046,-1.9566965103149414
1701882277275144400,5.72514453125,-0.3249707520008087,0.46134239435195923,-1.8821730613708496
1701882277284737000,5.734737060546875,-0.23090025782585144,0.1119377613067627,-1.8540741205215454
1701882277294330600,5.74433056640625,-0.043981000781059265,-0.2435753494501114,-1.8247535228729248
1701882277303923200,5.753923095703125,0.15393351018428802,-0.4355340898036957,-1.764890432357788
1701882277313515300,5.763515380859375,0.2602209448814392,-0.41949936747550964,-1.6708199977874756
1701882277323107800,5.77310791015625,0.3432961702346802,-0.24846212565898895,-1.639055848121643
1701882277332701400,5.782701416015625,0.43981003761291504,-0.21303297579288483,-1.5657542943954468
1701882277342294000,5.7922939453125,0.46546560525894165,-0.1763821393251419,-1.427702784538269
1701882277351885800,5.8018857421875,0.4092676639556885,-0.11529742181301117,-1.2517787218093872
1701882277361478700,5.811478759765625,0.35795649886131287,-0.0261137206107378,-1.075854778289795
1701882277371072000,5.821072021484375,0.3530697226524353,0.06917845457792282,-0.8803836107254028
1701882277380664800,5.830664794921875,0.3286358118057251,0.17180079221725464,-0.6507050395011902
1701882277390256600,5.840256591796875,0.3286358118057251,0.20600824058055878,-0.43446511030197144
1701882277399849200,5.84984912109375,0.32008397579193115,0.23166382312774658,-0.26220619678497314
1701882277409442800,5.85944287109375,0.2980934679508209,0.21822518110275269,-0.14614520967006683
1701882277419035400,5.869035400390625,0.29442837834358215,0.2304421216249466,-0.12171131372451782
1701882277428627200,5.878627197265625,0.2907632887363434,0.20967331528663635,-0.0850604772567749
1701882277438220000,5.888219970703125,0.17470231652259827,0.1889045089483261,0.021226942539215088
1701882277447813600,5.897813720703125,0.08429691940546036,0.04963133856654167,0.1104106456041336
1701882277457406200,5.90740625,0.09040539711713791,-0.06276455521583557,0.16050012409687042
1701882277466998000,5.916998046875,0.1441599577665329,-0.10552386194467545,0.18737739324569702
1701882277476590800,5.9265908203125,0.19180603325366974,-0.06154286116361618,0.24724042415618896
1701882277486184200,5.93618408203125,0.18691925704479218,0.10094250738620758,0.3706315755844116
1701882277495777000,5.945777099609375,0.06963659077882767,0.284196674823761,0.5943543910980225
1701882277505368800,5.955368896484375,-0.05986303091049194,0.4503471553325653,0.8851176500320435
1701882277514961400,5.96496142578125,-0.14782503247261047,0.617719292640686,1.1819894313812256
1701882277524555000,5.974554931640625,-0.16370706260204315,0.677582323551178,1.4299933910369873
1701882277534147600,5.984147705078125,-0.1050657257437706,0.645818293094635,1.6303513050079346
1701882277543739400,5.993739501953125,-0.042759306728839874,0.5822901725769043,1.7928366661071777
1701882277553332200,6.003332275390625,-0.03420744836330414,0.6507050395011902,2.042062282562256
1701882277562925800,6.01292578125,-0.02076880633831024,1.1015102863311768,2.7958478927612305
1701882277572518400,6.022518310546875,0.2492256760597229,1.4142640829086304,3.653477430343628
1701882277582110200,6.032110107421875,0.5619794726371765,1.3385190963745117,3.847726821899414
1701882277591702800,6.041702880859375,0.7647807598114014,1.075854778289795,3.4677798748016357
1701882277601296400,6.05129638671875,0.8710681796073914,0.7130114436149597,2.8862533569335938
1701882277610889000,6.060888916015625,0.8539644479751587,0.37704548239707947,2.227759838104248
1701882277620481000,6.07048095703125,0.7061394453048706,0.11438114941120148,1.544832706451416
1701882277630073600,6.080073486328125,0.5387672781944275,-0.04443913698196411,1.0072871446609497
1701882277639667200,6.089667236328125,0.4349232614040375,-0.11896250396966934,0.7177455425262451
1701882277649259800,6.099259765625,0.4202629029750824,-0.14217470586299896,0.679872989654541
1701882277658851600,6.1088515625,0.42881476879119873,-0.1372879147529602,0.7873821258544922
1701882277668444400,6.1184443359375,0.42881476879119873,-0.1372879147529602,0.9290986657142639
1701882277678037800,6.128037841796875,0.4715740978717804,-0.2582356929779053,1.0757020711898804
1701882277687630600,6.137630615234375,0.5864133834838867,-0.2851129472255707,1.2870551347732544
1701882277697222400,6.147222412109375,0.5118899941444397,-0.2301367074251175,1.3933426141738892
1701882277706815200,6.156815185546875,0.4080459773540497,-0.19959434866905212,1.3908991813659668
1701882277716408600,6.16640869140625,0.3127537965774536,-0.18004722893238068,1.3017154932022095
1701882277726001200,6.176001220703125,0.24678228795528412,-0.18126893043518066,1.1734375953674316
1701882277735593200,6.18559326171875,0.20035789906978607,-0.16783028841018677,1.058598279953003
1701882277745185800,6.195185791015625,0.17592400312423706,-0.20814619958400726,0.9852966070175171
1701882277754779400,6.204779296875,0.16737215220928192,-0.2154763638973236,0.9303203821182251
1701882277764372000,6.2143720703125,0.15393351018428802,-0.2313583940267563,0.9009997248649597
1701882277773963800,6.2239638671875,0.14049486815929413,-0.23746687173843384,0.883895993232727
1701882277783556600,6.233556640625,0.10750912129878998,-0.2301367074251175,0.860683798789978
1701882277793150000,6.24314990234375,0.0659715011715889,-0.3107685446739197,0.8423583507537842
1701882277802742500,6.252742431640625,0.06352811306715012,-0.469741553068161,0.8484668135643005
1701882277812334600,6.26233447265625,0.05375456064939499,-0.37796175479888916,0.8399149775505066
1701882277821927200,6.27192724609375,-0.03542914241552353,-0.3474193811416626,0.7983773946762085
1701882277831520800,6.281520751953125,-0.10017894953489304,-0.4146125912666321,0.7360709309577942
1701882277841113300,6.29111328125,-0.14171656966209412,-0.46851983666419983,0.6322268843650818
1701882277850705200,6.300705078125,-0.18081079423427582,-0.5234960913658142,0.5013529062271118
1701882277860298000,6.310298095703125,-0.22967857122421265,-0.5540384650230408,0.36452311277389526
1701882277869891300,6.319891357421875,-0.30908870697021484,-0.5161659121513367,0.2301367074251175
1701882277879484200,6.329484130859375,-0.39827242493629456,-0.4746283292770386,0.09697200357913971
1701882277889076000,6.339075927734375,-0.5277720093727112,-0.5051707029342651,-0.009315420873463154
1701882277898668500,6.34866845703125,-0.6548282504081726,-0.5259394645690918,-0.07773031294345856
1701882277908262100,6.35826220703125,-0.7892146706581116,-0.5662553906440735,-0.1119377613067627
1701882277917854700,6.367854736328125,-0.8857285380363464,-0.6114581227302551,-0.14248012006282806
1701882277927446800,6.37744677734375,-0.971247136592865,-0.6163448691368103,-0.23166382312774658
1701882277937039400,6.387039306640625,-1.0335536003112793,-0.6285618543624878,-0.3868190348148346
1701882277946633000,6.396633056640625,-1.060430884361267,-0.7140804529190063,-0.5761816501617432
1701882277956225500,6.4062255859375,-1.0787562131881714,-0.7201889157295227,-0.7423321604728699
1701882277965817300,6.4158173828125,-1.1141854524612427,-0.6505523324012756,-0.7997517585754395
1701882277975410200,6.42541015625,-1.2145171165466309,-0.6444438695907593,-0.778982937335968
1701882277985003500,6.43500341796875,-1.3317997455596924,-0.679872989654541,-0.73255854845047
1701882277994596000,6.44459619140625,-1.4124315977096558,-0.7262973785400391,-0.6653653979301453
1701882278004188200,6.454188232421875,-1.4539692401885986,-0.7715001106262207,-0.5358657836914062
1701882278013780700,6.46378076171875,-1.4356437921524048,-0.8557969927787781,-0.31351736187934875
1701882278023374300,6.473374267578125,-1.3806675672531128,-0.8118160367012024,-0.10460758954286575
1701882278032967000,6.482966796875,-1.2902621030807495,-0.7837170362472534,0.037108972668647766
1701882278042558700,6.492558837890625,-1.1679399013519287,-0.8790091872215271,0.06887302547693253
1701882278052151600,6.502151611328125,-1.0286667346954346,-0.9022213816642761,0.04199574887752533
1701882278061745000,6.511744873046875,-0.9138274788856506,-0.8191461563110352,0.02367033064365387
1701882278071337700,6.521337646484375,-0.841747522354126,-0.6053496599197388,0.033443886786699295
1701882278080929500,6.530929443359375,-0.8173136115074158,-0.36574479937553406,0.017561858519911766
1701882278090522400,6.5405224609375,-0.8270871639251709,-0.08108997344970703,-0.0068720318377017975
1701882278100115700,6.55011572265625,-0.8478559851646423,0.14125843346118927,0.0016798300202935934
1701882278109708300,6.559708251953125,-0.869846522808075,0.3110739588737488,0.02733541466295719
1701882278119300400,6.56930029296875,-0.8783983588218689,0.34161633253097534,0.08842013776302338
1701882278128893000,6.578892822265625,-0.8600729703903198,0.18768282234668732,0.15439164638519287
1701882278138486500,6.588486572265625,-0.8258655071258545,-0.04688252881169319,0.15439164638519287
1701882278148079000,6.5980791015625,-0.8063184022903442,-0.16783028841018677,0.13484452664852142
1701882278157671000,6.6076708984375,-0.7855495810508728,-0.16660858690738678,0.1360662281513214
1701882278167263700,6.617263671875,-0.7513421177864075,-0.09575030952692032,0.15316994488239288
1701882278176857000,6.626857177734375,-0.7379034757614136,0.001985253533348441,0.164165198802948
1701882278186449700,6.63644970703125,-0.7232431769371033,0.07650861889123917,0.18004722893238068
1701882278196041700,6.646041748046875,-0.7293516397476196,0.08628217875957489,0.17882554233074188
1701882278205634300,6.65563427734375,-0.7440119385719299,0.037414394319057465,0.17149536311626434
1701882278215228000,6.665227783203125,-0.7660024762153625,-0.0713164210319519,0.15805672109127045
1701882278224820500,6.674820556640625,-0.7855495810508728,-0.19348587095737457,0.14828316867351532
1701882278234412300,6.684412353515625,-0.781884491443634,-0.3449759781360626,0.1385096162557602
1701882278244005000,6.694005126953125,-0.7452336549758911,-0.5247178077697754,0.11407572776079178
1701882278253598500,6.703598388671875,-0.6927008032798767,-0.6383354067802429,0.08353336155414581
1701882278263191300,6.71319140625,-0.6389462351799011,-0.6395570635795593,0.10796725004911423
1701882278272783000,6.722783203125,-0.6035171151161194,-0.5992411375045776,0.15927842259407043
1701882278282375700,6.732375732421875,-0.5680879354476929,-0.5589252710342407,0.18493400514125824
1701882278291969300,6.74196923828125,-0.5204418897628784,-0.5234960913658142,0.19226416945457458
1701882278301561900,6.751561767578125,-0.4679090082645416,-0.45508119463920593,0.18615570664405823
1701882278311153700,6.761153564453125,-0.41293275356292725,-0.3571929335594177,0.15805672109127045
1701882278320746500,6.77074658203125,-0.3836120665073395,-0.22280654311180115,0.10796725004911423
1701882278330340000,6.780340087890625,-0.3762819170951843,-0.013896775431931019,-0.019088976085186005
1701882278339932700,6.7899326171875,-0.2480039894580841,0.19623468816280365,-0.18646112084388733
1701882278349524500,6.7995244140625,-0.10017894953489304,0.41980478167533875,-0.23655059933662415
1701882278359117000,6.809116943359375,0.04886778071522713,0.5541911721229553,-0.27686652541160583
1701882278368710700,6.818710693359375,0.18814095854759216,0.6189410090446472,-0.35627666115760803
1701882278378303200,6.82830322265625,0.2993151545524597,0.7386670708656311,-0.4540122151374817
1701882278387895300,6.837895263671875,0.3811686933040619,0.9622371196746826,-0.5212054252624512
1701882278397487900,6.84748779296875,0.4190412163734436,1.1992459297180176,-0.571294903755188
1701882278407081500,6.85708154296875,0.4337015450000763,1.2823210954666138,-0.6519267559051514
1701882278416674000,6.866674072265625,0.4434750974178314,1.4790139198303223,-0.6238277554512024
1701882278426265900,6.876265869140625,0.44103172421455383,1.5535372495651245,-0.5737382769584656
1701882278435858700,6.885858642578125,0.4312581717967987,1.2542221546173096,-0.6287145614624023
1701882278445452000,6.8954521484375,0.4031592011451721,0.8449544906616211,-0.7069029808044434
1701882278455044600,6.905044677734375,0.3567348122596741,0.5224271416664124,-0.7374453544616699
1701882278464636700,6.91463671875,0.3017585575580597,0.34283801913261414,-0.6971294283866882
1701882278474229200,6.924229248046875,0.24433889985084534,0.2438807636499405,-0.603058934211731
1701882278483822800,6.93382275390625,0.18691925704479218,0.1522536724805832,-0.4821111857891083
1701882278493415400,6.94341552734375,0.13438639044761658,0.058183200657367706,-0.35138988494873047
1701882278503007200,6.95300732421875,0.10628741979598999,-0.0261137206107378,-0.22677704691886902
1701882278512600000,6.96260009765625,0.10017894953489304,-0.07375980913639069,-0.12781979143619537
1701882278522193400,6.972193359375,0.10262233763933182,-0.08231166750192642,-0.06062658876180649
1701882278531786200,6.9817861328125,0.10628741979598999,-0.0713164210319519,-0.016645587980747223
1701882278541378000,6.9913779296875,0.11361759155988693,-0.05665608495473862,0.010231691412627697
1701882278550971000,7.000970947265625,0.13560809195041656,-0.029778804630041122,0.029778804630041122
1701882278560564200,7.010564208984375,0.17836740612983704,0.008093725889921188,0.037108972668647766
1701882278570156800,7.02015673828125,0.237008735537529,0.05329642444849014,0.02733541466295719
1701882278579748600,7.02974853515625,0.29687178134918213,0.10338589549064636,0.005344913341104984
1701882278589341400,7.039341552734375,0.342074453830719,0.1620272397994995,-0.010537114925682545
1701882278598935000,7.04893505859375,0.367730051279068,0.21089501678943634,-0.01175880990922451
1701882278608527600,7.058527587890625,0.37383851408958435,0.24632415175437927,-0.004428642801940441
1701882278618119400,7.068119384765625,0.37261682748794556,0.27320143580436707,0.004123218823224306
1701882278627712300,7.077712158203125,0.3665083646774292,0.30007871985435486,0.007788302376866341
1701882278637305600,7.0873056640625,0.36162158846855164,0.3367295563220978,-0.0007635590736754239
1701882278646898200,7.096898193359375,0.36039987206459045,0.38071054220199585,-0.02764083817601204
1701882278656490200,7.106490234375,0.3567348122596741,0.43568679690361023,-0.07773031294345856
1701882278666082800,7.116082763671875,0.34940463304519653,0.5016583204269409,-0.15347537398338318
1701882278675676400,7.125676513671875,0.33230090141296387,0.5554128885269165,-0.2414373755455017
1701882278685269000,7.13526904296875,0.3139754831790924,0.5981721878051758,-0.3232909142971039
1701882278694860800,7.14486083984375,0.2907632887363434,0.6213843822479248,-0.3953709006309509
1701882278704453600,7.15445361328125,0.26999449729919434,0.62627112865448,-0.4491254389286041
1701882278714047000,7.164046875,0.24189551174640656,0.6226060390472412,-0.4821111857891083
1701882278723639600,7.1736396484375,0.2089097648859024,0.6055023670196533,-0.49677154421806335
1701882278733231600,7.183231689453125,0.17470231652259827,0.5737382769584656,-0.4906630516052246
1701882278742824200,7.19282421875,0.13438639044761658,0.5407525300979614,-0.4747810363769531
1701882278752417800,7.202417724609375,0.09773556143045425,0.5297572612762451,-0.44668206572532654
1701882278762010400,7.21201025390625,0.05741964280605316,0.5163186192512512,-0.41858309507369995
1701882278771602200,7.221602294921875,0.01832541823387146,0.5065450668334961,-0.3953709006309509
1701882278781195000,7.231195068359375,-0.030542362481355667,0.49921491742134094,-0.3746020793914795
1701882278790788400,7.240788330078125,-0.08063183724880219,0.48577627539634705,-0.358720064163208
1701882278800381000,7.250380859375,-0.12827792763710022,0.4869979918003082,-0.34283801913261414
1701882278809973000,7.259972900390625,-0.1832541823387146,0.465007483959198,-0.3465031087398529
1701882278819565600,7.269565673828125,-0.24433889985084534,0.44301697611808777,-0.3721587061882019
1701882278829159200,7.2791591796875,-0.3127537965774536,0.4283566474914551,-0.42102646827697754
1701882278838751700,7.288751708984375,-0.3897205591201782,0.4161396920681,-0.5041016936302185
1701882278848343600,7.298343505859375,-0.48012593388557434,0.43080002069473267,-0.6201626658439636
1701882278857936400,7.307936279296875,-0.5790832042694092,0.4540122151374817,-0.7435538172721863
1701882278867529700,7.31752978515625,-0.6804838180541992,0.5004366040229797,-0.8693883419036865
1701882278877122300,7.327122314453125,-0.7721109390258789,0.5859552621841431,-0.9940012097358704
1701882278886714400,7.33671435546875,-0.856407880783081,0.654370129108429,-1.1235008239746094
1701882278896307000,7.346306884765625,-0.939483106136322,0.6922426819801331,-1.2664390802383423
1701882278905900500,7.355900634765625,-1.0237799882888794,0.6946860551834106,-1.4472498893737793
1701882278915493000,7.3654931640625,-1.110520362854004,0.6397097706794739,-1.7013623714447021
1701882278925085000,7.3750849609375,-1.1925265789031982,0.6617003083229065,-1.987238883972168
1701882278934677800,7.384677734375,-1.1790878772735596,0.728893518447876,-2.2083654403686523
1701882278944271000,7.39427099609375,-0.994459331035614,0.8437327742576599,-2.3183181285858154
1701882278953864000,7.403864013671875,-0.8942803740501404,1.0159916877746582,-2.471029758453369
1701882278963455700,7.413455810546875,-0.9089407324790955,0.9744541049003601,-2.684826374053955
1701882278973048600,7.423048583984375,-0.9370396733283997,0.8107470273971558,-2.8864059448242188
1701882278982642000,7.432641845703125,-0.9895725846290588,0.6384881138801575,-3.051334857940674
1701882278992234500,7.442234375,-1.060430884361267,0.44301697611808777,-3.1857211589813232
1701882279001826300,7.451826416015625,-1.1435060501098633,0.14492350816726685,-3.254136085510254
1701882279011419100,7.461419189453125,-1.2303991317749023,-0.3742966651916504,-3.1454052925109863
1701882279021012500,7.471012451171875,-1.2951488494873047,-0.832584798336029,-2.9059531688690186
1701882279030605300,7.480605224609375,-1.3244695663452148,-1.0976924896240234,-2.6481754779815674
1701882279040197000,7.490197021484375,-1.315917730331421,-1.1636639833450317,-2.4148318767547607
1701882279049789700,7.499789794921875,-1.2572764158248901,-1.050046443939209,-2.218139171600342
1701882279059383300,7.50938330078125,-1.1410627365112305,-0.80937260389328,-2.0544321537017822
1701882279068975900,7.518975830078125,-0.939483106136322,-0.46363306045532227,-1.8882815837860107
1701882279078567700,7.528567626953125,-0.684148907661438,-0.11896250396966934,-1.6451643705368042
1701882279088160500,7.538160400390625,-0.5118899941444397,0.1889045089483261,-1.2823210954666138
1701882279097753900,7.54775390625,-0.4703523814678192,0.6922426819801331,-0.8681666851043701
1701882279107346700,7.5573466796875,-0.4691306948661804,1.537655234336853,-0.5920637249946594
1701882279116938500,7.5669384765625,-0.47646087408065796,1.9909039735794067,-0.6714738607406616
1701882279126531000,7.576531005859375,-0.32008397579193115,1.7783291339874268,-0.9561286568641663
1701882279136124700,7.586124755859375,-0.14660334587097168,0.9866710305213928,-1.0734113454818726
1701882279145717200,7.59571728515625,-0.1453816443681717,-0.05787777900695801,-0.7313368916511536
1701882279155309300,7.605309326171875,-0.28098973631858826,-0.38040512800216675,0.029778804630041122
1701882279164902000,7.61490185546875,-0.3958290219306946,0.07773031294345856,0.5772506594657898
1701882279174495500,7.62449560546875,-0.4080459773540497,0.2548760175704956,0.7898254990577698
1701882279184088000,7.634088134765625,-0.3176405727863312,0.2683146595954895,0.8228112459182739
1701882279193680000,7.643679931640625,-0.18691925704479218,0.2573194205760956,0.731184184551239
1701882279203272700,7.653272705078125,-0.05497625470161438,0.19745637476444244,0.5638120174407959
1701882279212866000,7.662865966796875,0.05131116881966591,0.0850604772567749,0.3633013963699341
1701882279222458600,7.672458740234375,0.1172826737165451,-0.021226942539215088,0.15927842259407043
1701882279232050700,7.68205078125,0.130721315741539,-0.05787777900695801,-0.022754060104489326
1701882279241643300,7.691643310546875,0.09651386737823486,-0.051769305020570755,-0.1522536724805832
1701882279251236900,7.70123681640625,0.10017894953489304,-0.0981936976313591,-0.21822518110275269
1701882279260829400,7.710829345703125,0.10995250940322876,-0.11407572776079178,-0.20356485247612
1701882279270421200,7.720421142578125,0.09407047927379608,-0.07620319724082947,-0.13270656764507294
1701882279280013800,7.730013916015625,0.05864133685827255,-0.032222192734479904,-0.05085303261876106
1701882279289607400,7.739607421875,0.021990500390529633,0.019088976085186005,0.018783552572131157
1701882279299200000,7.749199951171875,0.007330167107284069,0.054518118500709534,0.04443913698196411
1701882279308792000,7.7587919921875,-0.0012216945178806782,0.023975754156708717,0.02244863659143448
1701882279318384600,7.768384521484375,0.007330167107284069,0.009315420873463154,-0.010537114925682545
1701882279327978200,7.777978271484375,0.025655584409832954,0.010537114925682545,-0.036192700266838074
1701882279337570800,7.78757080078125,0.04031591862440109,0.020310672000050545,-0.04107947647571564
1701882279347162600,7.79716259765625,0.045202698558568954,0.03374931216239929,-0.037414394319057465
1701882279356755500,7.80675537109375,0.042759306728839874,0.0325276181101799,-0.036192700266838074
1701882279366348800,7.816348876953125,0.03298575058579445,0.02641914412379265,-0.038636088371276855
1701882279375941400,7.82594140625,0.024433890357613564,0.020310672000050545,-0.036192700266838074
1701882279385533400,7.835533447265625,0.01954711228609085,0.015423892997205257,-0.03008422814309597
1701882279395126000,7.8451259765625,0.01832541823387146,0.012980503961443901,-0.022754060104489326
1701882279404719600,7.8547197265625,0.01710372418165207,0.008093725889921188,-0.014202198944985867
1701882279414312200,7.864312255859375,0.014660334214568138,0.0032069480512291193,-0.008093725889921188
1701882279423904000,7.873904052734375,0.009773556143045425,-0.0016798300202935934,-0.004428642801940441
1701882279433496600,7.88349658203125,0.006108472589403391,-0.0004581354442052543,-0.001985253533348441
1701882279443090200,7.893090087890625,0,-0.0004581354442052543,-0.0007635590736754239
1701882279452682800,7.902682861328125,-0.006108472589403391,-0.0016798300202935934,0.0004581354442052543
1701882279462274800,7.91227490234375,-0.012216945178806782,-0.004123218823224306,-0.0007635590736754239
1701882279471867400,7.921867431640625,-0.01588202826678753,-0.004123218823224306,-0.0007635590736754239
1701882279481461000,7.9314609375,-0.01832541823387146,-0.005344913341104984,-0.001985253533348441
1701882279491053600,7.941053466796875,-0.02076880633831024,-0.0065666078589856625,-0.001985253533348441
1701882279500645400,7.950645263671875,-0.025655584409832954,-0.007788302376866341,-0.0007635590736754239
1701882279510238200,7.96023828125,-0.029320668429136276,-0.007788302376866341,0.0029015245381742716
1701882279519831600,7.96983154296875,-0.03298575058579445,-0.010231691412627697,0.0065666078589856625
1701882279529424100,7.979424072265625,-0.03787253051996231,-0.010231691412627697,0.012675080448389053
1701882279539016200,7.98901611328125,-0.04031591862440109,-0.011453386396169662,0.016340164467692375
1701882279548608800,7.99860888671875,-0.043981000781059265,-0.013896775431931019,0.018783552572131157
1701882279558202400,8.008202392578125,-0.045202698558568954,-0.016340164467692375,0.021226942539215088
1701882279567795000,8.017794921875,-0.045202698558568954,-0.016340164467692375,0.021226942539215088
1701882279577386800,8.02738671875,-0.045202698558568954,-0.01511846948415041,0.021226942539215088
1701882279586979300,8.036979248046874,-0.04031591862440109,-0.012675080448389053,0.018783552572131157
1701882279596573000,8.046572998046875,-0.03665083646774292,-0.011453386396169662,0.013896775431931019
1701882279606165500,8.05616552734375,-0.03176405653357506,-0.010231691412627697,0.011453386396169662
1701882279615757600,8.065757568359375,-0.028098974376916885,-0.007788302376866341,0.007788302376866341
1701882279625350100,8.07535009765625,-0.024433890357613564,-0.0065666078589856625,0.0029015245381742716
1701882279634943700,8.08494384765625,-0.02076880633831024,-0.005344913341104984,-0.0007635590736754239
1701882279644536300,8.094536376953124,-0.01710372418165207,-0.004123218823224306,-0.0032069480512291193
1701882279654128000,8.104128173828125,-0.01588202826678753,-0.0016798300202935934,-0.004428642801940441
1701882279663721000,8.113720947265625,-0.014660334214568138,-0.0016798300202935934,-0.004428642801940441
1701882279673314300,8.123314208984375,-0.013438640162348747,-0.0004581354442052543,-0.004428642801940441
1701882279682907000,8.132906982421876,-0.012216945178806782,0.0007635590736754239,-0.004428642801940441
1701882279692499000,8.1424990234375,-0.012216945178806782,0.0007635590736754239,-0.004428642801940441
1701882279702091500,8.152091552734374,-0.010995250195264816,-0.0004581354442052543,-0.0032069480512291193
1701882279711685000,8.16168505859375,-0.009773556143045425,-0.0004581354442052543,-0.0032069480512291193
1701882279721277700,8.171277587890625,-0.007330167107284069,0.0007635590736754239,-0.0032069480512291193
1701882279730869500,8.180869384765625,-0.004886778071522713,0.001985253533348441,-0.0032069480512291193
1701882279740462300,8.19046240234375,-0.0036650835536420345,0.0032069480512291193,-0.0032069480512291193
1701882279750055700,8.2000556640625,-0.0036650835536420345,0.001985253533348441,-0.0032069480512291193
1701882279759648300,8.209648193359374,-0.0024433890357613564,0.0032069480512291193,-0.0032069480512291193
1701882279769240300,8.219240234375,-0.0036650835536420345,0.001985253533348441,-0.0032069480512291193
1701882279778833000,8.2288330078125,-0.0036650835536420345,0.001985253533348441,-0.0032069480512291193
1701882279788426500,8.238426513671875,-0.0036650835536420345,0.001985253533348441,-0.001985253533348441
1701882279798019000,8.24801904296875,-0.0024433890357613564,0.001985253533348441,-0.0032069480512291193
1701882279807611000,8.25761083984375,-0.0012216945178806782,0.004428642801940441,-0.001985253533348441
1701882279817203700,8.26720361328125,-0.0012216945178806782,0.0032069480512291193,-0.0032069480512291193
1701882279826797000,8.276797119140625,0,0.004428642801940441,-0.004428642801940441
1701882279836389600,8.2863896484375,0.0012216945178806782,0.004428642801940441,-0.005650337319821119
1701882279845981700,8.295981689453125,0.0012216945178806782,0.004428642801940441,-0.004428642801940441
1701882279855574300,8.30557421875,0,0.0032069480512291193,-0.0032069480512291193
1701882279865168000,8.31516796875,-0.0012216945178806782,0.0032069480512291193,-0.001985253533348441
1701882279874760400,8.324760498046874,-0.0036650835536420345,0.001985253533348441,-0.001985253533348441
1701882279884352300,8.334352294921874,-0.004886778071522713,0.0032069480512291193,0.0004581354442052543
1701882279893945000,8.343945068359375,-0.006108472589403391,0.0032069480512291193,0.0004581354442052543
1701882279903538400,8.353538330078125,-0.008551862090826035,0.001985253533348441,0.0004581354442052543
1701882279913131000,8.363131103515625,-0.008551862090826035,0.001985253533348441,0.0004581354442052543
1701882279922723000,8.37272314453125,-0.009773556143045425,0.0007635590736754239,0.0004581354442052543
1701882279932315600,8.382315673828124,-0.009773556143045425,0.001985253533348441,0.0004581354442052543
1701882279941909200,8.3919091796875,-0.010995250195264816,0.0007635590736754239,0.0004581354442052543
1701882279951501800,8.401501708984375,-0.012216945178806782,-0.0004581354442052543,-0.0007635590736754239
1701882279961093600,8.41109375,-0.012216945178806782,-0.0004581354442052543,-0.0007635590736754239
1701882279970686200,8.420686279296875,-0.012216945178806782,0.0007635590736754239,-0.0007635590736754239
1701882279980279800,8.43027978515625,-0.013438640162348747,-0.0016798300202935934,-0.001985253533348441
1701882279989872400,8.439872314453124,-0.014660334214568138,-0.0016798300202935934,-0.001985253533348441
1701882279999464400,8.44946435546875,-0.01588202826678753,-0.0029015245381742716,-0.001985253533348441
1701882280009057000,8.45905712890625,-0.01710372418165207,-0.0029015245381742716,-0.0007635590736754239
1701882280018650400,8.468650390625,-0.01710372418165207,-0.0029015245381742716,0.0004581354442052543
1701882280028243200,8.4782431640625,-0.01710372418165207,-0.0029015245381742716,0.0016798300202935934
1701882280037835000,8.4878349609375,-0.01832541823387146,-0.0029015245381742716,0.0029015245381742716
1701882280047427600,8.497427490234376,-0.01832541823387146,-0.0029015245381742716,0.0016798300202935934
1701882280057021200,8.507021240234375,-0.01710372418165207,-0.0029015245381742716,0.0029015245381742716
1701882280066613800,8.51661376953125,-0.01710372418165207,-0.0016798300202935934,0.0029015245381742716
1701882280076205800,8.526205810546875,-0.01588202826678753,-0.0029015245381742716,0.0016798300202935934
1701882280085798400,8.53579833984375,-0.01588202826678753,-0.0029015245381742716,0.0004581354442052543
1701882280095392000,8.54539208984375,-0.014660334214568138,-0.0029015245381742716,0.0004581354442052543
1701882280104984600,8.554984619140624,-0.013438640162348747,-0.0004581354442052543,-0.0007635590736754239
1701882280114576400,8.564576416015624,-0.010995250195264816,0.0007635590736754239,-0.001985253533348441
1701882280124169200,8.574169189453125,-0.007330167107284069,0.001985253533348441,-0.005650337319821119
1701882280133762600,8.583762451171875,-0.006108472589403391,0.0007635590736754239,-0.008093725889921188
1701882280143355100,8.593355224609375,-0.004886778071522713,0.0032069480512291193,-0.009315420873463154
1701882280152947000,8.602947021484376,-0.006108472589403391,0.0032069480512291193,-0.008093725889921188
1701882280162539800,8.612539794921876,-0.004886778071522713,0.0032069480512291193,-0.008093725889921188
1701882280172133400,8.62213330078125,-0.0036650835536420345,0.001985253533348441,-0.009315420873463154
1701882280181726000,8.631725830078125,-0.0036650835536420345,-0.0004581354442052543,-0.010537114925682545
1701882280191317800,8.64131787109375,-0.0036650835536420345,-0.0016798300202935934,-0.010537114925682545
1701882280200910600,8.65091064453125,-0.007330167107284069,-0.004123218823224306,-0.01175880990922451
1701882280210504000,8.66050390625,-0.012216945178806782,-0.005344913341104984,-0.01175880990922451
1701882280220096500,8.670096435546874,-0.01710372418165207,-0.004123218823224306,-0.012980503961443901
1701882280229688600,8.6796884765625,-0.01710372418165207,-0.004123218823224306,-0.01175880990922451
1701882280239281200,8.68928125,-0.014660334214568138,-0.004123218823224306,-0.012980503961443901
1701882280248874500,8.69887451171875,-0.010995250195264816,-0.0004581354442052543,-0.012980503961443901
1701882280258467300,8.70846728515625,-0.008551862090826035,0.0007635590736754239,-0.012980503961443901
1701882280268059100,8.71805908203125,-0.0036650835536420345,0.001985253533348441,-0.012980503961443901
1701882280277651700,8.727651611328126,-0.0024433890357613564,0.0032069480512291193,-0.010537114925682545
1701882280287245300,8.737245361328124,-0.0012216945178806782,0.0032069480512291193,-0.008093725889921188
1701882280296838000,8.746837890625,-0.0024433890357613564,0.001985253533348441,-0.005650337319821119
1701882280306429700,8.7564296875,-0.0024433890357613564,0.001985253533348441,-0.0007635590736754239
1701882280316022500,8.7660224609375,-0.006108472589403391,-0.0004581354442052543,0.0016798300202935934
1701882280325615900,8.775615966796876,-0.006108472589403391,0.0007635590736754239,0.004123218823224306
1701882280335208400,8.78520849609375,-0.007330167107284069,0.0007635590736754239,0.0029015245381742716
1701882280344800500,8.794800537109374,-0.008551862090826035,0.0007635590736754239,0.0029015245381742716
1701882280354393000,8.80439306640625,-0.008551862090826035,0.0007635590736754239,0.0004581354442052543
1701882280363986700,8.813986572265625,-0.008551862090826035,0.0007635590736754239,-0.001985253533348441
1701882280373579300,8.823579345703125,-0.008551862090826035,0.0007635590736754239,-0.004428642801940441
1701882280383171000,8.833171142578125,-0.007330167107284069,0.001985253533348441,-0.005650337319821119
1701882280392764000,8.842763916015626,-0.008551862090826035,0.0007635590736754239,-0.0068720318377017975
1701882280402357200,8.852357177734374,-0.007330167107284069,0.0007635590736754239,-0.008093725889921188
1701882280411949800,8.86194970703125,-0.008551862090826035,0.0007635590736754239,-0.009315420873463154
1701882280421542000,8.8715419921875,-0.008551862090826035,0.0007635590736754239,-0.008093725889921188
1701882280431134500,8.881134521484375,-0.009773556143045425,-0.0004581354442052543,-0.009315420873463154
1701882280440728000,8.89072802734375,-0.009773556143045425,-0.0004581354442052543,-0.0068720318377017975
1701882280450320600,8.900320556640626,-0.009773556143045425,-0.0016798300202935934,-0.004428642801940441
1701882280459912400,8.909912353515624,-0.012216945178806782,-0.004123218823224306,-0.001985253533348441
1701882280469505300,8.91950537109375,-0.013438640162348747,-0.004123218823224306,0.0016798300202935934
1701882280479098600,8.9290986328125,-0.01588202826678753,-0.005344913341104984,0.005344913341104984
1701882280488691200,8.938691162109375,-0.01710372418165207,-0.0029015245381742716,0.007788302376866341
1701882280498283300,8.948283203125,-0.01710372418165207,-0.0029015245381742716,0.007788302376866341
1701882280507875800,8.957875732421876,-0.01710372418165207,-0.0029015245381742716,0.0065666078589856625
1701882280517469400,8.967469482421874,-0.01588202826678753,-0.0029015245381742716,0.004123218823224306
1701882280527062000,8.97706201171875,-0.014660334214568138,-0.0016798300202935934,0.0004581354442052543
1701882280536653800,8.98665380859375,-0.012216945178806782,-0.0016798300202935934,-0.004428642801940441
1701882280546246700,8.99624658203125,-0.009773556143045425,0.0007635590736754239,-0.004428642801940441
1701882280555840000,9.005840087890626,-0.008551862090826035,0.001985253533348441,-0.004428642801940441
1701882280565432600,9.0154326171875,-0.007330167107284069,0.001985253533348441,-0.005650337319821119
1701882280575024600,9.025024658203124,-0.007330167107284069,0.001985253533348441,-0.004428642801940441
1701882280584617200,9.0346171875,-0.007330167107284069,0.0007635590736754239,-0.004428642801940441
1701882280594210800,9.0442109375,-0.006108472589403391,0.0007635590736754239,-0.004428642801940441
1701882280603803400,9.053803466796875,-0.006108472589403391,-0.0004581354442052543,-0.0032069480512291193
1701882280613395200,9.063395263671875,-0.006108472589403391,0.0007635590736754239,-0.001985253533348441
1701882280622987800,9.07298779296875,-0.004886778071522713,0.001985253533348441,-0.0032069480512291193
1701882280632581400,9.082581298828124,-0.004886778071522713,0.001985253533348441,-0.0032069480512291193
1701882280642174000,9.092174072265625,-0.0036650835536420345,0.001985253533348441,-0.004428642801940441
1701882280651766000,9.10176611328125,-0.0036650835536420345,0.001985253533348441,-0.0068720318377017975
1701882280661358600,9.111358642578125,-0.0036650835536420345,0.004428642801940441,-0.008093725889921188
1701882280670952000,9.120951904296875,-0.0036650835536420345,0.0032069480512291193,-0.0068720318377017975
1701882280680544800,9.130544677734376,-0.0036650835536420345,0.0032069480512291193,-0.008093725889921188
1701882280690136600,9.140136474609376,-0.004886778071522713,0.0032069480512291193,-0.0068720318377017975
1701882280699729200,9.149729248046874,-0.007330167107284069,0.0032069480512291193,-0.005650337319821119
1701882280709322800,9.15932275390625,-0.008551862090826035,0.001985253533348441,-0.005650337319821119
1701882280718915300,9.168915283203125,-0.009773556143045425,0.001985253533348441,-0.004428642801940441
1701882280728507100,9.178507080078125,-0.010995250195264816,0.001985253533348441,-0.001985253533348441
1701882280738100000,9.188099853515626,-0.010995250195264816,0.0007635590736754239,-0.001985253533348441
1701882280747693300,9.197693359375,-0.013438640162348747,-0.0004581354442052543,-0.0007635590736754239
1701882280757286000,9.207285888671874,-0.013438640162348747,-0.0004581354442052543,0.0004581354442052543
1701882280766878000,9.2168779296875,-0.012216945178806782,-0.0004581354442052543,0.0004581354442052543
1701882280776470500,9.226470458984375,-0.012216945178806782,-0.0004581354442052543,0.0016798300202935934
1701882280786064100,9.236064208984375,-0.010995250195264816,-0.0016798300202935934,0.0004581354442052543
1701882280795656700,9.24565673828125,-0.010995250195264816,-0.0016798300202935934,0.0004581354442052543
1701882280805248500,9.25524853515625,-0.009773556143045425,-0.0016798300202935934,-0.0007635590736754239
1701882280814841300,9.26484130859375,-0.009773556143045425,-0.0004581354442052543,-0.0007635590736754239
1701882280824434700,9.2744345703125,-0.010995250195264816,-0.0016798300202935934,-0.0007635590736754239
1701882280834027300,9.28402734375,-0.009773556143045425,0.0007635590736754239,-0.001985253533348441
1701882280843619300,9.293619384765625,-0.010995250195264816,0.0007635590736754239,-0.001985253533348441
1701882280853212000,9.3032119140625,-0.010995250195264816,0.0007635590736754239,-0.001985253533348441
1701882280862805500,9.312805419921874,-0.009773556143045425,0.001985253533348441,-0.001985253533348441
1701882280872398000,9.322398193359374,-0.008551862090826035,0.0032069480512291193,-0.004428642801940441
1701882280881990000,9.331989990234375,-0.007330167107284069,0.0032069480512291193,-0.005650337319821119
1701882280891582700,9.341582763671875,-0.004886778071522713,0.001985253533348441,-0.0068720318377017975
1701882280901176000,9.351176025390625,-0.0024433890357613564,0.004428642801940441,-0.0068720318377017975
1701882280910768600,9.3607685546875,0,0.001985253533348441,-0.010537114925682545
1701882280920360700,9.370360595703126,-0.0012216945178806782,-0.0004581354442052543,-0.012980503961443901
1701882280929953300,9.379953369140624,-0.0024433890357613564,-0.0065666078589856625,-0.010537114925682545
1701882280939547000,9.389546875,0,-0.0065666078589856625,-0.008093725889921188
1701882280949139500,9.399139404296875,0.004886778071522713,-0.011453386396169662,-0.008093725889921188
1701882280958731300,9.408731201171875,0.007330167107284069,-0.013896775431931019,-0.005650337319821119
1701882280968323800,9.41832373046875,0.004886778071522713,-0.018783552572131157,-0.005650337319821119
1701882280977917400,9.42791748046875,-0.0012216945178806782,-0.01511846948415041,-0.001985253533348441
1701882280987510000,9.437510009765624,-0.0024433890357613564,-0.012675080448389053,0.0016798300202935934
1701882280997101800,9.447101806640624,-0.006108472589403391,-0.013896775431931019,0.005344913341104984
1701882281006694700,9.456694580078125,-0.012216945178806782,-0.018783552572131157,0.011453386396169662
1701882281016288000,9.4662880859375,-0.021990500390529633,-0.02244863659143448,0.021226942539215088
1701882281025880800,9.475880859375,-0.03298575058579445,-0.02733541466295719,0.031000498682260513
1701882281035472600,9.48547265625,-0.043981000781059265,-0.029778804630041122,0.04077405482530594
1701882281045065200,9.495065185546874,-0.05375456064939499,-0.031000498682260513,0.0456608310341835
1701882281054658800,9.504658935546875,-0.0659715011715889,-0.02489202655851841,0.0456608310341835
1701882281064251400,9.51425146484375,-0.07330167293548584,-0.018783552572131157,0.04199574887752533
1701882281073843200,9.52384326171875,-0.0794101431965828,-0.012675080448389053,0.037108972668647766
1701882281083436000,9.53343603515625,-0.08063183724880219,-0.0065666078589856625,0.028557108715176582
1701882281093029400,9.543029296875,-0.0794101431965828,-0.007788302376866341,0.021226942539215088
1701882281102622200,9.552622314453124,-0.07330167293548584,-0.009009997360408306,0.012675080448389053
1701882281112214000,9.562214111328124,-0.06719319522380829,-0.0065666078589856625,0.004123218823224306
1701882281121806600,9.571806640625,-0.05741964280605316,-0.004123218823224306,-0.0007635590736754239
1701882281131400200,9.581400146484375,-0.04886778071522713,-0.0004581354442052543,-0.005650337319821119
1701882281140992800,9.59099267578125,-0.03665083646774292,0.001985253533348441,-0.0068720318377017975
1701882281150584600,9.60058447265625,-0.024433890357613564,0.009315420873463154,-0.008093725889921188
1701882281160177400,9.610177490234374,-0.01954711228609085,0.01175880990922451,-0.009315420873463154
1701882281169770800,9.619770751953125,-0.01588202826678753,0.009315420873463154,-0.009315420873463154
1701882281179363300,9.62936328125,-0.010995250195264816,0.010537114925682545,-0.0068720318377017975
1701882281188955400,9.638955322265625,-0.007330167107284069,0.01175880990922451,-0.0068720318377017975
1701882281198548000,9.6485478515625,-0.0036650835536420345,0.016645587980747223,-0.005650337319821119
1701882281208141600,9.6581416015625,-0.0012216945178806782,0.017867282032966614,-0.0068720318377017975
1701882281217734100,9.667734130859374,0.0012216945178806782,0.017867282032966614,-0.004428642801940441
1701882281227326000,9.677325927734374,0.0036650835536420345,0.017867282032966614,-0.004428642801940441
1701882281236918800,9.686918701171875,0.0036650835536420345,0.016645587980747223,-0.001985253533348441
1701882281246512000,9.69651220703125,0.0012216945178806782,0.012980503961443901,-0.0007635590736754239
1701882281256104700,9.706104736328125,0,0.012980503961443901,-0.0007635590736754239
1701882281265696500,9.715696533203126,0.0012216945178806782,0.015423892997205257,-0.0032069480512291193
1701882281275289300,9.725289306640626,0.0012216945178806782,0.016645587980747223,-0.008093725889921188
1701882281284883000,9.734883056640625,0.0024433890357613564,0.014202198944985867,-0.014202198944985867
1701882281294475500,9.7444755859375,0.0036650835536420345,0.012980503961443901,-0.023975754156708717
1701882281304067300,9.7540673828125,0.006108472589403391,0.014202198944985867,-0.03130592033267021
1701882281313660200,9.76366015625,0.009773556143045425,0.012980503961443901,-0.037414394319057465
1701882281323253500,9.77325341796875,0.014660334214568138,0.014202198944985867,-0.039857782423496246
1701882281332846000,9.78284619140625,0.01832541823387146,0.016645587980747223,-0.039857782423496246
1701882281342438000,9.79243798828125,0.01954711228609085,0.016645587980747223,-0.037414394319057465
1701882281352030700,9.80203076171875,0.01832541823387146,0.01175880990922451,-0.038636088371276855
1701882281361624000,9.8116240234375,0.01588202826678753,0.005650337319821119,-0.036192700266838074
1701882281371217000,9.821216796875,0.013438640162348747,0.0007635590736754239,-0.02886253222823143
1701882281380808700,9.83080859375,0.013438640162348747,-0.0004581354442052543,-0.017867282032966614
1701882281390401300,9.8404013671875,0.012216945178806782,-0.0016798300202935934,-0.010537114925682545
1701882281399995000,9.849994873046874,0.008551862090826035,-0.009009997360408306,-0.005650337319821119
1701882281409587500,9.85958740234375,0.007330167107284069,-0.011453386396169662,0.0029015245381742716
1701882281419179300,9.86917919921875,0.006108472589403391,-0.010231691412627697,0.011453386396169662
1701882281428772000,9.878772216796875,0.0036650835536420345,-0.016340164467692375,0.017561858519911766
1701882281438365400,9.888365478515626,0.0012216945178806782,-0.02244863659143448,0.02367033064365387
1701882281447958000,9.8979580078125,-0.0024433890357613564,-0.028557108715176582,0.032222192734479904
1701882281457550000,9.907550048828124,-0.007330167107284069,-0.034665580838918686,0.04199574887752533
1701882281467142700,9.917142578125,-0.014660334214568138,-0.04077405482530594,0.051769305020570755
1701882281476736300,9.926736328125,-0.02076880633831024,-0.04810422286391258,0.06276455521583557
1701882281486328800,9.936328857421875,-0.025655584409832954,-0.05543438717722893,0.0725381150841713
1701882281495920600,9.945920654296875,-0.029320668429136276,-0.06032116711139679,0.08231166750192642
1701882281505513500,9.955513427734376,-0.030542362481355667,-0.06154286116361618,0.08842013776302338
1701882281515106800,9.96510693359375,-0.030542362481355667,-0.06642963737249374,0.09330692142248154
1701882281524699400,9.974699462890625,-0.028098974376916885,-0.06398624926805496,0.09208522737026215
1701882281534291200,9.984291259765625,-0.026877280324697495,-0.07009471952915192,0.09330692142248154
1701882281543884000,9.993884033203125,-0.025655584409832954,-0.0981936976313591,0.09330692142248154
1701882281553477600,10.0034775390625,-0.023212196305394173,-0.0859767496585846,0.0713164210319519
1701882281563070200,10.0130703125,-0.024433890357613564,-0.02733541466295719,0.050547610968351364
1701882281572662000,10.022662109375,-0.03298575058579445,0.001985253533348441,0.03833066672086716
1701882281582254600,10.032254638671875,-0.04031591862440109,-0.004123218823224306,0.02489202655851841
1701882281591848200,10.04184814453125,-0.047646086663007736,0.0007635590736754239,0.016340164467692375
1701882281601440800,10.051440673828125,-0.04886778071522713,0.004428642801940441,0.016340164467692375
1701882281611032600,10.061032470703125,-0.05131116881966591,-0.0004581354442052543,0.018783552572131157
1701882281620625400,10.07062548828125,-0.0525328628718853,-0.007788302376866341,0.018783552572131157
1701882281630218800,10.08021875,-0.05375456064939499,-0.01511846948415041,0.012675080448389053
1701882281639811300,10.089811279296875,-0.04886778071522713,-0.013896775431931019,0.005344913341104984
1701882281649403400,10.0994033203125,-0.04153761267662048,-0.005344913341104984,-0.0032069480512291193
1701882281658996000,10.108995849609375,-0.030542362481355667,0.0032069480512291193,-0.012980503961443901
1701882281668589600,10.118589599609376,-0.021990500390529633,0.004428642801940441,-0.021532366052269936
1701882281678182100,10.12818212890625,-0.012216945178806782,0.0032069480512291193,-0.02886253222823143
1701882281687774000,10.13777392578125,-0.0024433890357613564,0.0032069480512291193,-0.036192700266838074
1701882281697366800,10.14736669921875,0.006108472589403391,0.005650337319821119,-0.04230117425322533
1701882281706960100,10.156960205078125,0.014660334214568138,0.010537114925682545,-0.04718795046210289
1701882281716552700,10.166552734375,0.023212196305394173,0.017867282032966614,-0.05329642444849014
1701882281726144800,10.176144775390625,0.029320668429136276,0.022754060104489326,-0.0594048947095871
1701882281735737300,10.1857373046875,0.03420744836330414,0.02641914412379265,-0.06184828653931618
1701882281745331000,10.1953310546875,0.03665083646774292,0.02764083817601204,-0.0594048947095871
1701882281754923500,10.204923583984375,0.03787253051996231,0.02641914412379265,-0.05085303261876106
1701882281764515300,10.214515380859375,0.03420744836330414,0.021532366052269936,-0.04230117425322533
1701882281774108000,10.22410791015625,0.028098974376916885,0.015423892997205257,-0.03008422814309597
1701882281783701500,10.233701416015625,0.01832541823387146,0.010537114925682545,-0.016645587980747223
1701882281793294000,10.243294189453126,0.008551862090826035,0.0068720318377017975,-0.0068720318377017975
1701882281802886000,10.252885986328126,0,0.0007635590736754239,0.0029015245381742716
1701882281812478700,10.262478759765624,-0.006108472589403391,-0.004123218823224306,0.011453386396169662
1701882281822072000,10.272072021484375,-0.008551862090826035,-0.0065666078589856625,0.021226942539215088
1701882281831665000,10.281664794921875,-0.013438640162348747,-0.010231691412627697,0.0261137206107378
1701882281841256700,10.291256591796875,-0.01588202826678753,-0.012675080448389053,0.028557108715176582
1701882281850849300,10.300849365234376,-0.01588202826678753,-0.013896775431931019,0.029778804630041122
1701882281860443000,10.31044287109375,-0.01710372418165207,-0.016340164467692375,0.029778804630041122
1701882281870035500,10.320035400390625,-0.014660334214568138,-0.020005248486995697,0.0261137206107378
1701882281879627300,10.329627197265625,-0.012216945178806782,-0.02244863659143448,0.02489202655851841
1701882281889220000,10.33922021484375,-0.008551862090826035,-0.02367033064365387,0.0261137206107378
1701882281898813400,10.3488134765625,-0.009773556143045425,-0.02733541466295719,0.028557108715176582
1701882281908406000,10.358406005859376,-0.014660334214568138,-0.029778804630041122,0.029778804630041122
1701882281917998000,10.367998046875,-0.01832541823387146,-0.033443886786699295,0.03833066672086716
1701882281927590700,10.377590576171874,-0.010995250195264816,-0.052990999072790146,0.050547610968351364
1701882281937184300,10.387184326171875,-0.0036650835536420345,-0.1629435122013092,0.08108997344970703
1701882281946776800,10.39677685546875,0.0036650835536420345,-0.23746687173843384,0.07498150318861008
1701882281956368600,10.40636865234375,0.004886778071522713,-0.18737739324569702,0.051769305020570755
1701882281965961500,10.41596142578125,0.008551862090826035,-0.15439164638519287,0.04688252881169319
1701882281975554800,10.425554931640624,0.012216945178806782,-0.1776038408279419,0.050547610968351364
1701882281985147400,10.4351474609375,0.007330167107284069,-0.15683503448963165,0.04199574887752533
1701882281994739500,10.444739501953125,-0.009773556143045425,-0.0859767496585846,0.0261137206107378
1701882282004332000,10.45433203125,-0.023212196305394173,-0.031000498682260513,0.013896775431931019
1701882282013925600,10.463925537109375,-0.030542362481355667,-0.010231691412627697,0.009009997360408306
1701882282023518200,10.473518310546876,-0.03787253051996231,-0.007788302376866341,0.0065666078589856625
1701882282033110000,10.483110107421876,-0.046424392610788345,-0.009009997360408306,0.009009997360408306
1701882282042702800,10.492702880859374,-0.05497625470161438,-0.017561858519911766,0.012675080448389053
1701882282052296200,10.502296142578125,-0.06352811306715012,-0.032222192734479904,0.017561858519911766
1701882282061888800,10.511888671875,-0.06841489672660828,-0.028557108715176582,0.018783552572131157
1701882282071480600,10.52148046875,-0.0647498071193695,-0.004123218823224306,0.013896775431931019
1701882282081073400,10.531073486328125,-0.047646086663007736,0.015423892997205257,-0.0007635590736754239
1701882282090666800,10.540666748046876,-0.03665083646774292,0.009315420873463154,-0.012980503961443901
1701882282100259600,10.550259521484374,-0.03787253051996231,-0.004123218823224306,-0.015423892997205257
1701882282109851400,10.559851318359375,-0.04153761267662048,-0.010231691412627697,-0.008093725889921188
1701882282119444000,10.56944384765625,-0.043981000781059265,-0.017561858519911766,0.005344913341104984
1701882282129037600,10.57903759765625,-0.047646086663007736,-0.02733541466295719,0.018783552572131157
1701882282138630100,10.588630126953126,-0.047646086663007736,-0.029778804630041122,0.031000498682260513
1701882282148222000,10.598221923828126,-0.046424392610788345,-0.028557108715176582,0.03588727489113808
1701882282157814800,10.607814697265624,-0.043981000781059265,-0.029778804630041122,0.034665580838918686
1701882282167408000,10.617408203125,-0.0390942245721817,-0.029778804630041122,0.028557108715176582
1701882282177001000,10.6270009765625,-0.03176405653357506,-0.020005248486995697,0.020005248486995697
1701882282186592800,10.6365927734375,-0.01710372418165207,-0.0004581354442052543,0.0065666078589856625
1701882282196185300,10.646185302734375,0.0036650835536420345,0.02641914412379265,-0.014202198944985867
1701882282205779000,10.655779052734376,0.013438640162348747,0.03374931216239929,-0.038636088371276855
1701882282215371500,10.66537158203125,0.023212196305394173,0.03497100621461868,-0.05329642444849014
1701882282224963300,10.67496337890625,0.028098974376916885,0.038636088371276855,-0.058183200657367706
1701882282234556200,10.68455615234375,0.03542914241552353,0.04718795046210289,-0.055739812552928925
1701882282244149500,10.6941494140625,0.03298575058579445,0.04230117425322533,-0.04840964451432228
1701882282253742300,10.703742431640626,0.028098974376916885,0.03130592033267021,-0.036192700266838074
1701882282263334100,10.713334228515626,0.023212196305394173,0.03008422814309597,-0.022754060104489326
1701882282272926700,10.7229267578125,0.02076880633831024,0.03130592033267021,-0.012980503961443901
1701882282282520300,10.732520263671875,0.01954711228609085,0.03008422814309597,-0.008093725889921188
1701882282292113000,10.74211279296875,0.02076880633831024,0.02764083817601204,-0.0068720318377017975
1701882282301704700,10.75170458984375,0.02076880633831024,0.025197450071573257,-0.004428642801940441
1701882282311297500,10.761297607421875,0.01954711228609085,0.016645587980747223,-0.001985253533348441
1701882282320891000,10.770890869140626,0.01954711228609085,0.010537114925682545,0.004123218823224306
1701882282330483500,10.7804833984375,0.01832541823387146,0.012980503961443901,0.013896775431931019
1701882282340075500,10.790075439453124,0.014660334214568138,0.012980503961443901,0.020005248486995697
1701882282349668000,10.799668212890625,0.0012216945178806782,0.01175880990922451,0.02489202655851841
1701882282359261700,10.80926171875,-0.021990500390529633,-0.005344913341104984,0.031000498682260513
1701882282368854300,10.818854248046875,-0.042759306728839874,-0.051769305020570755,0.04932591691613197
1701882282378446000,10.828446044921876,-0.062306419014930725,-0.09208522737026215,0.08719844371080399
1701882282388039000,10.838038818359376,-0.08185353130102158,-0.17149536311626434,0.111632339656353
1701882282397632300,10.84763232421875,-0.09895725548267365,-0.293664813041687,0.1104106456041336
1701882282407224800,10.857224853515625,-0.11117420345544815,-0.41827765107154846,0.09941539168357849
1701882282416817000,10.86681689453125,-0.10750912129878998,-0.5063923597335815,0.1238492801785469
1701882282426409500,10.876409423828125,-0.09529217332601547,-0.4831801950931549,0.09697200357913971
1701882282436003000,10.886003173828126,-0.07207997888326645,-0.3620797097682953,0.07498150318861008
1701882282445595600,10.895595703125,-0.04886778071522713,-0.20692451298236847,0.07009471952915192
1701882282455187500,10.9051875,-0.0390942245721817,-0.02733541466295719,0.04932591691613197
1701882282464780300,10.9147802734375,-0.03176405653357506,0.07650861889123917,0.0261137206107378
1701882282474373600,10.92437353515625,-0.03298575058579445,0.2695363461971283,0.0016798300202935934
1701882282483966200,10.93396630859375,-0.08674030750989914,0.30252209305763245,-0.038636088371276855
1701882282493558300,10.943558349609376,-0.13927318155765533,-0.16172181069850922,-0.010537114925682545
1701882282503150800,10.95315087890625,-0.15393351018428802,-0.22524993121623993,0.10674555599689484
1701882282512744400,10.962744384765625,-0.17225892841815948,-0.029778804630041122,0.13117945194244385
1701882282522337000,10.9723369140625,-0.13316470384597778,0.16935740411281586,0.11651911586523056
1701882282531928800,10.9819287109375,-0.07696675509214401,0.28664007782936096,0.1360662281513214
1701882282541521400,10.991521484375,-0.047646086663007736,0.36605021357536316,0.164165198802948
1701882282551115000,11.001114990234376,-0.043981000781059265,0.3721587061882019,0.1776038408279419
1701882282560707600,11.01070751953125,-0.04031591862440109,0.30007871985435486,0.18249061703681946
1701882282570299600,11.020299560546874,-0.03420744836330414,0.17302247881889343,0.16538690030574799
1701882282579892200,11.029892333984375,-0.029320668429136276,0.04963133856654167,0.13240113854408264
1701882282589485800,11.03948583984375,-0.024433890357613564,-0.007788302376866341,0.111632339656353
1701882282599078400,11.049078369140625,-0.02076880633831024,-0.005344913341104984,0.09330692142248154
1701882282608670200,11.058670166015625,-0.009773556143045425,-0.0029015245381742716,0.07375980913639069
1701882282618262800,11.0682626953125,0.0036650835536420345,0.0068720318377017975,0.052990999072790146
1701882282627856400,11.0778564453125,0.013438640162348747,0.005650337319821119,0.034665580838918686
1701882282637449000,11.087448974609375,0.01710372418165207,-0.02733541466295719,0.02367033064365387
1701882282647041000,11.097041015625,0.024433890357613564,-0.08353336155414581,0.016340164467692375
1701882282656633600,11.106633544921875,0.026877280324697495,-0.23746687173843384,0.007788302376866341
1701882282666227200,11.116227294921876,0.03298575058579445,-0.402395635843277,-0.0032069480512291193
1701882282675819800,11.12581982421875,0.029320668429136276,-0.3694098889827728,-0.014202198944985867
1701882282685411600,11.13541162109375,0.01832541823387146,-0.20692451298236847,-0.0032069480512291193
1701882282695004400,11.14500439453125,0.025655584409832954,-0.06398624926805496,0.009009997360408306
1701882282704597800,11.15459765625,0.03542914241552353,0.08750387281179428,-0.017867282032966614
1701882282714190300,11.1641904296875,0.045202698558568954,0.17180079221725464,-0.03374931216239929
1701882282723782100,11.1737822265625,0.05619794875383377,0.22433365881443024,-0.04718795046210289
1701882282733375000,11.183375,0.05864133685827255,0.25121092796325684,-0.05207473039627075
1701882282742968600,11.192968505859374,0.05375456064939499,0.25976279377937317,-0.058183200657367706
1701882282752561200,11.20256103515625,0.04886778071522713,0.3611634373664856,-0.0594048947095871
1701882282762153000,11.212153076171875,0.05131116881966591,0.5456393361091614,-0.037414394319057465
1701882282771745500,11.22174560546875,0.046424392610788345,0.645818293094635,-0.010537114925682545
1701882282781339100,11.231339111328126,0.04031591862440109,0.6531484127044678,0.011453386396169662
1701882282790931700,11.240931640625,0.03665083646774292,0.6849125027656555,0.020005248486995697
1701882282800523800,11.250523681640624,0.042759306728839874,0.8034168481826782,0.0029015245381742716
1701882282810116400,11.260116455078125,0.05986303091049194,0.8571714162826538,-0.04352286830544472
1701882282819709700,11.269709716796875,0.07696675509214401,0.7716528177261353,-0.10827267915010452
1701882282829302500,11.279302490234375,0.07696675509214401,0.6067240238189697,-0.2047865390777588
1701882282838894300,11.288894287109375,0.043981000781059265,0.43324342370033264,-0.30740886926651
1701882282848487000,11.29848681640625,0.004886778071522713,0.4149180054664612,-0.38193225860595703
1701882282858080500,11.30808056640625,-0.014660334214568138,0.5297572612762451,-0.40758782625198364
1701882282867673000,11.317673095703125,-0.045202698558568954,0.4796678125858307,-0.3843756318092346
1701882282877265000,11.327264892578125,-0.08918370306491852,0.2817533016204834,-0.3196258246898651
1701882282886857700,11.336857666015625,-0.18081079423427582,-0.004123218823224306,-0.23410721123218536
1701882282896451300,11.346451416015626,-0.36162158846855164,-0.19348587095737457,-0.19379130005836487
1701882282906044000,11.3560439453125,-0.7036960124969482,-0.16538690030574799,-0.30130040645599365
1701882282915635700,11.3656357421875,-1.1742011308670044,-0.07498150318861008,-0.5566345453262329
1701882282925228500,11.375228515625,-1.659213900566101,0.0325276181101799,-0.936581552028656
1701882282934822000,11.38482177734375,-2.079476833343506,0.1375933438539505,-1.3996037244796753
1701882282944414500,11.39441455078125,-2.381235361099243,0.2157817929983139,-1.821088433265686
1701882282954006300,11.40400634765625,-2.5534942150115967,0.27320143580436707,-2.2034788131713867
1701882282963599000,11.41359912109375,-2.5986969470977783,0.23899398744106293,-2.626185178756714
1701882282973192400,11.4231923828125,-2.629239320755005,0.15714046359062195,-3.040339469909668
1701882282982785300,11.432785400390625,-2.7208664417266846,0.1913478970527649,-3.350649833679199
1701882282992377000,11.442377197265625,-2.849144220352173,0.4246915578842163,-3.5192437171936035
1701882283001969700,11.4519697265625,-2.9981911182403564,0.778982937335968,-3.5717766284942627
1701882283011563300,11.461563232421875,-3.0947048664093018,1.1259442567825317,-3.5485644340515137
1701882283021155800,11.47115576171875,-3.115473747253418,1.5962965488433838,-3.4838147163391113
1701882283030748000,11.480747802734374,-3.117917060852051,2.2291343212127686,-3.433725118637085
1701882283040340500,11.490340576171874,-3.17044997215271,2.956042528152466,-3.4300601482391357
1701882283049933800,11.499933837890625,-3.314610004425049,3.80145525932312,-3.4496071338653564
1701882283059526700,11.509526611328125,-3.4929773807525635,4.751933574676514,-3.4325034618377686
1701882283069118500,11.519118408203125,-3.5797176361083984,5.711116313934326,-3.3139991760253906
1701882283078711000,11.5287109375,-3.529628276824951,6.49788761138916,-3.109976053237915
1701882283088304600,11.5383046875,-3.4001286029815674,6.948692798614502,-2.9413821697235107
1701882283097897200,11.547897216796875,-3.1741151809692383,7.095296382904053,-2.858307123184204
1701882283107489000,11.557489013671875,-2.808828353881836,7.2333478927612305,-2.8705239295959473
1701882283117081900,11.567081787109375,-2.334810972213745,7.323753356933594,-2.8802974224090576
1701882283126675500,11.576675537109375,-1.810703992843628,7.3115363121032715,-2.797222375869751
1701882283136268000,11.58626806640625,-1.2560546398162842,7.298097610473633,-2.672609567642212
1701882283145859800,11.59585986328125,-0.7440119385719299,7.288323879241943,-2.5394446849823
1701882283155452700,11.60545263671875,-0.3396310806274414,7.323753356933594,-2.4221620559692383
1701882283165046000,11.6150458984375,-0.03665083646774292,7.37750768661499,-2.352525472640991
1701882283174638600,11.624638671875,0.20035789906978607,7.2858805656433105,-2.3366434574127197
1701882283184230700,11.634230712890625,0.3823903799057007,6.976791858673096,-2.340308666229248
1701882283193823200,11.6438232421875,0.5021164417266846,6.629830837249756,-2.3451952934265137
1701882283203416600,11.65341650390625,0.5363239049911499,6.502774715423584,-2.34641695022583
1701882283213009400,11.663009521484375,0.45202696323394775,6.37693977355957,-2.3012142181396484
1701882283222601200,11.672601318359375,0.24678228795528412,6.009210109710693,-2.158276081085205
1701882283232193800,11.68219384765625,-0.030542362481355667,5.519310474395752,-1.9004985094070435
1701882283241787400,11.691787353515625,-0.3115321099758148,5.017193794250488,-1.5559806823730469
1701882283251380000,11.7013798828125,-0.5680879354476929,4.464835166931152,-1.1833637952804565
1701882283260971800,11.7109716796875,-0.8124268651008606,3.8454360961914062,-0.8412894010543823
1701882283270564600,11.720564697265624,-1.0164498090744019,3.1771693229675293,-0.5774033665657043
1701882283280158200,11.730158203125,-1.1227372884750366,2.591977596282959,-0.4002576768398285
1701882283289750800,11.739750732421875,-1.1312891244888306,2.1069648265838623,-0.2793098986148834
1701882283299342600,11.749342529296875,-1.0714260339736938,1.6659331321716309,-0.18279604613780975
1701882283308935400,11.758935302734375,-0.971247136592865,1.2774343490600586,-0.09239064902067184
1701882283318528800,11.76852880859375,-0.8637380003929138,0.9439117312431335,0.0029015245381742716
1701882283328121300,11.778121337890624,-0.7879929542541504,0.649483323097229,0.10552386194467545
1701882283337713200,11.787713134765625,-0.7721109390258789,0.4124746024608612,0.22280654311180115
1701882283347306000,11.797305908203125,-0.8295305967330933,0.21211670339107513,0.3498627543449402
1701882283356899300,11.8068994140625,-0.9333745837211609,0.08628217875957489,0.45615020394325256
1701882283366492200,11.8164921875,-1.0323318243026733,0.1901262104511261,0.4915793240070343
1701882283376084000,11.826083984375,-1.1166287660598755,0.45523393154144287,0.44515493512153625
1701882283385676500,11.835676513671874,-1.194969892501831,0.6055023670196533,0.36818817257881165
1701882283395270100,11.845270263671875,-1.2523895502090454,0.654370129108429,0.2973299026489258
1701882283404862700,11.85486279296875,-0.9138274788856506,1.025765299797058,-0.08750387281179428
