time,seconds_elapsed,z,y,x
1701713474576690400,0.0986904296875,0,0,0
1701713474586284500,0.108284423828125,-0.1266632080078125,-0.612999439239502,0.5375729203224182
1701713474595878100,0.117878173828125,0,0,0
1701713474605472300,0.12747216796875,-0.31743860244750977,0.3266720771789551,-0.5369737148284912
1701713474615067400,0.1370673828125,-0.32836341857910156,0.6405396461486816,-0.8621728420257568
1701713474624661500,0.14666162109375,-0.5203461647033691,0.6828951835632324,-0.9250904321670532
1701713474634255000,0.156255126953125,-0.37879323959350586,0.7537975311279297,-0.898810625076294
1701713474643849200,0.16584912109375,-0.04818105697631836,0.6797523498535156,-0.690035343170166
1701713474653444400,0.1754443359375,0.3104085922241211,0.32700252532958984,-0.19743525981903076
1701713474663038500,0.18503857421875,0.6495828628540039,0.14351511001586914,0.31131136417388916
1701713474672632000,0.194632080078125,0.758333683013916,0.05868196487426758,0.5561425685882568
1701713474682226200,0.20422607421875,0.7301263809204102,-0.02583789825439453,0.5128644108772278
1701713474691821300,0.2138212890625,1.073333740234375,-0.2117753028869629,0.47289180755615234
1701713474701415700,0.223415771484375,0.5090980529785156,0.007174968719482422,0.2833401560783386
1701713474711009000,0.233009033203125,0.06307840347290039,-0.5488691329956055,0.8317527770996094
1701713474720603400,0.242603271484375,0.0031881332397460938,-0.3970780372619629,0.673596203327179
1701713474730198300,0.2521982421875,0.10120773315429688,-0.22335386276245117,0.44371217489242554
1701713474739792600,0.261792724609375,0.22004222869873047,-0.09468936920166016,0.17668330669403076
1701713474749386000,0.271385986328125,0.47301769256591797,0.05896139144897461,-0.20399045944213867
1701713474758980400,0.28098046875,0.6491336822509766,0.34705638885498047,-0.7854668498039246
1701713474768575500,0.290575439453125,0.3681831359863281,0.5102458000183105,-0.8468675017356873
1701713474778169600,0.300169677734375,-0.2587704658508301,0.4709653854370117,-0.5486762523651123
1701713474787763000,0.309762939453125,-0.3836026191711426,0.2815361022949219,-0.18268322944641113
1701713474797357300,0.319357421875,-0.2319021224975586,0.11526775360107422,0.16557377576828003
1701713474806952400,0.328952392578125,0.177978515625,0.03852415084838867,0.45288926362991333
1701713474816546600,0.338546630859375,0.41188859939575195,-0.0075092315673828125,0.5197084546089172
1701713474826140000,0.348139892578125,0.28480052947998047,0.08669900894165039,0.8971551656723022
1701713474835734300,0.357734375,-0.03545427322387695,-0.020118236541748047,0.5645601749420166
1701713474845329400,0.367329345703125,-0.5059704780578613,-0.12665128707885742,0.12258660793304443
1701713474854923500,0.376923583984375,-0.7916178703308105,-0.16015863418579102,-0.0801856517791748
1701713474864516900,0.386516845703125,-0.9267287254333496,0.10482597351074219,-0.35192161798477173
1701713474874111200,0.396111328125,-0.8747410774230957,0.25544023513793945,-0.44995033740997314
1701713474883706400,0.405706298828125,-1.0031194686889648,0.4442410469055176,-0.4692261815071106
1701713474893300500,0.415300537109375,-1.6584057807922363,0.045851707458496094,0.5005319118499756
1701713474902894000,0.42489404296875,-1.5772786140441895,-0.025702476501464844,0.7325317859649658
1701713474912488200,0.43448828125,-1.0237994194030762,-0.012660026550292969,0.36117392778396606
1701713474922083300,0.444083251953125,-0.4215812683105469,-0.16553735733032227,0.28422945737838745
1701713474931677400,0.453677490234375,-0.15449142456054688,-0.40642595291137695,0.42701292037963867
1701713474941271000,0.46327099609375,0.04979562759399414,-0.6423072814941406,0.46959275007247925
1701713474950865200,0.472865234375,0.06790733337402344,-0.7273359298706055,0.5764487981796265
1701713474960460300,0.482460205078125,-0.10798025131225586,-0.6875042915344238,0.7400182485580444
1701713474970054700,0.4920546875,-0.2809624671936035,-0.5965394973754883,0.8554211258888245
1701713474979648000,0.50164794921875,-0.2889060974121094,-0.5292367935180664,0.7340959310531616
1701713474989242000,0.5112421875,0.033779144287109375,-0.5353012084960938,0.4056154191493988
1701713474998837200,0.520837158203125,0.4329562187194824,-0.3775954246520996,0.30392712354660034
1701713475008431400,0.530431396484375,0.6440815925598145,-0.18890666961669922,0.5605318546295166
1701713475018025000,0.54002490234375,1.00325345993042,-0.23295021057128906,1.1085536479949951
1701713475027619300,0.549619384765625,1.3297266960144043,-0.008288383483886719,1.620591640472412
1701713475037214200,0.559214111328125,1.2385873794555664,0.17952585220336914,1.5274875164031982
1701713475046808300,0.568808349609375,1.24247407913208,0.1930398941040039,1.0449553728103638
1701713475056402000,0.57840185546875,0.9524188041687012,0.16850614547729492,0.2403983175754547
1701713475065996300,0.587996337890625,1.199605941772461,0.10359907150268555,0.2069891393184662
1701713475075591200,0.597591064453125,1.4706368446350098,0.10934686660766602,0.2922995686531067
1701713475085185500,0.607185546875,1.8488855361938477,0.08823394775390625,0.2977335751056671
1701713475094779000,0.61677880859375,2.216305732727051,0.12115001678466797,0.30945339798927307
1701713475104373200,0.626373291015625,2.320958137512207,0.14614582061767578,0.35284489393234253
1701713475113968000,0.635968017578125,2.160893440246582,0.012367725372314453,0.3330990672111511
1701713475123562500,0.6455625,1.864532470703125,-0.07407426834106445,0.1939467340707779
1701713475133155800,0.65515576171875,1.4669713973999023,-0.03742408752441406,0.06601837277412415
1701713475142750200,0.664750244140625,0.8627519607543945,0.09261035919189453,0.09259110689163208
1701713475152345000,0.674344970703125,0.3583545684814453,0.1938309669494629,0.03973792493343353
1701713475161939500,0.683939453125,0.21666908264160156,0.20970821380615234,-0.01239478588104248
1701713475171532800,0.69353271484375,0.2720012664794922,0.20203018188476562,-0.03663341701030731
1701713475181127200,0.703127197265625,0.49010372161865234,0.14454984664916992,-0.07735462486743927
1701713475190722300,0.712722412109375,0.7429933547973633,0.07540225982666016,-0.19719503819942474
1701713475200316400,0.72231640625,0.9417343139648438,0.06158924102783203,-0.26943427324295044
1701713475209910000,0.731909912109375,1.035933494567871,0.11098814010620117,-0.2499961256980896
1701713475219504000,0.741504150390625,0.9844942092895508,0.17603302001953125,-0.28817588090896606
1701713475229099300,0.751099365234375,0.8433361053466797,0.21964263916015625,-0.4517345428466797
1701713475238693400,0.760693359375,0.6647186279296875,0.24594449996948242,-0.6135931015014648
1701713475248287000,0.770286865234375,0.5146150588989258,0.23944425582885742,-0.656689465045929
1701713475257881000,0.779881103515625,0.39946937561035156,0.27385807037353516,-0.6031777262687683
1701713475267476200,0.789476318359375,0.3185758590698242,0.32980871200561523,-0.4037058353424072
1701713475277070300,0.7990703125,0.13132190704345703,0.38680410385131836,-0.2607001066207886
1701713475286664000,0.808663818359375,-0.07210588455200195,0.38469362258911133,-0.28057587146759033
1701713475296258000,0.818258056640625,-0.2453923225402832,0.39191675186157227,-0.29153507947921753
1701713475305853200,0.827853271484375,-0.25720977783203125,0.3594989776611328,-0.34740835428237915
1701713475315447300,0.837447265625,-0.023517608642578125,0.2817392349243164,-0.4621971845626831
1701713475325041000,0.847041015625,0.43175411224365234,0.20729780197143555,-0.5600813627243042
1701713475334635300,0.85663525390625,0.8776178359985352,0.14798927307128906,-0.5888078808784485
1701713475344230100,0.866230224609375,1.1108932495117188,0.09813976287841797,-0.5220466256141663
1701713475353824300,0.87582421875,1.1183652877807617,0.10650014877319336,-0.5232856273651123
1701713475363417900,0.88541796875,0.9230623245239258,0.15738487243652344,-0.4642341136932373
1701713475373012200,0.89501220703125,0.5088796615600586,0.20580530166625977,-0.43491673469543457
1701713475382607000,0.904607177734375,0.0011153221130371094,0.2601008415222168,-0.39801281690597534
1701713475392201500,0.914201416015625,-0.42446231842041016,0.29537105560302734,-0.24928945302963257
1701713475401794800,0.923794921875,-0.7521510124206543,0.3051295280456543,-0.1431640386581421
1701713475411389200,0.93338916015625,-0.8966274261474609,0.33579587936401367,-0.05533815920352936
1701713475420984000,0.942984130859375,-0.9600872993469238,0.31457042694091797,-0.0021358728408813477
1701713475430578400,0.952578369140625,-0.8908863067626953,0.28162193298339844,-0.11075374484062195
1701713475440171800,0.962171875,-0.7673845291137695,0.23552703857421875,-0.25951457023620605
1701713475449766100,0.97176611328125,-0.5885848999023438,0.16494369506835938,-0.3306961953639984
1701713475459361000,0.981361083984375,-0.40317821502685547,0.12011337280273438,-0.39001694321632385
1701713475468955400,0.990955322265625,-0.25963830947875977,0.05874204635620117,-0.4403107166290283
1701713475478548700,1.000548828125,-0.12563514709472656,-0.05127573013305664,-0.3762209415435791
1701713475488143000,1.01014306640625,-0.016685962677001953,-0.15863609313964844,-0.2626875042915344
1701713475497738000,1.019738037109375,0.09660577774047852,-0.25484132766723633,-0.1344725787639618
1701713475507332400,1.029332275390625,0.026866912841796875,-0.3397636413574219,-0.05840852111577988
1701713475516925700,1.03892578125,-0.27505922317504883,-0.3999638557434082,-0.12078225612640381
1701713475526520000,1.04852001953125,-0.6737751960754395,-0.4378032684326172,-0.1780681610107422
1701713475536115000,1.058114990234375,-0.9193220138549805,-0.43647193908691406,-0.16881221532821655
1701713475545709300,1.067709228515625,-1.0267963409423828,-0.4534459114074707,-0.09642382711172104
1701713475555302700,1.077302734375,-1.099907398223877,-0.45720672607421875,-0.08536109328269958
1701713475564897000,1.08689697265625,-1.0222573280334473,-0.4415116310119629,-0.09174539148807526
1701713475574492000,1.096491943359375,-0.784675121307373,-0.4672665596008301,-0.12562257051467896
1701713475584086300,1.106086181640625,-0.48908185958862305,-0.4720463752746582,-0.0983862578868866
1701713475593679600,1.1156796875,-0.17718172073364258,-0.44143152236938477,-0.05108943581581116
1701713475603274000,1.12527392578125,0.10263347625732422,-0.411013126373291,0.02845160663127899
1701713475612869000,1.134869140625,0.21628093719482422,-0.3344306945800781,0.06287071108818054
1701713475622463200,1.144463134765625,0.21977615356445312,-0.2594566345214844,0.04772450029850006
1701713475632056600,1.154056640625,0.11832666397094727,-0.18772649765014648,-0.030656367540359497
1701713475641651000,1.16365087890625,0.18764877319335938,-0.10679197311401367,-0.024695411324501038
1701713475651246000,1.17324609375,0.09602737426757812,-0.07066106796264648,-0.0005670636892318726
1701713475660840200,1.182840087890625,0.010278701782226562,-0.04946136474609375,0.001050114631652832
1701713475670433500,1.19243359375,-0.037180423736572266,0.005403041839599609,-0.035708412528038025
1701713475680028000,1.20202783203125,-0.12112903594970703,0.08296632766723633,-0.05529522895812988
1701713475689623000,1.211623046875,-0.1752009391784668,0.09813594818115234,-0.20730555057525635
1701713475699217200,1.221217041015625,-0.1422891616821289,0.15057659149169922,-0.3062584400177002
1701713475708810500,1.230810546875,-0.03937101364135742,0.21094703674316406,-0.33316749334335327
1701713475718404900,1.24040478515625,0.13512897491455078,0.2497386932373047,-0.2663646340370178
1701713475728000000,1.25,0.2983994483947754,0.2816433906555176,-0.2334020733833313
1701713475737594000,1.259593994140625,0.3785209655761719,0.2867612838745117,-0.20275186002254486
1701713475747187700,1.269187744140625,0.3747982978820801,0.2863636016845703,-0.17388100922107697
1701713475756781800,1.27878173828125,0.3449897766113281,0.2877812385559082,-0.18716785311698914
1701713475766377000,1.288376953125,0.25611448287963867,0.3080940246582031,-0.21816186606884003
1701713475775971000,1.29797119140625,0.10830879211425781,0.291658878326416,-0.26140016317367554
1701713475785564700,1.307564697265625,-0.04656410217285156,0.28978919982910156,-0.2569122910499573
1701713475795158800,1.31715869140625,-0.22107744216918945,0.2917366027832031,-0.2398565411567688
1701713475804754000,1.32675390625,-0.2601962089538574,0.2677273750305176,-0.24328990280628204
1701713475814348000,1.33634814453125,-0.22233867645263672,0.21066617965698242,-0.26687556505203247
1701713475823941600,1.345941650390625,-0.15064144134521484,0.1651005744934082,-0.2546404004096985
1701713475833536000,1.355535888671875,-0.04975175857543945,0.10405540466308594,-0.21578319370746613
1701713475843131000,1.365130859375,0.06650257110595703,0.03848409652709961,-0.21528305113315582
1701713475852725000,1.37472509765625,0.12092351913452148,-0.0066375732421875,-0.24795016646385193
1701713475862318600,1.384318603515625,0.09813308715820312,-0.048216819763183594,-0.2590638995170593
1701713475871912700,1.39391259765625,0.09090423583984375,-0.06936407089233398,-0.19418370723724365
1701713475881507800,1.4035078125,0.08211660385131836,-0.08634662628173828,-0.1359560340642929
1701713475891102000,1.41310205078125,0.06206655502319336,-0.08230113983154297,-0.15856368839740753
1701713475900695600,1.422695556640625,0.016571044921875,-0.07840538024902344,-0.08500571548938751
1701713475910289700,1.43228955078125,-0.012026786804199219,-0.06930685043334961,0.01669161021709442
1701713475919884800,1.441884765625,-0.05965900421142578,-0.05228710174560547,0.10684926807880402
1701713475929479000,1.45147900390625,-0.04631757736206055,-0.07881736755371094,0.1715565174818039
1701713475939072500,1.461072509765625,-0.07445621490478516,-0.07963991165161133,0.13794033229351044
1701713475948667000,1.4706669921875,-0.13395118713378906,-0.09051275253295898,0.10657961666584015
1701713475958261800,1.48026171875,-0.1747760772705078,-0.11606931686401367,0.08131349086761475
1701713475967855900,1.48985595703125,-0.11896944046020508,-0.10509157180786133,0.03830648958683014
1701713475977449500,1.499449462890625,-0.061603546142578125,-0.10392141342163086,-0.05058516561985016
1701713475987043800,1.5090439453125,0.05462503433227539,-0.08767318725585938,-0.1022287905216217
1701713475996638700,1.518638671875,0.1684427261352539,-0.08844137191772461,0.009502172470092773
1701713476006233000,1.528233154296875,0.1812267303466797,-0.0590972900390625,0.212881937623024
1701713476015826400,1.537826416015625,0.16962528228759766,-0.016053199768066406,0.3673393726348877
1701713476025420800,1.5474208984375,0.08392190933227539,-0.0009202957153320312,0.4718170166015625
1701713476035015700,1.557015625,-0.06170225143432617,0.030751705169677734,0.4796856939792633
1701713476044610000,1.566610107421875,-0.1687178611755371,0.09695148468017578,0.43575364351272583
1701713476054203400,1.576203369140625,-0.32102155685424805,0.10879659652709961,0.407889723777771
1701713476063797800,1.5857978515625,-0.3651542663574219,0.11941814422607422,0.3532816767692566
1701713476073392600,1.595392578125,-0.3262147903442383,0.11198902130126953,0.23921266198158264
1701713476082987000,1.604987060546875,-0.2191624641418457,0.09777164459228516,0.154929056763649
1701713476092580400,1.614580322265625,-0.11721277236938477,0.04501152038574219,-0.041286736726760864
1701713476102174700,1.6241748046875,-0.021767616271972656,0.012014389038085938,-0.08257731795310974
1701713476111769600,1.63376953125,0.12256574630737305,-0.05250263214111328,-0.05844545364379883
1701713476121364000,1.643364013671875,0.2827153205871582,-0.08070755004882812,-0.0007610619068145752
1701713476130957300,1.652957275390625,0.3079662322998047,-0.07347631454467773,0.029600977897644043
1701713476140551700,1.6625517578125,0.20734691619873047,-0.08747720718383789,0.015577048063278198
1701713476150146600,1.672146484375,0.0716862678527832,-0.04134225845336914,-0.01113748550415039
1701713476159741000,1.681740966796875,-0.019025325775146484,-0.027063369750976562,-0.00351908802986145
1701713476169334300,1.691334228515625,-0.05669736862182617,-0.01748943328857422,-0.040570199489593506
1701713476178928600,1.7009287109375,-0.10333251953125,-0.04087495803833008,-0.021904557943344116
1701713476188523500,1.7105234375,-0.07160139083862305,-0.04495382308959961,0.01904335618019104
1701713476198118000,1.720117919921875,-0.0973348617553711,-0.05312347412109375,0.0635228306055069
1701713476207711200,1.729711181640625,-0.18951082229614258,-0.03400135040283203,0.03907760977745056
1701713476217305600,1.7393056640625,-0.24854087829589844,-0.044026851654052734,-0.010818243026733398
1701713476226900700,1.748900634765625,-0.2373676300048828,-0.052018165588378906,0.018183588981628418
1701713476236494800,1.758494873046875,-0.12869644165039062,-0.08179950714111328,0.11829723417758942
1701713476246088200,1.768088134765625,-0.029457569122314453,-0.09613370895385742,0.16664369404315948
1701713476255682600,1.7776826171875,0.027978897094726562,-0.11229991912841797,0.1857682317495346
1701713476265277700,1.787277587890625,0.0799560546875,-0.10484075546264648,0.1236921101808548
1701713476274871800,1.796871826171875,0.11260843276977539,-0.08150529861450195,0.060418739914894104
1701713476284465200,1.806465087890625,0.1591024398803711,-0.04715442657470703,0.12466679513454437
1701713476294059500,1.8160595703125,0.1604022979736328,-0.027924060821533203,0.20155878365039825
1701713476303654400,1.825654296875,0.1124882698059082,-0.004625797271728516,0.25130975246429443
1701713476313248800,1.835248779296875,0.06301259994506836,0.0018429756164550781,0.24423591792583466
1701713476322842000,1.844842041015625,-0.023987770080566406,-0.007359027862548828,0.18549592792987823
1701713476332436500,1.8544365234375,-0.02815866470336914,-0.019771575927734375,0.12256290018558502
1701713476342031600,1.864031494140625,0.009331703186035156,-0.0544590950012207,0.12658701837062836
1701713476351625700,1.873625732421875,0.07406139373779297,-0.08560991287231445,0.11536924540996552
1701713476361219000,1.883218994140625,0.1329669952392578,-0.11373567581176758,0.1458526998758316
1701713476370813400,1.8928134765625,0.2075061798095703,-0.10384464263916016,0.1270778924226761
1701713476380408600,1.90240869140625,0.2103290557861328,-0.08019256591796875,0.13884802162647247
1701713476390002700,1.912002685546875,0.24166250228881836,-0.05739879608154297,0.15851090848445892
1701713476399596000,1.921595947265625,0.29439544677734375,-0.04313468933105469,0.18531562387943268
1701713476409190400,1.9311904296875,0.35203981399536133,-0.0683894157409668,0.20889677107334137
1701713476418785500,1.94078564453125,0.39379119873046875,-0.08840274810791016,0.23665176331996918
1701713476428379600,1.950379638671875,0.3966193199157715,-0.07527589797973633,0.28401005268096924
1701713476437973000,1.959972900390625,0.37281036376953125,-0.07883119583129883,0.22801999747753143
1701713476447567400,1.9695673828125,0.286984920501709,-0.06513023376464844,0.16220177710056305
1701713476457162500,1.97916259765625,0.15614080429077148,-0.033743858337402344,0.09858529269695282
1701713476466756600,1.988756591796875,0.08402490615844727,-0.028868675231933594,0.13164131343364716
1701713476476350000,1.998349853515625,-0.005906105041503906,-0.03793525695800781,0.14049707353115082
1701713476485944300,2.0079443359375,-0.048024654388427734,-0.05282258987426758,0.1732521504163742
1701713476495539500,2.01753955078125,-0.05977296829223633,-0.04726552963256836,0.20479747653007507
1701713476505133600,2.027133544921875,-0.039339542388916016,-0.033294677734375,0.2196585088968277
1701713476514727000,2.036726806640625,-0.020298480987548828,-0.01566171646118164,0.23922976851463318
1701713476524321300,2.0463212890625,0.03249359130859375,0.003425121307373047,0.3163148760795593
1701713476533916400,2.05591650390625,0.09523582458496094,0.016450881958007812,0.40473830699920654
1701713476543510500,2.065510498046875,0.20159196853637695,0.005869865417480469,0.49545401334762573
1701713476553104100,2.075104248046875,0.2880845069885254,-0.0031113624572753906,0.5892130136489868
1701713476562698200,2.0846982421875,0.28939390182495117,0.01264333724975586,0.5726960897445679
1701713476572293400,2.09429345703125,0.21832561492919922,0.008511543273925781,0.504030168056488
1701713476581887500,2.103887451171875,0.07765054702758789,0.009442806243896484,0.44754377007484436
1701713476591480800,2.113480712890625,-0.021284103393554688,-0.01226043701171875,0.4334779679775238
1701713476601075200,2.1230751953125,-0.05581951141357422,-0.03240680694580078,0.418959379196167
1701713476610670300,2.13267041015625,-0.021961688995361328,-0.058560848236083984,0.38533684611320496
1701713476620264400,2.142264404296875,-0.010170936584472656,-0.08610677719116211,0.32077670097351074
1701713476629857800,2.15185791015625,0.020247459411621094,-0.10134315490722656,0.35670918226242065
1701713476639452200,2.1614521484375,0.11888694763183594,-0.07693624496459961,0.3981008529663086
1701713476649047300,2.17104736328125,0.23826074600219727,-0.07111930847167969,0.4887469410896301
1701713476658641400,2.180641357421875,0.3079090118408203,-0.0984029769897461,0.5812829732894897
1701713476668235000,2.190235107421875,0.27443933486938477,-0.10398435592651367,0.581770658493042
1701713476677829000,2.1998291015625,0.11046218872070312,-0.09176492691040039,0.5079410076141357
1701713476687424300,2.20942431640625,-0.005967617034912109,-0.09174489974975586,0.40723246335983276
1701713476697018400,2.219018310546875,-0.06650114059448242,-0.09863662719726562,0.38353559374809265
1701713476706611700,2.22861181640625,-0.05757284164428711,-0.11748170852661133,0.43225225806236267
1701713476716206000,2.2382060546875,-0.13561344146728516,-0.11286449432373047,0.4211941957473755
1701713476725801200,2.24780126953125,-0.2953362464904785,-0.11932373046875,0.31069114804267883
1701713476735395300,2.257395263671875,-0.4372420310974121,-0.10264921188354492,0.23050867021083832
1701713476744988700,2.26698876953125,-0.4861726760864258,-0.046877384185791016,0.1432935744524002
1701713476754583000,2.2765830078125,-0.43182945251464844,-0.011609554290771484,0.13876010477542877
1701713476764178200,2.28617822265625,-0.35410356521606445,-0.019450664520263672,-0.05883815884590149
1701713476773772300,2.295772216796875,-0.11158180236816406,-0.05396080017089844,-0.1027391254901886
1701713476783366000,2.305365966796875,0.06348609924316406,-0.0974264144897461,-0.10914087295532227
1701713476792960000,2.3149599609375,0.1417088508605957,-0.0486454963684082,-0.15522700548171997
1701713476802555100,2.32455517578125,0.05317878723144531,0.054270267486572266,0.004500895738601685
1701713476812149200,2.334149169921875,-0.11624574661254883,0.18191766738891602,0.16777403652668
1701713476821742600,2.34374267578125,-0.4774627685546875,0.2937440872192383,0.1933801919221878
1701713476831337000,2.3533369140625,-0.8350672721862793,0.37490320205688477,0.2488711029291153
1701713476840932000,2.36293212890625,-1.0344281196594238,0.39630126953125,0.24601085484027863
1701713476850526200,2.372526123046875,-1.0127034187316895,0.26306915283203125,0.2969629168510437
1701713476860119800,2.382119873046875,-0.7815995216369629,0.12679338455200195,0.2256309539079666
1701713476869714000,2.3917138671875,-0.43171024322509766,0.0551152229309082,0.16058042645454407
1701713476879309000,2.40130908203125,-0.09205293655395508,0.03650522232055664,0.0705007016658783
1701713476888903200,2.410903076171875,0.5221853256225586,-0.10742044448852539,0.11657312512397766
1701713476898496500,2.42049658203125,1.213456153869629,-0.26519060134887695,0.17051385343074799
1701713476908091000,2.4300908203125,1.4220819473266602,-0.25321197509765625,0.031007759273052216
1701713476917686000,2.43968603515625,1.1392889022827148,-0.16062068939208984,-0.22116795182228088
1701713476927280000,2.449280029296875,0.6871395111083984,-0.10126304626464844,-0.3242487907409668
1701713476936873500,2.45887353515625,0.26723480224609375,-0.550072193145752,0.07437746226787567
1701713476946467800,2.4684677734375,0.44283294677734375,-0.25948476791381836,-0.3170986771583557
1701713476956063000,2.47806298828125,0.33467864990234375,0.12109851837158203,-0.5602418780326843
1701713476965657000,2.487656982421875,0.11368370056152344,-0.26333141326904297,-0.1351529359817505
1701713476975250700,2.497250732421875,-0.0019683837890625,-0.33599853515625,0.040328383445739746
1701713476984844800,2.5068447265625,-0.04052257537841797,-0.2613649368286133,0.051094889640808105
1701713476994440000,2.51643994140625,0.11220169067382812,-0.18691587448120117,-0.20085161924362183
1701713477004034000,2.526033935546875,0.13512897491455078,-0.1913623809814453,-0.36197543144226074
1701713477013627400,2.53562744140625,0.02817821502685547,-0.15141582489013672,-0.38756483793258667
1701713477023221800,2.5452216796875,0.016447067260742188,-0.06049156188964844,-0.5337642431259155
1701713477032817000,2.55481689453125,-0.25873422622680664,-0.2920503616333008,-0.31457364559173584
1701713477042411000,2.564410888671875,-0.44124460220336914,-0.3914299011230469,-0.10433852672576904
1701713477052004400,2.57400439453125,-0.25582122802734375,-0.3743171691894531,-0.24785971641540527
1701713477061598700,2.5835986328125,-0.04031181335449219,-0.4664754867553711,-0.3682985305786133
1701713477071193900,2.59319384765625,0.12868547439575195,-0.5969691276550293,-0.39887118339538574
1701713477080788000,2.6027880859375,0.16279125213623047,-0.6861157417297363,-0.17219972610473633
1701713477090381300,2.61238134765625,0.1714792251586914,-0.9284844398498535,-0.10484051704406738
1701713477099975700,2.6219755859375,-0.06428861618041992,-1.38887357711792,-0.08858919143676758
1701713477109570800,2.63157080078125,-0.42802000045776367,-1.6524739265441895,-0.10343027114868164
1701713477119165000,2.6411650390625,-0.7544121742248535,-1.6606080532073975,-0.27896666526794434
1701713477128758300,2.65075830078125,-0.9499869346618652,-1.4318475723266602,-0.6064796447753906
1701713477138352600,2.6603525390625,-0.9751853942871094,-1.3365898132324219,-1.246518611907959
1701713477147947800,2.66994775390625,-0.5984082221984863,-1.2801928520202637,-1.1581594944000244
1701713477157542000,2.6795419921875,0.3771204948425293,-1.4519963264465332,-1.4279227256774902
1701713477167135200,2.68913525390625,0.16398954391479492,-2.418038845062256,-1.6419286727905273
1701713477176729600,2.6987294921875,-0.14934921264648438,-2.9851951599121094,-0.38517236709594727
1701713477186324700,2.70832470703125,0.12951231002807617,-2.913773775100708,0.1081838607788086
1701713477195918800,2.7179189453125,0.44676876068115234,-2.9536285400390625,0.05571126937866211
1701713477205512200,2.72751220703125,0.5321927070617676,-3.157071828842163,-0.28188180923461914
1701713477215106600,2.7371064453125,0.3888387680053711,-3.297372579574585,-0.7501063346862793
1701713477224701400,2.746701416015625,0.1474003791809082,-3.4285871982574463,-1.3053908348083496
1701713477234295800,2.7562958984375,-0.19155597686767578,-3.505803346633911,-1.9459824562072754
1701713477243889200,2.76588916015625,-0.6172628402709961,-3.569797992706299,-2.2216482162475586
1701713477253483500,2.7754833984375,-0.4201045036315918,-3.5716044902801514,-2.5741195678710938
1701713477263078700,2.78507861328125,-0.19632577896118164,-3.4258604049682617,-2.8293654918670654
1701713477272672800,2.7946728515625,-0.6376304626464844,-2.9419777393341064,-2.759765625
1701713477282266000,2.80426611328125,-0.4875013828277588,-2.690082311630249,-2.8965816497802734
1701713477291860500,2.813860595703125,-0.5341670513153076,-2.8058817386627197,-2.6827030181884766
1701713477301455400,2.823455322265625,-0.6599299907684326,-2.735095739364624,-2.1704049110412598
1701713477311049700,2.8330498046875,-1.0242085456848145,-2.0376510620117188,-1.8774704933166504
1701713477320642600,2.842642578125,-0.8858633041381836,-1.4217538833618164,-1.619553565979004
1701713477330237000,2.85223681640625,-0.044748544692993164,-1.0948069095611572,-1.6236767768859863
1701713477339831800,2.861831787109375,0.9445562362670898,-1.017186164855957,-1.079096794128418
1701713477349426200,2.87142626953125,1.7461321353912354,-0.7894682884216309,0.24779224395751953
1701713477359019500,2.88101953125,2.212493896484375,-0.6041617393493652,1.2027854919433594
1701713477368614000,2.89061376953125,2.293280601501465,-0.5430958271026611,1.9519424438476562
1701713477378208800,2.900208740234375,2.215414524078369,-0.42626237869262695,2.826169013977051
1701713477387803100,2.90980322265625,2.1775755882263184,-0.2292649745941162,3.6300392150878906
1701713477397396500,2.919396484375,2.4136648178100586,-0.0641714334487915,4.075418472290039
1701713477406990800,2.928990966796875,2.9729785919189453,0.39418745040893555,4.0465593338012695
1701713477416585700,2.938585693359375,2.997081756591797,0.8572059869766235,4.02056884765625
1701713477426179800,2.948179931640625,2.5226001739501953,1.1370259523391724,4.2485809326171875
1701713477435773400,2.9577734375,2.0081124305725098,1.391907811164856,4.92330265045166
1701713477445367800,2.967367919921875,1.4071513414382935,1.8502464294433594,5.333532333374023
1701713477454962700,2.976962646484375,0.6640456914901733,2.256910562515259,5.189545631408691
1701713477464557000,2.98655712890625,-0.1805105209350586,2.411285161972046,4.515066146850586
1701713477474150400,2.996150390625,-1.1896847486495972,2.4982612133026123,3.6280155181884766
1701713477483744800,3.005744873046875,-2.234830379486084,2.6655685901641846,2.533205986022949
1701713477493339600,3.015339599609375,-3.061931610107422,2.6290504932403564,1.5315208435058594
1701713477502933800,3.024933837890625,-3.375021457672119,2.560044765472412,0.6009397506713867
1701713477512527400,3.03452734375,-3.50229811668396,2.482473134994507,-0.3116722106933594
1701713477522121700,3.044121826171875,-3.539794445037842,2.391047954559326,-1.3931617736816406
1701713477531716600,3.053716552734375,-3.5487313270568848,2.3273446559906006,-2.3665285110473633
1701713477541311000,3.06331103515625,-3.3716318607330322,2.273183584213257,-3.289729118347168
1701713477550904300,3.072904296875,-4.098893165588379,2.0526974201202393,-3.441890239715576
1701713477560498400,3.08249853515625,-5.7204132080078125,2.272484540939331,-3.4558305740356445
1701713477570093600,3.092093505859375,-7.110448837280273,2.5940868854522705,-4.229374408721924
1701713477579687700,3.101687744140625,-8.656110763549805,2.6169371604919434,-5.493527412414551
1701713477589281300,3.11128125,-7.321475982666016,0.06821596622467041,5.991303443908691
1701713477598875400,3.12087548828125,-0.26191216707229614,-2.4099361896514893,18.868362426757812
1701713477608470500,3.130470458984375,-0.40593254566192627,1.7560029029846191,5.878303527832031
1701713477618064600,3.140064697265625,-3.8867857456207275,2.784472942352295,2.004685401916504
1701713477627658200,3.149658203125,-5.734169006347656,-1.2172822952270508,2.216054916381836
1701713477637252400,3.15925244140625,-3.5419020652770996,-1.1339576244354248,0.4460620880126953
1701713477646847500,3.168847412109375,-0.7118650078773499,-0.648876428604126,-0.8827829360961914
1701713477656441600,3.178441650390625,-1.2750334739685059,0.17540240287780762,-2.3228912353515625
1701713477666035200,3.18803515625,2.4583089351654053,-1.4598848819732666,-1.2398242950439453
1701713477675629300,3.19762939453125,4.905892848968506,-2.7237565517425537,-0.559178352355957
1701713477685224400,3.207224365234375,6.017055988311768,-1.9048573970794678,0.40218067169189453
1701713477694818600,3.216818603515625,4.361109256744385,-0.2636849880218506,0.2279834747314453
1701713477704412000,3.226411865234375,0.15008008480072021,-0.0801997184753418,0.017971038818359375
1701713477714006300,3.23600634765625,-1.603111743927002,0.46840882301330566,-0.32281017303466797
1701713477723601400,3.245601318359375,-0.6224046349525452,0.10700178146362305,-0.0035152435302734375
1701713477733195500,3.255195556640625,0.3719310164451599,0.48169898986816406,-0.756352424621582
1701713477742788900,3.264788818359375,1.0970042943954468,0.1459803581237793,-1.4249773025512695
1701713477752383200,3.27438330078125,0.7773458957672119,1.0390501022338867,-3.5898866653442383
1701713477761978400,3.283978271484375,-0.22059565782546997,0.6350288391113281,-2.074429512023926
1701713477771572500,3.293572509765625,-1.084958553314209,0.5552182197570801,-1.4354472160339355
1701713477781165800,3.303165771484375,0.4722435474395752,-0.9743819236755371,-0.1664113998413086
1701713477790760200,3.31276025390625,1.4013340473175049,-3.4877877235412598,2.027070999145508
1701713477800355000,3.32235498046875,-0.15090292692184448,-4.024763107299805,2.550428867340088
1701713477809949400,3.331949462890625,-1.5650349855422974,-1.6491813659667969,0.8969817161560059
1701713477819542800,3.341542724609375,-2.427902936935425,-1.075078010559082,0.5607051849365234
1701713477829137200,3.35113720703125,-1.4870649576187134,-1.5297722816467285,0.9102306365966797
1701713477838732300,3.360732177734375,-0.496271014213562,-0.8055710792541504,-0.5144834518432617
1701713477848326400,3.370326416015625,1.4575867652893066,0.8122410774230957,-2.7463884353637695
1701713477857919700,3.379919677734375,0.8551152348518372,1.195385456085205,-3.853379249572754
1701713477867514000,3.38951416015625,-2.8803975582122803,2.026097297668457,-4.1243510246276855
1701713477877109000,3.39910888671875,-3.9677860736846924,2.640944004058838,-3.939378023147583
1701713477886703400,3.408703369140625,-3.427927017211914,2.4150209426879883,-4.867971420288086
1701713477896296700,3.418296630859375,-4.968120098114014,2.5131802558898926,-5.771629810333252
1701713477905891000,3.42789111328125,1.239213466644287,0.49521541595458984,4.546557903289795
1701713477915486000,3.43748583984375,8.792946815490723,-3.087446689605713,4.157929420471191
1701713477925080300,3.447080322265625,4.702353477478027,-2.390376567840576,0.8421964645385742
1701713477934673700,3.456673583984375,-0.8937907218933105,-1.7198224067687988,1.456225872039795
1701713477944268000,3.46626806640625,-1.5902308225631714,-2.257072925567627,2.7641234397888184
1701713477953863000,3.47586279296875,-0.1319267749786377,-0.28725671768188477,2.0501532554626465
1701713477963457300,3.485457275390625,-0.408852219581604,-1.0317163467407227,1.7741436958312988
1701713477973050600,3.495050537109375,0.16895675659179688,0.11392593383789062,0.5645890235900879
1701713477982645000,3.50464501953125,0.1444956660270691,0.9364666938781738,0.7344489097595215
1701713477992239900,3.514239990234375,-0.03155642747879028,1.6961450576782227,0.13532638549804688
1701713478001834000,3.523833984375,0.008492648601531982,2.271327018737793,-0.10703420639038086
1701713478011427600,3.533427490234375,-0.2564138174057007,0.8632669448852539,-0.5182347297668457
1701713478021022000,3.54302197265625,-0.021466851234436035,-0.3109922409057617,0.24157476425170898
1701713478030616800,3.552616943359375,1.4349331855773926,0.7206516265869141,0.19197988510131836
1701713478040211000,3.5622109375,0.7553847432136536,1.6587882041931152,1.941077709197998
1701713478049804500,3.571804443359375,-0.5584979057312012,4.161969184875488,2.2259445190429688
1701713478059399000,3.58139892578125,-2.1763408184051514,1.9820075035095215,1.296346664428711
1701713478068993800,3.590993896484375,-0.1319493055343628,-4.280389785766602,2.150351047515869
1701713478078588200,3.600588134765625,0.24619132280349731,-8.9861421585083,1.8443632125854492
1701713478088181500,3.610181396484375,-2.4849274158477783,-8.376748085021973,0.45650196075439453
1701713478097775600,3.619775634765625,-3.976405620574951,-7.689736366271973,0.28825998306274414
1701713478107370800,3.629370849609375,-0.8905953168869019,-5.131315231323242,1.8018341064453125
1701713478116964900,3.63896484375,1.313633918762207,-2.19217586517334,1.3892402648925781
1701713478126558500,3.648558349609375,0.8824967741966248,-0.9648094177246094,1.041430950164795
1701713478136152600,3.658152587890625,1.0438048839569092,-1.4057817459106445,-0.25084686279296875
1701713478145747700,3.667747802734375,0.8824008703231812,-2.1061325073242188,-1.8335886001586914
1701713478155341800,3.677341796875,0.7711153626441956,1.1699800491333008,-3.2257370948791504
1701713478164935400,3.686935302734375,0.4167119860649109,5.269648551940918,-4.284063816070557
1701713478174529500,3.696529541015625,-0.9953267574310303,1.6892132759094238,0.9174532890319824
1701713478184124700,3.706124755859375,-0.03340396285057068,1.037062168121338,0.8937892913818359
1701713478193718800,3.71571875,0.5865040421485901,1.486043930053711,-0.3669147491455078
1701713478203312400,3.7253125,0.6550812721252441,1.1036109924316406,-0.42011404037475586
1701713478212906500,3.734906494140625,0.7281361818313599,-0.39484310150146484,-0.4326171875
1701713478222501600,3.744501708984375,0.966978907585144,-0.9855556488037109,-0.40976619720458984
1701713478232095700,3.754095703125,0.34101539850234985,-0.7632761001586914,-0.9282171726226807
1701713478241689000,3.763689208984375,-1.159212350845337,-1.1544466018676758,0.6301889419555664
1701713478251283500,3.773283447265625,-0.9815613031387329,-1.1958990097045898,-0.8868439197540283
1701713478260878600,3.782878662109375,-1.5320260524749756,0.8103132247924805,0.06035280227661133
1701713478270472700,3.79247265625,0.4741706848144531,2.447606086730957,1.6031339168548584
1701713478280066000,3.802066162109375,1.0577025413513184,3.052297592163086,-0.17488837242126465
1701713478289660400,3.811660400390625,0.6731038093566895,0.20895767211914062,-3.225923776626587
1701713478299255600,3.821255615234375,0.5778683423995972,-2.253173828125,-0.08071732521057129
1701713478308849700,3.830849609375,-1.4814949035644531,-2.9532299041748047,2.939578056335449
1701713478318443000,3.840443115234375,-0.8736510872840881,-3.338573455810547,3.0023772716522217
1701713478328037400,3.850037353515625,-0.36779066920280457,-0.24085235595703125,-0.49814534187316895
1701713478337632500,3.859632568359375,0.10368272662162781,0.13473892211914062,-0.4333183765411377
1701713478347226600,3.8692265625,0.0058158934116363525,0.026325225830078125,-0.22719335556030273
1701713478356820000,3.878820068359375,-0.23009875416755676,0.2752237319946289,-0.16263294219970703
1701713478366414300,3.888414306640625,-0.8927578926086426,1.2364501953125,0.6641685962677002
1701713478376009200,3.89800927734375,-6.05991268157959,9.621186256408691,-0.9402625560760498
1701713478385603600,3.907603515625,3.6048965454101562,5.793184280395508,-1.1716656684875488
1701713478395197000,3.917197021484375,2.604029655456543,3.731900215148926,-0.22889471054077148
1701713478404791300,3.926791259765625,0.6328271627426147,3.636026382446289,-1.3879694938659668
1701713478414386200,3.93638623046875,0.5951332449913025,3.541450023651123,-2.3041820526123047
1701713478423980500,3.94598046875,0.8254496455192566,3.3490819931030273,-1.6780976057052612
1701713478433574000,3.955573974609375,0.7222942113876343,3.7515692710876465,-0.43862342834472656
1701713478443168300,3.965168212890625,0.5295215249061584,3.655616283416748,0.9545814990997314
1701713478452763100,3.97476318359375,0.000644385814666748,3.621244430541992,0.894573450088501
1701713478462357500,3.984357421875,-0.5210117101669312,3.573183059692383,-0.38742923736572266
1701713478471950800,3.993950927734375,-0.646584153175354,3.1296820640563965,-0.3744378089904785
1701713478481545200,4.003545166015625,0.37052834033966064,3.0454654693603516,-0.24863266944885254
1701713478491140000,4.01314013671875,0.7715226411819458,1.9909758567810059,-0.5656403303146362
1701713478500734200,4.022734130859375,0.7513304948806763,0.05481719970703125,-2.3109633922576904
1701713478510327800,4.032327880859375,-1.083261489868164,-4.31813907623291,-3.5573315620422363
1701713478519922200,4.041922119140625,-2.6267788410186768,-12.517233848571777,-1.4416908025741577
1701713478529517000,4.05151708984375,-2.2759008407592773,-20.114349365234375,3.854236125946045
1701713478539111400,4.061111328125,0.04727280139923096,-21.39453887939453,9.65056324005127
1701713478548704800,4.070704833984375,2.2854747772216797,-6.547737121582031,2.631927013397217
1701713478558299000,4.080298828125,1.4928733110427856,0.03782176971435547,-2.0434763431549072
1701713478567894000,4.08989404296875,0.02226710319519043,-0.3178701400756836,-0.7442898750305176
1701713478577488100,4.099488037109375,-0.02498680353164673,0.6794509887695312,-0.8323755264282227
1701713478587081700,4.109081787109375,-0.2938799262046814,0.4082450866699219,-0.4832179546356201
1701713478596676000,4.118676025390625,-0.39366114139556885,0.6008977890014648,-0.5168068408966064
1701713478606271000,4.12827099609375,-0.3603971004486084,0.23845386505126953,-0.2301938533782959
1701713478615865000,4.137864990234375,-0.25092244148254395,0.30487823486328125,-0.37033653259277344
1701713478625458700,4.147458740234375,-0.5046606063842773,1.0105485916137695,-0.26998400688171387
1701713478635052800,4.157052734375,0.13437145948410034,-0.04346752166748047,0.6353956460952759
1701713478644648000,4.16664794921875,0.6870776414871216,-0.5727634429931641,0.4476116895675659
1701713478654242000,4.176241943359375,0.16489964723587036,-0.8964815139770508,0.449371337890625
1701713478663835600,4.185835693359375,0.17055177688598633,0.5256576538085938,-1.3335464000701904
1701713478673429800,4.1954296875,1.2237186431884766,-0.5210933685302734,1.1112985610961914
1701713478683025000,4.20502490234375,-0.6246693134307861,-1.3038816452026367,-0.2782015800476074
1701713478692619000,4.214618896484375,-0.4529052972793579,0.4718780517578125,-1.9842058420181274
1701713478702212600,4.224212646484375,0.07834762334823608,-0.17918682098388672,0.25663793087005615
1701713478711806700,4.233806640625,-0.32203996181488037,-0.5644598007202148,0.0025659799575805664
1701713478721401900,4.24340185546875,1.7370790243148804,2.360060691833496,-0.41041111946105957
1701713478730996000,4.252995849609375,0.4480079412460327,2.5496816635131836,-1.976352572441101
1701713478740589300,4.26258935546875,-1.9319446086883545,-4.336446762084961,2.371009349822998
1701713478750183700,4.27218359375,-0.22457367181777954,-1.0051860809326172,-1.067436695098877
1701713478759778800,4.28177880859375,-0.0740390419960022,0.2861747741699219,-0.6367381811141968
1701713478769373000,4.291373046875,-0.07938164472579956,0.23721599578857422,-0.14262521266937256
1701713478778966300,4.30096630859375,-0.21747487783432007,-0.05523872375488281,-0.2511911392211914
1701713478788560600,4.310560546875,-0.1887168288230896,0.11865234375,-0.22045373916625977
1701713478798155800,4.32015576171875,0.12076044082641602,0.6143646240234375,-0.06927895545959473
1701713478807750000,4.32975,0.6230684518814087,1.208998680114746,0.6132569313049316
1701713478817343200,4.33934326171875,1.2654787302017212,2.0599260330200195,0.4421175718307495
1701713478826937600,4.3489375,-1.061143398284912,-0.8559150695800781,-0.13204479217529297
1701713478836532500,4.358532470703125,-0.08641636371612549,-0.6975202560424805,-0.7742699384689331
1701713478846126800,4.368126953125,0.015547573566436768,0.33142757415771484,-1.5890467166900635
1701713478855720200,4.37772021484375,-0.8403013944625854,-0.6526155471801758,-0.08327651023864746
1701713478865314600,4.387314453125,0.4883556365966797,0.2231760025024414,-1.3334465026855469
1701713478874909700,4.39690966796875,-0.4161984324455261,-0.10786247253417969,-0.48655664920806885
1701713478884503800,4.40650390625,-0.6281126737594604,0.47516727447509766,-0.7535306811332703
1701713478894097200,4.41609716796875,-0.5533402562141418,0.27357959747314453,-0.46238648891448975
1701713478903691500,4.42569140625,-0.2266104817390442,-0.22630596160888672,-0.05784153938293457
1701713478913286400,4.435286376953125,-0.012326657772064209,-0.08475399017333984,-0.4511786699295044
1701713478922880800,4.444880859375,-0.20050108432769775,-0.7339878082275391,0.22074472904205322
1701713478932474000,4.45447412109375,3.1539037227630615,2.706861972808838,-2.4614226818084717
1701713478942068500,4.464068359375,4.11733865737915,12.016780853271484,-8.432882308959961
1701713478951663400,4.473663330078125,-4.884002208709717,2.2133874893188477,-5.033209800720215
1701713478961257700,4.4832578125,-2.0331945419311523,-6.287500381469727,0.9190535545349121
1701713478970851000,4.49285107421875,0.6228893995285034,-8.022187232971191,7.709414005279541
1701713478980445400,4.502445556640625,0.00728374719619751,-6.613166809082031,5.122366905212402
1701713478990040300,4.512040283203125,-0.8459753394126892,-5.02852725982666,2.149813175201416
1701713478999634700,4.521634765625,-0.4569588899612427,-3.528346061706543,0.5615150928497314
1701713479009228000,4.53122802734375,0.2491399645805359,-2.7804927825927734,-0.18777751922607422
1701713479018822400,4.540822509765625,0.6188961267471313,-1.7558975219726562,-0.5688251256942749
1701713479028417300,4.550417236328125,0.656328558921814,-1.0451669692993164,-1.0228211879730225
1701713479038011400,4.560011474609375,0.7076951861381531,-0.8768129348754883,-1.2503265142440796
1701713479047605000,4.56960498046875,0.5084170699119568,-0.4268941879272461,-1.4511475563049316
1701713479057199400,4.579199462890625,0.10783660411834717,0.06133460998535156,-1.2312941551208496
1701713479066794200,4.588794189453125,-0.21485751867294312,0.48481082916259766,-0.7464444637298584
1701713479076388400,4.598388427734375,-0.3389051556587219,0.7116622924804688,-0.4098069667816162
1701713479085982000,4.60798193359375,-0.6610879302024841,1.026503562927246,-0.4735856056213379
1701713479095576000,4.617576171875,-1.5526347160339355,1.941162109375,-0.8584687113761902
1701713479105171200,4.627171142578125,-1.671823501586914,2.4886393547058105,-0.539912223815918
1701713479114765600,4.636765625,0.18962305784225464,1.513361930847168,-0.3700054883956909
1701713479124359000,4.64635888671875,0.11106252670288086,0.7081851959228516,-0.8110209703445435
1701713479133953000,4.655953125,0.04616749286651611,0.08912181854248047,-0.2056056261062622
1701713479143548200,4.665548095703125,0.10127681493759155,-0.3229818344116211,0.22350502014160156
1701713479153142300,4.675142333984375,-0.030093133449554443,-0.30411243438720703,0.3287923336029053
1701713479162735900,4.68473583984375,-0.0633208155632019,-0.30668067932128906,0.39536428451538086
1701713479172330000,4.694330078125,-0.19052273035049438,-0.29969310760498047,0.43521952629089355
1701713479181925000,4.703925048828125,-0.247564435005188,-0.24487876892089844,0.36101794242858887
1701713479191519200,4.713519287109375,-0.23619699478149414,-0.20928573608398438,0.42610788345336914
1701713479201112800,4.72311279296875,-0.20433586835861206,-0.18098163604736328,0.515207052230835
1701713479210707000,4.73270703125,-0.1118689775466919,-0.17667293548583984,0.6543337106704712
1701713479220302000,4.742302001953125,-0.0791202187538147,-0.10303211212158203,0.6694889068603516
1701713479229896200,4.751896240234375,-0.039794981479644775,-0.03425788879394531,0.7661542892456055
1701713479239489800,4.76148974609375,0.020548224449157715,0.0296478271484375,0.7960242033004761
1701713479249084000,4.771083984375,0.056710660457611084,0.06960487365722656,0.8215011358261108
1701713479258679000,4.780678955078125,0.0038156509399414062,0.13112831115722656,0.8380836248397827
1701713479268273200,4.790273193359375,-0.044898271560668945,0.15918636322021484,0.8407158851623535
1701713479277866500,4.799866455078125,-0.04142796993255615,0.13474178314208984,0.8342134952545166
1701713479287460900,4.8094609375,-0.08829492330551147,0.13671398162841797,0.8042540550231934
1701713479297056000,4.819055908203125,-0.07738804817199707,0.0910024642944336,0.7677434682846069
1701713479306650000,4.828650146484375,-0.04931265115737915,0.04070568084716797,0.7270910739898682
1701713479316243500,4.838243408203125,-0.028602004051208496,0.019277572631835938,0.6774023771286011
1701713479325837800,4.847837890625,-0.012513995170593262,-0.0043888092041015625,0.6355599164962769
1701713479335433000,4.857432861328125,0.0276411771774292,0.0127410888671875,0.6113272905349731
1701713479345027000,4.867027099609375,0.07008558511734009,0.08487796783447266,0.5591391324996948
1701713479354620400,4.876620361328125,0.06714266538619995,0.12357711791992188,0.5438429117202759
1701713479364214800,4.88621484375,0.06443369388580322,0.18144702911376953,0.503230094909668
1701713479373810000,4.895809814453125,0.08795589208602905,0.18919086456298828,0.4492603540420532
1701713479383404000,4.905404052734375,0.12058669328689575,0.18513202667236328,0.4343585968017578
1701713479392997400,4.914997314453125,0.11915695667266846,0.14536094665527344,0.4294145107269287
1701713479402591700,4.924591796875,0.1386978030204773,0.08659172058105469,0.3766404390335083
1701713479412187000,4.934186767578125,0.16192108392715454,0.03991889953613281,0.29512476921081543
1701713479421781000,4.943781005859375,0.16000330448150635,-0.016155242919921875,0.208915114402771
1701713479431374300,4.953374267578125,0.13773968815803528,-0.055382728576660156,0.11300277709960938
1701713479440968700,4.96296875,0.1238643229007721,-0.14943981170654297,0.0648125410079956
1701713479450563600,4.9725634765625,0.0707353949546814,-0.19080257415771484,-0.005397439002990723
1701713479460158000,4.982157958984375,-0.014175623655319214,-0.22019195556640625,-0.11179590225219727
1701713479469751300,4.991751220703125,-0.09687283635139465,-0.25438499450683594,-0.20177531242370605
1701713479479345700,5.001345703125,-0.16052472591400146,-0.3196525573730469,-0.2754005193710327
1701713479488940500,5.0109404296875,-0.19553184509277344,-0.3442535400390625,-0.3708099126815796
1701713479498535000,5.020534912109375,-0.15214484930038452,-0.3330354690551758,-0.4878575801849365
1701713479508128300,5.030128173828125,-0.10663771629333496,-0.3266582489013672,-0.5402861833572388
1701713479517722600,5.03972265625,-0.08280518651008606,-0.2988443374633789,-0.5545250177383423
1701713479527317500,5.0493173828125,-0.07051345705986023,-0.2950458526611328,-0.5402244329452515
1701713479536912000,5.058911865234375,-0.04311966896057129,-0.3582162857055664,-0.49994897842407227
1701713479546505200,5.068505126953125,0.0020824074745178223,-0.3544597625732422,-0.4719386100769043
1701713479556099600,5.078099609375,0.04617065191268921,-0.3770418167114258,-0.4583169221878052
1701713479565694500,5.087694580078125,0.025074303150177002,-0.42115020751953125,-0.41376805305480957
1701713479575288800,5.097288818359375,0.03925171494483948,-0.4007701873779297,-0.42681729793548584
1701713479584882200,5.106882080078125,0.03780710697174072,-0.4175271987915039,-0.42680227756500244
1701713479594476500,5.1164765625,0.028326690196990967,-0.4105854034423828,-0.4318958520889282
1701713479604071400,5.126071533203125,0.022260725498199463,-0.392120361328125,-0.40918827056884766
1701713479613665800,5.135665771484375,0.03812626004219055,-0.3622903823852539,-0.3778707981109619
1701713479623259100,5.145259033203125,0.06600317358970642,-0.34484195709228516,-0.35701704025268555
1701713479632853500,5.154853515625,0.08411902189254761,-0.2971763610839844,-0.3346705436706543
1701713479642448400,5.164448486328125,0.09240342676639557,-0.27626800537109375,-0.29895293712615967
1701713479652042500,5.17404248046875,0.12628278136253357,-0.2510385513305664,-0.23583710193634033
1701713479661636000,5.183635986328125,0.14543165266513824,-0.21685409545898438,-0.17636096477508545
1701713479671230500,5.19323046875,0.15939971804618835,-0.18560791015625,-0.13447654247283936
1701713479680825300,5.202825439453125,0.15483301877975464,-0.12900352478027344,-0.0815047025680542
1701713479690419700,5.212419677734375,0.1555621325969696,-0.0757131576538086,-0.015279293060302734
1701713479700013000,5.222012939453125,0.14490686357021332,-0.04921913146972656,0.03572893142700195
1701713479709607200,5.231607177734375,0.15138989686965942,-0.030241012573242188,0.09062135219573975
1701713479719202300,5.241202392578125,0.15578027069568634,-0.03748512268066406,0.12343728542327881
1701713479728796400,5.25079638671875,0.16039633750915527,-0.03988361358642578,0.14172780513763428
1701713479738390000,5.26039013671875,0.14153063297271729,-0.0257415771484375,0.14103806018829346
1701713479747984400,5.269984375,0.14381448924541473,-0.04710960388183594,0.12167620658874512
1701713479757579300,5.279579345703125,0.12476666271686554,-0.04923725128173828,0.10996592044830322
1701713479767173400,5.28917333984375,0.09151813387870789,-0.09131145477294922,0.070343017578125
1701713479776767000,5.29876708984375,0.06125617027282715,-0.10205554962158203,0.029172897338867188
1701713479786361000,5.308361083984375,0.03180217742919922,-0.11962604522705078,-0.02506422996520996
1701713479795956200,5.317956298828125,0.010275185108184814,-0.14626502990722656,-0.05213582515716553
1701713479805550300,5.32755029296875,-0.00596657395362854,-0.1606302261352539,-0.08075106143951416
1701713479815144000,5.33714404296875,-0.01931658387184143,-0.15355587005615234,-0.09464108943939209
1701713479824738000,5.346738037109375,-0.04389798641204834,-0.16308975219726562,-0.11300861835479736
1701713479834333200,5.356333251953125,-0.05382418632507324,-0.17013931274414062,-0.11942744255065918
1701713479843927300,5.36592724609375,-0.07066118717193604,-0.16061973571777344,-0.13293445110321045
1701713479853521000,5.37552099609375,-0.09180590510368347,-0.1583089828491211,-0.164953351020813
1701713479863115000,5.385114990234375,-0.10319474339485168,-0.14660358428955078,-0.22224271297454834
1701713479872710100,5.394710205078125,-0.10259506106376648,-0.12088966369628906,-0.23811757564544678
1701713479882304300,5.40430419921875,-0.13065075874328613,-0.0767202377319336,-0.26294898986816406
1701713479891897900,5.41389794921875,-0.1422167718410492,-0.05205059051513672,-0.2682384252548218
1701713479901492000,5.423491943359375,-0.16122141480445862,-0.0630941390991211,-0.2640683650970459
1701713479911087000,5.433087158203125,-0.22082781791687012,-0.11166095733642578,-0.302750825881958
1701713479920681200,5.44268115234375,-0.19765201210975647,-0.08173465728759766,-0.34566664695739746
1701713479930274600,5.452274658203125,-0.16327735781669617,-0.11353874206542969,-0.3197488784790039
1701713479939869000,5.461868896484375,-0.14376506209373474,-0.14483261108398438,-0.30618369579315186
1701713479949464000,5.471464111328125,-0.14136451482772827,-0.1803121566772461,-0.29526805877685547
1701713479959058200,5.48105810546875,-0.1416950821876526,-0.18692493438720703,-0.3221399784088135
1701713479968651800,5.49065185546875,-0.16578471660614014,-0.16980552673339844,-0.322268009185791
1701713479978246000,5.500245849609375,-0.1893235146999359,-0.14813709259033203,-0.2745898962020874
1701713479987841000,5.509841064453125,-0.18606290221214294,-0.12670040130615234,-0.22922396659851074
1701713479997435100,5.51943505859375,-0.1465378701686859,-0.10313796997070312,-0.1624685525894165
1701713480007028500,5.529028564453125,-0.10643815994262695,-0.07987213134765625,-0.12894105911254883
1701713480016622800,5.538622802734375,-0.06600973010063171,-0.08992290496826172,-0.05082869529724121
1701713480026218000,5.548218017578125,0.007461994886398315,-0.08093070983886719,0.03348207473754883
1701713480035812000,5.55781201171875,0.014588385820388794,-0.057984352111816406,0.11649560928344727
1701713480045405400,5.567405517578125,0.0316011905670166,-0.04959297180175781,0.16034424304962158
1701713480054999800,5.576999755859375,0.051126569509506226,-0.053191184997558594,0.16782915592193604
1701713480064595000,5.586594970703125,0.06796076893806458,-0.059144020080566406,0.1725153923034668
1701713480074189000,5.59618896484375,0.06557479500770569,-0.0014476776123046875,0.16055703163146973
1701713480083782400,5.605782470703125,0.04214757680892944,0.050559043884277344,0.15344512462615967
1701713480093376800,5.615376708984375,0.01917782425880432,0.09226417541503906,0.1652148962020874
1701713480102972000,5.624971923828125,0.038539886474609375,0.10738086700439453,0.2073124647140503
1701713480112566000,5.63456591796875,0.03354907035827637,0.11516761779785156,0.25085365772247314
1701713480122159400,5.644159423828125,0.07046818733215332,0.0992269515991211,0.2979269027709961
1701713480131753700,5.653753662109375,0.10565784573554993,0.07175540924072266,0.30139029026031494
1701713480141348900,5.663348876953125,0.14866435527801514,0.06592273712158203,0.3091973066329956
1701713480150943000,5.67294287109375,0.1709538698196411,0.05077171325683594,0.3212655782699585
1701713480160536300,5.682536376953125,0.16845080256462097,0.014675140380859375,0.27397775650024414
1701713480170130700,5.692130615234375,0.18185776472091675,-0.004322052001953125,0.2627284526824951
1701713480179725600,5.7017255859375,0.1522614061832428,-0.013578414916992188,0.22099339962005615
1701713480189320000,5.71131982421875,0.09018748998641968,-0.048572540283203125,0.17527353763580322
1701713480198913300,5.720913330078125,0.034256547689437866,-0.07831001281738281,0.12315630912780762
1701713480208507600,5.730507568359375,-0.024751752614974976,-0.10052204132080078,0.03895437717437744
1701713480218102500,5.7401025390625,-0.04675319790840149,-0.10356712341308594,-0.03680300712585449
1701713480227697000,5.74969677734375,-0.07003128528594971,-0.09720325469970703,-0.10907876491546631
1701713480237290200,5.759290283203125,-0.05953890085220337,-0.07686805725097656,-0.15205144882202148
1701713480246884600,5.768884521484375,-0.058460354804992676,-0.05459880828857422,-0.16408777236938477
1701713480256479500,5.7784794921875,-0.04545062780380249,-0.03748512268066406,-0.13628756999969482
1701713480266073900,5.788073974609375,-0.0494532585144043,-0.02540302276611328,-0.13513028621673584
1701713480275667200,5.797667236328125,-0.06298854947090149,-0.011209487915039062,-0.0918952226638794
1701713480285261600,5.807261474609375,-0.060053884983062744,-0.004330635070800781,-0.07307207584381104
1701713480294856400,5.8168564453125,-0.09020847082138062,0.014222145080566406,-0.05682873725891113
1701713480304450800,5.826450927734375,-0.11992216110229492,0.02075672149658203,-0.04053604602813721
1701713480314044200,5.836044189453125,-0.12566033005714417,0.02022075653076172,-0.026323676109313965
1701713480323638500,5.845638427734375,-0.11970585584640503,0.03629875183105469,-0.004627346992492676
1701713480333233400,5.8552333984375,-0.10714763402938843,0.03105926513671875,0.007960677146911621
1701713480342827800,5.864827880859375,-0.09266996383666992,0.02843475341796875,0.030658245086669922
1701713480352421000,5.874421142578125,-0.0904613733291626,0.04015827178955078,0.02800750732421875
1701713480362015500,5.884015380859375,-0.08879226446151733,0.051835060119628906,0.06376314163208008
1701713480371610400,5.8936103515625,-0.07817643880844116,0.025760650634765625,0.06174278259277344
1701713480381204700,5.903204833984375,-0.08223211765289307,0.0142669677734375,0.06919562816619873
1701713480390798000,5.912798095703125,-0.07475847005844116,-0.027695655822753906,0.07375824451446533
1701713480400392400,5.922392333984375,-0.05816960334777832,-0.05729389190673828,0.08467614650726318
1701713480409987300,5.9319873046875,-0.05371302366256714,-0.11010932922363281,0.10856020450592041
1701713480419581700,5.941581787109375,-0.06549549102783203,-0.1386880874633789,0.10989916324615479
1701713480429175000,5.951175048828125,-0.04834294319152832,-0.14108943939208984,0.06789755821228027
1701713480438769400,5.960769287109375,-0.04942852258682251,-0.12006664276123047,0.04951751232147217
1701713480448364300,5.9703642578125,-0.05434250831604004,-0.09950923919677734,0.016918301582336426
1701713480457958700,5.979958740234375,-0.05816680192947388,-0.05817604064941406,-0.015221476554870605
1701713480467552000,5.989552001953125,-0.06331419944763184,-0.048187255859375,-0.032682061195373535
1701713480477146400,5.999146484375,-0.06304770708084106,-0.07369422912597656,-0.030923128128051758
1701713480486741200,6.0087412109375,-0.05284196138381958,-0.06818485260009766,-0.03380095958709717
1701713480496335400,6.01833544921875,-0.04710191488265991,-0.08396053314208984,-0.0530095100402832
1701713480505929000,6.027928955078125,-0.02710545063018799,-0.07123947143554688,-0.06718957424163818
1701713480515523300,6.0375234375,-0.028649508953094482,-0.082275390625,-0.07643187046051025
1701713480525118200,6.0471181640625,-0.025632739067077637,-0.08612060546875,-0.10000503063201904
1701713480534712300,6.05671240234375,-0.018419623374938965,-0.07109451293945312,-0.11168050765991211
1701713480544306000,6.066305908203125,-0.023425817489624023,-0.06344985961914062,-0.11423158645629883
1701713480553900300,6.075900390625,-0.03327125310897827,-0.05125904083251953,-0.10993826389312744
1701713480563495200,6.0854951171875,-0.024199962615966797,-0.025211334228515625,-0.10608494281768799
1701713480573089300,6.09508935546875,-0.019916236400604248,0.000392913818359375,-0.11408102512359619
1701713480582683000,6.104682861328125,0.019814670085906982,0.004366874694824219,-0.09840989112854004
1701713480592277200,6.11427734375,0.03530043363571167,0.001251220703125,-0.0945589542388916
1701713480601872100,6.1238720703125,0.036382317543029785,-0.013523101806640625,-0.10456526279449463
1701713480611466200,6.13346630859375,0.0704042911529541,-0.027973175048828125,-0.10453569889068604
1701713480621059800,6.143059814453125,0.07076650857925415,-0.02561664581298828,-0.101706862449646
1701713480630654200,6.152654296875,0.054449379444122314,-0.0067310333251953125,-0.08672940731048584
1701713480640249000,6.1622490234375,0.02653217315673828,-0.011623382568359375,-0.09512603282928467
1701713480649843200,6.17184326171875,0.0014873743057250977,0.011868476867675781,-0.07010626792907715
1701713480659436800,6.181436767578125,-0.009116053581237793,0.01852893829345703,-0.05708503723144531
1701713480669031000,6.191031005859375,-0.03148704767227173,0.020395278930664062,-0.01123189926147461
1701713480678626000,6.2006259765625,-0.027763009071350098,0.045757293701171875,0.01253211498260498
1701713480688220200,6.21022021484375,-0.029211223125457764,0.042446136474609375,0.028699874877929688
1701713480697813800,6.219813720703125,-0.028642475605010986,0.03208732604980469,0.04895734786987305
1701713480707408100,6.229408203125,-0.02633732557296753,0.028937339782714844,0.06145834922790527
1701713480717003000,6.2390029296875,-0.024752140045166016,0.03523731231689453,0.06399285793304443
1701713480726597000,6.24859716796875,-0.018786251544952393,0.020226478576660156,0.08745968341827393
1701713480736190700,6.258190673828125,-0.022658586502075195,0.005467414855957031,0.09394943714141846
1701713480745784800,6.267784912109375,-0.02876138687133789,0.0121612548828125,0.12165319919586182
1701713480755380000,6.2773798828125,-0.025266289710998535,0.025826454162597656,0.1349116563796997
1701713480764974000,6.28697412109375,-0.03811579942703247,0.01577472686767578,0.1436094045639038
1701713480774567700,6.296567626953125,-0.041079580783843994,0.012987136840820312,0.1430222988128662
1701713480784161800,6.306161865234375,-0.04169267416000366,0.02208423614501953,0.1310347318649292
1701713480793757000,6.3157568359375,-0.037598609924316406,0.03343486785888672,0.14540588855743408
1701713480803351300,6.325351318359375,-0.04317593574523926,0.03521251678466797,0.13847684860229492
1701713480812944600,6.334944580078125,-0.04189729690551758,0.03931617736816406,0.13627278804779053
1701713480822538800,6.344538818359375,-0.050242841243743896,0.04099082946777344,0.15048587322235107
1701713480832134000,6.3541337890625,-0.03516519069671631,0.04972362518310547,0.1480121612548828
1701713480841728000,6.36372802734375,-0.027566611766815186,0.05122089385986328,0.15479207038879395
1701713480851321600,6.373321533203125,-0.006247580051422119,0.04563331604003906,0.1331174373626709
1701713480860915700,6.382915771484375,-0.0020412206649780273,0.03074359893798828,0.12359750270843506
1701713480870510800,6.3925107421875,0.0019512772560119629,0.01842975616455078,0.1046227216720581
1701713480880105200,6.402105224609375,-0.0037244558334350586,0.020460128784179688,0.09304189682006836
1701713480889698600,6.411698486328125,0.009590387344360352,0.01303863525390625,0.10521829128265381
1701713480899292700,6.421292724609375,-0.019403457641601562,-0.0037088394165039062,0.08414208889007568
1701713480908887800,6.4308876953125,-0.010184407234191895,-0.027240753173828125,0.08227276802062988
1701713480918482000,6.44048193359375,-0.010246574878692627,-0.03154182434082031,0.06409084796905518
1701713480928075500,6.450075439453125,-0.010152637958526611,-0.033402442932128906,0.029860377311706543
1701713480937669600,6.459669677734375,-0.0147477388381958,-0.02814769744873047,0.008091926574707031
1701713480947264800,6.4692646484375,-0.00502777099609375,-0.015949249267578125,-0.02048945426940918
1701713480956859000,6.47885888671875,0.006997525691986084,-0.018105506896972656,-0.041645050048828125
1701713480966452500,6.488452392578125,0.011738896369934082,-0.029644012451171875,-0.04362189769744873
1701713480976046600,6.498046630859375,0.02340102195739746,-0.0198211669921875,-0.02922189235687256
1701713480985641700,6.507641845703125,0.034847795963287354,-0.02904033660888672,-0.029420852661132812
1701713480995235800,6.51723583984375,0.024895131587982178,-0.023998260498046875,-0.043862223625183105
1701713481004829400,6.526829345703125,0.03158766031265259,-0.026103973388671875,-0.02745842933654785
1701713481014423600,6.536423583984375,0.031219303607940674,-0.051705360412597656,-0.027694225311279297
1701713481024018700,6.546018798828125,0.033211350440979004,-0.04152202606201172,-0.04417908191680908
1701713481033612800,6.55561279296875,0.04454505443572998,-0.03621864318847656,-0.041570425033569336
1701713481043206400,6.565206298828125,0.015555381774902344,-0.026267051696777344,-0.050662994384765625
1701713481052800500,6.574800537109375,0.029445230960845947,-0.018792152404785156,-0.045244812965393066
1701713481062395600,6.584395751953125,0.03382110595703125,-0.023200035095214844,-0.04215049743652344
1701713481071989800,6.59398974609375,0.02879089117050171,0.000736236572265625,-0.036611080169677734
1701713481081583400,6.603583251953125,0.04271984100341797,-0.011019706726074219,-0.033390164375305176
1701713481091177500,6.613177490234375,0.04246741533279419,-0.008481025695800781,-0.02795994281768799
1701713481100772600,6.622772705078125,0.044636070728302,-0.01771259307861328,-0.012954950332641602
1701713481110366700,6.63236669921875,0.041988492012023926,-0.005576133728027344,-0.02396833896636963
1701713481119960300,6.641960205078125,0.02528059482574463,-0.014828681945800781,-0.023019909858703613
1701713481129554400,6.651554443359375,0.034768104553222656,-0.012157440185546875,-0.01030874252319336
1701713481139149600,6.661149658203125,0.025222063064575195,-0.011884689331054688,0.006884336471557617
1701713481148743700,6.67074365234375,0.034534573554992676,-0.004546165466308594,0.012012362480163574
1701713481158337300,6.680337158203125,0.03194153308868408,-0.0020389556884765625,0.014708161354064941
1701713481167931400,6.689931396484375,0.008090674877166748,0.0027894973754882812,0.012650370597839355
1701713481177526500,6.699526611328125,0.010420143604278564,0.0075435638427734375,-0.005852103233337402
1701713481187120600,6.70912060546875,-0.004016101360321045,0.005191802978515625,-0.0027527809143066406
1701713481196714200,6.71871435546875,0.00039517879486083984,0.007601737976074219,0.009711742401123047
1701713481206308400,6.728308349609375,-0.007243931293487549,-0.0017843246459960938,0.0078505277633667
1701713481215903500,6.737903564453125,-0.010140001773834229,-0.001590728759765625,0.003673553466796875
1701713481225497600,6.74749755859375,0.0011997222900390625,-0.001399993896484375,0.0019421577453613281
1701713481235091200,6.75709130859375,0.007549405097961426,-0.005934715270996094,0.0024875402450561523
1701713481244685300,6.766685302734375,0.016075611114501953,-0.0033445358276367188,-0.008845925331115723
1701713481254280400,6.776280517578125,0.0220334529876709,-0.007853507995605469,-0.008205175399780273
1701713481263874600,6.78587451171875,0.02082926034927368,-0.019370079040527344,-0.0006263256072998047
1701713481273468200,6.79546826171875,0.021978557109832764,-0.021300315856933594,-0.007419586181640625
1701713481283062300,6.805062255859375,-0.0002276301383972168,-0.02321147918701172,-0.014107465744018555
1701713481292657400,6.814657470703125,0.001797318458557129,-0.02511310577392578,-0.006565570831298828
1701713481302251500,6.82425146484375,-0.014725923538208008,-0.022316932678222656,-0.0016245841979980469
1701713481311845000,6.83384521484375,-0.01911020278930664,-0.03367805480957031,-0.015493154525756836
1701713481321439200,6.843439208984375,-0.016287147998809814,-0.030733108520507812,-0.017374038696289062
1701713481331034400,6.853034423828125,-0.015957951545715332,-0.03020477294921875,-0.01932978630065918
1701713481340628500,6.86262841796875,-0.01332169771194458,-0.022602081298828125,-0.023508071899414062
1701713481350222000,6.87222216796875,-0.010729491710662842,-0.010417938232421875,-0.0370335578918457
1701713481359816200,6.881816162109375,-0.003338038921356201,-0.007859230041503906,-0.03149259090423584
1701713481369411300,6.891411376953125,0.010858535766601562,-0.005358695983886719,-0.023810386657714844
1701713481379005400,6.90100537109375,0.02468430995941162,-0.009975433349609375,-0.018731117248535156
1701713481388599000,6.91059912109375,0.010122060775756836,0.0019369125366210938,-0.030336618423461914
1701713481398193200,6.920193115234375,0.01470792293548584,0.0018520355224609375,-0.023042798042297363
1701713481407788300,6.929788330078125,-0.011387228965759277,-0.002960205078125,-0.027755022048950195
1701713481417382400,6.93938232421875,0.005420863628387451,-0.014803886413574219,-0.006726384162902832
1701713481426976000,6.94897607421875,0.007916271686553955,-0.026479721069335938,-0.014419198036193848
1701713481436570000,6.958570068359375,0.03391212224960327,-0.03325176239013672,-0.017275571823120117
1701713481446165200,6.968165283203125,0.05229884386062622,-0.028153419494628906,-0.01784360408782959
1701713481455759400,6.97775927734375,0.04212874174118042,-0.041953086853027344,-0.022997021675109863
1701713481465353000,6.98735302734375,0.048628270626068115,-0.027251243591308594,-0.009110569953918457
1701713481474947000,6.996947021484375,0.04326927661895752,-0.022211074829101562,-0.018990397453308105
1701713481484542200,7.006542236328125,0.05223822593688965,-0.021971702575683594,-0.02399730682373047
1701713481494136300,7.01613623046875,0.023638129234313965,-0.017042160034179688,-0.033622145652770996
1701713481503730000,7.02572998046875,0.01446157693862915,-0.009846687316894531,-0.052503108978271484
1701713481513324000,7.035323974609375,0.008019089698791504,-0.026328086853027344,-0.04281890392303467
1701713481522919200,7.044919189453125,0.0064435601234436035,-0.02843761444091797,-0.06874430179595947
1701713481532513300,7.05451318359375,0.005234479904174805,-0.023512840270996094,-0.07092225551605225
1701713481542107000,7.06410693359375,-0.0006325244903564453,-0.03753185272216797,-0.05908083915710449
1701713481551701000,7.073700927734375,0.0006707310676574707,-0.049010276794433594,-0.04534602165222168
1701713481561296100,7.083296142578125,-0.0002371072769165039,-0.06977176666259766,-0.0532764196395874
1701713481570890200,7.09289013671875,0.013087987899780273,-0.059612274169921875,-0.05177867412567139
1701713481580483800,7.10248388671875,0.0027416348457336426,-0.049648284912109375,-0.06690621376037598
1701713481590078000,7.112077880859375,0.018690943717956543,-0.056365966796875,-0.05364489555358887
1701713481599673000,7.121673095703125,0.02497851848602295,-0.04416179656982422,-0.057190656661987305
1701713481609267500,7.131267333984375,0.04562664031982422,-0.03689098358154297,-0.055968642234802246
1701713481618860800,7.14086083984375,0.04014772176742554,-0.03683185577392578,-0.05252659320831299
1701713481628455000,7.150454833984375,0.044403791427612305,-0.03916454315185547,-0.042192697525024414
1701713481638050000,7.160050048828125,0.039420127868652344,-0.041515350341796875,-0.053438544273376465
1701713481647644200,7.16964404296875,0.03934091329574585,-0.04856586456298828,-0.059902071952819824
1701713481657237800,7.17923779296875,0.06776100397109985,-0.048473358154296875,-0.05459260940551758
1701713481666832000,7.188831787109375,0.07478857040405273,-0.06019020080566406,-0.08007514476776123
1701713481676427000,7.198427001953125,0.08887535333633423,-0.06705284118652344,-0.07946383953094482
1701713481686021000,7.208021240234375,0.11463254690170288,-0.07853889465332031,-0.06719768047332764
1701713481695614700,7.21761474609375,0.1211477518081665,-0.08987903594970703,-0.09773063659667969
1701713481705208800,7.227208740234375,0.14188605546951294,-0.0846090316772461,-0.09267687797546387
1701713481714804000,7.236803955078125,0.15062159299850464,-0.08656120300292969,-0.10923600196838379
1701713481724398300,7.2463984375,0.1501140594482422,-0.08856868743896484,-0.10938751697540283
1701713481733991700,7.25599169921875,0.16639232635498047,-0.09771347045898438,-0.11706805229187012
1701713481743586000,7.2655859375,0.1732812523841858,-0.09742164611816406,-0.12755858898162842
1701713481753181000,7.275180908203125,0.17797833681106567,-0.09020519256591797,-0.16436147689819336
1701713481762775000,7.284775146484375,0.2134990096092224,-0.07146930694580078,-0.18229997158050537
1701713481772368600,7.29436865234375,0.22968512773513794,-0.07199668884277344,-0.19580578804016113
1701713481781962800,7.303962646484375,0.2573508620262146,-0.049041748046875,-0.21885204315185547
1701713481791558000,7.313557861328125,0.2915745973587036,-0.059539794921875,-0.22090911865234375
1701713481801152000,7.323152099609375,0.28045350313186646,-0.053450584411621094,-0.21622419357299805
1701713481810745600,7.33274560546875,0.302318274974823,-0.04044055938720703,-0.22127509117126465
1701713481820339700,7.342339599609375,0.3377643823623657,-0.03710460662841797,-0.23120009899139404
1701713481829934800,7.351934814453125,0.32744014263153076,-0.033824920654296875,-0.2528822422027588
1701713481839529200,7.361529296875,0.34490901231765747,-0.016427993774414062,-0.26473283767700195
1701713481849122600,7.37112255859375,0.3423314690589905,-0.0157318115234375,-0.2951885461807251
1701713481858717000,7.380717041015625,0.3249768018722534,-0.014955520629882812,-0.29427504539489746
1701713481868311800,7.390311767578125,0.28645503520965576,-0.009433746337890625,-0.31674325466156006
1701713481877906000,7.399906005859375,0.20654082298278809,-0.008680343627929688,-0.3173435926437378
1701713481887499500,7.40949951171875,0.11695557832717896,0.0015106201171875,-0.33867406845092773
1701713481897093600,7.41909375,0.07672035694122314,0.00215911865234375,-0.3426501750946045
1701713481906688800,7.428688720703125,0.18325692415237427,0.035839080810546875,-0.3295859098434448
1701713481916283000,7.438282958984375,0.26373547315597534,0.05494976043701172,-0.3116774559020996
1701713481925876500,7.44787646484375,0.29959625005722046,0.0479583740234375,-0.2820308208465576
1701713481935470600,7.457470703125,0.3172088861465454,0.06943988800048828,-0.30453193187713623
1701713481945065700,7.467065673828125,0.297818124294281,0.06949710845947266,-0.30061984062194824
1701713481954659800,7.476659912109375,0.37801578640937805,0.10270023345947266,-0.31766390800476074
1701713481964253400,7.48625341796875,0.4402482807636261,0.1450061798095703,-0.3269737958908081
1701713481973847800,7.495847900390625,0.46356338262557983,0.17044639587402344,-0.351781964302063
1701713481983442700,7.505442626953125,0.43962422013282776,0.17227840423583984,-0.393807053565979
1701713481993037000,7.515037109375,0.36034831404685974,0.1980733871459961,-0.47323763370513916
1701713482002630400,7.52463037109375,0.30045172572135925,0.2451028823852539,-0.5184112787246704
1701713482012224800,7.534224853515625,0.2952190041542053,0.2682619094848633,-0.5251749753952026
1701713482021819600,7.543819580078125,0.2803344428539276,0.2819948196411133,-0.5180401802062988
1701713482031413800,7.553413818359375,0.19520989060401917,0.2958335876464844,-0.4878586530685425
1701713482041007400,7.56300732421875,0.28511229157447815,0.2602653503417969,-0.4520813226699829
1701713482050601700,7.572601806640625,0.43784332275390625,0.29621315002441406,-0.46025705337524414
1701713482060196600,7.582196533203125,0.5386105179786682,0.3294992446899414,-0.46230876445770264
1701713482069790700,7.591790771484375,0.6164858341217041,0.3460865020751953,-0.5050644874572754
1701713482079384300,7.60138427734375,0.5711473822593689,0.33678531646728516,-0.5242887735366821
1701713482088978700,7.610978759765625,0.4994659423828125,0.30669403076171875,-0.5650186538696289
1701713482098573600,7.620573486328125,0.4931471347808838,0.23734188079833984,-0.5161744356155396
1701713482108167700,7.630167724609375,0.6278892755508423,0.29657554626464844,-0.7415138483047485
1701713482117761300,7.63976123046875,0.7340046167373657,0.3877859115600586,-0.24408793449401855
1701713482127355600,7.649355712890625,0.4620054364204407,0.44465160369873047,-0.3274974822998047
1701713482136950500,7.658950439453125,0.21166521310806274,0.47477054595947266,-0.3960467576980591
1701713482146545000,7.668544921875,0.16697320342063904,0.4315013885498047,-0.45463287830352783
1701713482156138200,7.67813818359375,0.2707231044769287,0.4241485595703125,-0.43409931659698486
1701713482165732600,7.687732666015625,0.18012508749961853,0.21648883819580078,-0.17229163646697998
1701713482175327500,7.697327392578125,0.023444488644599915,-0.03283977508544922,-0.06011307239532471
1701713482184921600,7.706921630859375,-0.15819072723388672,-0.2691535949707031,0.1225121021270752
1701713482194515200,7.71651513671875,0.0021621286869049072,-0.3490629196166992,0.19752740859985352
1701713482204109600,7.726109619140625,-0.08578859269618988,-0.4894247055053711,0.24641644954681396
1701713482213704400,7.735704345703125,-0.13517843186855316,-0.6022043228149414,0.2901116609573364
1701713482223298600,7.745298583984375,-0.20247285068035126,-0.7091636657714844,0.3889961242675781
1701713482232892200,7.75489208984375,-0.303587943315506,-0.7445278167724609,0.3722853660583496
1701713482242486500,7.764486572265625,-0.34917476773262024,-0.7234907150268555,0.24513888359069824
1701713482252081400,7.774081298828125,-0.14850842952728271,-0.5080022811889648,0.12072587013244629
1701713482261675800,7.78367578125,-0.23424486815929413,-0.4261016845703125,-0.016895532608032227
1701713482271269000,7.79326904296875,0.49193841218948364,0.21480083465576172,-0.27412915229797363
1701713482280863500,7.802863525390625,0.22793681919574738,0.7937374114990234,-0.3210909366607666
1701713482290458400,7.812458251953125,-0.25628751516342163,0.9538555145263672,-0.3099706172943115
1701713482300052700,7.822052734375,0.1323719024658203,1.033905029296875,-0.22648084163665771
1701713482309646000,7.83164599609375,0.25451603531837463,1.032841682434082,-0.24144065380096436
1701713482319240400,7.841240478515625,0.4319342374801636,0.9613285064697266,-0.17968833446502686
1701713482328835300,7.85083544921875,0.1900809109210968,1.2584266662597656,-0.2613370418548584
1701713482338429700,7.8604296875,0.20070108771324158,1.0584840774536133,-0.14174652099609375
1701713482348023000,7.87002294921875,0.2623594105243683,0.5296974182128906,-0.058583974838256836
1701713482357617400,7.879617431640625,0.11280088126659393,0.08469104766845703,0.08662295341491699
1701713482367212300,7.88921240234375,0.07740265130996704,-0.17697811126708984,0.22018814086914062
1701713482376806700,7.898806640625,0.06324589252471924,-0.3339099884033203,0.26326799392700195
1701713482386400000,7.90839990234375,0.1893293857574463,-0.3007984161376953,0.18195605278015137
1701713482395994400,7.917994384765625,0.06083771586418152,0.02772235870361328,-0.08080744743347168
1701713482405589200,7.92758935546875,-0.06360664963722229,0.7647600173950195,-0.33375871181488037
1701713482415183600,7.93718359375,0.14134682714939117,0.5566434860229492,-0.2067711353302002
1701713482424777000,7.94677685546875,0.1739991456270218,0.0994405746459961,-0.17477619647979736
1701713482434371300,7.956371337890625,0.35015422105789185,-0.46161651611328125,0.04314982891082764
1701713482443966500,7.965966552734375,0.2933557331562042,-0.7316379547119141,0.0888364315032959
1701713482453560600,7.975560546875,0.2323508858680725,-0.7200794219970703,0.07670044898986816
1701713482463154000,7.98515380859375,0.3107994794845581,-0.34669017791748047,-0.06629025936126709
1701713482472748300,7.994748291015625,-0.02634640783071518,-0.01972675323486328,-0.1901928186416626
1701713482482343400,8.004343505859374,-0.21413040161132812,0.32294368743896484,-0.13465213775634766
1701713482491937500,8.0139375,-0.21861490607261658,0.624720573425293,-0.19150590896606445
1701713482501531000,8.02353076171875,-0.42888039350509644,0.5684328079223633,-0.2627779245376587
1701713482511125200,8.033125244140624,-0.32495951652526855,0.6896333694458008,-0.2546677589416504
1701713482520720100,8.04272021484375,-0.0757310539484024,0.9877090454101562,-0.29785478115081787
1701713482530314500,8.052314453125,-0.17239069938659668,1.2180614471435547,-0.4088965654373169
1701713482539907800,8.061907958984374,-0.25868797302246094,1.4097013473510742,-0.5255125761032104
1701713482549502200,8.071502197265625,-0.14791300892829895,1.6440110206604004,-0.5923393964767456
1701713482559097300,8.081097412109376,-0.312370628118515,1.9401302337646484,-0.7498515844345093
1701713482568691500,8.09069140625,-0.40602928400039673,2.10451078414917,-0.6466661691665649
1701713482578284800,8.100284912109375,-0.8159066438674927,1.7025198936462402,-0.5546501874923706
1701713482587879200,8.109879150390626,-1.03743314743042,0.24200725555419922,-0.4709552526473999
1701713482597474300,8.119474365234375,0.35427752137184143,-1.5166187286376953,0.08021807670593262
1701713482607068400,8.129068359375,0.9525429010391235,-0.49048423767089844,0.12009811401367188
1701713482616661800,8.138661865234376,-0.050715357065200806,0.884669303894043,-0.3380703926086426
1701713482626256100,8.148256103515624,-0.9307695627212524,1.6492977142333984,-0.4662597179412842
1701713482635851300,8.157851318359375,-1.1092603206634521,1.6308975219726562,-0.4101431369781494
1701713482645445400,8.1674453125,-0.6197831034660339,1.2495641708374023,-0.21516203880310059
1701713482655038700,8.177038818359375,-0.44713476300239563,0.21480083465576172,-0.024998188018798828
1701713482664633000,8.186633056640625,-0.06045597791671753,0.2622232437133789,0.032189130783081055
1701713482674228200,8.196228271484374,-0.4742838442325592,0.8180332183837891,0.2351982593536377
1701713482683822300,8.205822265625,-1.0452265739440918,0.7153139114379883,0.1969616413116455
1701713482693416000,8.215416015625,-1.3647651672363281,0.4522676467895508,0.2918221950531006
1701713482703010000,8.225010009765626,-2.4338228702545166,0.9720916748046875,0.1376662254333496
1701713482712605200,8.234605224609375,-1.1949787139892578,0.5030927658081055,1.5358660221099854
1701713482722199300,8.24419921875,-1.1816160678863525,0.08935832977294922,2.2242867946624756
1701713482731793000,8.25379296875,-1.6350877285003662,-0.8626136779785156,2.40201473236084
1701713482741387000,8.263386962890625,-1.5827767848968506,-1.0189647674560547,2.3969643115997314
1701713482750982100,8.272982177734375,-1.363277554512024,-0.9563989639282227,2.2627696990966797
1701713482760576300,8.282576171875,-1.7831300497055054,-1.3555450439453125,1.9929733276367188
1701713482770169900,8.292169921875,-1.2885568141937256,-1.7225532531738281,2.202502489089966
1701713482779764000,8.301763916015625,-1.5525915622711182,-2.457736015319824,1.7063796520233154
1701713482789359000,8.311359130859374,-0.738670825958252,-2.15303897857666,1.959265947341919
1701713482798953200,8.320953125,-0.8145166635513306,-1.971573829650879,1.7966299057006836
1701713482808546800,8.330546875,-0.6995000839233398,-2.223421096801758,1.940014123916626
1701713482818141000,8.340140869140624,-0.8745955228805542,-2.451608657836914,2.224642038345337
1701713482827736000,8.349736083984375,-0.7700122594833374,-2.577691078186035,2.780611991882324
1701713482837330200,8.359330078125,-0.9926223754882812,-2.5998973846435547,2.858527421951294
1701713482846923800,8.368923828125,-1.0147604942321777,-2.642714500427246,2.919473886489868
1701713482856518000,8.378517822265625,-1.0846800804138184,-2.2925891876220703,2.941624879837036
1701713482866113000,8.388113037109376,-1.22530198097229,-1.8607521057128906,2.893162965774536
1701713482875707400,8.397707275390625,-1.512284755706787,-1.5076332092285156,2.8693113327026367
1701713482885300700,8.40730078125,-1.7056355476379395,-1.1468391418457031,2.704280138015747
1701713482894895000,8.41689501953125,-1.8120849132537842,-0.844696044921875,2.486830949783325
1701713482904490000,8.426489990234375,-1.8877227306365967,-0.5529050827026367,2.3103115558624268
1701713482914084000,8.436083984375,-1.9310173988342285,-0.36927127838134766,2.1594929695129395
1701713482923677700,8.445677734375,-1.968506097793579,-0.17847347259521484,2.009014844894409
1701713482933271800,8.455271728515624,-1.9178194999694824,0.036911964416503906,1.8024556636810303
1701713482942867000,8.464866943359375,-1.8664720058441162,0.15241050720214844,1.7047178745269775
1701713482952461000,8.4744609375,-1.7544176578521729,0.32345104217529297,1.5267856121063232
1701713482962054700,8.4840546875,-1.529449224472046,0.4736356735229492,1.3023996353149414
1701713482971649000,8.49364892578125,-1.2974464893341064,0.591273307800293,1.103173017501831
1701713482981244000,8.503243896484374,-1.0800197124481201,0.6694164276123047,0.8622403144836426
1701713482990838000,8.512838134765625,-0.9017846584320068,0.7012767791748047,0.5986366271972656
1701713483000431600,8.522431640625,-0.6888394355773926,0.6512041091918945,0.33602285385131836
1701713483010026000,8.53202587890625,-0.5157246589660645,0.6008405685424805,0.12219429016113281
1701713483019620900,8.541620849609375,-0.2822692394256592,0.5359830856323242,-0.11229896545410156
1701713483029215000,8.551215087890625,-0.05331063270568848,0.45914554595947266,-0.27918314933776855
1701713483038808600,8.56080859375,0.042581796646118164,0.3798103332519531,-0.3786940574645996
1701713483048403000,8.57040283203125,0.14963626861572266,0.2930889129638672,-0.5206835269927979
1701713483057997800,8.579997802734376,0.2846665382385254,0.12715435028076172,-0.631519079208374
1701713483067592200,8.58959228515625,0.4553499221801758,0.1661081314086914,-0.7807774543762207
1701713483077185500,8.599185546875,0.5414514541625977,0.17955303192138672,-0.8992023468017578
1701713483086780000,8.60877978515625,0.6795773506164551,0.1598949432373047,-0.5819480419158936
1701713483096374800,8.618374755859374,0.6333119869232178,0.3049039840698242,-0.24692893028259277
1701713483105969200,8.62796923828125,0.23051929473876953,0.3477153778076172,0.11819124221801758
1701713483115562500,8.6375625,-0.25339818000793457,0.32088756561279297,0.33115172386169434
1701713483125156900,8.647156982421874,-0.49178338050842285,0.23490238189697266,0.016464948654174805
1701713483134751700,8.656751708984375,-0.4782862663269043,0.019370079040527344,-0.36313772201538086
1701713483144346000,8.66634619140625,-0.4165942668914795,-0.36318492889404297,-0.25238490104675293
1701713483153939500,8.675939453125,-0.07651257514953613,-0.3023109436035156,-0.2600674629211426
1701713483163533800,8.685533935546875,0.06511306762695312,-0.0856618881225586,-0.17427825927734375
1701713483173128700,8.695128662109376,0.07844257354736328,-0.01732635498046875,0.013591766357421875
1701713483182723000,8.70472314453125,0.019342660903930664,0.024443626403808594,0.17623424530029297
1701713483192316400,8.71431640625,-0.12326264381408691,0.09682464599609375,0.280468225479126
1701713483201910800,8.723910888671876,-0.1874096393585205,0.13088512420654297,0.35307765007019043
1701713483211505700,8.733505615234375,-0.22144365310668945,0.1746988296508789,0.3847181797027588
1701713483221100000,8.74310009765625,-0.11902999877929688,0.19542884826660156,0.37354493141174316
1701713483230693400,8.752693359375,-0.053262948989868164,0.20064830780029297,0.39844346046447754
1701713483240287700,8.762287841796875,-0.04118752479553223,0.21186542510986328,0.48976993560791016
1701713483249882600,8.771882568359375,-0.12509989738464355,0.17616748809814453,0.5872745513916016
1701713483259477000,8.78147705078125,-0.19919395446777344,0.13410186767578125,0.6432428359985352
1701713483269070300,8.7910703125,-0.2510981559753418,0.09753894805908203,0.6556551456451416
1701713483278664700,8.800664794921875,-0.31641054153442383,0.07130908966064453,0.5701742172241211
1701713483288259800,8.810259765625,-0.38758063316345215,0.08646678924560547,0.4567680358886719
1701713483297854000,8.81985400390625,-0.413938045501709,0.07357215881347656,0.3182375431060791
1701713483307447300,8.829447265625,-0.42168712615966797,0.08272647857666016,0.2381148338317871
1701713483317041700,8.839041748046874,-0.41313791275024414,0.08983039855957031,0.15865182876586914
1701713483326636500,8.848636474609375,-0.38593554496765137,0.11371707916259766,0.1364450454711914
1701713483336231000,8.85823095703125,-0.31375765800476074,0.12784194946289062,0.11592364311218262
1701713483345824300,8.86782421875,-0.23747634887695312,0.1369771957397461,0.06817078590393066
1701713483355418600,8.877418701171875,-0.18109655380249023,0.15546226501464844,-0.011653423309326172
1701713483365013800,8.887013671875,-0.11794710159301758,0.15217971801757812,-0.11841821670532227
1701713483374608000,8.89660791015625,-0.11459803581237793,0.11519336700439453,-0.19450974464416504
1701713483384201200,8.906201171875,-0.10870981216430664,0.10906124114990234,-0.23273992538452148
1701713483393795600,8.915795654296875,-0.08108353614807129,0.10985660552978516,-0.24494576454162598
1701713483403390700,8.925390625,-0.022365808486938477,0.12489795684814453,-0.2858433723449707
1701713483412984800,8.93498486328125,0.017016172409057617,0.16625308990478516,-0.3050105571746826
1701713483422578200,8.944578125,0.017516374588012695,0.19064044952392578,-0.27931666374206543
1701713483432172500,8.954172607421874,0.015259981155395508,0.21487045288085938,-0.2420797348022461
1701713483441767700,8.963767578125,-0.004396200180053711,0.19450664520263672,-0.18632030487060547
1701713483451361800,8.97336181640625,-0.03410005569458008,0.1585845947265625,-0.10518765449523926
1701713483460955100,8.982955078125,-0.04996490478515625,0.0766754150390625,-0.046201229095458984
1701713483470549500,8.992549560546875,-0.12232089042663574,0.015209197998046875,0.021557092666625977
1701713483480144600,9.00214453125,-0.16535568237304688,-0.03334331512451172,0.09304642677307129
1701713483489738800,9.01173876953125,-0.18416929244995117,-0.04106712341308594,0.13505196571350098
1701713483499332400,9.021332275390625,-0.18220019340515137,-0.0224761962890625,0.12920904159545898
1701713483508926500,9.030926513671876,-0.1809062957763672,0.014933586120605469,0.10229682922363281
1701713483518521600,9.040521484375,-0.18272900581359863,0.05919361114501953,0.08546662330627441
1701713483528115700,9.05011572265625,-0.20366597175598145,0.07941436767578125,0.06917810440063477
1701713483537709300,9.059709228515626,-0.25032472610473633,0.08293914794921875,0.08387398719787598
1701713483547303400,9.069303466796875,-0.2610485553741455,0.08883476257324219,0.06774187088012695
1701713483556898600,9.078898681640625,-0.2834815979003906,0.0875692367553711,0.08706116676330566
1701713483566492700,9.08849267578125,-0.2704813480377197,0.09111499786376953,0.0918569564819336
1701713483576086000,9.0980859375,-0.2533409595489502,0.09233379364013672,0.07050275802612305
1701713483585680400,9.107680419921875,-0.2367992401123047,0.09604930877685547,0.05898571014404297
1701713483595275500,9.117275634765624,-0.2089393138885498,0.0832662582397461,0.04286551475524902
1701713483604869600,9.12686962890625,-0.1724402904510498,0.07082176208496094,0.05287742614746094
1701713483614463200,9.136463134765625,-0.16022896766662598,0.049248695373535156,0.06042361259460449
1701713483624057300,9.146057373046874,-0.14088749885559082,0.049172401428222656,0.0727376937866211
1701713483633652500,9.155652587890625,-0.12399005889892578,0.03731727600097656,0.08037686347961426
1701713483643246600,9.16524658203125,-0.08811211585998535,0.030309677124023438,0.09058022499084473
1701713483652840200,9.174840087890624,-0.04759812355041504,0.032695770263671875,0.10320711135864258
1701713483662434300,9.184434326171875,-0.030794382095336914,0.037261009216308594,0.11585211753845215
1701713483672029400,9.194029541015626,-0.009134531021118164,0.048679351806640625,0.0978231430053711
1701713483681623600,9.20362353515625,0.0032160282135009766,0.043212890625,0.12010598182678223
1701713483691217200,9.213217041015625,0.039292097091674805,0.014043807983398438,0.12298941612243652
1701713483700811300,9.222811279296875,0.07007575035095215,0.006384849548339844,0.1395711898803711
1701713483710406400,9.232406494140625,0.0767052173614502,-0.0035762786865234375,0.1697099208831787
1701713483720000500,9.24200048828125,0.0691368579864502,-0.008783340454101562,0.1661396026611328
1701713483729594000,9.251593994140626,0.059556007385253906,0.0024099349975585938,0.16011261940002441
1701713483739188200,9.261188232421874,0.0244140625,0.003914833068847656,0.1941967010498047
1701713483748783400,9.270783447265625,0.01616525650024414,0.007618904113769531,0.21607160568237305
1701713483758377500,9.28037744140625,-0.0009522438049316406,0.025293350219726562,0.2283930778503418
1701713483767971000,9.28997119140625,-0.012664318084716797,0.02143573760986328,0.2384798526763916
1701713483777565200,9.299565185546875,-0.035735130310058594,0.03184318542480469,0.2276322841644287
1701713483787160300,9.309160400390626,-0.051239013671875,0.016300201416015625,0.21738767623901367
1701713483796754700,9.318754638671875,-0.03852653503417969,0.027120590209960938,0.22398853302001953
1701713483806348000,9.32834814453125,-0.04756307601928711,0.05218029022216797,0.22846078872680664
1701713483815942100,9.337942138671876,-0.047267913818359375,0.06042671203613281,0.23987770080566406
1701713483825537300,9.347537353515625,-0.05912184715270996,0.061603546142578125,0.23218441009521484
1701713483835131400,9.35713134765625,-0.056734323501586914,0.048674583435058594,0.21050524711608887
1701713483844725000,9.36672509765625,-0.05664348602294922,0.028894424438476562,0.1987016201019287
1701713483854319000,9.376319091796875,-0.05641674995422363,0.00708770751953125,0.1895902156829834
1701713483863914200,9.385914306640625,-0.06777048110961914,0.013808250427246094,0.16885876655578613
1701713483873508400,9.39550830078125,-0.08560872077941895,0.015535354614257812,0.169661283493042
1701713483883102000,9.40510205078125,-0.10050368309020996,0.019498825073242188,0.16113042831420898
1701713483892696000,9.414696044921875,-0.10077428817749023,0.009181976318359375,0.16221284866333008
1701713483902291200,9.424291259765624,-0.08658289909362793,0.0013418197631835938,0.1635146141052246
1701713483911885300,9.43388525390625,-0.05620527267456055,-0.0015745162963867188,0.15787291526794434
1701713483921479000,9.44347900390625,-0.03346896171569824,0.016912460327148438,0.15029549598693848
1701713483931073300,9.4530732421875,-0.009064912796020508,0.01651287078857422,0.14077115058898926
1701713483940668200,9.462668212890625,-0.006464958190917969,0.0327301025390625,0.1197214126586914
1701713483950262500,9.472262451171876,0.0028057098388671875,0.034725189208984375,0.1296701431274414
1701713483959855900,9.48185595703125,0.011630535125732422,0.041484832763671875,0.14406442642211914
1701713483969450200,9.4914501953125,-0.015143156051635742,0.05515480041503906,0.14150142669677734
1701713483979045000,9.501045166015626,-0.0015873908996582031,0.059142112731933594,0.14580583572387695
1701713483988639200,9.51063916015625,-0.002424001693725586,0.058353424072265625,0.1499953269958496
1701713483998232800,9.52023291015625,-0.007816314697265625,0.048157691955566406,0.10010886192321777
1701713484007827200,9.5298271484375,-0.02706456184387207,0.05465126037597656,0.08900189399719238
1701713484017422000,9.539422119140625,-0.024680376052856445,0.03291034698486328,0.09262728691101074
1701713484027016200,9.54901611328125,-0.04348278045654297,0.02334308624267578,0.08927011489868164
1701713484036609800,9.55860986328125,-0.05965852737426758,0.023393630981445312,0.07895994186401367
1701713484046204200,9.5682041015625,-0.07542610168457031,0.013983726501464844,0.07828187942504883
1701713484055799000,9.577799072265625,-0.08598709106445312,0.0022897720336914062,0.05411648750305176
1701713484065393400,9.587393310546876,-0.0917050838470459,0.007228851318359375,0.04433870315551758
1701713484074986800,9.59698681640625,-0.06450700759887695,0.01683807373046875,0.013492822647094727
1701713484084581000,9.6065810546875,-0.05184626579284668,0.03339099884033203,0.0021352767944335938
1701713484094176000,9.616176025390626,-0.048813581466674805,0.044959068298339844,-0.03257489204406738
1701713484103770400,9.625770263671875,-0.07181000709533691,0.020979881286621094,-0.03393197059631348
1701713484113363700,9.63536376953125,-0.06146430969238281,0.025650978088378906,-0.042328834533691406
1701713484122958000,9.6449580078125,-0.06300616264343262,0.018387794494628906,-0.029538393020629883
1701713484132553000,9.654552978515625,-0.07618093490600586,0.011160850524902344,-0.03588128089904785
1701713484142147000,9.66414697265625,-0.08417749404907227,0.0062770843505859375,-0.032745361328125
1701713484151740700,9.67374072265625,-0.09410333633422852,0.0013856887817382812,-0.0248563289642334
1701713484161335000,9.6833349609375,-0.08252215385437012,0.010654449462890625,-0.012336254119873047
1701713484170930000,9.692929931640625,-0.07586884498596191,0.017412185668945312,-0.014183282852172852
1701713484180524000,9.70252392578125,-0.06236124038696289,0.02649688720703125,-0.008840084075927734
1701713484190117600,9.71211767578125,-0.05172467231750488,0.042705535888671875,-0.015162467956542969
1701713484199712000,9.7217119140625,-0.034438133239746094,0.051666259765625,-0.0072977542877197266
1701713484209307000,9.731306884765624,-0.03425168991088867,0.0347137451171875,0.0003921985626220703
1701713484218901200,9.7409013671875,-0.03440093994140625,0.020486831665039062,0.010167121887207031
1701713484228494600,9.75049462890625,-0.025310277938842773,0.0181884765625,0.024109363555908203
1701713484238089000,9.7600888671875,-0.04719662666320801,0.0017232894897460938,0.02797985076904297
1701713484247683800,9.769683837890625,-0.05243325233459473,-0.000377655029296875,0.026786088943481445
1701713484257278200,9.7792783203125,-0.05075550079345703,0.009370803833007812,0.020763635635375977
1701713484266871600,9.78887158203125,-0.08451604843139648,0.01194000244140625,0.00777888298034668
1701713484276466000,9.7984658203125,-0.07067131996154785,0.026236534118652344,-0.002679109573364258
1701713484286060800,9.808060791015626,-0.0711829662322998,0.03331470489501953,0.015482187271118164
1701713484295655200,9.8176552734375,-0.08571410179138184,0.030938148498535156,0.04304957389831543
1701713484305248500,9.82724853515625,-0.06718277931213379,0.035747528076171875,0.04431486129760742
1701713484314843000,9.8368427734375,-0.05353045463562012,0.02643108367919922,0.041185855865478516
1701713484324437800,9.846437744140625,-0.06125235557556152,0.014957427978515625,0.052375078201293945
1701713484334032100,9.8560322265625,-0.038256168365478516,0.013176918029785156,0.0588536262512207
1701713484343625500,9.86562548828125,-0.027484893798828125,0.006886482238769531,0.06790351867675781
1701713484353219800,9.8752197265625,-0.031213045120239258,-0.0016069412231445312,0.09083080291748047
1701713484362814700,9.884814697265625,-0.018677234649658203,-0.00049591064453125,0.10612916946411133
1701713484372409000,9.8944091796875,-0.02998971939086914,0.010013580322265625,0.0975341796875
1701713484382002400,9.90400244140625,-0.012683629989624023,0.0226593017578125,0.08446073532104492
1701713484391596800,9.9135966796875,0.006590604782104492,0.03984642028808594,0.06925129890441895
1701713484401191700,9.923191650390624,0.027799606323242188,0.05208015441894531,0.06371212005615234
1701713484410786000,9.9327861328125,0.034197330474853516,0.050072669982910156,0.05341696739196777
1701713484420379400,9.94237939453125,0.0330510139465332,0.04347801208496094,0.043109893798828125
1701713484429973800,9.951973876953126,0.02711796760559082,0.020473480224609375,0.03984332084655762
1701713484439568600,9.961568603515625,-0.004474639892578125,-0.0023565292358398438,0.0692439079284668
1701713484449163000,9.9711630859375,-0.030443429946899414,-0.020438194274902344,0.10953640937805176
1701713484458756400,9.98075634765625,-0.05301403999328613,-0.01964092254638672,0.09268903732299805
1701713484468350700,9.990350830078125,-0.05341076850891113,-0.04030132293701172,0.08321714401245117
1701713484477945600,9.999945556640625,-0.02520275115966797,-0.039520263671875,0.057575225830078125
1701713484487540000,10.0095400390625,-0.0042917728424072266,-0.036441802978515625,0.05133485794067383
1701713484497133300,10.01913330078125,0.025826692581176758,-0.028751373291015625,0.04053306579589844
1701713484506727700,10.028727783203125,0.008553504943847656,-0.007107734680175781,0.04648780822753906
1701713484516322600,10.038322509765624,0.003951072692871094,-0.0024785995483398438,0.005486249923706055
1701713484525917000,10.0479169921875,0.004606008529663086,0.009005546569824219,0.01008152961730957
1701713484535510300,10.05751025390625,0.02879190444946289,0.013318061828613281,-0.020518064498901367
1701713484545104600,10.067104736328124,0.029129981994628906,0.008182525634765625,-0.008037567138671875
1701713484554699500,10.076699462890625,0.03435087203979492,0.0008172988891601562,-0.023734331130981445
1701713484564294000,10.0862939453125,0.030165910720825195,-0.006427764892578125,-0.024946928024291992
1701713484573887200,10.09588720703125,0.014376640319824219,-0.018260955810546875,-0.021333694458007812
1701713484583481600,10.105481689453125,0.001455545425415039,-0.015817642211914062,-0.02233719825744629
1701713484593076500,10.115076416015626,-0.0039520263671875,-0.0063571929931640625,-0.0230865478515625
1701713484602670800,10.1246708984375,-0.018311023712158203,0.014669418334960938,-0.021187782287597656
1701713484612264200,10.13426416015625,-0.01566004753112793,0.030631065368652344,-0.02609109878540039
1701713484621858600,10.143858642578126,-0.026942729949951172,0.03686332702636719,-0.02606368064880371
1701713484631453400,10.153453369140625,-0.0522456169128418,0.02886486053466797,0.002126932144165039
1701713484641047800,10.1630478515625,-0.06100749969482422,0.01393890380859375,0.036542654037475586
1701713484650641200,10.17264111328125,-0.05577516555786133,-0.0031709671020507812,0.06284594535827637
1701713484660235500,10.182235595703125,-0.05561637878417969,-0.03415870666503906,0.07656121253967285
1701713484669830400,10.191830322265625,-0.04384183883666992,-0.05049896240234375,0.09460568428039551
1701713484679424800,10.2014248046875,-0.046598196029663086,-0.045291900634765625,0.1029214859008789
1701713484689018000,10.21101806640625,-0.05648350715637207,-0.021210670471191406,0.08538675308227539
1701713484698612500,10.220612548828125,-0.06380820274353027,0.014281272888183594,0.09653544425964355
1701713484708207600,10.23020751953125,-0.04307913780212402,0.037499427795410156,0.06499266624450684
1701713484717801700,10.2398017578125,-0.030118465423583984,0.034478187561035156,0.05489182472229004
1701713484727395000,10.24939501953125,-0.029477834701538086,0.03399372100830078,0.0402071475982666
1701713484736989400,10.258989501953126,-0.01015329360961914,0.03591442108154297,0.0021817684173583984
1701713484746584600,10.26858447265625,0.0015921592712402344,0.019057273864746094,-0.014022111892700195
1701713484756178700,10.2781787109375,-0.01273965835571289,0.01656055450439453,-0.03239727020263672
1701713484765772000,10.28777197265625,-0.02879786491394043,-0.021421432495117188,-0.027021169662475586
1701713484775366400,10.297366455078125,-0.027663707733154297,-0.06605052947998047,-0.017070531845092773
1701713484784961300,10.306961181640625,-0.04711103439331055,-0.05848884582519531,-0.014498710632324219
1701713484794555600,10.3165556640625,-0.06090068817138672,-0.0537109375,-0.01673269271850586
1701713484804149000,10.32614892578125,-0.05274534225463867,-0.03275299072265625,-0.014177083969116211
1701713484813743400,10.335743408203125,-0.044336557388305664,-0.014673233032226562,-0.028144121170043945
1701713484823338500,10.34533837890625,-0.021804094314575195,0.014913558959960938,-0.025160789489746094
1701713484832932600,10.3549326171875,-0.02083563804626465,0.04648399353027344,-0.010164976119995117
1701713484842526000,10.36452587890625,-0.029398441314697266,0.04704856872558594,-0.00464177131652832
1701713484852120300,10.374120361328124,-0.03806924819946289,0.05252552032470703,0.012798547744750977
1701713484861715500,10.383715576171875,-0.032665252685546875,0.04155921936035156,0.041815757751464844
1701713484871309600,10.3933095703125,-0.032407522201538086,0.0309906005859375,0.06107306480407715
1701713484880903000,10.40290283203125,-0.027752161026000977,0.020856857299804688,0.08735394477844238
1701713484890497300,10.412497314453125,-0.020834684371948242,-0.0031900405883789062,0.12034749984741211
1701713484900092200,10.422092041015626,-0.011303901672363281,-0.02936267852783203,0.14571928977966309
1701713484909686500,10.4316865234375,0.024158477783203125,-0.041103363037109375,0.13996648788452148
1701713484919279900,10.44127978515625,0.0710916519165039,-0.0128021240234375,0.1200876235961914
1701713484928874200,10.450874267578126,0.10297918319702148,0.024488449096679688,0.08637046813964844
1701713484938469400,10.460469482421875,0.13857269287109375,0.06368732452392578,0.06960701942443848
1701713484948063500,10.4700634765625,0.17304515838623047,0.09539222717285156,0.015411138534545898
1701713484957656800,10.47965673828125,0.15688061714172363,0.10564422607421875,-0.004967212677001953
1701713484967251200,10.489251220703125,0.09610247611999512,0.10404300689697266,-0.006128072738647461
1701713484976846300,10.498846435546875,0.06435251235961914,0.060138702392578125,-0.005056858062744141
1701713484986440400,10.5084404296875,0.014380693435668945,0.03340339660644531,-0.01578354835510254
1701713484996033800,10.51803369140625,-0.001661539077758789,-0.0024290084838867188,-0.024127960205078125
1701713485005628200,10.527628173828125,-0.029068946838378906,-0.025936126708984375,-0.04170536994934082
1701713485015223000,10.53722314453125,-0.06067180633544922,-0.03976249694824219,-0.04274868965148926
1701713485024817400,10.5468173828125,-0.04937267303466797,-0.03448295593261719,-0.05074024200439453
1701713485034410800,10.55641064453125,-0.05695700645446777,-0.01996135711669922,-0.04688072204589844
1701713485044005000,10.566005126953126,-0.08083868026733398,0.0037736892700195312,-0.02410149574279785
1701713485053600300,10.575600341796875,-0.09951639175415039,0.010629653930664062,-0.01573014259338379
1701713485063194400,10.5851943359375,-0.10366082191467285,0.029180526733398438,-0.007304191589355469
1701713485072787700,10.59478759765625,-0.08201980590820312,0.04990196228027344,0.0010867118835449219
1701713485082382000,10.604382080078125,-0.051378726959228516,0.04694557189941406,-0.009063005447387695
1701713485091977200,10.613977294921876,-0.037865638732910156,0.05357933044433594,-0.011831045150756836
1701713485101571300,10.6235712890625,-0.03880000114440918,0.03903961181640625,0.009182929992675781
1701713485111164700,10.63316455078125,-0.03967761993408203,0.03655433654785156,0.03234148025512695
1701713485120759000,10.642759033203125,-0.03131818771362305,0.013010978698730469,0.029218673706054688
1701713485130354200,10.652354248046874,-0.023292064666748047,0.011176109313964844,0.0427243709564209
1701713485139948300,10.6619482421875,-0.025051355361938477,0.02118968963623047,0.044092655181884766
1701713485149541600,10.671541748046875,-0.019913196563720703,0.012210845947265625,0.02641010284423828
1701713485159136000,10.681135986328124,0.005913257598876953,0.0034723281860351562,0.022918224334716797
1701713485168731100,10.690731201171875,-0.004515171051025391,0.0043926239013671875,0.005032062530517578
1701713485178325200,10.7003251953125,0.006044864654541016,0.02182769775390625,-0.012838602066040039
1701713485187918600,10.709918701171874,-0.005228519439697266,0.02729511260986328,-0.028339147567749023
1701713485197513000,10.719512939453125,-0.011800527572631836,0.023342132568359375,-0.03887319564819336
1701713485207108000,10.729108154296876,-0.004055976867675781,0.03362083435058594,-0.04198265075683594
1701713485216702200,10.7387021484375,-0.014956951141357422,0.03434562683105469,-0.02578282356262207
1701713485226295600,10.748295654296875,-0.022851228713989258,0.03975200653076172,-0.014084100723266602
1701713485235890000,10.757889892578126,-0.049115657806396484,0.0239105224609375,0.011977910995483398
1701713485245485000,10.767485107421875,-0.04618072509765625,0.005925178527832031,0.04980134963989258
1701713485255079200,10.7770791015625,-0.028934955596923828,-0.011808395385742188,0.08948969841003418
1701713485264672500,10.786672607421876,-0.02341461181640625,-0.01752758026123047,0.1028594970703125
1701713485274267000,10.796266845703125,-0.015438318252563477,-0.030303955078125,0.12306952476501465
1701713485283862000,10.805862060546875,0.0021953582763671875,-0.031229019165039062,0.12419867515563965
1701713485293456100,10.8154560546875,0.012707948684692383,-0.037016868591308594,0.11809659004211426
1701713485303049500,10.825049560546875,0.03722715377807617,-0.04754352569580078,0.12127423286437988
1701713485312643800,10.834643798828125,0.040425777435302734,-0.04864788055419922,0.08898067474365234
1701713485322239000,10.844239013671874,0.05571556091308594,-0.04763507843017578,0.06643986701965332
1701713485331833000,10.8538330078125,0.05690121650695801,-0.03032970428466797,0.05358481407165527
1701713485341426400,10.863426513671875,0.05598855018615723,-0.05115222930908203,0.04083871841430664
1701713485351020800,10.873020751953124,0.047987937927246094,-0.022271156311035156,0.018649578094482422
1701713485360616000,10.882615966796875,0.0350799560546875,-0.008024215698242188,-0.03656148910522461
1701713485370210000,10.8922099609375,0.022110939025878906,0.0012006759643554688,-0.05601787567138672
1701713485379803400,10.901803466796874,-0.0050432682037353516,0.014947891235351562,-0.0755305290222168
1701713485389397800,10.911397705078125,-0.032158851623535156,0.028476715087890625,-0.1092677116394043
1701713485398993000,10.920992919921876,-0.0447537899017334,0.018242835998535156,-0.12366199493408203
1701713485408587000,10.9305869140625,-0.028313636779785156,0.01742076873779297,-0.1799781322479248
1701713485418180400,10.940180419921875,-0.06576800346374512,-0.009545326232910156,-0.16949057579040527
1701713485427774700,10.949774658203125,-0.10280036926269531,-0.06902122497558594,-0.0981907844543457
1701713485437369900,10.959369873046874,-0.11632943153381348,-0.07805824279785156,-0.05466794967651367
1701713485446964000,10.9689638671875,-0.10406875610351562,-0.0799093246459961,-0.026428937911987305
1701713485456557300,10.978557373046876,-0.06065535545349121,0.0028429031372070312,-0.08301091194152832
1701713485466151700,10.988151611328124,-0.03419327735900879,-0.003025054931640625,-0.05158877372741699
1701713485475746800,10.997746826171875,0.0013580322265625,0.0052814483642578125,-0.03716158866882324
1701713485485341000,11.0073408203125,0.0246584415435791,0.0204620361328125,-0.0465085506439209
1701713485494934300,11.016934326171874,0.056946754455566406,0.03538990020751953,-0.043973445892333984
1701713485504528600,11.026528564453125,0.060309410095214844,0.04304981231689453,-0.03917074203491211
1701713485514123800,11.036123779296876,0.054198265075683594,0.01754283905029297,-0.03464221954345703
1701713485523718000,11.0457177734375,0.05746769905090332,0.011298179626464844,-0.023268699645996094
1701713485533311200,11.055311279296875,0.03723764419555664,0.0097808837890625,-0.02159857749938965
1701713485542905600,11.064905517578126,0.027035951614379883,-0.001216888427734375,-0.010449647903442383
1701713485552500700,11.074500732421875,-0.015623092651367188,-0.007457733154296875,0.014683723449707031
1701713485562094800,11.0840947265625,-0.05003976821899414,-0.016048431396484375,0.03732752799987793
1701713485571688200,11.093688232421876,-0.04818248748779297,-0.02228260040283203,0.07146239280700684
1701713485581282600,11.103282470703125,-0.04358959197998047,-0.01669597625732422,0.0912325382232666
1701713485590877700,11.112877685546875,-0.03192949295043945,-0.004103660583496094,0.10615205764770508
1701713485600471800,11.122471923828124,-0.03211474418640137,0.013067245483398438,0.10702729225158691
1701713485610065200,11.132065185546875,-0.020445585250854492,0.02296924591064453,0.11288070678710938
1701713485619659500,11.141659423828125,0.012006521224975586,0.042336463928222656,0.10950517654418945
1701713485629254400,11.15125439453125,0.02483391761779785,0.06630611419677734,0.1087796688079834
1701713485638848800,11.160848876953125,0.013516902923583984,0.07126140594482422,0.09639215469360352
1701713485648442000,11.170442138671875,0.020889759063720703,0.06924629211425781,0.07249259948730469
1701713485658036500,11.180036376953124,0.02088308334350586,0.043854713439941406,0.05850553512573242
1701713485667631600,11.189631591796875,0.020682811737060547,0.03553485870361328,0.03788256645202637
1701713485677225700,11.199225830078126,0.006731271743774414,0.001361846923828125,0.03191637992858887
1701713485686819000,11.208819091796874,-0.00877690315246582,-0.015908241271972656,0.023980140686035156
1701713485696413400,11.218413330078125,-0.01873779296875,-0.018957138061523438,0.023433685302734375
1701713485706008300,11.22800830078125,0.012449264526367188,0.008368492126464844,-0.030834436416625977
1701713485715602700,11.237602783203124,0.02957892417907715,0.03748893737792969,-0.03904604911804199
1701713485725196000,11.247196044921875,0.03943800926208496,0.03555583953857422,-0.039869070053100586
1701713485734790400,11.256790283203125,0.02471017837524414,-0.008484840393066406,-0.022264957427978516
1701713485744385300,11.26638525390625,-0.0024073123931884766,-0.04689311981201172,0.02749323844909668
1701713485753979600,11.275979736328125,-0.03886079788208008,-0.030498504638671875,0.019540071487426758
1701713485763573000,11.285572998046876,-0.051793813705444336,-0.03550529479980469,-0.0006153583526611328
1701713485773167400,11.29516748046875,-0.039026737213134766,-0.0804738998413086,0.021416425704956055
1701713485782762200,11.30476220703125,-0.026238203048706055,-0.007076263427734375,-0.020435571670532227
1701713485792356600,11.314356689453126,0.013014793395996094,0.0838165283203125,-0.05626511573791504
1701713485801950000,11.323949951171874,0.024118423461914062,0.147216796875,-0.06728315353393555
1701713485811544300,11.33354443359375,0.04860568046569824,0.08739185333251953,-0.012227058410644531
1701713485821139200,11.34313916015625,0.031641244888305664,0.06411266326904297,0.017766952514648438
1701713485830733600,11.352733642578125,0.0002460479736328125,0.020135879516601562,0.030358076095581055
1701713485840327000,11.362326904296875,-0.02366042137145996,0.016877174377441406,0.04254555702209473
1701713485849921300,11.37192138671875,0.06328725814819336,0.015674591064453125,-0.026232004165649414
1701713485859516200,11.38151611328125,-0.04605865478515625,0.1576070785522461,-0.04460453987121582
1701713485869110500,11.391110595703125,0.1266014575958252,0.1932239532470703,-0.10314202308654785
1701713485878703900,11.400703857421876,0.10503554344177246,-0.025798797607421875,0.020346641540527344
1701713485888298200,11.41029833984375,0.02545642852783203,-0.12309741973876953,0.07693886756896973
1701713485897893000,11.41989306640625,-0.0357518196105957,-0.13864517211914062,0.06481122970581055
1701713485907487500,11.429487548828124,-0.057723045349121094,-0.16560649871826172,0.03454184532165527
1701713485917080800,11.439080810546875,-0.0657649040222168,-0.10753345489501953,0.0013654232025146484
1701713485926675200,11.44867529296875,-0.018998146057128906,-0.02479267120361328,-0.0712888240814209
1701713485936270000,11.45827001953125,-0.012078285217285156,-0.03090381622314453,-0.06245851516723633
1701713485945864400,11.467864501953125,-0.009365081787109375,-0.08427906036376953,-0.006643056869506836
1701713485955457800,11.477457763671875,-0.023319244384765625,-0.13689231872558594,0.02187347412109375
1701713485965052200,11.48705224609375,-0.03743171691894531,-0.12513351440429688,0.0022118091583251953
1701713485974647000,11.49664697265625,-0.005138874053955078,0.03255462646484375,-0.041330814361572266
1701713485984241400,11.506241455078126,-0.055918216705322266,0.015844345092773438,-0.03465914726257324
1701713485993834800,11.515834716796874,-0.01639270782470703,0.14301681518554688,-0.11755776405334473
1701713486003429000,11.52542919921875,-0.020470619201660156,0.16007614135742188,-0.11426615715026855
1701713486013024000,11.53502392578125,-0.046990394592285156,0.18689727783203125,-0.11812925338745117
1701713486022618400,11.544618408203124,-0.04111909866333008,-0.11135101318359375,0.030523300170898438
1701713486032211700,11.554211669921875,-0.06827497482299805,-0.11739444732666016,-0.03273749351501465
1701713486041806000,11.56380615234375,-0.06350517272949219,-0.012704849243164062,-0.12691020965576172
1701713486051401000,11.57340087890625,-0.04907989501953125,0.03154277801513672,-0.14577031135559082
1701713486060995000,11.5829951171875,-0.05172157287597656,0.12962722778320312,-0.12366962432861328
1701713486070588700,11.592588623046876,0.015552997589111328,0.01955413818359375,-0.1153864860534668
1701713486080183000,11.60218310546875,-0.014719963073730469,0.11404609680175781,-0.09470033645629883
1701713486089778000,11.61177783203125,-0.04965639114379883,0.21909713745117188,-0.0716707706451416
1701713486099372300,11.621372314453126,-0.04268217086791992,0.2428884506225586,-0.04426240921020508
1701713486108965600,11.630965576171874,-0.06194448471069336,0.04037284851074219,0.06269431114196777
1701713486118560000,11.64056005859375,-0.08433723449707031,-0.13144397735595703,0.1529850959777832
1701713486128155000,11.65015478515625,-0.031128883361816406,-0.10386466979980469,0.13790202140808105
1701713486137749000,11.6597490234375,0.06747865676879883,-0.12012100219726562,0.14603543281555176
1701713486147342600,11.669342529296875,0.12050509452819824,-0.09904956817626953,0.12289643287658691
1701713486156937000,11.67893701171875,0.13938260078430176,-0.03851509094238281,0.10869193077087402
1701713486166531800,11.68853173828125,0.12209343910217285,0.025606155395507812,0.07968378067016602
1701713486176126200,11.698126220703125,0.08567428588867188,0.06742095947265625,0.0880126953125
1701713486185719600,11.707719482421876,0.08969831466674805,0.13670063018798828,0.03692054748535156
1701713486195313700,11.717313720703125,0.049056053161621094,0.22319889068603516,0.02339649200439453
1701713486204908800,11.72690869140625,0.07079315185546875,0.020120620727539062,0.0555572509765625
1701713486214503000,11.7365029296875,0.08881807327270508,-0.09093284606933594,0.0020935535430908203
1701713486224096500,11.746096435546875,0.11588191986083984,-0.2831144332885742,-0.02796030044555664
1701713486233691000,11.75569091796875,0.011882305145263672,-0.33686256408691406,-0.02577066421508789
1701713486243285800,11.76528564453125,-0.040497779846191406,-0.2993354797363281,-0.0236663818359375
1701713486252880000,11.7748798828125,-0.04565286636352539,-0.20729446411132812,-0.03696179389953613
1701713486262473500,11.784473388671875,-0.024465560913085938,-0.10613822937011719,-0.04276871681213379
1701713486272067600,11.794067626953124,-0.0289459228515625,-0.05761528015136719,0.0005340576171875
1701713486281662700,11.803662841796875,0.027228832244873047,-0.08911418914794922,-0.0712738037109375
1701713486291257000,11.813257080078126,0.0503382682800293,-0.1351604461669922,-0.11939883232116699
1701713486300850400,11.822850341796874,0.012374401092529297,-0.051552772521972656,-0.13434576988220215
1701713486310444800,11.83244482421875,0.05168962478637695,0.04870796203613281,-0.12318825721740723
1701713486320039700,11.842039794921876,0.013770580291748047,0.30176258087158203,-0.1504225730895996
