time,seconds_elapsed,z,y,x
1701864817001839400,0.17683935546875,1.27769136428833,0.10358905792236328,-1.0972095727920532
1701864817011432000,0.186431884765625,1.614274024963379,0.31288623809814453,-1.4570674896240234
1701864817021025300,0.196025390625,1.0323972702026367,0.10327911376953125,-1.4384424686431885
1701864817030617900,0.205617919921875,0.3851137161254883,-0.1628093719482422,-1.191659688949585
1701864817040209700,0.215209716796875,0.6692361831665039,-0.05333137512207031,-1.3682470321655273
1701864817049802200,0.22480224609375,0.8040704727172852,0.2523970603942871,-1.5322176218032837
1701864817059395600,0.2343955078125,0.7850189208984375,0.39177703857421875,-1.635080099105835
1701864817068988200,0.24398828125,0.8013391494750977,0.2339458465576172,-1.6768600940704346
1701864817078580000,0.253580078125,0.7397565841674805,-0.007524728775024414,-1.520902395248413
1701864817088172500,0.263172607421875,0.9496650695800781,-0.21921157836914062,-1.0326730012893677
1701864817097766000,0.272765869140625,1.22943115234375,-0.2942807674407959,-0.4316840171813965
1701864817107358500,0.2823583984375,1.3625307083129883,-0.21784186363220215,0.08658468723297119
1701864817116950300,0.2919501953125,1.428816795349121,-0.13064289093017578,0.4316596984863281
1701864817126542800,0.30154296875,1.324662208557129,-0.06253600120544434,0.4486062526702881
1701864817136136200,0.31113623046875,1.1965036392211914,-0.042530059814453125,0.13688206672668457
1701864817145728800,0.320728759765625,1.0582160949707031,-0.16966009140014648,-0.4948709011077881
1701864817155320600,0.330320556640625,1.0229549407958984,-0.3197290897369385,-1.279786467552185
1701864817164913200,0.3399130859375,0.9346084594726562,-0.565068244934082,-1.9509670734405518
1701864817174506500,0.349506591796875,0.8553943634033203,-0.8410861492156982,-2.20810604095459
1701864817184099000,0.35909912109375,0.8081398010253906,-0.618920087814331,-1.9440613985061646
1701864817193691000,0.36869091796875,0.5832757949829102,-0.21300697326660156,-1.4269118309020996
1701864817203283500,0.378283447265625,0.3939085006713867,-0.010155439376831055,-0.7434272766113281
1701864817212876800,0.387876708984375,0.43591785430908203,0.026129961013793945,0.03185558319091797
1701864817222469400,0.397469482421875,0.7579441070556641,0.06431984901428223,0.5669431686401367
1701864817232061200,0.407061279296875,1.149139404296875,0.21758604049682617,0.9838366508483887
1701864817241653800,0.41665380859375,1.6282672882080078,0.3486142158508301,1.2358412742614746
1701864817251247000,0.4262470703125,1.69866943359375,0.6575372219085693,1.2583770751953125
1701864817260839700,0.435839599609375,1.3459782600402832,0.8556296825408936,1.0471506118774414
1701864817270431500,0.445431396484375,0.32254886627197266,0.7206056118011475,1.1262121200561523
1701864817280024000,0.455024169921875,-0.9582643508911133,0.46918177604675293,1.440507411956787
1701864817289617400,0.464617431640625,-1.5786113739013672,0.3644561767578125,1.6339316368103027
1701864817299210000,0.4742099609375,-1.0234065055847168,0.36891984939575195,1.3286423683166504
1701864817308801800,0.4838017578125,0.06717205047607422,0.6647841930389404,0.7797188758850098
1701864817318394400,0.493394287109375,0.8471469879150391,0.8177976608276367,0.5696845054626465
1701864817327987700,0.50298779296875,0.8118767738342285,0.4441232681274414,0.7106056213378906
1701864817337580300,0.512580322265625,0.43312978744506836,0.4727315902709961,1.1353044509887695
1701864817347172000,0.522172119140625,0.22379589080810547,0.7276418209075928,1.1779828071594238
1701864817356764700,0.5317646484375,-0.15148210525512695,0.7519903182983398,1.142329216003418
1701864817366358000,0.54135791015625,0.23055028915405273,0.9271714687347412,0.9434309005737305
1701864817375950600,0.55095068359375,0.6808223724365234,0.9553508758544922,0.6937756538391113
1701864817385542400,0.56054248046875,0.8627309799194336,0.6290690898895264,0.5354385375976562
1701864817395135000,0.570135009765625,0.9667158126831055,0.19615507125854492,0.7687959671020508
1701864817404728300,0.579728271484375,1.0939197540283203,-0.14474034309387207,1.2027006149291992
1701864817414321000,0.58932080078125,0.6688976287841797,-0.015740156173706055,1.5991802215576172
1701864817423912700,0.59891259765625,0.28135061264038086,0.32668137550354004,1.6176137924194336
1701864817433505300,0.60850537109375,0.21248817443847656,0.678776741027832,1.364750862121582
1701864817443098600,0.6180986328125,0.22234010696411133,0.8197782039642334,0.9903655052185059
1701864817452691200,0.627691162109375,0.17292118072509766,0.7197680473327637,0.559791088104248
1701864817462283000,0.637282958984375,-0.03919029235839844,0.48680830001831055,0.24184417724609375
1701864817471875600,0.64687548828125,-0.20620155334472656,0.28218817710876465,-0.022005081176757812
1701864817481469000,0.656468994140625,-0.40386247634887695,0.10690689086914062,-0.18000268936157227
1701864817491061500,0.6660615234375,-0.6137886047363281,-0.14462757110595703,-0.10550498962402344
1701864817500653300,0.6756533203125,-0.7950119972229004,-0.3933403491973877,0.004786014556884766
1701864817510246000,0.685245849609375,-0.8267598152160645,-0.6128342151641846,0.024938106536865234
1701864817519839200,0.694839111328125,-0.8183655738830566,-0.6842091083526611,-0.05191946029663086
1701864817529431800,0.704431884765625,-0.8545293807983398,-0.635239839553833,-0.25122642517089844
1701864817539023600,0.714023681640625,-0.7483024597167969,-0.5165302753448486,-0.4917721748352051
1701864817548616200,0.7236162109375,-0.6802163124084473,-0.4616672992706299,-0.5405850410461426
1701864817558209500,0.73320947265625,-0.6463432312011719,-0.4090993404388428,-0.462709903717041
1701864817567802000,0.742802001953125,-0.7889399528503418,-0.5217893123626709,-0.29143476486206055
1701864817577394000,0.752393798828125,-0.806610107421875,-0.5751593112945557,-0.2751193046569824
1701864817586986800,0.76198681640625,-0.7113571166992188,-0.5264325141906738,-0.4370889663696289
1701864817596579800,0.771579833984375,-0.7360386848449707,-0.5676455497741699,-0.5481886863708496
1701864817606172400,0.78117236328125,-0.7779154777526855,-0.6479840278625488,-0.5612053871154785
1701864817615764200,0.79076416015625,-0.7504134178161621,-0.7218425273895264,-0.5614814758300781
1701864817625357000,0.800357177734375,-0.5961885452270508,-0.7445337772369385,-0.4918994903564453
1701864817634950400,0.809950439453125,-0.31101512908935547,-0.856896162033081,-0.38516855239868164
1701864817644542700,0.819542724609375,-0.3362770080566406,-1.2840609550476074,-0.01385354995727539
1701864817654134500,0.829134521484375,-0.18299341201782227,-1.2134062051773071,0.0896902084350586
1701864817663727400,0.838727294921875,0.06490659713745117,-1.0686936378479004,0.011261940002441406
1701864817673320700,0.84832080078125,0.2254786491394043,-0.8610389232635498,-0.18132925033569336
1701864817682913000,0.8579130859375,0.030101776123046875,-1.1874538660049438,-0.051024436950683594
1701864817692504800,0.8675048828125,-0.09099054336547852,-1.1361165046691895,0.017405033111572266
1701864817702097700,0.87709765625,0.038381099700927734,-0.8577111959457397,-0.13847589492797852
1701864817711691000,0.88669091796875,0.13425731658935547,-0.7937445640563965,-0.16442346572875977
1701864817721283300,0.896283447265625,0.21449565887451172,-0.6761976480484009,-0.24024152755737305
1701864817730875100,0.905875244140625,0.4432334899902344,-0.8570590019226074,-0.1619396209716797
1701864817740468000,0.915468017578125,0.5069675445556641,-1.1243656873703003,0.05491304397583008
1701864817750061300,0.925061279296875,0.6186800003051758,-1.1209301948547363,0.17685604095458984
1701864817759654000,0.93465380859375,0.7374396324157715,-0.9701111316680908,0.15308809280395508
1701864817769245400,0.944245361328125,0.9908785820007324,-0.8932595252990723,0.14653778076171875
1701864817778838300,0.95383837890625,1.059433937072754,-1.0179641246795654,0.2816495895385742
1701864817788431600,0.963431640625,0.894463062286377,-1.0889892578125,0.27414512634277344
1701864817798024200,0.973024169921875,0.5537962913513184,-1.0985804796218872,0.26177453994750977
1701864817807615700,0.98261572265625,0.25234365463256836,-1.0681263208389282,0.272336483001709
1701864817817208600,0.99220849609375,-0.061713218688964844,-0.9581410884857178,0.22751665115356445
1701864817826802000,1.001802001953125,-0.38947296142578125,-0.7822632789611816,0.12715768814086914
1701864817836394500,1.01139453125,-0.6184182167053223,-0.7404241561889648,0.0416874885559082
1701864817845986000,1.020986083984375,-1.0371475219726562,-0.760796070098877,-0.1598825454711914
1701864817855579000,1.030578857421875,-1.3523287773132324,-0.8109250068664551,-0.15712928771972656
1701864817865172200,1.040172119140625,-1.4102797508239746,-0.7538192272186279,-0.022584915161132812
1701864817874764800,1.049764892578125,-1.270413875579834,-0.6090772151947021,-0.05377006530761719
1701864817884356600,1.059356689453125,-1.072908878326416,-0.5074539184570312,-0.29003238677978516
1701864817893949200,1.06894921875,-0.9596405029296875,-0.5153026580810547,-0.44460058212280273
1701864817903542500,1.07854248046875,-0.9900460243225098,-0.6066350936889648,-0.4712071418762207
1701864817913135000,1.088135009765625,-1.0301637649536133,-0.7814420461654663,-0.40526580810546875
1701864817922727000,1.097726806640625,-1.0736918449401855,-0.9266644716262817,-0.24561643600463867
1701864817932319500,1.107319580078125,-1.201310157775879,-0.9757506847381592,-0.19380998611450195
1701864817941912800,1.116912841796875,-1.131673812866211,-0.9548739194869995,-0.16257715225219727
1701864817951505400,1.12650537109375,-0.9076008796691895,-0.8588567972183228,-0.0852804183959961
1701864817961097200,1.13609716796875,-0.8310332298278809,-0.7079528570175171,-0.09940719604492188
1701864817970689800,1.145689697265625,-0.9345550537109375,-0.6356105804443359,-0.15062761306762695
1701864817980283100,1.155283203125,-1.076395034790039,-0.6143671274185181,-0.16767311096191406
1701864817989875700,1.164875732421875,-1.1493158340454102,-0.6404049396514893,-0.3574867248535156
1701864817999467500,1.174467529296875,-1.2021889686584473,-0.7005462646484375,-0.5543012619018555
1701864818009060000,1.18406005859375,-1.238779067993164,-0.777260959148407,-0.5649251937866211
1701864818018653400,1.1936533203125,-0.9802331924438477,-0.8028301000595093,-0.5482573509216309
1701864818028246000,1.20324609375,-0.5709924697875977,-0.909490168094635,-0.3749980926513672
1701864818037837800,1.212837890625,-0.22208356857299805,-1.0669758319854736,-0.15293502807617188
1701864818047430400,1.222430419921875,0.07923078536987305,-1.2092502117156982,0.023514747619628906
1701864818057023700,1.232023681640625,0.3183412551879883,-1.2503769397735596,0.0750417709350586
1701864818066616300,1.2416162109375,0.47272586822509766,-1.1907868385314941,0.03459358215332031
1701864818076208000,1.2512080078125,0.46238231658935547,-1.1201903820037842,0.03391456604003906
1701864818085800700,1.26080078125,0.2382960319519043,-1.0615062713623047,-0.0982213020324707
1701864818095394000,1.27039404296875,0.028144359588623047,-1.0036907196044922,-0.3347158432006836
1701864818104986600,1.279986572265625,-0.1147613525390625,-0.8947095274925232,-0.43253421783447266
1701864818114578400,1.289578369140625,-0.23183679580688477,-0.8366994261741638,-0.411529541015625
1701864818124171000,1.2991708984375,-0.29430580139160156,-0.8679921627044678,-0.3982200622558594
1701864818133764400,1.308764404296875,-0.2506089210510254,-0.9141117334365845,-0.3744230270385742
1701864818143357000,1.31835693359375,-0.10070180892944336,-0.938159167766571,-0.0980677604675293
1701864818152948700,1.32794873046875,0.0029468536376953125,-0.8650528788566589,0.10123443603515625
1701864818162541300,1.337541259765625,-0.05356407165527344,-0.7504591941833496,0.09644126892089844
1701864818172134700,1.347134765625,-0.20038509368896484,-0.574393630027771,0.060906410217285156
1701864818181727200,1.356727294921875,-0.4756789207458496,-0.42784690856933594,0.02635669708251953
1701864818191319000,1.366319091796875,-1.0000243186950684,-0.3488142490386963,-0.11256217956542969
1701864818200911600,1.37591162109375,-1.4258122444152832,-0.36198270320892334,-0.41866350173950195
1701864818210505000,1.3855048828125,-1.491912841796875,-0.4322059154510498,-0.7006072998046875
1701864818220097500,1.39509765625,-1.3710989952087402,-0.5005269050598145,-0.8234963417053223
1701864818229689300,1.404689453125,-1.1350984573364258,-0.5318689942359924,-0.860203742980957
1701864818239282000,1.414281982421875,-0.7917766571044922,-0.5522420406341553,-0.7725906372070312
1701864818248875300,1.423875244140625,-0.36332178115844727,-0.5987129211425781,-0.5324702262878418
1701864818258467800,1.4334677734375,0.042691707611083984,-0.6021666526794434,-0.1366262435913086
1701864818268059600,1.4430595703125,0.3399825096130371,-0.6116619110107422,0.17863845825195312
1701864818277652200,1.45265234375,0.502744197845459,-0.6357358694076538,0.3211936950683594
1701864818287245600,1.46224560546875,0.5762457847595215,-0.6721535921096802,0.39964962005615234
1701864818296838100,1.471838134765625,0.5622057914733887,-0.6770772933959961,0.4225196838378906
1701864818306430000,1.481429931640625,0.5766744613647461,-0.73039710521698,0.39815235137939453
1701864818316022500,1.4910224609375,0.6350712776184082,-0.8507519960403442,0.49390411376953125
1701864818325615900,1.500615966796875,0.5986828804016113,-0.926192045211792,0.6988687515258789
1701864818335208400,1.51020849609375,0.562962532043457,-0.9181749820709229,0.7621450424194336
1701864818344800300,1.51980029296875,0.6841263771057129,-0.8811441659927368,0.6971607208251953
1701864818354392800,1.529392822265625,0.7925753593444824,-0.8706967830657959,0.7135953903198242
1701864818363986200,1.538986083984375,0.8851041793823242,-0.8626852035522461,0.8687467575073242
1701864818373578800,1.548578857421875,0.9695014953613281,-0.8429453372955322,1.0067548751831055
1701864818383170600,1.558170654296875,0.9634685516357422,-0.8421244621276855,1.070113182067871
1701864818392763100,1.56776318359375,0.982478141784668,-0.788076639175415,1.1326465606689453
1701864818402356500,1.5773564453125,1.119521141052246,-0.7206001281738281,1.2061700820922852
1701864818411949000,1.586948974609375,1.044196605682373,-0.6187574863433838,1.198592185974121
1701864818421540900,1.596540771484375,0.7705645561218262,-0.5996971130371094,1.077986717224121
1701864818431133400,1.606133544921875,0.5142331123352051,-0.5467092990875244,0.7288169860839844
1701864818440726800,1.615726806640625,0.3208141326904297,-0.492922306060791,0.3367881774902344
1701864818450319400,1.6253193359375,0.09265995025634766,-0.5020370483398438,0.1002054214477539
1701864818459911200,1.6349111328125,-0.12919235229492188,-0.536290168762207,-0.053093910217285156
1701864818469503700,1.644503662109375,-0.25566673278808594,-0.5496194362640381,-0.05043315887451172
1701864818479097000,1.65409716796875,-0.44504308700561523,-0.4544029235839844,-0.04469108581542969
1701864818488689700,1.663689697265625,-0.6286888122558594,-0.33969569206237793,-0.06641483306884766
1701864818498281500,1.673281494140625,-0.6190834045410156,-0.2996201515197754,0.013784408569335938
1701864818507874000,1.6828740234375,-0.5844717025756836,-0.1992504596710205,0.06762313842773438
1701864818517467400,1.69246728515625,-0.6334962844848633,-0.05393409729003906,0.0040378570556640625
1701864818527060000,1.70206005859375,-0.6586503982543945,0.018846988677978516,-0.03511238098144531
1701864818536651800,1.71165185546875,-0.7196192741394043,0.021398067474365234,-0.0824594497680664
1701864818546244400,1.721244384765625,-0.931459903717041,-0.02773904800415039,-0.13907909393310547
1701864818555837700,1.730837646484375,-1.1391887664794922,-0.051659345626831055,-0.24487876892089844
1701864818565430300,1.74043017578125,-1.188361406326294,-0.0985097885131836,-0.21160507202148438
1701864818575022000,1.75002197265625,-1.2424585819244385,-0.11670398712158203,-0.08382034301757812
1701864818584614700,1.75961474609375,-1.4229824542999268,-0.164902925491333,-0.08352279663085938
1701864818594208000,1.7692080078125,-1.4373044967651367,-0.2453298568725586,-0.10341644287109375
1701864818603800600,1.778800537109375,-1.176405429840088,-0.3547554016113281,-0.033783912658691406
1701864818613392400,1.788392333984375,-0.7378716468811035,-0.44457411766052246,0.15562057495117188
1701864818622985000,1.79798486328125,-0.3236680030822754,-0.5244266986846924,0.29950714111328125
1701864818632578300,1.807578369140625,0.10360193252563477,-0.5790307521820068,0.3908119201660156
1701864818642171000,1.8171708984375,0.4561934471130371,-0.6787772178649902,0.6626834869384766
1701864818651762700,1.8267626953125,0.5755553245544434,-0.7014286518096924,0.9993629455566406
1701864818661355300,1.836355224609375,0.2929511070251465,-0.6547555923461914,1.0131072998046875
1701864818670948600,1.845948486328125,-0.07730960845947266,-0.5962069034576416,0.7969083786010742
1701864818680541200,1.855541259765625,-0.343259334564209,-0.5208044052124023,0.5366277694702148
1701864818690133000,1.865133056640625,-0.583003044128418,-0.48728013038635254,0.29375267028808594
1701864818699725600,1.8747255859375,-0.7757532596588135,-0.4797663688659668,0.16040802001953125
1701864818709319000,1.88431884765625,-0.8503844738006592,-0.4964587688446045,0.14267730712890625
1701864818718911500,1.893911376953125,-0.7732894420623779,-0.534503698348999,0.2003793716430664
1701864818728503300,1.90350341796875,-0.5327014923095703,-0.5713860988616943,0.1438274383544922
1701864818738096000,1.91309619140625,-0.19765996932983398,-0.562685489654541,-0.02138042449951172
1701864818747689200,1.922689208984375,0.09535694122314453,-0.48844242095947266,-0.07112979888916016
1701864818757281800,1.93228173828125,0.2938823699951172,-0.5137331485748291,-0.04752635955810547
1701864818766873600,1.94187353515625,0.42357730865478516,-0.49712586402893066,-0.14074325561523438
1701864818776466400,1.951466552734375,0.4272184371948242,-0.4640355110168457,-0.2781105041503906
1701864818786059800,1.961059814453125,0.33321619033813477,-0.463517427444458,-0.32993221282958984
1701864818795652000,1.970652099609375,0.1639699935913086,-0.41794395446777344,-0.36177921295166016
1701864818805244000,1.980243896484375,-0.04668760299682617,-0.35460972785949707,-0.46955108642578125
1701864818814836700,1.989836669921875,-0.10664558410644531,-0.2916703224182129,-0.5137462615966797
1701864818824430000,1.99943017578125,0.004696846008300781,-0.23649287223815918,-0.4923105239868164
1701864818834022400,2.0090224609375,0.14892148971557617,-0.23993778228759766,-0.45859813690185547
1701864818843614200,2.0186142578125,0.32664012908935547,-0.22649264335632324,-0.48251819610595703
1701864818853207000,2.02820703125,0.5181074142456055,-0.2116706371307373,-0.5175814628601074
1701864818862800400,2.03780029296875,0.6849546432495117,-0.20184707641601562,-0.48696231842041016
1701864818872392700,2.047392822265625,0.8239026069641113,-0.20857644081115723,-0.34970617294311523
1701864818881984500,2.056984619140625,0.8563051223754883,-0.1884479522705078,-0.16187191009521484
1701864818891577300,2.066577392578125,0.7844605445861816,-0.1806199550628662,0.0071163177490234375
1701864818901170700,2.076170654296875,0.5807061195373535,-0.18309283256530762,0.22490406036376953
1701864818910763300,2.08576318359375,0.24785852432250977,-0.11179709434509277,0.36901092529296875
1701864818920354800,2.095354736328125,-0.15862655639648438,-0.04619455337524414,0.3703575134277344
1701864818929947600,2.10494775390625,-0.5185964107513428,0.044827938079833984,0.31974220275878906
1701864818939541000,2.114541015625,-0.795229434967041,0.1082143783569336,0.20209026336669922
1701864818949133600,2.124133544921875,-0.9391505718231201,0.1714937686920166,0.04220008850097656
1701864818958725000,2.13372509765625,-0.8842456340789795,0.19255805015563965,-0.17019081115722656
1701864818968318000,2.14331787109375,-0.637230634689331,0.14943599700927734,-0.2727327346801758
1701864818977911300,2.152911376953125,-0.31505250930786133,0.12173581123352051,-0.34937047958374023
1701864818987503900,2.16250390625,-0.04440021514892578,0.10830998420715332,-0.45916748046875
1701864818997095400,2.172095458984375,0.19892358779907227,0.08991050720214844,-0.6296043395996094
1701864819006688300,2.181688232421875,0.32802295684814453,0.08591389656066895,-0.7536444664001465
1701864819016281600,2.191281494140625,0.3458437919616699,0.029692649841308594,-0.8147220611572266
1701864819025874200,2.200874267578125,0.34682798385620117,-0.07368016242980957,-0.7360129356384277
1701864819035465700,2.2104658203125,0.27757883071899414,-0.13055849075317383,-0.6447057723999023
1701864819045058600,2.22005859375,0.10132455825805664,-0.13599610328674316,-0.5254850387573242
1701864819054652000,2.22965185546875,-0.10733413696289062,-0.1725788116455078,-0.4614095687866211
1701864819064244500,2.239244384765625,-0.211395263671875,-0.25905847549438477,-0.37042903900146484
1701864819073836000,2.2488359375,-0.11894416809082031,-0.3208932876586914,-0.22359848022460938
1701864819083428900,2.258428955078125,0.107757568359375,-0.3630828857421875,-0.09547138214111328
1701864819093022200,2.268022216796875,0.25364065170288086,-0.37099552154541016,-0.0073146820068359375
1701864819102614800,2.27761474609375,0.29720640182495117,-0.381380558013916,0.008555412292480469
1701864819112206600,2.28720654296875,0.24909687042236328,-0.31982851028442383,-0.10726451873779297
1701864819121799000,2.296798828125,0.02410745620727539,-0.26575613021850586,-0.32712316513061523
1701864819131392500,2.306392578125,-0.10963010787963867,-0.21986722946166992,-0.44255828857421875
1701864819140985000,2.315985107421875,-0.06408357620239258,-0.1773972511291504,-0.42556285858154297
1701864819150577000,2.325576904296875,0.06508493423461914,-0.10084724426269531,-0.39170312881469727
1701864819160169500,2.33516943359375,0.1091451644897461,-0.0734872817993164,-0.36754512786865234
1701864819169762800,2.3447626953125,0.009769916534423828,-0.11559486389160156,-0.38513708114624023
1701864819179355400,2.35435546875,-0.131608247756958,-0.12476348876953125,-0.5305843353271484
1701864819188947200,2.363947265625,-0.29805779457092285,-0.08709716796875,-0.7116489410400391
1701864819198539800,2.373539794921875,-0.4474818706512451,-0.024953365325927734,-0.8302316665649414
1701864819208133000,2.383133056640625,-0.5207493305206299,0.021703243255615234,-0.9228992462158203
1701864819217725700,2.3927255859375,-0.49127912521362305,0.030576229095458984,-0.8271217346191406
1701864819227317500,2.4023173828125,-0.2543661594390869,0.07720470428466797,-0.5203509330749512
1701864819236910000,2.41191015625,-0.0697169303894043,0.12450551986694336,-0.19881963729858398
1701864819246503400,2.42150341796875,-0.09862637519836426,0.0719900131225586,-0.14305830001831055
1701864819256096000,2.431095947265625,-0.1502549648284912,0.0414891242980957,-0.33715009689331055
1701864819265687800,2.440687744140625,-0.1957395076751709,0.016414165496826172,-0.5581059455871582
1701864819275280400,2.4502802734375,-0.18704533576965332,-0.12955713272094727,-0.5414729118347168
1701864819284873700,2.459873779296875,1.6968111991882324,-1.2046408653259277,-0.00026988983154296875
1701864819294466300,2.46946630859375,2.7121689319610596,-0.31865692138671875,-0.5990009307861328
1701864819304058000,2.47905810546875,-0.29238200187683105,-0.21872425079345703,-0.06561756134033203
1701864819313650700,2.488650634765625,-0.9716918468475342,-0.8567986488342285,0.536717414855957
1701864819323244000,2.498244140625,-0.7448246479034424,-0.17595815658569336,0.0052547454833984375
1701864819332836600,2.507836669921875,-0.25225234031677246,0.09348344802856445,-0.5087442398071289
1701864819342428400,2.517428466796875,-0.41898560523986816,-0.07138633728027344,-0.7545394897460938
1701864819352021000,2.52702099609375,-0.39056849479675293,-0.37639617919921875,-0.7300968170166016
1701864819361614300,2.5366142578125,-0.07178592681884766,-1.086775779724121,-0.4278221130371094
1701864819371207000,2.54620703125,0.5520610809326172,-1.4235100746154785,-0.4735541343688965
1701864819380798700,2.555798828125,0.25461769104003906,-0.9459609985351562,-0.6743173599243164
1701864819390391300,2.565391357421875,-0.0785057544708252,-0.7876806259155273,-0.056387901306152344
1701864819399984600,2.574984619140625,0.7284553050994873,-0.6914453506469727,1.7004766464233398
1701864819409577200,2.5845771484375,1.1960909366607666,-0.5284056663513184,2.1737308502197266
1701864819419169000,2.5941689453125,0.21628546714782715,-0.48510313034057617,1.4290428161621094
1701864819428761600,2.60376171875,-0.7106376886367798,-0.14327001571655273,0.4284200668334961
1701864819438355000,2.61335498046875,-1.2379686832427979,0.08762836456298828,-0.4544529914855957
1701864819447947500,2.622947509765625,-1.1992379426956177,0.18076705932617188,-0.8451895713806152
1701864819457539300,2.632539306640625,-0.8445111513137817,0.23352766036987305,-1.0524954795837402
1701864819467132000,2.6421318359375,-0.26488351821899414,0.19319534301757812,-0.8913402557373047
1701864819476725200,2.651725341796875,0.27193379402160645,0.09747457504272461,-0.37128543853759766
1701864819486317800,2.66131787109375,0.5592105388641357,-0.02920389175415039,0.4637269973754883
1701864819495909600,2.67090966796875,0.5782232284545898,-0.14628887176513672,0.7549829483032227
1701864819505502200,2.680502197265625,0.42113351821899414,-0.21788692474365234,0.8711576461791992
1701864819515095600,2.690095458984375,0.3734242916107178,-0.21592998504638672,0.9587249755859375
1701864819524688100,2.699688232421875,0.35379862785339355,-0.1168355941772461,0.9906530380249023
1701864819534280000,2.709280029296875,0.15194344520568848,0.031568050384521484,0.21668148040771484
1701864819543872500,2.71887255859375,-0.17541396617889404,0.20761966705322266,-0.5592122077941895
1701864819553465900,2.7284658203125,-0.4232422113418579,0.3957252502441406,-0.8106765747070312
1701864819563058400,2.738058349609375,-0.30766046047210693,0.5093860626220703,-1.3954839706420898
1701864819572650200,2.747650146484375,-0.31493079662323,0.44385528564453125,-1.064225196838379
1701864819582242800,2.757242919921875,-0.3304637670516968,0.19878339767456055,-0.5937690734863281
1701864819591836200,2.766836181640625,-0.36052024364471436,0.05871915817260742,-0.2901473045349121
1701864819601428700,2.7764287109375,-0.4335315227508545,0.08682918548583984,0.11362075805664062
1701864819611020500,2.7860205078125,-0.38297736644744873,0.29854249954223633,0.17675065994262695
1701864819620613000,2.795613037109375,-3.0462183952331543,-1.2554173469543457,1.2763652801513672
1701864819630206500,2.80520654296875,-2.6638214588165283,-1.5374464988708496,0.33743762969970703
1701864819639799000,2.814799072265625,-0.5094938278198242,-0.09827280044555664,0.12370491027832031
1701864819649390800,2.824390869140625,0.04240143299102783,-0.060407161712646484,0.03299903869628906
1701864819658983400,2.8339833984375,1.4200143814086914,-0.9856925010681152,0.4765191078186035
1701864819668576800,2.84357666015625,2.2512011528015137,-1.45802640914917,0.22393226623535156
1701864819678169300,2.85316943359375,-0.19925284385681152,-0.8859119415283203,-0.6831011772155762
1701864819687761200,2.86276123046875,-0.41144776344299316,-0.5873379707336426,-0.11292600631713867
1701864819697353700,2.872353759765625,-0.03380429744720459,0.012133598327636719,-0.3645491600036621
1701864819706947000,2.881947021484375,0.043691396713256836,0.07101058959960938,-0.21776771545410156
1701864819716539600,2.89153955078125,0.1652681827545166,-0.1339278221130371,-0.12001848220825195
1701864819726131500,2.90113134765625,0.25286734104156494,-0.050426483154296875,-0.5699048042297363
1701864819735724000,2.91072412109375,0.3493328094482422,-0.10562324523925781,-0.8012170791625977
1701864819745317400,2.9203173828125,0.22397875785827637,-0.25418519973754883,-0.7937116622924805
1701864819754910000,2.929909912109375,-0.019175052642822266,-0.2900705337524414,-0.7195963859558105
1701864819764501800,2.939501708984375,0.3480989933013916,-0.3267655372619629,-0.6588406562805176
1701864819774094300,2.94909423828125,0.2753564119338989,-0.1304030418395996,-1.2742362022399902
1701864819783687700,2.958687744140625,0.202498197555542,-0.08609247207641602,-2.012058734893799
1701864819793280300,2.9682802734375,0.2899593114852905,-0.10111474990844727,-2.0571751594543457
1701864819802872000,2.9778720703125,0.3429664373397827,-0.19827938079833984,-1.6082801818847656
1701864819812464600,2.987464599609375,0.796979546546936,-0.5712246894836426,0.6192216873168945
1701864819822058000,2.99705810546875,0.07395589351654053,-0.16646432876586914,4.0783867835998535
1701864819831650600,3.006650634765625,-0.7448338270187378,0.865203857421875,2.8601021766662598
1701864819841242400,3.016242431640625,-0.48890119791030884,0.483945369720459,0.8883566856384277
1701864819850835000,3.0258349609375,-0.22972524166107178,-0.12042379379272461,-0.12299156188964844
1701864819860428300,3.03542822265625,-0.17084228992462158,0.04124641418457031,-0.07614946365356445
1701864819870020900,3.045020751953125,-0.029764831066131592,0.30922698974609375,-0.19353342056274414
1701864819879612700,3.05461279296875,0.11010688543319702,0.29614877700805664,-0.40347862243652344
1701864819889205200,3.064205322265625,-0.054105281829833984,0.3307805061340332,-0.36544322967529297
1701864819898798600,3.073798583984375,0.03491085767745972,0.20876121520996094,-0.5889673233032227
1701864819908391200,3.08339111328125,0.24126291275024414,-0.0072154998779296875,0.051100730895996094
1701864819917983000,3.09298291015625,0.44470328092575073,-0.003265380859375,0.12373924255371094
1701864819927575600,3.102575439453125,0.3260342478752136,0.2041177749633789,-0.1558237075805664
1701864819937169000,3.1121689453125,0.053347110748291016,-0.19239044189453125,0.34406375885009766
1701864819946761500,3.121761474609375,0.15285509824752808,0.026561260223388672,-0.06150341033935547
1701864819956353300,3.131353271484375,0.11983561515808105,-0.34955310821533203,0.2545309066772461
1701864819965945900,3.14094580078125,-0.21366041898727417,-0.30855417251586914,0.250457763671875
1701864819975539200,3.150539306640625,0.01527327299118042,-0.2022080421447754,0.0925588607788086
1701864819985131800,3.1601318359375,-0.06565403938293457,-0.13340187072753906,-0.24990510940551758
1701864819994723600,3.1697236328125,-0.03164702653884888,-0.1741170883178711,-0.49337100982666016
1701864820004316200,3.179316162109375,0.022740840911865234,-0.2733922004699707,-0.5471491813659668
1701864820013909500,3.188909423828125,0.13053172826766968,-0.28746986389160156,-0.31344127655029297
1701864820023502000,3.198502197265625,0.17000684142112732,-0.19980430603027344,-0.05771303176879883
1701864820033094000,3.208093994140625,0.14662742614746094,-0.22026538848876953,0.06319046020507812
1701864820042686500,3.2176865234375,-0.16645319759845734,-0.20815610885620117,-1.4801206588745117
1701864820052279800,3.22727978515625,0.057399213314056396,-1.3721895217895508,-2.7715437412261963
1701864820061872400,3.236872314453125,0.5008093118667603,-1.2806472778320312,-1.4221930503845215
1701864820071464200,3.246464111328125,0.2791211009025574,-0.7153406143188477,-1.4247803688049316
1701864820081056800,3.256056884765625,-1.0533084869384766,0.034578800201416016,-1.7322773933410645
1701864820090650000,3.265650146484375,-0.9777016043663025,0.14631080627441406,-5.021182060241699
1701864820100242700,3.27524267578125,8.508613586425781,0.22932147979736328,-13.269693374633789
1701864820109834500,3.28483447265625,17.607685089111328,-0.6214561462402344,-6.079548358917236
1701864820119427000,3.294427001953125,4.190719127655029,-1.390934944152832,-1.8254656791687012
1701864820129020400,3.3040205078125,-13.647320747375488,1.50126314163208,4.023839950561523
1701864820138613000,3.313613037109375,-12.90988826751709,4.712047576904297,7.193657875061035
1701864820148204800,3.323204833984375,-5.54852294921875,3.571381092071533,9.547357559204102
1701864820157797400,3.33279736328125,-0.7018378376960754,0.7760758399963379,8.425111770629883
1701864820167390700,3.342390625,1.6169602870941162,-1.0589447021484375,2.7196602821350098
1701864820176983300,3.3519833984375,1.393514633178711,-0.9873733520507812,-0.5128698348999023
1701864820186575000,3.3615751953125,-0.07136063277721405,-1.4477910995483398,1.1502671241760254
1701864820196167700,3.371167724609375,-0.06583699584007263,-0.31190013885498047,0.32445669174194336
1701864820205761000,3.380760986328125,-0.006328210234642029,-0.02582073211669922,0.2674245834350586
1701864820215353600,3.390353515625,0.14425334334373474,0.2714972496032715,0.19739151000976562
1701864820224945400,3.3999453125,0.4779945909976959,0.9062151908874512,0.20140933990478516
1701864820234538000,3.4095380859375,0.487714946269989,1.3025717735290527,0.28846263885498047
1701864820244131300,3.41913134765625,0.21990807354450226,1.6290569305419922,0.2673463821411133
1701864820253724000,3.428723876953125,-0.07938311249017715,1.695976734161377,0.2702059745788574
1701864820263315700,3.438315673828125,-0.11078213155269623,1.7809996604919434,-0.07528066635131836
1701864820272908300,3.447908203125,-0.047447457909584045,1.814725399017334,-0.4004664421081543
1701864820282501600,3.457501708984375,0.20738589763641357,2.003917694091797,-0.5992941856384277
1701864820292094200,3.46709423828125,0.5300267338752747,2.1605710983276367,-0.2465362548828125
1701864820301686000,3.47668603515625,0.4685244560241699,1.8127503395080566,-0.4001336097717285
1701864820311278600,3.486278564453125,0.3012668490409851,1.519885540008545,-0.20480060577392578
1701864820320872000,3.495871826171875,0.3436056971549988,0.9546852111816406,-0.19876527786254883
1701864820330464500,3.505464599609375,-0.0919453501701355,0.7720823287963867,-0.2215590476989746
1701864820340056300,3.515056396484375,-0.3249551057815552,0.4487333297729492,-0.25994300842285156
1701864820349649000,3.52464892578125,-0.10605275630950928,0.17885398864746094,-0.28681230545043945
1701864820359242200,3.5342421875,0.07865840196609497,-0.057267189025878906,-0.22434091567993164
1701864820368834800,3.543834716796875,-0.10335338115692139,0.10014915466308594,0.01886892318725586
1701864820378426600,3.553426513671875,-0.346901535987854,0.4251880645751953,0.004367828369140625
1701864820388019200,3.563019287109375,-0.4489136338233948,0.21771717071533203,-0.09333229064941406
1701864820397612500,3.572612548828125,-0.12388443946838379,0.5506076812744141,-0.35019731521606445
1701864820407205000,3.582205078125,-0.18915212154388428,-0.01565837860107422,-0.5330829620361328
1701864820416797000,3.591796875,0.6065720319747925,-0.027237892150878906,-1.3234193325042725
1701864820426389500,3.601389404296875,0.11410117149353027,-0.10541725158691406,-0.45278310775756836
1701864820435983000,3.610983154296875,-0.2196565866470337,0.27587318420410156,0.41671228408813477
1701864820445575400,3.620575439453125,-0.18533062934875488,0.8714480400085449,0.32297563552856445
1701864820455167200,3.630167236328125,-0.08190834522247314,0.19266223907470703,0.07358741760253906
1701864820464759800,3.639759765625,0.1993262767791748,0.06840705871582031,-0.22839117050170898
1701864820474353400,3.649353515625,0.28541111946105957,-0.0562744140625,-0.4219632148742676
1701864820483945700,3.65894580078125,0.4087858200073242,0.27839183807373047,-0.4796891212463379
1701864820493537500,3.66853759765625,0.15813195705413818,0.13776683807373047,-0.7092394828796387
1701864820503130000,3.678130126953125,0.2772277593612671,-0.49594593048095703,-0.8038606643676758
1701864820512723500,3.687723388671875,-0.17773938179016113,-1.3271636962890625,-1.327225685119629
1701864820522316000,3.69731591796875,0.5598521828651428,-2.5085878372192383,-1.6450252532958984
1701864820531907800,3.706907958984375,0.9031252861022949,-3.031430244445801,-1.977612018585205
1701864820541500400,3.71650048828125,0.39040935039520264,-2.7722082138061523,-0.6786537170410156
1701864820551093800,3.72609375,-0.09730660915374756,-1.832932472229004,0.16181516647338867
1701864820560686300,3.735686279296875,0.3223857879638672,-1.3206815719604492,0.3289785385131836
1701864820570278100,3.745278076171875,0.05807840824127197,-1.0931396484375,0.3468513488769531
1701864820579870700,3.75487060546875,-0.5368279218673706,-0.08450794219970703,0.2660641670227051
1701864820589464000,3.764464111328125,-0.7610243558883667,-0.8259954452514648,0.31122922897338867
1701864820599056600,3.774056640625,-0.1491553783416748,-0.7265233993530273,-0.07574844360351562
1701864820608648400,3.7836484375,0.35793566703796387,-0.8765897750854492,0.6293830871582031
1701864820618241300,3.7932412109375,0.16042232513427734,-0.604517936706543,0.6796779632568359
1701864820627834400,3.80283447265625,0.26522600650787354,-0.26364994049072266,0.5868630409240723
1701864820637427000,3.812427001953125,0.09821093082427979,0.17419815063476562,-0.23694562911987305
1701864820647018800,3.822018798828125,0.2250605821609497,0.45885467529296875,-0.5628869533538818
1701864820656611600,3.831611572265625,0.36265140771865845,0.9333629608154297,0.6338901519775391
1701864820666205000,3.841204833984375,0.533934473991394,1.238530158996582,0.44502687454223633
1701864820675797200,3.85079736328125,0.12817394733428955,1.8956542015075684,-0.19385766983032227
1701864820685389000,3.86038916015625,-1.5133376121520996,0.5089492797851562,1.3968205451965332
1701864820694981600,3.869981689453125,-2.1718521118164062,-2.3257904052734375,2.8359365463256836
1701864820704575200,3.8795751953125,-1.5836173295974731,-3.9333953857421875,1.9681267738342285
1701864820714167600,3.88916748046875,-0.10647165775299072,-5.5544538497924805,1.6719131469726562
1701864820723759400,3.89875927734375,1.7937779426574707,-5.464410781860352,0.78997802734375
1701864820733352000,3.90835205078125,0.7736465334892273,-2.9069089889526367,1.2041935920715332
1701864820742945500,3.917945556640625,0.8658828735351562,-0.7728290557861328,-0.3267369270324707
1701864820752537900,3.927537841796875,1.0802443027496338,2.2488160133361816,-3.871458053588867
1701864820762129700,3.937129638671875,-0.6075429916381836,5.379286766052246,-5.709805011749268
1701864820771722200,3.94672216796875,0.8987095355987549,1.2600107192993164,-0.9728617668151855
1701864820781315800,3.95631591796875,1.2614450454711914,-0.13228511810302734,-1.4315829277038574
1701864820790908200,3.965908203125,0.5693134665489197,-1.0369148254394531,-0.6208491325378418
1701864820800500000,3.9755,0.842924952507019,-0.3383369445800781,-0.4980659484863281
1701864820810092500,3.985092529296875,1.0902836322784424,0.7632169723510742,-0.9337320327758789
1701864820819686000,3.994685791015625,0.06029433012008667,1.2594337463378906,-0.7456824779510498
1701864820829278500,4.004278564453125,-1.109594702720642,1.3384666442871094,-0.03670454025268555
1701864820838870300,4.013870361328125,-2.451901912689209,1.3460493087768555,1.0993680953979492
1701864820848463000,4.023463134765625,-1.2452467679977417,0.6683244705200195,0.9798133373260498
1701864820858056200,4.03305615234375,-0.7524924278259277,-0.013502120971679688,0.59049391746521
1701864820867648800,4.042648681640625,-0.2479569911956787,-0.2955923080444336,0.5095829963684082
1701864820877240600,4.052240478515625,0.7604010105133057,-0.2539253234863281,0.419048547744751
1701864820886833400,4.06183349609375,0.9734838604927063,-0.4310150146484375,0.3931441307067871
1701864820896426800,4.0714267578125,1.1537680625915527,-0.5918140411376953,0.48584413528442383
1701864820906019000,4.08101904296875,-0.032244205474853516,-0.8785181045532227,0.17587566375732422
1701864820915611000,4.09061083984375,-0.6764888763427734,-1.5864171981811523,0.09510612487792969
1701864820925203700,4.10020361328125,0.7768369913101196,-1.1363811492919922,1.0632288455963135
1701864820934797000,4.109797119140625,0.16981130838394165,-1.4321975708007812,0.9057455062866211
1701864820944389400,4.119389404296875,0.010092973709106445,-1.5625286102294922,0.9140596389770508
1701864820953981200,4.128981201171875,0.006754875183105469,0.05083274841308594,-0.2474193572998047
1701864820963573800,4.13857373046875,-0.17957651615142822,0.16256141662597656,-0.2115333080291748
1701864820973167400,4.14816748046875,-0.2993704080581665,0.2871389389038086,0.1255662441253662
1701864820982759700,4.157759765625,-0.3561277389526367,0.3602104187011719,0.2864537239074707
1701864820992351500,4.1673515625,0.2580876350402832,0.025666236877441406,-0.19368386268615723
1701864821001944000,4.176944091796875,0.8429816365242004,-0.630742073059082,-0.5240664482116699
1701864821011537700,4.18653759765625,0.7015908360481262,-0.7968816757202148,-0.32468628883361816
1701864821021130000,4.1961298828125,0.2778564691543579,-0.4842395782470703,-0.13448023796081543
1701864821030721800,4.2057216796875,0.02996659278869629,2.038175106048584,-0.22971057891845703
1701864821040314400,4.215314453125,-3.213393211364746,13.576889038085938,-3.527923345565796
1701864821049908000,4.224907958984375,5.000082492828369,8.764657974243164,-2.100599765777588
1701864821059500300,4.234500244140625,2.119542121887207,6.8012895584106445,-0.9542126655578613
1701864821069092000,4.244092041015625,-0.9010323286056519,6.065515995025635,-1.0391958951950073
1701864821078685000,4.253684814453125,-0.6354422569274902,4.457068920135498,-1.4626895189285278
1701864821088278000,4.263278076171875,-1.1066713333129883,2.3935089111328125,-1.9473084211349487
1701864821097870600,4.27287060546875,-2.3081154823303223,-2.0474281311035156,-2.059243679046631
1701864821107462400,4.28246240234375,-3.1241965293884277,-10.728837966918945,1.324615478515625
1701864821117055200,4.29205517578125,-2.3150200843811035,-18.13610076904297,7.568630218505859
1701864821126648600,4.301648681640625,3.2221415042877197,-10.418156623840332,4.28837776184082
1701864821136241000,4.311240966796875,3.921384334564209,-1.9378137588500977,0.6354684829711914
1701864821145832700,4.320832763671875,1.024092674255371,-0.4436044692993164,-0.5346288681030273
1701864821155425500,4.330425537109375,0.6431514024734497,-0.9534225463867188,-0.05676913261413574
1701864821165019000,4.340018798828125,0.8296483159065247,-1.3293237686157227,0.1974036693572998
1701864821174611200,4.349611083984375,0.46592283248901367,-1.2264719009399414,0.06511187553405762
1701864821184203000,4.359203125,0.05519509315490723,-0.9027853012084961,-0.2177867889404297
1701864821193795600,4.368795654296875,-0.11560654640197754,-0.49616050720214844,-0.4023318290710449
1701864821203389200,4.37838916015625,-0.05040848255157471,0.02158641815185547,-0.5592665672302246
1701864821212981500,4.3879814453125,-0.20301342010498047,0.7345724105834961,-0.6374986171722412
1701864821222573300,4.3975732421875,-1.0937645435333252,1.938873291015625,-0.4171140193939209
1701864821232166000,4.407165771484375,0.4872417449951172,2.2422404289245605,0.2433643341064453
1701864821241759500,4.416759521484375,0.6633893251419067,1.4848604202270508,0.41155004501342773
1701864821251351800,4.426351806640625,-0.42822039127349854,0.573054313659668,0.5158243179321289
1701864821260943600,4.435943603515625,-0.13295316696166992,0.41305065155029297,0.2838559150695801
1701864821270536200,4.4455361328125,-0.12306928634643555,-0.02716827392578125,0.41314697265625
1701864821280129800,4.4551298828125,-0.03097391128540039,-0.3009767532348633,0.25289368629455566
1701864821289722000,4.46472216796875,0.03962910175323486,-0.3158998489379883,-0.21770596504211426
1701864821299314000,4.47431396484375,0.05264127254486084,0.020773887634277344,-0.7738914489746094
1701864821308906500,4.483906494140625,1.1635255813598633,0.6080818176269531,-1.8315918445587158
1701864821318499800,4.493499755859375,-0.8182988166809082,0.09168052673339844,-2.047999382019043
1701864821328092400,4.503092529296875,-0.7499033212661743,-0.8683557510375977,0.6954035758972168
1701864821337684200,4.512684326171875,1.1434834003448486,-0.3879051208496094,0.027296781539916992
1701864821347277000,4.522277099609375,-0.029986143112182617,-0.34951114654541016,0.1770775318145752
1701864821356870400,4.531870361328125,-0.06909072399139404,-0.2736196517944336,0.36708974838256836
1701864821366462700,4.541462646484375,-0.03858232498168945,-0.2556571960449219,0.0800936222076416
1701864821376054500,4.551054443359375,-0.015192985534667969,-0.1066427230834961,-0.06245756149291992
1701864821385647400,4.5606474609375,0.051729559898376465,-0.015397071838378906,-0.21775078773498535
1701864821395240700,4.57024072265625,0.092041015625,0.03528118133544922,-0.33960819244384766
1701864821404833000,4.5798330078125,0.15238189697265625,0.04325389862060547,-0.4258229732513428
1701864821414424800,4.5894248046875,0.18868577480316162,0.006283760070800781,-0.433849573135376
1701864821424017700,4.599017578125,0.15693092346191406,0.012831687927246094,-0.40269899368286133
1701864821433611000,4.608611083984375,0.1403486728668213,0.0005826950073242188,-0.3880436420440674
1701864821443203300,4.618203369140625,0.169846773147583,-0.09526920318603516,-0.21683764457702637
1701864821452795100,4.627795166015625,0.14918768405914307,-0.037911415100097656,-0.21393585205078125
1701864821462387700,4.6373876953125,-0.017321109771728516,0.1295938491821289,-0.09858870506286621
1701864821471981300,4.646981201171875,-0.06613326072692871,0.1918935775756836,-0.0074465274810791016
1701864821481573600,4.65657373046875,-0.03417634963989258,0.12736797332763672,0.09482502937316895
1701864821491165400,4.66616552734375,-0.03045368194580078,0.13922882080078125,0.07465600967407227
1701864821500758000,4.675758056640625,-0.059116244316101074,0.1508169174194336,0.06619501113891602
1701864821510351600,4.6853515625,-0.015012025833129883,0.11909961700439453,0.03579902648925781
1701864821519944000,4.69494384765625,0.14229810237884521,-0.11854171752929688,0.14240479469299316
1701864821529535700,4.70453564453125,0.10403740406036377,0.02640819549560547,-0.002019643783569336
1701864821539128300,4.71412841796875,-0.0512537956237793,0.1736469268798828,0.007608175277709961
1701864821548722000,4.723721923828125,-0.07083070278167725,0.2372417449951172,0.08236980438232422
1701864821558314200,4.733314208984375,-0.09351992607116699,0.2413644790649414,0.14358210563659668
1701864821567906000,4.742906005859375,-0.10249626636505127,0.2745246887207031,0.18654942512512207
1701864821577499000,4.752498779296875,-0.04746747016906738,0.23379039764404297,0.29202961921691895
1701864821587092200,4.76209228515625,0.01910114288330078,0.19802093505859375,0.39265942573547363
1701864821596684500,4.7716845703125,0.039934396743774414,0.17672061920166016,0.47881531715393066
1701864821606276400,4.7812763671875,0.10108530521392822,0.18177032470703125,0.5026788711547852
1701864821615869200,4.790869140625,0.2915347218513489,-0.06440353393554688,0.6350481510162354
1701864821625462500,4.800462646484375,0.21874582767486572,-0.021228790283203125,0.6182525157928467
1701864821635054800,4.810054931640625,0.1580030918121338,0.2803831100463867,0.4411947727203369
1701864821644646700,4.819646728515625,-0.015084266662597656,0.39084625244140625,0.5078747272491455
1701864821654239200,4.8292392578125,0.03645360469818115,0.35814857482910156,0.5397918224334717
1701864821663832800,4.838832763671875,0.07131075859069824,0.24209308624267578,0.5650436878204346
1701864821673425200,4.848425048828125,0.06823599338531494,0.25310707092285156,0.5481288433074951
1701864821683017000,4.858016845703125,0.06270837783813477,0.2572135925292969,0.5417540073394775
1701864821692609500,4.867609619140625,0.08768391609191895,0.24967479705810547,0.550539493560791
1701864821702203100,4.877203125,0.1116800308227539,0.21137428283691406,0.5502808094024658
1701864821711795500,4.88679541015625,0.0869131088256836,0.21868515014648438,0.5214982032775879
1701864821721387300,4.89638720703125,0.13766205310821533,0.19505786895751953,0.49524664878845215
1701864821730979800,4.905979736328125,0.17119675874710083,0.0686483383178711,0.47323131561279297
1701864821740573400,4.915573486328125,0.18077319860458374,0.16938400268554688,0.41059112548828125
1701864821750165800,4.925165771484375,0.05221867561340332,0.36543846130371094,0.3556516170501709
1701864821759757600,4.934757568359375,0.11774086952209473,0.2289581298828125,0.3580210208892822
1701864821769350100,4.94435009765625,0.1455458402633667,0.14528179168701172,0.300739049911499
1701864821778943500,4.953943603515625,0.1453813910484314,0.12621307373046875,0.3296468257904053
1701864821788536000,4.9635361328125,0.14857780933380127,0.09378910064697266,0.31096434593200684
1701864821798127900,4.9731279296875,0.16866236925125122,0.06186962127685547,0.2785642147064209
1701864821807720700,4.982720703125,0.16513347625732422,0.025673866271972656,0.25121188163757324
1701864821817313800,4.992313720703125,0.15223699808120728,-0.007648468017578125,0.2358238697052002
1701864821826906400,5.00190625,0.11143314838409424,-0.06179237365722656,0.23190808296203613
1701864821836498200,5.011498291015625,0.07388937473297119,-0.108184814453125,0.20859909057617188
1701864821846091000,5.021091064453125,0.05620396137237549,-0.12810230255126953,0.1875460147857666
1701864821855684400,5.030684326171875,0.03189742565155029,-0.1195077896118164,0.13607430458068848
1701864821865276700,5.040276611328125,0.07371437549591064,-0.08521556854248047,0.12288880348205566
1701864821874868500,5.049868408203125,0.09811121225357056,-0.04680061340332031,0.10745978355407715
1701864821884461000,5.0594609375,0.1311168670654297,-0.025496482849121094,0.13692903518676758
1701864821894054700,5.0690546875,0.13520830869674683,0.014301300048828125,0.14005041122436523
1701864821903647000,5.07864697265625,0.14421075582504272,0.020404815673828125,0.13593125343322754
1701864821913238800,5.08823876953125,0.13885915279388428,0.05937671661376953,0.1154482364654541
1701864821922831400,5.097831298828125,0.15961992740631104,0.04816627502441406,0.07386660575866699
1701864821932425000,5.107425048828125,0.1779659390449524,0.013441085815429688,0.03491067886352539
1701864821942017300,5.117017333984375,0.09731423854827881,0.06386470794677734,0.03844571113586426
1701864821951609000,5.126609130859375,0.11239629983901978,0.0002040863037109375,0.043537139892578125
1701864821961201700,5.13620166015625,0.11092382669448853,-0.043763160705566406,0.007914304733276367
1701864821970795000,5.145794921875,0.0556296706199646,-0.06844902038574219,-0.020914077758789062
1701864821980387600,5.1553876953125,0.06959319114685059,-0.10241413116455078,0.008692741394042969
1701864821989979400,5.1649794921875,0.07343888282775879,-0.1147603988647461,-0.04048418998718262
1701864821999572200,5.174572265625,0.0885198712348938,-0.0987253189086914,-0.08922672271728516
1701864822009165300,5.184165283203125,0.04885411262512207,-0.04300212860107422,-0.11863112449645996
1701864822018758000,5.1937578125,0.0009421706199645996,-0.033026695251464844,-0.16651058197021484
1701864822028349700,5.203349609375,-0.04982036352157593,-0.03512763977050781,-0.21136045455932617
1701864822037942500,5.212942626953125,-0.09143012762069702,-0.04201984405517578,-0.2719559669494629
1701864822047535600,5.22253564453125,-0.08871805667877197,-0.05353260040283203,-0.2935762405395508
1701864822057128200,5.232128173828125,-0.05231678485870361,-0.08605766296386719,-0.2911112308502197
1701864822066720000,5.241719970703125,-0.0394822359085083,-0.11573600769042969,-0.30515360832214355
1701864822076312600,5.2513125,-0.021700501441955566,-0.14735126495361328,-0.3002643585205078
1701864822085906200,5.26090625,-0.04375350475311279,-0.14084148406982422,-0.3143739700317383
1701864822095498500,5.27049853515625,-0.07476943731307983,-0.1392993927001953,-0.30991625785827637
1701864822105090300,5.28009033203125,-0.09302413463592529,-0.0953664779663086,-0.35468602180480957
1701864822114683000,5.289682861328125,-0.060096800327301025,-0.13698959350585938,-0.31376194953918457
1701864822124276500,5.2992763671875,-0.1025010347366333,-0.09303760528564453,-0.3859078884124756
1701864822133868800,5.308868896484375,-0.10911351442337036,-0.08025836944580078,-0.3974912166595459
1701864822143460600,5.318460693359375,-0.1092410683631897,-0.06978511810302734,-0.42232227325439453
1701864822153053200,5.32805322265625,-0.07981401681900024,-0.06393909454345703,-0.42499208450317383
1701864822162646500,5.337646484375,-0.05453598499298096,-0.06959152221679688,-0.44086575508117676
1701864822172239000,5.347239013671875,-0.0312994122505188,-0.058223724365234375,-0.45305752754211426
1701864822181831000,5.356830810546875,0.001765906810760498,-0.016060829162597656,-0.4312281608581543
1701864822191423500,5.366423583984375,0.037974536418914795,-0.009577751159667969,-0.42535400390625
1701864822201016800,5.376016845703125,0.05405014753341675,0.025358200073242188,-0.39747142791748047
1701864822210609400,5.385609375,0.06477367877960205,0.01291656494140625,-0.36675047874450684
1701864822220201200,5.395201171875,0.056506335735321045,0.012708663940429688,-0.33086204528808594
1701864822229793800,5.404793701171875,0.07186198234558105,-0.017867088317871094,-0.2758643627166748
1701864822239387100,5.41438720703125,0.08012855052947998,-0.04778289794921875,-0.24700546264648438
1701864822248979700,5.423979736328125,0.08381247520446777,-0.05360221862792969,-0.2112123966217041
1701864822258571500,5.433571533203125,0.08308416604995728,-0.04049110412597656,-0.15466761589050293
1701864822268164000,5.4431640625,0.06190323829650879,-0.03239727020263672,-0.14148998260498047
1701864822277757400,5.45275732421875,0.030050694942474365,-0.03633403778076172,-0.12165570259094238
1701864822287350000,5.46235009765625,-0.007583260536193848,-0.03809356689453125,-0.10278153419494629
1701864822296941800,5.47194189453125,-0.029933571815490723,-0.03304290771484375,-0.0991981029510498
1701864822306534400,5.481534423828125,-0.041960954666137695,-0.044921875,-0.08508634567260742
1701864822316128000,5.4911279296875,-0.06510430574417114,-0.031148910522460938,-0.11038422584533691
1701864822325720300,5.50072021484375,-0.06865280866622925,-0.06989097595214844,-0.10402393341064453
1701864822335312100,5.51031201171875,-0.0721062421798706,-0.092010498046875,-0.1090543270111084
1701864822344904700,5.51990478515625,-0.019320785999298096,-0.11184215545654297,-0.1016073226928711
1701864822354498000,5.529498046875,0.0511360764503479,-0.1081399917602539,-0.11917972564697266
1701864822364090600,5.539090576171875,0.07582986354827881,-0.08826637268066406,-0.12792491912841797
1701864822373682400,5.548682373046875,0.08410769701004028,-0.08062076568603516,-0.12507867813110352
1701864822383275000,5.55827490234375,0.09056860208511353,-0.047310829162597656,-0.10598945617675781
1701864822392868400,5.567868408203125,0.11894857883453369,-0.0216827392578125,-0.10838985443115234
1701864822402461000,5.5774609375,0.1309850811958313,0.0035543441772460938,-0.0821831226348877
1701864822412052700,5.587052734375,0.1317400336265564,-0.0022344589233398438,-0.05386185646057129
1701864822421645300,5.596645263671875,0.12568670511245728,0.022670745849609375,-0.03772449493408203
1701864822431238700,5.60623876953125,0.11982971429824829,0.02126789093017578,-0.0335843563079834
1701864822440831200,5.615831298828125,0.0998988151550293,0.015250205993652344,-0.05044364929199219
1701864822450423000,5.625423095703125,0.08961844444274902,-0.0023860931396484375,-0.07156753540039062
1701864822460015600,5.635015625,0.0793810486793518,-0.029094696044921875,-0.096893310546875
1701864822469609000,5.64460888671875,0.07409512996673584,-0.04825305938720703,-0.10984659194946289
1701864822479201500,5.654201416015625,0.07123422622680664,-0.06231212615966797,-0.12231802940368652
1701864822488793300,5.66379345703125,0.08502429723739624,-0.0643320083618164,-0.12500262260437012
1701864822498386000,5.673385986328125,0.054261088371276855,-0.06397628784179688,-0.10167789459228516
1701864822507979300,5.682979248046875,0.05723452568054199,-0.04244422912597656,-0.09986996650695801
1701864822517571800,5.69257177734375,0.06499022245407104,-0.06125640869140625,-0.07909655570983887
1701864822527163600,5.70216357421875,0.07254773378372192,-0.06322479248046875,-0.06791543960571289
1701864822536756200,5.711756103515625,0.058863937854766846,-0.06511974334716797,-0.04261636734008789
1701864822546349600,5.721349609375,0.06652683019638062,-0.05745410919189453,-0.010283470153808594
1701864822555942100,5.730942138671875,0.050591886043548584,-0.028655052185058594,0.0006129741668701172
1701864822565534000,5.740533935546875,0.03720676898956299,-0.03330516815185547,0.05129694938659668
1701864822575126500,5.75012646484375,0.03565496206283569,-0.019021987915039062,0.07527303695678711
1701864822584720000,5.759719970703125,0.05493253469467163,0.013894081115722656,0.06827759742736816
1701864822594312400,5.7693125,0.08301103115081787,0.039298057556152344,0.06403565406799316
1701864822603904300,5.778904296875,0.11280190944671631,0.04557514190673828,0.06500077247619629
1701864822613496800,5.788496826171875,0.11575329303741455,0.04248619079589844,0.07816767692565918
1701864822623090200,5.798090087890625,0.09940576553344727,0.04902076721191406,0.08450913429260254
1701864822632682800,5.807682861328125,0.0806419849395752,0.07207202911376953,0.0794210433959961
1701864822642274600,5.817274658203125,0.08091312646865845,0.08548355102539062,0.06320500373840332
1701864822651867100,5.8268671875,0.05319184064865112,0.08230113983154297,0.026561260223388672
1701864822661460500,5.83646044921875,0.03334927558898926,0.0863494873046875,0.02635478973388672
1701864822671053000,5.846052978515625,0.037703514099121094,0.07628536224365234,0.04537844657897949
1701864822680644900,5.855644775390625,0.018424630165100098,0.0641031265258789,0.07374930381774902
1701864822690237400,5.865237548828125,-0.0006631612777709961,0.052079200744628906,0.08497166633605957
1701864822699830800,5.874830810546875,0.0015853047370910645,0.04726600646972656,0.11460137367248535
1701864822709423400,5.88442333984375,0.0013017058372497559,0.049513816833496094,0.12691617012023926
1701864822719015200,5.89401513671875,0.0032872557640075684,0.04692554473876953,0.1410210132598877
1701864822728607700,5.903607666015625,-0.004258871078491211,0.044269561767578125,0.1356217861175537
1701864822738201000,5.913201171875,0.014408230781555176,0.03445911407470703,0.12044310569763184
1701864822747793700,5.922793701171875,0.0422099232673645,0.029458045959472656,0.11707496643066406
1701864822757385500,5.932385498046875,0.0646975040435791,0.040970802307128906,0.12294983863830566
1701864822766978000,5.94197802734375,0.06570190191268921,0.03809833526611328,0.1096639633178711
1701864822776571400,5.9515712890625,0.05984753370285034,0.042260169982910156,0.07989931106567383
1701864822786164000,5.9611640625,0.056806981563568115,0.04394340515136719,0.06700825691223145
1701864822795755800,5.970755859375,0.056563377380371094,0.02197265625,0.05412721633911133
1701864822805348400,5.980348388671875,0.0424799919128418,0.023863792419433594,0.05313730239868164
1701864822814941700,5.989941650390625,0.03847050666809082,0.002124786376953125,0.04501533508300781
1701864822824534300,5.9995341796875,0.03965866565704346,-0.0028276443481445312,0.03458714485168457
1701864822834126000,6.0091259765625,0.022385835647583008,-0.021848678588867188,0.012577533721923828
1701864822843718700,6.01871875,0.04085493087768555,-0.026468276977539062,0.002601146697998047
1701864822853312000,6.02831201171875,0.05674278736114502,-0.005091667175292969,-0.000045299530029296875
1701864822862904600,6.037904541015625,0.06538373231887817,-0.014715194702148438,0.013710498809814453
1701864822872496400,6.047496337890625,0.05742102861404419,-0.0030317306518554688,0.015328168869018555
1701864822882089000,6.0570888671875,0.03063589334487915,0.0036878585815429688,0.0025358200073242188
1701864822891682300,6.066682373046875,0.008964896202087402,0.005547523498535156,0.0015718936920166016
1701864822901275000,6.07627490234375,-0.005091965198516846,-0.0020904541015625,-0.023040056228637695
1701864822910866700,6.08586669921875,0.013952314853668213,0.00449371337890625,-0.03325629234313965
1701864822920459300,6.095459228515625,0.011349380016326904,-0.00315093994140625,-0.033896446228027344
1701864822930052600,6.105052490234375,0.008879423141479492,-0.0036668777465820312,-0.03472447395324707
1701864822939645200,6.114645263671875,0.013551712036132812,-0.015997886657714844,-0.02630329132080078
1701864822949237000,6.124237060546875,0.034492552280426025,-0.01871967315673828,-0.03223466873168945
1701864822958829600,6.13382958984375,0.05251669883728027,-0.030849456787109375,-0.014714717864990234
1701864822968423000,6.1434228515625,0.04208934307098389,-0.03341197967529297,-0.009419679641723633
1701864822978015500,6.153015380859375,0.02463996410369873,-0.05710315704345703,-0.006542205810546875
1701864822987607300,6.162607177734375,0.040620386600494385,-0.06395149230957031,-0.02496027946472168
1701864822997200000,6.172199951171875,0.040116727352142334,-0.05183219909667969,-0.031147241592407227
1701864823006793200,6.181793212890625,0.060930073261260986,-0.04456329345703125,-0.044037818908691406
1701864823016385800,6.1913857421875,0.07921326160430908,-0.025594711303710938,-0.04234910011291504
1701864823025977600,6.2009775390625,0.09745389223098755,-0.02572345733642578,-0.06867408752441406
1701864823035570200,6.210570068359375,0.11549228429794312,-0.014039039611816406,-0.07320070266723633
1701864823045163500,6.22016357421875,0.15659093856811523,0.0022439956665039062,-0.10799026489257812
1701864823054756000,6.229756103515625,0.15669089555740356,0.006549835205078125,-0.125565767288208
1701864823064348000,6.239347900390625,0.13799643516540527,0.020209312438964844,-0.13338708877563477
1701864823073940500,6.2489404296875,0.1336384415626526,0.019563674926757812,-0.15505623817443848
1701864823083533800,6.258533935546875,0.12933361530303955,0.011905670166015625,-0.16210150718688965
1701864823093126400,6.26812646484375,0.08017933368682861,0.030289649963378906,-0.1949169635772705
1701864823102718200,6.27771826171875,0.06472259759902954,0.017770767211914062,-0.22246861457824707
1701864823112310800,6.287310791015625,0.049413442611694336,0.031395912170410156,-0.2329704761505127
1701864823121904000,6.296904052734375,0.06692588329315186,0.021338462829589844,-0.24309372901916504
1701864823131496700,6.30649658203125,0.09312021732330322,0.025638580322265625,-0.2505831718444824
1701864823141088500,6.316088623046875,0.09021484851837158,0.015898704528808594,-0.25984978675842285
1701864823150681000,6.32568115234375,0.13627243041992188,0.0040416717529296875,-0.24765324592590332
1701864823160274400,6.3352744140625,0.17621928453445435,-0.009860992431640625,-0.2589707374572754
1701864823169867000,6.344866943359375,0.2101656198501587,-0.05654716491699219,-0.22106075286865234
1701864823179458800,6.354458740234375,0.20776838064193726,-0.05297374725341797,-0.22613024711608887
1701864823189051400,6.364051513671875,0.1483479142189026,0.09218311309814453,-0.31456851959228516
1701864823198644700,6.373644775390625,0.16240358352661133,0.1199026107788086,-0.2921113967895508
1701864823208237300,6.3832373046875,0.204165518283844,0.07437515258789062,-0.23641133308410645
1701864823217829000,6.3928291015625,0.23763465881347656,0.08637714385986328,-0.23019742965698242
1701864823227421700,6.402421630859375,0.27455371618270874,0.07965755462646484,-0.2089557647705078
1701864823237015000,6.41201513671875,0.27691394090652466,0.08040809631347656,-0.16129589080810547
1701864823246607600,6.421607666015625,0.3016444444656372,0.072021484375,-0.17716288566589355
1701864823256199400,6.431199462890625,0.27103811502456665,0.09462738037109375,-0.21785759925842285
1701864823265792000,6.4407919921875,0.24991512298583984,0.0015592575073242188,-0.18707776069641113
1701864823275385300,6.45038525390625,0.20548439025878906,0.07497596740722656,-0.2503962516784668
1701864823284978000,6.45997802734375,0.21299219131469727,0.17107009887695312,-0.33959102630615234
1701864823294569700,6.46956982421875,0.24349427223205566,0.19055557250976562,-0.36716270446777344
1701864823304162300,6.479162353515625,0.23771947622299194,0.21713542938232422,-0.3905062675476074
1701864823313755600,6.488755615234375,0.22415411472320557,0.21291446685791016,-0.391343355178833
1701864823323348200,6.49834814453125,0.22114914655685425,0.18076610565185547,-0.42900896072387695
1701864823332940000,6.50793994140625,0.21653789281845093,0.16582584381103516,-0.5101993083953857
1701864823342532600,6.51753271484375,0.2526071071624756,0.0924530029296875,-0.462383508682251
1701864823352126000,6.5271259765625,0.24444729089736938,0.3055696487426758,-0.5525764226913452
1701864823361718500,6.536718505859375,0.22837546467781067,0.47110557556152344,-0.6499643325805664
1701864823371310300,6.546310302734375,0.21659162640571594,0.4720945358276367,-0.6296728849411011
1701864823380903000,6.55590283203125,0.2491738200187683,0.41013050079345703,-0.5877399444580078
1701864823390496300,6.565496337890625,0.29907163977622986,0.349853515625,-0.6138033866882324
1701864823400088800,6.5750888671875,0.32749423384666443,0.23193740844726562,-0.487388014793396
1701864823409680600,6.5846806640625,0.3325447738170624,0.1560497283935547,-0.21638095378875732
1701864823419273200,6.594273193359375,0.14206984639167786,0.36454010009765625,-0.47347497940063477
1701864823428866600,6.603866455078125,0.1993417888879776,0.5372962951660156,-0.6818381547927856
1701864823438459100,6.613459228515625,0.3367026448249817,0.5803031921386719,-0.3942131996154785
1701864823448051000,6.623051025390625,0.16826511919498444,0.5120277404785156,-0.3468668460845947
1701864823457643500,6.6326435546875,0.11765696108341217,0.46842002868652344,-0.3361853361129761
1701864823467236900,6.64223681640625,0.23261073231697083,0.4606456756591797,-0.3722766637802124
1701864823476829400,6.651829345703125,0.22868429124355316,0.4948740005493164,-0.08384907245635986
1701864823486421200,6.661421142578125,-0.010001957416534424,0.1794147491455078,-0.0541454553604126
1701864823496013800,6.671013916015625,-0.11603005230426788,0.028430938720703125,-0.004591464996337891
1701864823505607200,6.680607177734375,-0.1437191665172577,-0.06213569641113281,0.07300221920013428
1701864823515199700,6.69019970703125,-0.11896654963493347,0.026854515075683594,0.03925931453704834
1701864823524791600,6.69979150390625,-0.09519383311271667,0.06175804138183594,0.05140495300292969
1701864823534384000,6.709384033203125,-0.05666278302669525,0.123626708984375,0.03132295608520508
1701864823543977500,6.7189775390625,-0.10537046194076538,0.18840503692626953,0.13657653331756592
1701864823553570000,6.728570068359375,-0.41949716210365295,0.2443094253540039,0.16055023670196533
1701864823563161900,6.738161865234375,-0.4988290071487427,0.35052490234375,0.06116640567779541
1701864823572754400,6.74775439453125,-0.40530988574028015,0.2778587341308594,0.18204224109649658
1701864823582347800,6.75734765625,-0.22699609398841858,0.35907649993896484,0.12998199462890625
1701864823591940400,6.7669404296875,-0.05321711301803589,0.3657064437866211,0.13444054126739502
1701864823601532200,6.7765322265625,0.09957043826580048,0.27320384979248047,0.17410099506378174
1701864823611124700,6.786124755859375,0.1141727864742279,0.3800477981567383,0.1485806703567505
1701864823620718000,6.795718017578125,0.05954441428184509,0.19081974029541016,0.2119230031967163
1701864823630310700,6.805310546875,-0.62930828332901,0.4592113494873047,0.07213795185089111
1701864823639902500,6.81490234375,1.006324291229248,0.7727413177490234,0.5063810348510742
1701864823649495000,6.8244951171875,1.150374174118042,0.23584842681884766,0.7554408311843872
1701864823659088400,6.83408837890625,0.6396532654762268,-0.07114410400390625,0.8984090089797974
1701864823668681000,6.843680908203125,0.1381322145462036,-0.0084991455078125,0.7896157503128052
1701864823678272800,6.853272705078125,0.037758976221084595,0.20839309692382812,0.5913089513778687
1701864823687865300,6.862865234375,-0.10224491357803345,0.24259090423583984,0.5491287708282471
1701864823697458700,6.872458740234375,-0.22793740034103394,0.11794471740722656,0.6340765953063965
1701864823707051300,6.88205126953125,-0.13613605499267578,0.058434486389160156,0.6436576843261719
1701864823716643000,6.89164306640625,-0.5885202288627625,-0.04556083679199219,0.7327821254730225
1701864823726235600,6.901235595703125,-0.5857784748077393,-0.35859012603759766,0.8351269960403442
1701864823735829000,6.9108291015625,-0.17995703220367432,-0.7315750122070312,1.0474859476089478
1701864823745421600,6.920421630859375,0.029828250408172607,-1.0199613571166992,0.9578875303268433
1701864823755013000,6.93001318359375,0.6164525747299194,-1.1282291412353516,0.5886013507843018
1701864823764606000,6.93960595703125,1.0702462196350098,-0.6843557357788086,0.11142027378082275
1701864823774199300,6.94919921875,0.9239431023597717,-0.1634683609008789,-0.46765923500061035
1701864823783791900,6.9587919921875,0.6783020496368408,0.4991588592529297,-0.8576043844223022
1701864823793383700,6.9683837890625,0.057248473167419434,0.7643270492553711,-1.0339796543121338
1701864823802976300,6.977976318359375,-0.6473242044448853,0.9390449523925781,-1.029935598373413
1701864823812569600,6.987569580078125,-1.1673578023910522,0.7233600616455078,-0.827571451663971
1701864823822162000,6.997161865234375,-1.0439751148223877,0.4311389923095703,-0.796410322189331
1701864823831754000,7.00675390625,-0.7400240302085876,0.20843219757080078,-0.7853337526321411
1701864823841346300,7.01634619140625,-0.36143219470977783,0.05756092071533203,-0.6931850910186768
1701864823850940000,7.02593994140625,0.26004141569137573,0.4400930404663086,-0.6049388647079468
1701864823860532500,7.035532470703125,0.7023880481719971,1.7666230201721191,-0.7774513959884644
1701864823870124300,7.045124267578125,0.5293772220611572,2.5062403678894043,-0.638166069984436
1701864823879716600,7.054716552734375,0.2263244390487671,2.353917121887207,-0.3476836681365967
1701864823889310200,7.064310302734375,-0.0045136213302612305,1.6572179794311523,0.0267333984375
1701864823898902800,7.07390283203125,-0.46566927433013916,0.40462207794189453,0.22948873043060303
1701864823908494300,7.083494384765625,-0.6075818538665771,-0.7102699279785156,0.24215340614318848
1701864823918087200,7.093087158203125,-1.1120036840438843,-0.8250579833984375,0.008970975875854492
1701864823927680500,7.102680419921875,0.33451521396636963,-0.291717529296875,-0.5494720935821533
1701864823937273000,7.112273193359375,0.19203782081604004,0.3194770812988281,-0.13213300704956055
1701864823946864600,7.12186474609375,-0.24255430698394775,0.6853294372558594,-0.021399974822998047
1701864823956457500,7.13145751953125,-0.19701933860778809,0.4312410354614258,0.05928468704223633
1701864823966050800,7.14105078125,-0.09955644607543945,0.20583534240722656,0.1599738597869873
1701864823975643100,7.15064306640625,-0.4618988037109375,-0.34494876861572266,0.12441563606262207
1701864823985235000,7.16023486328125,-0.2962064743041992,-1.1554412841796875,-0.22123754024505615
1701864823994827500,7.16982763671875,0.35043978691101074,-1.2357845306396484,-0.19818007946014404
1701864824004421000,7.179421142578125,0.8526327610015869,-0.9886064529418945,-0.3010047674179077
1701864824014013400,7.189013427734375,0.05070233345031738,-0.6229820251464844,-0.43595004081726074
1701864824023605500,7.19860546875,0.4818178415298462,-0.6498594284057617,-0.46727633476257324
1701864824033197800,7.20819775390625,0.7721841335296631,-0.3751392364501953,-0.5026530027389526
1701864824042791400,7.21779150390625,0.29318273067474365,-0.5638809204101562,-0.6297045946121216
1701864824052383700,7.2273837890625,1.0283170938491821,-0.8713245391845703,0.011838912963867188
1701864824061975600,7.2369755859375,0.27765846252441406,-0.9184980392456055,-0.06586599349975586
1701864824071568400,7.246568359375,-0.6114046573638916,-1.407073974609375,-0.5494985580444336
1701864824081161700,7.25616162109375,-1.55796217918396,-1.5803499221801758,-0.8325694799423218
1701864824090754300,7.26575439453125,-0.3171720504760742,-1.1741600036621094,-0.2488846778869629
1701864824100345900,7.275345947265625,-0.5548710823059082,-0.5995779037475586,0.054509878158569336
1701864824109938400,7.2849384765625,-1.579442024230957,-0.8988142013549805,0.46046972274780273
1701864824119532000,7.294531982421875,-1.9321773052215576,-1.7965631484985352,1.023198127746582
1701864824129124400,7.304124267578125,-1.8727819919586182,-2.340813636779785,1.6283464431762695
1701864824138716200,7.313716064453125,-1.3533275127410889,-2.402745246887207,1.9311518669128418
1701864824148308700,7.323308837890625,-0.7841203212738037,-2.3119335174560547,1.9637956619262695
1701864824157902300,7.33290234375,-0.6770138740539551,-2.317997932434082,1.6611568927764893
1701864824167494700,7.34249462890625,-0.9330863952636719,-2.355587959289551,1.631359338760376
1701864824177086500,7.35208642578125,-1.230165958404541,-2.345952033996582,1.708627462387085
1701864824186679000,7.361678955078125,-1.286994218826294,-2.133565902709961,1.6839144229888916
1701864824196272600,7.371272705078125,-0.9540040493011475,-1.834817886352539,1.5103154182434082
1701864824205865000,7.380864990234375,-0.5637538433074951,-1.5659561157226562,1.2792983055114746
1701864824215456800,7.390456787109375,-0.05834794044494629,-1.2853097915649414,1.0534899234771729
1701864824225049600,7.400049560546875,0.4297802448272705,-0.970088005065918,0.7176856994628906
1701864824234643000,7.409642822265625,0.8055555820465088,-0.5951242446899414,0.2654857635498047
1701864824244235300,7.4192353515625,1.0780375003814697,-0.061707496643066406,-0.16380667686462402
1701864824253827000,7.4288271484375,0.9630239009857178,0.3502683639526367,-0.4187026023864746
1701864824263419600,7.438419677734375,0.6926016807556152,0.6307821273803711,-0.4880967140197754
1701864824273013200,7.44801318359375,0.3845558166503906,0.844059944152832,-0.5170691013336182
1701864824282605600,7.45760546875,0.21993064880371094,0.9707174301147461,-0.4120488166809082
1701864824292197400,7.467197265625,0.04562997817993164,1.09889554977417,-0.3032865524291992
1701864824301790000,7.4767900390625,-0.18437814712524414,1.0270962715148926,-0.16203546524047852
1701864824311383600,7.486383544921875,-0.5436415672302246,0.8711709976196289,0.014084339141845703
1701864824320976000,7.495975830078125,-1.1023445129394531,0.46591997146606445,0.6993002891540527
1701864824330567700,7.505567626953125,-1.3153600692749023,0.017012596130371094,1.1523032188415527
1701864824340160300,7.51516015625,-1.374861717224121,-0.35938024520874023,1.4692182540893555
1701864824349753600,7.524753662109375,-1.1014056205749512,-0.5341048240661621,1.6314263343811035
1701864824359346200,7.53434619140625,-0.8016653060913086,-0.3903946876525879,1.6068596839904785
1701864824368938000,7.54393798828125,-0.5781230926513672,0.039685726165771484,1.250655174255371
1701864824378530800,7.55353076171875,-0.4913144111633301,0.4835219383239746,1.3195476531982422
1701864824388124000,7.5631240234375,-0.7651691436767578,0.7857327461242676,0.9738078117370605
1701864824397716500,7.572716552734375,-0.9283943176269531,1.33941650390625,0.702394962310791
1701864824407308300,7.582308349609375,-1.1949996948242188,1.9405231475830078,0.6871452331542969
1701864824416900900,7.59190087890625,-1.5443243980407715,2.531736135482788,0.5535721778869629
1701864824426494500,7.601494384765625,-1.8324189186096191,2.8556041717529297,0.4597635269165039
1701864824436086800,7.611086669921875,-1.950934886932373,2.956822395324707,0.8223409652709961
1701864824445678600,7.6206787109375,-1.430483341217041,2.8836491107940674,0.5690670013427734
1701864824455271200,7.630271240234375,-0.7120909690856934,2.7654941082000732,0.21678543090820312
1701864824464864500,7.639864501953125,-0.35314083099365234,2.47597599029541,0.12996864318847656
1701864824474457000,7.64945703125,-0.20244216918945312,1.9481747150421143,0.2709517478942871
1701864824484049000,7.659048828125,-0.20820903778076172,1.395057201385498,0.47756290435791016
1701864824493641500,7.668641357421875,-0.04161214828491211,1.0533852577209473,0.5792498588562012
1701864824503234800,7.67823486328125,0.01973438262939453,0.8240127563476562,0.4965705871582031
1701864824512827400,7.687827392578125,-0.08546686172485352,0.4217243194580078,0.3132596015930176
1701864824522419200,7.697419189453125,-0.22748279571533203,0.13456439971923828,0.2935342788696289
1701864824532011800,7.70701171875,-0.3555150032043457,-0.12015438079833984,0.24755096435546875
1701864824541605000,7.716605224609375,-0.3501625061035156,-0.32461023330688477,0.20032405853271484
1701864824551197700,7.72619775390625,-0.05769634246826172,-0.5883846282958984,0.06742000579833984
1701864824560789500,7.73578955078125,-0.2162952423095703,-0.7699623107910156,0.3515801429748535
1701864824570382000,7.745382080078125,0.07994794845581055,-0.7942190170288086,0.11668205261230469
1701864824579975400,7.754975341796875,0.3331260681152344,-0.6152377128601074,-0.08093452453613281
1701864824589568000,7.764568115234375,0.36575794219970703,-0.3791341781616211,-0.35181713104248047
1701864824599159800,7.774159912109375,0.5027260780334473,-0.08229732513427734,-0.7067246437072754
1701864824608752400,7.78375244140625,0.5522704124450684,0.2916245460510254,-1.1844325065612793
1701864824618345700,7.793345703125,0.6208720207214355,0.5797972679138184,-1.198690414428711
1701864824627938300,7.802938232421875,0.38340139389038086,0.6828722953796387,-1.0893616676330566
1701864824637530000,7.812530029296875,0.18350744247436523,0.698000431060791,-0.8829073905944824
1701864824647122700,7.822122802734375,-0.03629016876220703,0.6627130508422852,-0.5996551513671875
1701864824656716000,7.831716064453125,-0.15216445922851562,0.5405983924865723,-0.20028114318847656
1701864824666308600,7.84130859375,-0.25676870346069336,0.32165098190307617,0.12404203414916992
1701864824675900400,7.850900390625,-0.2922344207763672,0.10585403442382812,0.43572282791137695
1701864824685493000,7.860492919921875,-0.18605899810791016,-0.15186405181884766,0.5904803276062012
1701864824695086300,7.87008642578125,-0.09063291549682617,-0.2110910415649414,0.4260993003845215
1701864824704679000,7.879678955078125,0.0002288818359375,-0.07783889770507812,0.1253347396850586
1701864824714270700,7.889270751953125,0.09161376953125,0.13880205154418945,0.0027303695678710938
1701864824723863300,7.89886328125,0.030454635620117188,0.7004566192626953,-0.24198532104492188
1701864824733456600,7.90845654296875,0.05630636215209961,1.0604395866394043,-0.27294158935546875
1701864824743049200,7.91804931640625,0.05570220947265625,1.2509377002716064,-0.2272648811340332
1701864824752641000,7.92764111328125,0.049558162689208984,1.3362948894500732,0.0035800933837890625
1701864824762233600,7.937233642578125,0.05669450759887695,1.4017767906188965,0.1529231071472168
1701864824771827000,7.946826904296875,0.1803755760192871,1.384507179260254,0.3259401321411133
1701864824781419500,7.95641943359375,0.2208409309387207,1.28829026222229,0.36745309829711914
1701864824791011300,7.96601123046875,0.27925682067871094,1.1636872291564941,0.35744285583496094
1701864824800604000,7.97560400390625,0.4137887954711914,0.9512038230895996,0.38541078567504883
1701864824810197200,7.985197265625,0.4337949752807617,0.7746124267578125,0.52056884765625
1701864824819789800,7.994789794921875,0.39534425735473633,0.5278420448303223,0.5907573699951172
1701864824829381600,8.004381591796875,0.27066802978515625,0.2407369613647461,0.6195363998413086
1701864824838974200,8.01397412109375,0.1009221076965332,-0.02110004425048828,0.5965662002563477
1701864824848567600,8.023567626953126,-0.025360107421875,-0.23208045959472656,0.5143065452575684
1701864824858160000,8.03316015625,-0.04141998291015625,-0.24393510818481445,0.518855094909668
1701864824867752000,8.042751953125,-0.07743453979492188,-0.21498870849609375,0.49663782119750977
1701864824877344500,8.052344482421875,-0.17070770263671875,-0.36594343185424805,0.4286966323852539
1701864824886937900,8.061937744140625,-0.14249372482299805,-0.36139392852783203,0.18384456634521484
1701864824896530400,8.071530517578125,-0.09834432601928711,-0.34425973892211914,-0.09846258163452148
1701864824906122200,8.081122314453125,-0.05479240417480469,-0.3617134094238281,-0.2907886505126953
1701864824915714800,8.09071484375,0.03165435791015625,-0.3388791084289551,-0.43039512634277344
1701864824925308200,8.10030810546875,0.09220075607299805,-0.30150604248046875,-0.5115251541137695
1701864824934900700,8.109900634765625,0.11532306671142578,-0.28749799728393555,-0.5312838554382324
1701864824944492500,8.119492431640625,0.14189767837524414,-0.28505754470825195,-0.504152774810791
1701864824954085000,8.129085205078125,0.09068441390991211,-0.25164175033569336,-0.4307093620300293
1701864824963678500,8.138678466796875,0.03095722198486328,-0.21912336349487305,-0.359682559967041
1701864824973271000,8.14827099609375,-0.0565342903137207,-0.1831989288330078,-0.28211307525634766
1701864824982862800,8.15786279296875,-0.13858604431152344,-0.13711881637573242,-0.21062135696411133
1701864824992455400,8.167455322265624,-0.17692852020263672,-0.09973907470703125,-0.19741058349609375
1701864825002048800,8.177048828125,-0.22693634033203125,-0.04709196090698242,-0.14946842193603516
1701864825011641300,8.186641357421875,-0.3093447685241699,-0.017350196838378906,-0.1878948211669922
1701864825021233200,8.196233154296875,-0.48769664764404297,0.06575965881347656,-0.22106266021728516
1701864825030825700,8.20582568359375,-0.2120952606201172,0.09373283386230469,-0.15406417846679688
1701864825040419000,8.215419189453126,0.051921844482421875,0.1373138427734375,-0.053844451904296875
1701864825050011600,8.22501171875,0.027967453002929688,0.2297687530517578,-0.0036034584045410156
1701864825059603500,8.234603515625,-0.1805424690246582,0.3486156463623047,-0.1521320343017578
1701864825069196000,8.244196044921875,-0.3125777244567871,0.2854142189025879,-0.1601419448852539
1701864825078789400,8.253789306640625,-0.11019420623779297,0.23724699020385742,-0.12012815475463867
1701864825088382000,8.2633818359375,0.13575077056884766,0.2284226417541504,-0.06862735748291016
1701864825097973800,8.272973876953126,0.1734333038330078,0.18870019912719727,0.06658744812011719
1701864825107566300,8.28256640625,0.13127708435058594,0.11044931411743164,0.1500072479248047
1701864825117159700,8.29215966796875,0.16369247436523438,0.029729366302490234,0.19280242919921875
1701864825126752300,8.301752197265625,0.32724857330322266,0.06226778030395508,0.14775514602661133
1701864825136344000,8.311343994140625,0.2848014831542969,0.1358656883239746,0.10071802139282227
1701864825145936600,8.3209365234375,0.13532543182373047,0.14684534072875977,0.068145751953125
1701864825155530000,8.330530029296876,0.012904167175292969,0.1137847900390625,0.11394119262695312
1701864825165122600,8.34012255859375,-0.034574031829833984,0.0747976303100586,0.18059825897216797
1701864825174714400,8.34971435546875,-0.03587007522583008,0.08734846115112305,0.2037978172302246
1701864825184307000,8.359306884765624,-0.027358055114746094,0.13541030883789062,0.19590234756469727
1701864825193900300,8.368900390625,0.12638568878173828,0.17461776733398438,0.10716390609741211
1701864825203492900,8.378492919921875,0.20922231674194336,0.2223987579345703,0.03308296203613281
1701864825213084700,8.388084716796875,0.20467662811279297,0.23540401458740234,0.006805896759033203
1701864825222677200,8.39767724609375,0.1701960563659668,0.1960892677307129,0.03912973403930664
1701864825232270600,8.4072705078125,0.13056421279907227,0.16732263565063477,0.06090593338012695
1701864825241863200,8.41686328125,0.06518888473510742,0.1250462532043457,0.07487058639526367
1701864825251455000,8.426455078125,-0.006422519683837891,0.09988737106323242,0.1024007797241211
1701864825261047600,8.436047607421875,-0.06966686248779297,0.08873367309570312,0.09377861022949219
1701864825270641000,8.445640869140625,-0.09193897247314453,0.08670854568481445,0.05180692672729492
1701864825280233500,8.4552333984375,-0.08562564849853516,0.08895158767700195,0.0030040740966796875
1701864825289825300,8.4648251953125,-0.06505918502807617,0.11207246780395508,-0.04735231399536133
1701864825299417600,8.47441748046875,-0.060997962951660156,0.1254572868347168,-0.0917811393737793
1701864825309011200,8.48401123046875,-0.049556732177734375,0.14567995071411133,-0.11624860763549805
1701864825318603800,8.493603759765625,-0.04531526565551758,0.13986921310424805,-0.11417531967163086
1701864825328195600,8.503195556640625,-0.048018455505371094,0.15063238143920898,-0.10488367080688477
1701864825337788200,8.5127880859375,-0.04368162155151367,0.14487171173095703,-0.09804773330688477
1701864825347381500,8.522381591796876,-0.01613903045654297,0.14653730392456055,-0.10547256469726562
1701864825356974000,8.53197412109375,-0.010761737823486328,0.12954378128051758,-0.09427928924560547
1701864825366565600,8.541565673828124,-0.0014071464538574219,0.09413957595825195,-0.07202482223510742
1701864825376158500,8.551158447265625,-0.00003910064697265625,0.11159133911132812,-0.057549476623535156
1701864825385751800,8.560751708984375,0.024092674255371094,0.08907318115234375,-0.01551961898803711
1701864825395344400,8.570344482421875,0.021291732788085938,0.05751848220825195,0.032236576080322266
1701864825404936000,8.57993603515625,0.008479595184326172,0.08554840087890625,0.029299259185791016
1701864825414528800,8.58952880859375,0.030551910400390625,0.06838417053222656,0.07520675659179688
1701864825424122000,8.5991220703125,0.02800464630126953,0.09865713119506836,0.060846805572509766
1701864825433714400,8.60871435546875,0.05552816390991211,0.11443614959716797,0.0321507453918457
1701864825443306200,8.61830615234375,0.06580734252929688,0.12073469161987305,0.01087808609008789
1701864825452898800,8.62789892578125,0.0708322525024414,0.1344623565673828,-0.0029201507568359375
1701864825462492400,8.637492431640625,0.0731058120727539,0.14129924774169922,-0.025846481323242188
1701864825472084700,8.647084716796876,0.06829071044921875,0.09158468246459961,0.03173017501831055
1701864825481676800,8.6566767578125,0.0449976921081543,0.06596612930297852,0.046009063720703125
1701864825491269000,8.66626904296875,0.0035800933837890625,0.09007406234741211,0.02494049072265625
1701864825500862700,8.67586279296875,-0.022436141967773438,0.12319517135620117,0.018935680389404297
1701864825510455300,8.685455322265625,-0.01926136016845703,0.13471317291259766,0.016014575958251953
1701864825520046800,8.695046875,-0.020267009735107422,0.16016483306884766,-0.005110740661621094
1701864825529639700,8.7046396484375,-0.01610088348388672,0.06687498092651367,0.10114049911499023
1701864825539233000,8.71423291015625,-0.021172523498535156,0.09257936477661133,0.05495882034301758
1701864825548825600,8.72382568359375,0.009213924407958984,0.11092901229858398,0.009730815887451172
1701864825558417200,8.733417236328124,0.010904312133789062,0.12446784973144531,-0.008603572845458984
1701864825568009700,8.743009765625,0.05488014221191406,0.16179704666137695,-0.035683631896972656
1701864825577603300,8.752603271484375,0.08159732818603516,0.1022496223449707,0.015572071075439453
1701864825587195600,8.762195556640625,0.07485723495483398,0.05290365219116211,0.03277778625488281
1701864825596787500,8.771787353515625,0.07066488265991211,-0.0053119659423828125,0.05424213409423828
1701864825606380000,8.781380126953126,0.050394535064697266,0.033692359924316406,-0.004608631134033203
1701864825615973400,8.790973388671874,0.0659785270690918,0.02254009246826172,-0.010546684265136719
1701864825625566000,8.80056591796875,0.04383230209350586,0.027985095977783203,-0.03273153305053711
1701864825635157800,8.81015771484375,0.03618001937866211,0.033473968505859375,-0.05207061767578125
1701864825644750600,8.81975048828125,0.019170761108398438,0.06981515884399414,-0.12264204025268555
1701864825654344000,8.829343994140626,0.014404773712158203,0.013535499572753906,-0.06255006790161133
1701864825663936300,8.838936279296876,-0.02535104751586914,-0.014162540435791016,-0.07674407958984375
1701864825673528000,8.848528076171876,-0.04764604568481445,-0.053777217864990234,-0.060329437255859375
1701864825683121000,8.858120849609374,-0.06486940383911133,0.003791332244873047,-0.1077570915222168
1701864825692714200,8.86771435546875,-0.07953310012817383,0.01796102523803711,-0.10744905471801758
1701864825702306600,8.877306640625,-0.1389007568359375,0.010708808898925781,-0.1356062889099121
1701864825711898400,8.8868984375,-0.02057790756225586,0.050797462463378906,-0.07828950881958008
1701864825721491000,8.896490966796875,-0.08773946762084961,0.05961799621582031,-0.09479093551635742
1701864825731084500,8.90608447265625,-0.10162496566772461,0.05874824523925781,-0.07310676574707031
1701864825740676900,8.9156767578125,-0.08449840545654297,0.06253957748413086,-0.06579351425170898
1701864825750268700,8.9252685546875,-0.05341815948486328,0.06862640380859375,-0.046715736389160156
1701864825759861200,8.934861328125,-0.039212703704833984,0.08409976959228516,-0.037189483642578125
1701864825769454600,8.94445458984375,-0.032124996185302734,0.09205389022827148,-0.004281044006347656
1701864825779047200,8.954047119140625,-0.008751392364501953,0.08104228973388672,-0.012013435363769531
1701864825788639000,8.963638916015626,0.021362781524658203,0.07028341293334961,0.013468742370605469
1701864825798231600,8.9732314453125,0.02965831756591797,0.06918668746948242,0.0007929801940917969
1701864825807825000,8.982824951171875,0.03055572509765625,0.07516956329345703,0.018739700317382812
1701864825817417500,8.99241748046875,0.0241851806640625,0.06463861465454102,0.045676231384277344
1701864825827009300,9.00200927734375,0.022576332092285156,0.06605100631713867,0.05327606201171875
1701864825836601900,9.011601806640625,0.03493642807006836,0.07470130920410156,0.046624183654785156
1701864825846195200,9.0211953125,0.0423283576965332,0.07870149612426758,0.04021167755126953
1701864825855787800,9.030787841796876,0.01663827896118164,0.05915975570678711,0.05515432357788086
1701864825865379600,9.040379638671874,-0.01085662841796875,0.039879798889160156,0.04636716842651367
1701864825874972200,9.04997216796875,0.0070858001708984375,0.03262948989868164,0.0402684211730957
1701864825884565800,9.059565673828125,0.036757469177246094,0.030144691467285156,0.04152727127075195
1701864825894158000,9.069157958984375,0.05912971496582031,0.027500152587890625,0.016941070556640625
1701864825903750000,9.07875,0.07446050643920898,0.015419483184814453,0.007215023040771484
1701864825913342500,9.088342529296876,0.09223079681396484,0.008180618286132812,-0.0020780563354492188
1701864825922935800,9.097935791015624,0.10507917404174805,0.019891738891601562,-0.0017223358154296875
1701864825932528400,9.1075283203125,0.09171915054321289,0.017477989196777344,0.012829780578613281
1701864825942120200,9.1171201171875,0.08070087432861328,0.019801616668701172,0.017486572265625
1701864825951712800,9.126712646484375,0.07190895080566406,0.015016555786132812,0.02881908416748047
1701864825961306000,9.13630615234375,0.04667043685913086,0.014945030212402344,0.028014659881591797
1701864825970898700,9.145898681640626,0.042987823486328125,0.026572704315185547,0.034169673919677734
1701864825980490500,9.155490478515626,0.03218984603881836,0.04519939422607422,0.023749351501464844
1701864825990083000,9.1650830078125,0.012033939361572266,0.04474592208862305,0.015796661376953125
1701864825999676400,9.174676513671875,0.025112152099609375,0.03737163543701172,0.010390281677246094
1701864826009269000,9.18426904296875,-0.002048969268798828,0.04195833206176758,0.002780914306640625
1701864826018860800,9.19386083984375,0.0018401145935058594,0.044116973876953125,0.0023550987243652344
1701864826028453400,9.203453369140625,-0.005985736846923828,0.041466712951660156,0.006705284118652344
1701864826038046700,9.213046630859376,-0.015921592712402344,0.036376953125,-0.00550079345703125
1701864826047639300,9.222639404296874,-0.027992725372314453,0.04307889938354492,-0.003384113311767578
1701864826057231000,9.232231201171874,-0.03293609619140625,0.07112979888916016,-0.02237987518310547
1701864826066823700,9.24182373046875,-0.047487735748291016,0.1274409294128418,-0.05031538009643555
1701864826076417000,9.2514169921875,-0.024137020111083984,0.027439594268798828,0.0069599151611328125
1701864826086009600,9.261009521484375,-0.036563873291015625,0.08468914031982422,-0.023713111877441406
1701864826095601400,9.270601318359375,-0.037020206451416016,0.05152606964111328,-0.009151935577392578
1701864826105194000,9.280194091796876,-0.016144752502441406,0.02106618881225586,-0.016070842742919922
1701864826114787300,9.289787353515624,-0.014314651489257812,-0.044541358947753906,0.007559299468994141
1701864826124380000,9.2993798828125,-0.019388675689697266,0.03220081329345703,-0.030225753784179688
1701864826133971700,9.3089716796875,-0.033605098724365234,0.003948211669921875,-0.053189754486083984
1701864826143564300,9.318564208984375,-0.021627426147460938,0.006772518157958984,-0.035689353942871094
1701864826153157600,9.32815771484375,-0.03326988220214844,0.0022869110107421875,-0.020894527435302734
1701864826162750200,9.337750244140626,-0.0352482795715332,0.002452850341796875,-0.025247573852539062
1701864826172342000,9.347342041015626,-0.027845382690429688,0.00247955322265625,-0.015589237213134766
1701864826181934600,9.3569345703125,-0.008931636810302734,-0.0022711753845214844,-0.013347625732421875
1701864826191528000,9.36652783203125,-0.002300262451171875,0.018951416015625,-0.01133584976196289
1701864826201120500,9.37612060546875,0.0017366409301757812,0.016344547271728516,0.0023484230041503906
1701864826210712300,9.38571240234375,0.005645751953125,0.02312755584716797,-0.01963043212890625
1701864826220305000,9.395304931640625,-0.025830745697021484,0.03208494186401367,0.0010671615600585938
1701864826229898200,9.404898193359376,0.016204833984375,0.02212667465209961,-0.004411220550537109
1701864826239490800,9.41449072265625,0.047940731048583984,0.03614091873168945,-0.00031948089599609375
1701864826249082600,9.42408251953125,0.052933692932128906,0.05254220962524414,0.013048648834228516
1701864826258675200,9.43367529296875,0.022666454315185547,0.03322124481201172,0.037976741790771484
1701864826268268500,9.4432685546875,0.007096767425537109,0.03534126281738281,0.03424358367919922
1701864826277861000,9.452861083984375,0.015328407287597656,0.0397796630859375,0.05411529541015625
1701864826287453000,9.462452880859376,0.011659622192382812,0.04178810119628906,0.04305696487426758
1701864826297045500,9.47204541015625,0.012889385223388672,0.022577285766601562,0.029954910278320312
1701864826306638800,9.481638916015624,0.014295578002929688,0.01767730712890625,0.03362131118774414
1701864826316231400,9.4912314453125,0.02516317367553711,0.012859344482421875,0.03258466720581055
1701864826325823200,9.5008232421875,0.043186187744140625,0.007985115051269531,0.026999473571777344
1701864826335415800,9.510415771484375,0.03972911834716797,0.007897377014160156,0.028574466705322266
1701864826345009200,9.520009033203126,0.024565696716308594,0.024219036102294922,0.027713775634765625
1701864826354601700,9.529601806640626,0.033272743225097656,0.016724109649658203,0.03870964050292969
1701864826364193500,9.539193603515624,0.0558314323425293,0.013991355895996094,0.04462623596191406
1701864826373786000,9.5487861328125,0.04002857208251953,0.0090789794921875,0.04554414749145508
1701864826383379500,9.55837939453125,0.03613090515136719,0.01608419418334961,0.03225564956665039
1701864826392972000,9.567971923828125,0.029557228088378906,0.05418539047241211,-0.008895397186279297
1701864826402563800,9.577563720703125,0.015703678131103516,0.09690141677856445,-0.006817817687988281
1701864826412156400,9.587156494140626,0.025098800659179688,0.06410980224609375,-0.0024466514587402344
1701864826421749800,9.596749755859374,-0.06776809692382812,0.13820791244506836,-0.0033349990844726562
1701864826431342300,9.60634228515625,-0.017940521240234375,0.03678083419799805,0.05212068557739258
1701864826440934100,9.61593408203125,-0.06302785873413086,-0.009159088134765625,0.0593414306640625
1701864826450526700,9.625526611328125,-0.14270257949829102,0.10105180740356445,-0.008906364440917969
1701864826460120000,9.6351201171875,-0.11723709106445312,0.08937978744506836,-0.021637916564941406
1701864826469712600,9.644712646484376,-0.09216785430908203,0.04973602294921875,-0.03640937805175781
1701864826479304400,9.654304443359376,-0.07454967498779297,0.04608011245727539,-0.053246498107910156
1701864826488897000,9.66389697265625,-0.05215311050415039,-0.016624927520751953,-0.06497335433959961
1701864826498490400,9.673490478515625,-0.05094575881958008,-0.057425498962402344,-0.09056282043457031
1701864826508083000,9.6830830078125,-0.03759956359863281,-0.09559345245361328,-0.10158586502075195
1701864826517674800,9.6926748046875,-0.005504608154296875,-0.11906909942626953,-0.11235427856445312
1701864826527267300,9.702267333984375,0.025760173797607422,-0.09501981735229492,-0.1255350112915039
1701864826536860700,9.711860595703126,0.016109466552734375,-0.17545127868652344,-0.042768001556396484
1701864826546453200,9.721453369140624,-0.010103702545166016,-0.11606836318969727,-0.056156158447265625
1701864826556045000,9.731045166015624,-0.03384590148925781,-0.0956268310546875,-0.022793292999267578
1701864826565637600,9.7406376953125,-0.01534414291381836,-0.06141090393066406,-0.05170440673828125
1701864826575231000,9.75023095703125,0.00009822845458984375,-0.027842044830322266,-0.03584766387939453
1701864826584823600,9.759823486328125,0.021940231323242188,-0.11060619354248047,0.049620628356933594
1701864826594415400,9.769415283203125,0.0009713172912597656,-0.04623889923095703,0.003938198089599609
1701864826604008000,9.779008056640626,0.02305316925048828,0.023984432220458984,0.013360977172851562
1701864826613601300,9.788601318359374,0.019326210021972656,0.06271648406982422,-0.0025811195373535156
1701864826623193900,9.79819384765625,0.02532052993774414,0.11501121520996094,-0.03678464889526367
1701864826632785700,9.80778564453125,0.03146648406982422,-0.026944637298583984,0.07548809051513672
1701864826642378200,9.817378173828125,0.01192331314086914,0.04058027267456055,0.03782463073730469
1701864826651971600,9.8269716796875,0.01885223388671875,0.050559043884277344,0.024639606475830078
1701864826661564200,9.836564208984376,0.016637325286865234,0.04390382766723633,0.02382373809814453
1701864826671156000,9.846156005859376,0.0032148361206054688,0.06818389892578125,0.026065349578857422
1701864826680748500,9.85574853515625,-0.007233619689941406,0.09705162048339844,0.03124856948852539
1701864826690342000,9.865341796875,-0.0147552490234375,0.06430721282958984,0.07680797576904297
1701864826699934500,9.8749345703125,-0.03366374969482422,0.0746307373046875,0.06783485412597656
1701864826709526300,9.8845263671875,-0.030672073364257812,0.07080364227294922,0.06422185897827148
1701864826719118800,9.894118896484375,-0.003927707672119141,0.0694732666015625,0.06333446502685547
1701864826728712200,9.903712158203126,0.03197669982910156,0.08015155792236328,0.051058292388916016
1701864826738304800,9.9133046875,0.0582118034362793,0.11924886703491211,0.02548980712890625
1701864826747896600,9.922896484375,0.08899450302124023,0.05909395217895508,0.04793214797973633
1701864826757489200,9.9324892578125,0.0889444351196289,0.026178836822509766,0.04938030242919922
1701864826767082500,9.94208251953125,0.06583738327026367,0.0717778205871582,0.05385589599609375
1701864826776675000,9.951675048828125,0.05749988555908203,0.0911412239074707,0.016495704650878906
1701864826786267000,9.961266845703125,0.03987550735473633,0.10111379623413086,0.05068349838256836
1701864826795859500,9.970859375,0.08867740631103516,-0.0067272186279296875,0.10104084014892578
1701864826805452800,9.980452880859374,0.07808685302734375,-0.03522157669067383,0.11303186416625977
1701864826815045400,9.99004541015625,0.06551694869995117,0.01458740234375,0.0756983757019043
1701864826824637200,9.99963720703125,0.07446527481079102,0.03068065643310547,0.05329608917236328
1701864826834229800,10.009229736328125,0.0314478874206543,0.09380674362182617,-0.017999649047851562
1701864826843823000,10.018822998046875,0.08810663223266602,-0.03260517120361328,0.03426504135131836
1701864826853415700,10.028415771484376,0.0684499740600586,-0.0581202507019043,0.01021718978881836
1701864826863007500,10.038007568359374,0.044435977935791016,-0.069305419921875,0.0005283355712890625
1701864826872600000,10.04760009765625,-0.009845256805419922,-0.04984283447265625,-0.032721519470214844
1701864826882193400,10.057193359375,-0.06336736679077148,0.04712200164794922,-0.11486482620239258
1701864826891786000,10.066785888671875,-0.10940170288085938,0.03887462615966797,-0.1160426139831543
1701864826901377800,10.076377685546875,-0.08213138580322266,-0.06598186492919922,-0.0660252571105957
1701864826910970400,10.085970458984375,-0.10520362854003906,-0.10602092742919922,-0.05772686004638672
1701864826920563700,10.095563720703124,-0.14012575149536133,-0.06805276870727539,-0.1021108627319336
1701864826930156300,10.10515625,-0.12072277069091797,-0.021373271942138672,-0.16268253326416016
1701864826939748000,10.114748046875,-0.09963130950927734,-0.018051624298095703,-0.17331600189208984
1701864826949340700,10.124340576171875,-0.07209491729736328,-0.038399696350097656,-0.16525697708129883
1701864826958934000,10.13393408203125,-0.04999113082885742,-0.006688117980957031,-0.1600046157836914
1701864826968526600,10.143526611328125,-0.05918693542480469,-0.05797529220581055,-0.12226009368896484
1701864826978118400,10.153118408203126,-0.04940319061279297,-0.04504680633544922,-0.08768558502197266
1701864826987711000,10.1627109375,-0.05379962921142578,-0.056273460388183594,-0.030398845672607422
1701864826997304300,10.17230419921875,-0.0697321891784668,0.06460714340209961,-0.1033172607421875
1701864827006897000,10.18189697265625,-0.045542240142822266,-0.021535873413085938,0.06477642059326172
1701864827016488700,10.19148876953125,-0.014912128448486328,-0.012341976165771484,0.0530543327331543
1701864827026081300,10.201081298828125,0.04366159439086914,-0.11442756652832031,0.08838033676147461
1701864827035674600,10.210674560546876,0.08054828643798828,-0.11405801773071289,0.09960651397705078
1701864827045267200,10.22026708984375,0.08433151245117188,0.0016641616821289062,0.05459880828857422
1701864827054859000,10.22985888671875,0.0980076789855957,0.059096336364746094,0.08396244049072266
1701864827064451600,10.23945166015625,0.08380508422851562,0.08040046691894531,0.11118459701538086
1701864827074045000,10.249044921875,0.1190800666809082,0.1486496925354004,0.07900190353393555
1701864827083637500,10.258637451171875,0.26819610595703125,0.6120162010192871,-0.3203091621398926
1701864827093229300,10.268229248046875,-0.1501002311706543,0.05391216278076172,0.47942161560058594
1701864827102822000,10.27782177734375,0.14537906646728516,-0.31174659729003906,0.36191654205322266
1701864827112415200,10.287415283203124,0.06922054290771484,0.06548118591308594,0.16914749145507812
1701864827122007800,10.2970078125,0.04833412170410156,0.17294979095458984,0.11618804931640625
1701864827131599600,10.306599609375,0.09512090682983398,0.13351869583129883,0.09457635879516602
1701864827141192200,10.316192138671875,0.13458919525146484,0.1925802230834961,0.011526107788085938
1701864827150785500,10.32578564453125,0.0532374382019043,0.19787120819091797,0.0606074333190918
1701864827160378000,10.335378173828126,-0.19463014602661133,-0.19323253631591797,0.22976207733154297
1701864827169970000,10.344969970703126,-0.04407310485839844,-0.059327125549316406,-0.05186033248901367
1701864827179562500,10.3545625,-0.15458202362060547,-0.034003257751464844,-0.09569072723388672
1701864827189155800,10.36415576171875,-0.057376861572265625,-0.02100086212158203,-0.1378788948059082
1701864827198748400,10.37374853515625,-0.0103607177734375,-0.1264667510986328,-0.08483695983886719
1701864827208340200,10.38334033203125,-0.02476215362548828,-0.05172252655029297,-0.14083051681518555
1701864827217932800,10.392932861328125,-0.04315996170043945,-0.03282308578491211,-0.10873556137084961
1701864827227526100,10.402526123046876,-0.058030128479003906,-0.02673053741455078,-0.11229515075683594
1701864827237118700,10.41211865234375,-0.060339927673339844,-0.02347850799560547,-0.11561727523803711
1701864827246710500,10.42171044921875,-0.06219053268432617,-0.03015422821044922,-0.10005521774291992
1701864827256303000,10.43130322265625,-0.04500150680541992,-0.036846160888671875,-0.1035304069519043
1701864827265896400,10.440896484375,-0.05375099182128906,-0.03427314758300781,-0.10459280014038086
1701864827275489000,10.450489013671875,-0.030114173889160156,-0.036905765533447266,-0.10917329788208008
1701864827285080800,10.460080810546875,0.02620840072631836,0.15218162536621094,-0.27266502380371094
1701864827294673400,10.46967333984375,0.09644603729248047,0.17182683944702148,-0.2905755043029785
1701864827304266800,10.479266845703124,0.1578655242919922,-0.00922250747680664,-0.11595916748046875
1701864827313859300,10.488859375,0.1480250358581543,-0.1863560676574707,0.10651397705078125
1701864827323451100,10.498451171875,-0.17682933807373047,-0.5131950378417969,0.4838118553161621
1701864827333043700,10.508043701171875,-0.24877595901489258,-0.3330049514770508,0.48796606063842773
1701864827342637000,10.517636962890625,0.0202484130859375,0.34400367736816406,-0.3071784973144531
1701864827352229600,10.527229736328126,0.07284307479858398,1.18402099609375,-0.8043899536132812
1701864827361821400,10.536821533203126,-0.2676515579223633,0.23651981353759766,0.09608745574951172
1701864827371414000,10.5464140625,-0.036136627197265625,-0.03387880325317383,0.276700496673584
1701864827381007400,10.55600732421875,0.20663022994995117,-0.11646032333374023,-0.0017290115356445312
1701864827390600000,10.565599853515625,0.20315980911254883,-0.23524713516235352,0.03553581237792969
1701864827400191700,10.575191650390625,0.06784915924072266,-0.16532182693481445,0.12687110900878906
1701864827409784300,10.584784423828125,0.08606672286987305,-0.14420652389526367,0.20711088180541992
1701864827419377700,10.594377685546876,0.0076618194580078125,-0.18307971954345703,0.31357765197753906
1701864827428970200,10.60397021484375,0.03571033477783203,-0.029520034790039062,0.23726320266723633
1701864827438562000,10.61356201171875,0.09545373916625977,-0.4634866714477539,0.35329627990722656
1701864827448154400,10.623154296875,-0.18619489669799805,0.1947770118713379,0.023207664489746094
1701864827457748000,10.632748046875,0.06112098693847656,0.3558497428894043,-0.23264026641845703
1701864827467340500,10.642340576171875,0.041307926177978516,0.06326913833618164,-0.002151012420654297
1701864827476932400,10.651932373046876,0.18049001693725586,-0.0011706352233886719,-0.0692143440246582
1701864827486525000,10.66152490234375,0.13736534118652344,-0.022479534149169922,-0.06592512130737305
1701864827496118300,10.6711181640625,0.06319475173950195,-0.06010913848876953,-0.04052019119262695
1701864827505710800,10.6807109375,-0.07100915908813477,-0.07827901840209961,0.015004634857177734
1701864827515302400,10.690302490234375,-0.13595294952392578,-0.020689010620117188,0.05438089370727539
1701864827524895200,10.699895263671875,-0.16431713104248047,0.03868293762207031,0.03954887390136719
1701864827534488600,10.709488525390626,-0.11704683303833008,-0.06095552444458008,0.1493844985961914
1701864827544081200,10.7190810546875,-0.08464193344116211,0.0151824951171875,0.010246753692626953
1701864827553672700,10.728672607421874,-0.04535388946533203,-0.05398893356323242,0.026515483856201172
1701864827563265500,10.738265625,-0.06618785858154297,-0.1265263557434082,-0.019086837768554688
1701864827572859000,10.74785888671875,0.0331425666809082,0.03421592712402344,-0.33611297607421875
1701864827582451500,10.757451416015625,-0.09544134140014648,0.10001802444458008,-0.08358192443847656
1701864827592043300,10.767043212890625,0.007328033447265625,0.10800504684448242,-0.19257354736328125
1701864827601635800,10.7766357421875,0.03254985809326172,-0.05160808563232422,-0.05577564239501953
1701864827611229200,10.786229248046874,0.02032327651977539,0.08095455169677734,-0.03369283676147461
1701864827620821800,10.79582177734375,0.044039249420166016,0.08648824691772461,-0.04457283020019531
1701864827630413600,10.80541357421875,0.056233882904052734,-0.01890850067138672,0.05582475662231445
1701864827640006100,10.815006103515625,0.08118867874145508,-0.12280797958374023,0.07541704177856445
1701864827649599500,10.824599609375,0.05563688278198242,-0.13866138458251953,0.0885472297668457
1701864827659192000,10.834192138671876,0.012952804565429688,-0.18598413467407227,0.16524171829223633
1701864827668783900,10.843783935546876,-0.05727720260620117,-0.10874509811401367,0.15266180038452148
1701864827678376200,10.853376220703124,-0.1181039810180664,-0.19840288162231445,0.38562488555908203
1701864827687969800,10.8629697265625,-0.0681300163269043,-0.26221323013305664,0.3745708465576172
1701864827697562400,10.872562255859375,0.022303104400634766,0.29964303970336914,-0.1900806427001953
1701864827707154200,10.882154296875,0.07856130599975586,0.18831348419189453,-0.09051895141601562
1701864827716746800,10.891746826171875,0.00778961181640625,0.12857484817504883,-0.11848831176757812
1701864827726340000,10.901340087890626,0.11961126327514648,0.03743553161621094,-0.12426996231079102
1701864827735932700,10.9109326171875,0.3593473434448242,0.18699979782104492,-0.47685861587524414
1701864827745524200,10.920524169921874,0.07857084274291992,0.5213222503662109,-0.27924060821533203
1701864827755117000,10.930116943359375,0.1980419158935547,0.7179303169250488,-0.2873258590698242
1701864827764710400,10.93971044921875,-0.30368947982788086,0.17812728881835938,0.565706729888916
1701864827774303000,10.949302978515625,0.3092837333679199,-0.731938362121582,0.34912109375
1701864827783894500,10.95889453125,-0.007297992706298828,0.45934247970581055,-0.14304065704345703
1701864827793487400,10.9684873046875,-0.19084882736206055,0.5390582084655762,-0.10809898376464844
1701864827803080700,10.978080810546874,-0.29134321212768555,0.19028854370117188,0.1393723487854004
1701864827812673300,10.98767333984375,-0.25812482833862305,-0.48955821990966797,0.4887580871582031
1701864827822265000,10.99726513671875,-0.04468393325805664,-0.49501562118530273,0.14134454727172852
1701864827831857700,11.006857666015625,-0.08608293533325195,-0.5544052124023438,0.19150733947753906
1701864827841451000,11.016450927734375,-0.11606025695800781,-0.38376855850219727,0.10879945755004883
1701864827851043600,11.026043701171876,0.0641031265258789,-0.1375255584716797,-0.22134828567504883
1701864827860635400,11.035635498046876,-0.009223461151123047,0.15407562255859375,-0.14909648895263672
1701864827870227700,11.045227783203124,0.1283702850341797,0.20858383178710938,-0.26318931579589844
1701864827879821300,11.0548212890625,0.17040538787841797,0.2468729019165039,-0.3076019287109375
1701864827889414000,11.064413818359375,0.14115333557128906,0.5033602714538574,-0.27839136123657227
1701864827899005700,11.074005615234375,0.07013702392578125,1.1900062561035156,-0.5377140045166016
1701864827908598000,11.083597900390625,0.1549663543701172,0.908012866973877,-0.21550989151000977
1701864827918191600,11.093191650390626,0.2046799659729004,-0.06117105484008789,0.24207735061645508
1701864827927784200,11.1027841796875,-0.04627084732055664,-0.7636861801147461,0.5179023742675781
1701864827937376000,11.1123759765625,-0.36412811279296875,-1.0919179916381836,0.8288092613220215
1701864827946968600,11.121968505859375,-0.3796396255493164,-0.7081122398376465,0.48556947708129883
1701864827956562000,11.13156201171875,-0.35791778564453125,-0.2573423385620117,0.23725509643554688
1701864827966154500,11.141154541015625,-0.2113189697265625,-0.03605937957763672,0.13190937042236328
1701864827975746300,11.150746337890626,-0.1033935546875,0.11858463287353516,0.1436171531677246
1701864827985339000,11.1603388671875,0.1071310043334961,0.2461261749267578,-0.056789398193359375
1701864827994932200,11.16993212890625,0.3142075538635254,0.1242513656616211,-0.17859411239624023
1701864828004524800,11.17952490234375,0.3533492088317871,-0.0423731803894043,-0.1495499610900879
1701864828014116400,11.189116455078125,0.07541131973266602,0.0003180503845214844,-0.09195470809936523
1701864828023709200,11.198709228515625,0.11714792251586914,-0.00562286376953125,-0.18252325057983398
1701864828033302500,11.208302490234376,0.07022666931152344,-0.0029010772705078125,-0.21205615997314453
1701864828042895000,11.21789501953125,0.03654003143310547,-0.1140432357788086,-0.08344268798828125
1701864828052486700,11.227486572265626,0.05382251739501953,-0.24312973022460938,-0.07225942611694336
1701864828062079500,11.23707958984375,-0.056565284729003906,-0.0821695327758789,-0.1478567123413086
1701864828071672800,11.2466728515625,0.12878131866455078,-0.01044607162475586,-0.19613075256347656
1701864828081265400,11.256265380859375,0.09354019165039062,0.01920604705810547,-0.31606197357177734
1701864828090857200,11.265857177734375,0.015279769897460938,0.0029768943786621094,-0.21924591064453125
1701864828100449800,11.27544970703125,0.030009746551513672,0.09112548828125,-0.29552602767944336
1701864828110043100,11.285043212890624,0.033084869384765625,-0.3298325538635254,-0.08207941055297852
1701864828119635700,11.2946357421875,-0.18666648864746094,-0.2754964828491211,-0.010241985321044922
1701864828129227500,11.3042275390625,-0.12922382354736328,-0.3494734764099121,0.01123952865600586
1701864828138820000,11.313820068359375,-0.1454763412475586,-0.4154243469238281,0.03236722946166992
1701864828148413400,11.323413330078125,-0.08630084991455078,-0.3596644401550293,-0.045500755310058594
1701864828158006000,11.333006103515626,-0.044823646545410156,-0.3294243812561035,-0.0623631477355957
1701864828167597800,11.342597900390626,-0.057238101959228516,-0.06905651092529297,-0.17253398895263672
1701864828177190400,11.3521904296875,-0.10109758377075195,0.3410825729370117,-0.31177663803100586
1701864828186783700,11.36178369140625,0.06404352188110352,0.6706728935241699,-0.547605037689209
1701864828196376300,11.371376220703125,0.07930326461791992,0.7514190673828125,-0.584162712097168
1701864828205968100,11.380968017578125,0.01506185531616211,0.4587264060974121,-0.358309268951416
1701864828215560700,11.390560791015625,-0.12823486328125,-0.17017555236816406,0.05705976486206055
1701864828225154000,11.400154052734376,-0.20412492752075195,-0.4553642272949219,0.17177867889404297
1701864828234746600,11.40974658203125,-0.2620120048522949,-0.6309876441955566,0.4065089225769043
1701864828244338400,11.41933837890625,-0.2284846305847168,-0.9647736549377441,0.7296876907348633
1701864828253931000,11.428930908203125,-0.02918386459350586,-1.0073776245117188,0.6640572547912598
1701864828263524400,11.4385244140625,0.34979677200317383,-0.9347290992736816,0.37424802780151367
1701864828273117000,11.448116943359375,0.4909977912902832,-0.7906317710876465,0.10657215118408203
1701864828282708700,11.457708740234375,0.3462557792663574,-0.7637019157409668,0.06858253479003906
1701864828292301300,11.46730126953125,0.18445920944213867,-0.7415080070495605,-0.09395599365234375
1701864828301894700,11.476894775390624,-0.08022737503051758,-0.724097728729248,-1.0870084762573242
1701864828311487200,11.4864873046875,0.6269454956054688,-0.9212303161621094,0.250518798828125
1701864828321079000,11.4960791015625,0.21133899688720703,-0.9903650283813477,0.5970897674560547
1701864828330671600,11.505671630859375,0.3494729995727539,-1.1629490852355957,0.6089568138122559
1701864828340265000,11.515264892578125,0.22827672958374023,-1.1693711280822754,0.47301387786865234
1701864828349857500,11.524857421875,0.14895963668823242,-0.7135400772094727,0.6312646865844727
1701864828359449300,11.534449462890626,-0.7974271774291992,-2.1361474990844727,-0.16436243057250977
1701864828369042000,11.5440419921875,0.05394792556762695,-3.460681915283203,-1.9007740020751953
1701864828378635300,11.55363525390625,1.174619197845459,-2.466254234313965,-0.989314079284668
1701864828388227800,11.563227783203125,0.667788028717041,-2.717082977294922,-0.45268917083740234
1701864828397819600,11.572819580078125,0.7757072448730469,-2.406780242919922,-0.20510005950927734
1701864828407412200,11.582412109375,1.219505786895752,-1.364182472229004,0.3766183853149414
1701864828417005600,11.592005615234376,0.851377010345459,-1.4959907531738281,0.7709412574768066
1701864828426598100,11.60159814453125,-0.49078941345214844,-2.740255832672119,0.5460419654846191
1701864828436190000,11.61118994140625,-2.052766799926758,-3.4429988861083984,-2.5631072521209717
1701864828445782500,11.620782470703125,-2.935795307159424,-3.906548023223877,2.166992664337158
1701864828455376000,11.6303759765625,-0.7447357177734375,-3.683462619781494,2.935875415802002
1701864828464968400,11.639968505859375,-1.5024127960205078,-1.9651103019714355,2.6962814331054688
1701864828474560300,11.649560302734375,-0.8733725547790527,-2.770491123199463,2.0396928787231445
1701864828484152800,11.65915283203125,-2.3064961433410645,-2.456766128540039,0.8268861770629883
1701864828493746200,11.66874609375,-3.8512115478515625,-1.509469985961914,0.44171142578125
1701864828503338800,11.6783388671875,-3.0582356452941895,-1.4421930313110352,0.22577619552612305
1701864828512930600,11.6879306640625,-2.4633090496063232,-2.2297258377075195,0.872647762298584
1701864828522523100,11.697523193359375,-3.3957481384277344,-1.8626618385314941,1.233673095703125
1701864828532116500,11.707116455078125,-3.626513957977295,-1.0918073654174805,1.2593445777893066
1701864828541709000,11.716708984375,-5.7183003425598145,-1.0224695205688477,1.491405963897705
1701864828551300900,11.72630078125,-5.645816802978516,-0.16997814178466797,1.7015395164489746
1701864828560893400,11.7358935546875,-5.414607048034668,-0.2813892364501953,2.3164353370666504
1701864828570486800,11.74548681640625,-7.01263952255249,-0.8552236557006836,3.5836639404296875
1701864828580079400,11.755079345703125,-11.1371488571167,0.36616086959838867,3.9110755920410156
1701864828589671200,11.764671142578125,-5.831404685974121,2.2426815032958984,3.827714443206787
1701864828599263700,11.774263671875,-3.468937873840332,3.1606295108795166,3.053372383117676
1701864828608857000,11.783857177734374,-3.391103744506836,2.9343442916870117,3.2034053802490234
1701864828618449700,11.79344970703125,-4.29321813583374,2.867025852203369,3.6735920906066895
1701864828628041500,11.80304150390625,-5.254670143127441,2.2470927238464355,3.994473934173584
1701864828637634000,11.812634033203125,-5.471258640289307,1.6875152587890625,3.8777217864990234
1701864828647227400,11.822227294921875,-5.400153160095215,1.52083158493042,3.1518611907958984
1701864828656820000,11.831820068359375,-4.938724994659424,1.6867048740386963,2.077991485595703
1701864828666411800,11.841411865234376,-3.8870763778686523,1.738828182220459,1.5195531845092773
1701864828676004400,11.85100439453125,-2.9986512660980225,1.9339447021484375,0.5036792755126953
1701864828685597700,11.86059765625,-2.757662057876587,0.6964266300201416,0.9143543243408203
1701864828695190300,11.870190185546875,-2.4843709468841553,-0.5666511058807373,0.37520313262939453
1701864828704782000,11.879781982421875,-1.2956980466842651,-1.2611126899719238,-1.155808925628662
1701864828714374700,11.889374755859375,-0.7939395904541016,-0.9725205898284912,-2.634873867034912
1701864828723968000,11.898968017578126,-0.8003964424133301,-0.990056037902832,-3.1902008056640625
1701864828733560600,11.908560546875,-0.6632554531097412,-1.7950587272644043,-2.6481404304504395
1701864828743152400,11.91815234375,-0.7700331211090088,-2.5628559589385986,-2.349374771118164
1701864828752745000,11.927744873046874,-1.0053250789642334,-2.886341094970703,-2.011746406555176
1701864828762338300,11.93733837890625,-1.4079389572143555,-3.2736387252807617,-1.967881679534912
1701864828771931000,11.946930908203125,-1.2628445625305176,-3.650297164916992,-2.114640235900879
1701864828781522700,11.956522705078125,-0.61083984375,-3.521036148071289,-2.667285919189453
1701864828791115300,11.966115234375,-0.29929542541503906,-3.204829454421997,-3.524186611175537
