time,seconds_elapsed,z,y,x
1697638489767827500,0.158827392578125,0,0,0
1697638489777420800,0.1684208984375,0,0,0
1697638489787013400,0.178013427734375,0.10823917388916016,-0.25193214416503906,0.10344743728637695
1697638489796606700,0.187606689453125,-0.264984130859375,-0.40157485008239746,0.166473388671875
1697638489806201000,0.197201171875,-0.5369873046875,-0.4073479175567627,0.26949357986450195
1697638489815794200,0.206794189453125,-0.9130287170410156,-0.38480138778686523,-0.45990657806396484
1697638489825387000,0.216386962890625,-0.6550312042236328,-0.4754786491394043,-0.7348356246948242
1697638489834980400,0.22598046875,-0.6772022247314453,-0.49640345573425293,-0.43437719345092773
1697638489844574500,0.235574462890625,-1.313359260559082,-0.630450963973999,-0.29816150665283203
1697638489854167800,0.245167724609375,-2.4142417907714844,-0.5770375728607178,0.18155574798583984
1697638489863760400,0.254760498046875,-2.9404091835021973,-0.3007819652557373,0.42638111114501953
1697638489873353700,0.264353759765625,-1.2970633506774902,0.28103137016296387,-1.2805891036987305
1697638489882947800,0.27394775390625,0.09693050384521484,0.8174982070922852,-2.2376928329467773
1697638489892541200,0.283541259765625,-0.07188224792480469,1.1097912788391113,-2.197296380996704
1697638489902133800,0.2931337890625,-1.5472064018249512,0.48142409324645996,-1.1089816093444824
1697638489911727000,0.30272705078125,-1.676760196685791,0.632225751876831,-0.46213197708129883
1697638489921321200,0.3123212890625,-1.828242301940918,0.18810701370239258,0.207366943359375
1697638489930914600,0.32191455078125,-2.0571160316467285,0.2941162586212158,0.009640693664550781
1697638489940507100,0.331507080078125,-1.8089580535888672,0.8985354900360107,-0.18198537826538086
1697638489950100500,0.3411005859375,-0.9882593154907227,1.3167364597320557,-0.8614413738250732
1697638489959694800,0.35069482421875,-0.3157534599304199,1.2127227783203125,-0.9520390033721924
1697638489969288000,0.360287841796875,-0.1599597930908203,0.45531797409057617,-0.015804767608642578
1697638489978880800,0.369880859375,0.1155996322631836,0.20987176895141602,0.5812649726867676
1697638489988473900,0.379473876953125,0.5008125305175781,0.3661496639251709,0.7194576263427734
1697638489998068200,0.389068115234375,0.34299373626708984,0.4515261650085449,0.9258356094360352
1697638490007661600,0.39866162109375,-0.1445779800415039,0.5053212642669678,1.0077695846557617
1697638490017254100,0.408254150390625,-0.5563454627990723,0.4503746032714844,0.9205946922302246
1697638490026847500,0.417847412109375,-1.009829044342041,0.1744401454925537,0.7600595951080322
1697638490036441600,0.427441650390625,-0.8914408683776855,0.22473645210266113,0.3406088352203369
1697638490046035000,0.437034912109375,-0.560523509979248,0.2724127769470215,-0.6288723945617676
1697638490055627500,0.44662744140625,-0.534050464630127,0.09229207038879395,-0.9613823890686035
1697638490065220900,0.456220947265625,-0.04937934875488281,0.27278852462768555,-0.4963386058807373
1697638490074815000,0.46581494140625,0.7674827575683594,0.2535693645477295,-0.26944422721862793
1697638490084408300,0.475408203125,1.264918327331543,-0.03548479080200195,0.18938255310058594
1697638490094001000,0.4850009765625,1.356236457824707,0.18358087539672852,1.9598984718322754
1697638490103594500,0.494594482421875,1.325566291809082,-0.06592535972595215,2.141484022140503
1697638490113188600,0.504188720703125,1.3216629028320312,-0.2800726890563965,1.7478904724121094
1697638490122782000,0.513781982421875,1.0332679748535156,-0.162001371383667,1.3427700996398926
1697638490132374300,0.523374267578125,0.3080892562866211,0.11310243606567383,0.827812910079956
1697638490141968000,0.5329677734375,-0.45749759674072266,0.16175198554992676,0.6012465953826904
1697638490151562000,0.54256201171875,-0.5200462341308594,0.08049392700195312,0.48940348625183105
1697638490161155300,0.5521552734375,-0.3820829391479492,0.12665605545043945,0.34277939796447754
1697638490170748000,0.561747802734375,-0.4235515594482422,0.2679262161254883,0.20091986656188965
1697638490180341200,0.57134130859375,-0.2334136962890625,0.2945847511291504,0.1419050693511963
1697638490189935400,0.580935302734375,0.06657695770263672,0.3232998847961426,0.23573970794677734
1697638490199528700,0.59052880859375,0.3256568908691406,0.4378957748413086,0.4560692310333252
1697638490209121300,0.600121337890625,0.3309059143066406,0.5300488471984863,0.6283488273620605
1697638490218714600,0.609714599609375,0.1575908660888672,0.5855145454406738,0.7515802383422852
1697638490228309000,0.61930908203125,-0.10028648376464844,0.6146383285522461,0.672393798828125
1697638490237902000,0.628902099609375,-0.3766012191772461,0.5978050231933594,0.43400025367736816
1697638490247494700,0.63849462890625,-0.6261582374572754,0.538975715637207,0.09166288375854492
1697638490257088000,0.648087890625,-0.820338249206543,0.48780345916748047,-0.19988751411437988
1697638490266682400,0.657682373046875,-0.946800708770752,0.4240446090698242,-0.3994917869567871
1697638490276275700,0.667275634765625,-0.8579216003417969,0.3017001152038574,-0.5421078205108643
1697638490285868300,0.676868408203125,-0.6116118431091309,0.16166973114013672,-0.6429028511047363
1697638490295461600,0.686461669921875,-0.3392324447631836,-0.0011920928955078125,-0.8889055252075195
1697638490305055700,0.6960556640625,-0.18249893188476562,-0.14339494705200195,-1.2426226139068604
1697638490314649000,0.705649169921875,-0.1539468765258789,-0.21051883697509766,-1.4599409103393555
1697638490324241700,0.71524169921875,-0.13861751556396484,-0.25179004669189453,-1.7289258241653442
1697638490333835000,0.7248349609375,-0.04623222351074219,-0.2708249092102051,-1.9807342290878296
1697638490343429000,0.73442919921875,0.0825052261352539,-0.23882246017456055,-2.0931344032287598
1697638490353022500,0.7440224609375,0.12863636016845703,-0.25234270095825195,-2.102530002593994
1697638490362615000,0.753614990234375,0.1694965362548828,-0.26609373092651367,-1.9961258172988892
1697638490372208400,0.76320849609375,0.10505962371826172,-0.25771045684814453,-1.8140581846237183
1697638490381802500,0.772802490234375,-0.21970748901367188,-0.23592090606689453,-1.6603609323501587
1697638490391395800,0.782395751953125,-0.4854011535644531,-0.16931915283203125,-1.5452680587768555
1697638490400988700,0.79198876953125,-0.5085301399230957,-0.12269401550292969,-1.33095383644104
1697638490410582000,0.80158203125,-0.39803123474121094,-0.18583917617797852,-0.7798659801483154
1697638490420176100,0.811176025390625,-0.35603904724121094,-0.33027076721191406,-0.051625967025756836
1697638490429769500,0.82076953125,-0.30101966857910156,-0.4409651756286621,0.5288577079772949
1697638490439362000,0.830362060546875,-0.37932252883911133,-0.458798885345459,1.0918118953704834
1697638490448955400,0.839955322265625,-0.7957472801208496,-0.47480010986328125,1.4454841613769531
1697638490458549500,0.849549560546875,-1.5853114128112793,-0.4937248229980469,1.3266048431396484
1697638490468142800,0.859142822265625,-2.3724493980407715,-0.3933553695678711,0.7047548294067383
1697638490477735400,0.8687353515625,-3.0921759605407715,-0.2821769714355469,-0.00014543533325195312
1697638490487328800,0.878328857421875,-3.3651680946350098,-0.24069452285766602,-0.6616926193237305
1697638490496923000,0.8879228515625,-2.8844380378723145,-0.05726814270019531,-1.2638300657272339
1697638490506516200,0.89751611328125,-2.075944423675537,0.13965654373168945,-1.619195580482483
1697638490516108800,0.90710888671875,-1.1771588325500488,0.24900484085083008,-1.770712971687317
1697638490525702400,0.916702392578125,-0.21059656143188477,0.31482410430908203,-1.763137936592102
1697638490535296500,0.926296630859375,0.3929309844970703,0.3967318534851074,-1.5509506464004517
1697638490544889900,0.935889892578125,0.5454244613647461,0.4068894386291504,-1.2800720930099487
1697638490554482400,0.945482421875,0.3927927017211914,0.39824819564819336,-1.012715220451355
1697638490564075800,0.95507568359375,0.05698394775390625,0.3958406448364258,-0.8119579553604126
1697638490573670000,0.964669921875,-0.3397707939147949,0.3699049949645996,-0.47078633308410645
1697638490583263200,0.97426318359375,-0.6577949523925781,0.333345890045166,-0.022954463958740234
1697638490592855800,0.983855712890625,-0.8816380500793457,0.29350948333740234,0.3253352642059326
1697638490602449200,0.99344921875,-0.9192099571228027,0.30394458770751953,0.5652437210083008
1697638490612043300,1.003043212890625,-0.7164297103881836,0.30924415588378906,0.7289278507232666
1697638490621636600,1.01263671875,-0.4414215087890625,0.2694559097290039,0.8794043064117432
1697638490631229200,1.022229248046875,-0.0871882438659668,0.11392736434936523,1.059363603591919
1697638490640822500,1.031822509765625,0.340057373046875,-0.0026454925537109375,1.0387294292449951
1697638490650417000,1.0414169921875,0.6855287551879883,-0.0957179069519043,0.9796934127807617
1697638490660010000,1.051010009765625,0.928375244140625,-0.17531633377075195,0.9551212787628174
1697638490669602600,1.0606025390625,1.0430488586425781,-0.2460951805114746,0.9514374732971191
1697638490679196000,1.07019580078125,0.7898445129394531,-0.29833078384399414,0.9640746116638184
1697638490688790300,1.079790283203125,0.26873779296875,-0.2633390426635742,0.9227714538574219
1697638490698383600,1.089383544921875,-0.4246664047241211,-0.13587188720703125,0.8721716403961182
1697638490707976200,1.09897607421875,-1.063723087310791,-0.021690845489501953,0.7981934547424316
1697638490717569500,1.108569580078125,-1.5822515487670898,0.10859966278076172,0.6464788913726807
1697638490727163600,1.11816357421875,-1.8903965950012207,0.2016124725341797,0.542227029800415
1697638490736757000,1.127757080078125,-2.0236496925354004,0.28366756439208984,0.3906705379486084
1697638490746349600,1.137349609375,-1.8879814147949219,0.3656597137451172,0.355133056640625
1697638490755943000,1.14694287109375,-1.702803611755371,0.44146299362182617,0.23438286781311035
1697638490765537000,1.156537109375,-1.4695100784301758,0.521726131439209,0.11562347412109375
1697638490775130400,1.16613037109375,-1.207962989807129,0.623354434967041,0.168290376663208
1697638490784723000,1.175722900390625,-0.9808506965637207,0.7606120109558105,0.24585318565368652
1697638490794316300,1.18531640625,-0.774559497833252,0.8365182876586914,0.28375768661499023
1697638490803910700,1.19491064453125,-0.6960926055908203,0.8670368194580078,0.2756643295288086
1697638490813504000,1.20450390625,-0.6450920104980469,0.9142217636108398,0.25668764114379883
1697638490823096600,1.2140966796875,-0.7159833908081055,0.9340720176696777,0.1310434341430664
1697638490832690000,1.22368994140625,-1.0301284790039062,0.9677691459655762,0.20340704917907715
1697638490842284000,1.233283935546875,-1.2804489135742188,1.0036320686340332,0.7627835273742676
1697638490851877400,1.24287744140625,-1.4691658020019531,1.0382652282714844,1.257131576538086
1697638490861470000,1.252469970703125,-1.3230624198913574,1.0202465057373047,1.3741297721862793
1697638490871063300,1.262063232421875,-1.04172945022583,0.9220590591430664,1.1522083282470703
1697638490880657400,1.271657470703125,-0.7400503158569336,0.7651562690734863,0.7218647003173828
1697638490890250800,1.281250732421875,-0.4341144561767578,0.6078929901123047,0.3680133819580078
1697638490899843300,1.29084326171875,-0.1115884780883789,0.47675466537475586,0.22800493240356445
1697638490909436700,1.300436767578125,0.08692026138305664,0.3838496208190918,0.10967588424682617
1697638490919030800,1.31003076171875,0.2322831153869629,0.2867107391357422,0.06848478317260742
1697638490928624000,1.3196240234375,0.37574005126953125,0.2196059226989746,-0.021366596221923828
1697638490938216700,1.329216796875,0.40167856216430664,0.19212770462036133,-0.10637950897216797
1697638490947810300,1.338810302734375,0.40465402603149414,0.1687946319580078,-0.23217487335205078
1697638490957404400,1.348404296875,0.46129751205444336,0.1282048225402832,-0.40230512619018555
1697638490966997800,1.357997802734375,0.39014482498168945,0.09528255462646484,-0.42748260498046875
1697638490976590300,1.36759033203125,0.08383464813232422,0.08428573608398438,-0.37883710861206055
1697638490986183700,1.37718359375,-0.1442394256591797,0.07292413711547852,-0.40761375427246094
1697638490995777800,1.38677783203125,-0.3473691940307617,0.1668405532836914,-0.44257402420043945
1697638491005371100,1.39637109375,-0.4778709411621094,0.27322912216186523,-0.4517478942871094
1697638491014963700,1.405963623046875,-0.4253668785095215,0.40255260467529297,-0.4033823013305664
1697638491024557000,1.41555712890625,-0.1553349494934082,0.49059152603149414,-0.24277782440185547
1697638491034151200,1.425151123046875,-0.014714717864990234,0.48520374298095703,-0.09421873092651367
1697638491043744500,1.43474462890625,-0.05738973617553711,0.4932098388671875,-0.011109352111816406
1697638491053337000,1.444337158203125,-0.08704710006713867,0.48367786407470703,-0.03833723068237305
1697638491062930400,1.453930419921875,-0.18048763275146484,0.46956396102905273,-0.18213748931884766
1697638491072524800,1.46352490234375,-0.21173477172851562,0.43287086486816406,-0.3445320129394531
1697638491082118100,1.4731181640625,-0.1933455467224121,0.3932218551635742,-0.4708437919616699
1697638491091710700,1.482710693359375,-0.144256591796875,0.3460044860839844,-0.5455169677734375
1697638491101304000,1.492303955078125,-0.13101530075073242,0.35051631927490234,-0.5073041915893555
1697638491110898200,1.501898193359375,-0.20570993423461914,0.3681025505065918,-0.39945125579833984
1697638491120491500,1.511491455078125,-0.30597448348999023,0.33730125427246094,-0.27983713150024414
1697638491130084000,1.521083984375,-0.4536857604980469,0.3278169631958008,-0.20260143280029297
1697638491139677400,1.530677490234375,-0.559044361114502,0.2941722869873047,-0.15401744842529297
1697638491149271600,1.540271484375,-0.5676665306091309,0.3055081367492676,-0.18382644653320312
1697638491158865000,1.549864990234375,-0.5608854293823242,0.35940027236938477,-0.2539710998535156
1697638491168457500,1.55945751953125,-0.44942712783813477,0.3886280059814453,-0.3113589286804199
1697638491178050800,1.56905078125,-0.31290578842163086,0.37786149978637695,-0.29848814010620117
1697638491187645200,1.578645263671875,-0.21186304092407227,0.3550252914428711,-0.1982417106628418
1697638491197238300,1.58823828125,-0.10990619659423828,0.3625669479370117,-0.04956817626953125
1697638491206830800,1.597830810546875,-0.15521240234375,0.3666048049926758,0.13695573806762695
1697638491216424200,1.607424072265625,-0.23293638229370117,0.3440089225769043,0.2467789649963379
1697638491226018600,1.6170185546875,-0.37969255447387695,0.3393235206604004,0.31159067153930664
1697638491235612000,1.62661181640625,-0.6171331405639648,0.3251986503601074,0.31783008575439453
1697638491245204500,1.63620458984375,-0.8894515037536621,0.29353904724121094,0.31201601028442383
1697638491254797800,1.6457978515625,-1.0974726676940918,0.28635120391845703,0.3202548027038574
1697638491264392000,1.655391845703125,-1.2011933326721191,0.26656389236450195,0.30087804794311523
1697638491273985300,1.6649853515625,-1.0934090614318848,0.18158721923828125,0.1884465217590332
1697638491283577900,1.674577880859375,-0.7935528755187988,0.0750274658203125,-0.00834798812866211
1697638491293171200,1.684171142578125,-0.4327268600463867,-0.008944511413574219,-0.2225794792175293
1697638491302765300,1.693765380859375,-0.15864086151123047,-0.1159358024597168,-0.3819856643676758
1697638491312358700,1.703358642578125,-0.04404592514038086,-0.20287370681762695,-0.6205427646636963
1697638491321951200,1.712951171875,-0.10994577407836914,-0.25623273849487305,-0.862746000289917
1697638491331544600,1.722544677734375,-0.39035940170288086,-0.3159370422363281,-0.9196572303771973
1697638491341139000,1.732138916015625,-0.7994985580444336,-0.3240647315979004,-0.9531030654907227
1697638491350732000,1.74173193359375,-1.1969075202941895,-0.3309335708618164,-1.0824406147003174
1697638491360324900,1.751324951171875,-1.6170573234558105,-0.3458099365234375,-1.1861209869384766
1697638491369918200,1.760918212890625,-1.9839105606079102,-0.37100744247436523,-1.1501402854919434
1697638491379512300,1.77051220703125,-2.102752208709717,-0.4174795150756836,-0.8884463310241699
1697638491389105700,1.780105712890625,-1.9248137474060059,-0.49666690826416016,-0.571256160736084
1697638491398698200,1.7896982421875,-1.6773300170898438,-0.5585751533508301,0.01884746551513672
1697638491408291600,1.79929150390625,-1.6813054084777832,-0.572014331817627,0.3242769241333008
1697638491417885700,1.8088857421875,-1.6793403625488281,-0.5870523452758789,0.2915959358215332
1697638491427479000,1.81847900390625,-1.6879925727844238,-0.5811314582824707,0.0907745361328125
1697638491437071600,1.828071533203125,-1.732800006866455,-0.4947538375854492,-0.02552509307861328
1697638491446665000,1.8376650390625,-1.7294631004333496,-0.3962540626525879,0.0045948028564453125
1697638491456259300,1.84725927734375,-1.6028022766113281,-0.31927919387817383,0.07158041000366211
1697638491465852400,1.856852294921875,-1.3460807800292969,-0.2601804733276367,0.1924128532409668
1697638491475445200,1.8664453125,-0.9653105735778809,-0.2091526985168457,0.33542537689208984
1697638491485038300,1.876038330078125,-0.5444183349609375,-0.12813186645507812,0.41871118545532227
1697638491494632700,1.8856328125,-0.17962884902954102,-0.009690284729003906,0.5780773162841797
1697638491504226000,1.89522607421875,0.22940349578857422,0.1313939094543457,0.8030552864074707
1697638491513818600,1.904818603515625,0.730809211730957,0.2088003158569336,1.0158777236938477
1697638491523412000,1.914411865234375,1.1265716552734375,0.2895827293395996,1.106187343597412
1697638491533006000,1.924006103515625,1.404881477355957,0.37529516220092773,1.0635643005371094
1697638491542599400,1.933599365234375,1.6271781921386719,0.38945627212524414,0.9994063377380371
1697638491552192000,1.94319189453125,1.7118949890136719,0.3562436103820801,0.8817338943481445
1697638491561785300,1.952785400390625,1.583099365234375,0.3840928077697754,0.7801265716552734
1697638491571379500,1.96237939453125,1.3499794006347656,0.45339012145996094,0.6753754615783691
1697638491580972800,1.971972900390625,1.1516146659851074,0.5041885375976562,0.5627312660217285
1697638491590565400,1.9815654296875,0.9214410781860352,0.5682377815246582,0.37719202041625977
1697638491600158700,1.99115869140625,0.9211568832397461,0.6320767402648926,0.26853322982788086
1697638491609753000,2.000753173828125,1.0381650924682617,0.6933259963989258,0.4641709327697754
1697638491619346200,2.01034619140625,1.0782313346862793,0.7215232849121094,0.7485284805297852
1697638491628938800,2.019938720703125,1.1275572776794434,0.6845955848693848,1.1014595031738281
1697638491638532400,2.029532470703125,1.1870899200439453,0.5410761833190918,1.557027816772461
1697638491648126500,2.03912646484375,1.1641359329223633,0.32825469970703125,1.957125186920166
1697638491657719800,2.0487197265625,1.158496379852295,0.028896331787109375,2.175581455230713
1697638491667312400,2.0583125,1.048316478729248,-0.27167224884033203,2.164337635040283
1697638491676905700,2.06790576171875,0.9456419944763184,-0.5151839256286621,1.9183850288391113
1697638491686499800,2.077499755859375,0.7637238502502441,-0.6643385887145996,1.5159192085266113
1697638491696093200,2.08709326171875,0.5933961868286133,-0.6896591186523438,1.049100399017334
1697638491705685800,2.096685791015625,0.6858248710632324,-0.6981959342956543,0.8546814918518066
1697638491715279000,2.106279052734375,1.1456079483032227,-0.6922521591186523,0.9609246253967285
1697638491724873200,2.115873291015625,1.8312053680419922,-0.6518697738647461,1.1449322700500488
1697638491734466600,2.125466552734375,2.4403748512268066,-0.621849536895752,1.2322731018066406
1697638491744059100,2.13505908203125,2.8142647743225098,-0.6175007820129395,0.9761371612548828
1697638491753652500,2.144652587890625,2.7389440536499023,-0.6344246864318848,0.613001823425293
1697638491763246800,2.154246826171875,2.248539447784424,-0.6139850616455078,0.30579662322998047
1697638491772840000,2.16383984375,1.7746162414550781,-0.6223549842834473,0.11739873886108398
1697638491782432500,2.1734326171875,1.3245019912719727,-0.5980587005615234,-0.11668729782104492
1697638491792025900,2.18302587890625,1.0542469024658203,-0.590792179107666,-0.3050060272216797
1697638491801620200,2.1926201171875,0.8837437629699707,-0.5429911613464355,-0.721245288848877
1697638491811213600,2.202213623046875,0.7523331642150879,-0.43151235580444336,-1.041395664215088
1697638491820806000,2.211805908203125,0.728905200958252,-0.272186279296875,-1.3338127136230469
1697638491830399500,2.2213994140625,0.7079987525939941,-0.06441211700439453,-1.4971590042114258
1697638491839993600,2.23099365234375,0.7369399070739746,0.17598390579223633,-1.5618152618408203
1697638491849587000,2.2405869140625,0.7718625068664551,0.442349910736084,-1.5525555610656738
1697638491859179500,2.250179443359375,0.774266242980957,0.6654195785522461,-1.5196194648742676
1697638491868772900,2.25977294921875,0.8900237083435059,0.834742546081543,-1.3505244255065918
1697638491878367000,2.269366943359375,0.9857068061828613,0.9285030364990234,-1.1362638473510742
1697638491887960300,2.278960205078125,1.0268898010253906,0.930513858795166,-0.8423399925231934
1697638491897553000,2.288552978515625,0.9851517677307129,0.8843722343444824,-0.5595893859863281
1697638491907146200,2.298146240234375,0.8508000373840332,0.7909889221191406,-0.2712545394897461
1697638491916740400,2.307740234375,0.626798152923584,0.694359302520752,0.019243717193603516
1697638491926333700,2.317333740234375,0.5368642807006836,0.578132152557373,0.2478013038635254
1697638491935926300,2.32692626953125,0.4858055114746094,0.44919729232788086,0.36878061294555664
1697638491945519600,2.33651953125,0.5650906562805176,0.31943655014038086,0.2147836685180664
1697638491955113700,2.34611376953125,0.7155084609985352,0.18920373916625977,-0.18790912628173828
1697638491964707000,2.35570703125,0.8793816566467285,0.05132007598876953,-0.6281843185424805
1697638491974299600,2.365299560546875,0.9436383247375488,-0.08058547973632812,-0.9017109870910645
1697638491983893000,2.37489306640625,0.9259471893310547,-0.1616344451904297,-1.1239466667175293
1697638491993487000,2.384487060546875,1.01285982131958,-0.2091507911682129,-1.3929119110107422
1697638492003080400,2.39408056640625,1.0859770774841309,-0.2541952133178711,-1.571556568145752
1697638492012673000,2.403673095703125,1.0851893424987793,-0.2704648971557617,-1.6097335815429688
1697638492022266600,2.4132666015625,1.103445053100586,-0.24604034423828125,-1.6055269241333008
1697638492031860700,2.42286083984375,0.984677791595459,-0.20196914672851562,-1.5680198669433594
1697638492041453800,2.432453857421875,0.659766674041748,-0.11303329467773438,-1.4024944305419922
1697638492051046400,2.44204638671875,0.25382423400878906,-0.05853700637817383,-1.2304410934448242
1697638492060640000,2.451639892578125,-0.18240928649902344,0.02324199676513672,-1.0991129875183105
1697638492070234000,2.461234130859375,-0.5254130363464355,0.10350894927978516,-1.0478405952453613
1697638492079827200,2.4708271484375,-0.7430939674377441,0.10421943664550781,-0.9781904220581055
1697638492089420000,2.480419921875,-0.7422318458557129,-0.01557779312133789,-0.5856552124023438
1697638492099013400,2.490013427734375,-0.08325529098510742,-0.17683029174804688,0.9217343330383301
1697638492108607500,2.499607421875,-0.06186532974243164,-0.08727264404296875,-1.510218620300293
1697638492118200800,2.509200927734375,-0.3328104019165039,0.3169584274291992,-1.612624168395996
1697638492127793400,2.51879345703125,0.3899345397949219,0.31491756439208984,-1.3507018089294434
1697638492137386800,2.52838671875,0.5953092575073242,0.16431713104248047,-1.4999761581420898
1697638492146980900,2.53798095703125,0.5838131904602051,0.29886388778686523,-1.44089937210083
1697638492156574200,2.54757421875,0.7115688323974609,0.2881460189819336,-1.2052788734436035
1697638492166166800,2.557166748046875,0.5225944519042969,0.2278590202331543,-1.034390926361084
1697638492175760100,2.566760009765625,0.32187747955322266,0.2531604766845703,-1.0468101501464844
1697638492185354200,2.576354248046875,0.30153751373291016,0.2126603126525879,-1.1608924865722656
1697638492194947600,2.585947509765625,0.28205013275146484,0.11421060562133789,-1.20725679397583
1697638492204540200,2.5955400390625,0.2890334129333496,-0.09062385559082031,-1.048804759979248
1697638492214133500,2.605133544921875,0.4198322296142578,-0.3454556465148926,-1.0259900093078613
1697638492223727600,2.6147275390625,0.579561710357666,-0.48118066787719727,-1.2128725051879883
1697638492233321000,2.624321044921875,0.589080810546875,-0.6503000259399414,-1.4348440170288086
1697638492242913500,2.63391357421875,0.5426883697509766,-0.768557071685791,-1.564185619354248
1697638492252507000,2.6435068359375,0.43575525283813477,-0.7864441871643066,-1.650956153869629
1697638492262101000,2.65310107421875,0.34038400650024414,-0.8383033275604248,-1.5975284576416016
1697638492271694300,2.6626943359375,0.20777606964111328,-0.9077420234680176,-1.371955394744873
1697638492281287000,2.672286865234375,0.052965641021728516,-0.8256464004516602,-1.2685112953186035
1697638492290880300,2.68188037109375,-0.10161972045898438,-0.7289524078369141,-1.19175386428833
1697638492300474400,2.691474365234375,-0.21099138259887695,-0.6082210540771484,-1.117074966430664
1697638492310067700,2.701067626953125,-0.16957378387451172,-0.4994931221008301,-1.0305418968200684
1697638492319660300,2.710660400390625,-0.2061753273010254,-0.42975330352783203,-0.8702683448791504
1697638492329253600,2.720253662109375,-0.35243892669677734,-0.4132814407348633,-0.6739163398742676
1697638492338847700,2.72984765625,-0.4310722351074219,-0.4613795280456543,-0.4572005271911621
1697638492348441000,2.739441162109375,-0.3415560722351074,-0.3624119758605957,-0.34937286376953125
1697638492358033700,2.74903369140625,-0.2238006591796875,-0.34151363372802734,-0.3086090087890625
1697638492367627000,2.758626953125,-0.17207670211791992,-0.3213539123535156,-0.4159364700317383
1697638492377221000,2.76822119140625,0.08846378326416016,-0.22238779067993164,-0.3906402587890625
1697638492386814500,2.777814453125,0.2628450393676758,-0.09585094451904297,-0.6027612686157227
1697638492396407000,2.787406982421875,0.2800459861755371,0.0013079643249511719,-1.0139589309692383
1697638492406000400,2.79700048828125,-0.025248050689697266,0.10730504989624023,-1.6924667358398438
1697638492415594500,2.806594482421875,-0.6048259735107422,0.40340375900268555,-2.3864054679870605
1697638492425187800,2.816187744140625,-0.8420910835266113,0.7594561576843262,-2.5375380516052246
1697638492434780200,2.8257802734375,-1.2371771335601807,0.1605548858642578,-0.5774283409118652
1697638492444373500,2.83537353515625,-0.5848488807678223,0.6964268684387207,0.0469355583190918
1697638492453968000,2.8449677734375,0.043731689453125,1.1107535362243652,0.26055049896240234
1697638492463561200,2.854561279296875,0.6559286117553711,1.0651860237121582,-0.15873384475708008
1697638492473153800,2.86415380859375,1.6478824615478516,1.1001338958740234,-0.804110050201416
1697638492482747000,2.873746826171875,2.245072841644287,1.1361908912658691,-1.2884230613708496
1697638492492341200,2.88334130859375,2.560148239135742,1.3436832427978516,-1.445054054260254
1697638492501934300,2.892934326171875,3.045699119567871,1.7181005477905273,-1.1173491477966309
1697638492511527000,2.90252685546875,3.807737350463867,2.028372287750244,-0.5461716651916504
1697638492521120300,2.912120361328125,4.5777058601379395,2.0081257820129395,0.18098020553588867
1697638492530714600,2.921714599609375,2.8462047576904297,1.6557230949401855,1.53871488571167
1697638492540307700,2.9313076171875,2.6081409454345703,0.8774003982543945,2.7191519737243652
1697638492549900300,2.940900390625,2.1085338592529297,0.1874551773071289,3.2517685890197754
1697638492559493600,2.95049365234375,2.0527663230895996,0.1009068489074707,2.0694098472595215
1697638492569087700,2.960087646484375,2.9522271156311035,0.5493321418762207,0.0940709114074707
1697638492578681000,2.96968115234375,3.8756327629089355,0.760850191116333,-0.868464469909668
1697638492588273700,2.979273681640625,3.804555892944336,0.19025063514709473,-1.0457262992858887
1697638492597867000,2.988866943359375,2.0907845497131348,-1.4753992557525635,-0.42315053939819336
1697638492607461000,2.998461181640625,0.5447916984558105,-2.5407824516296387,0.16070938110351562
1697638492617054500,3.008054443359375,1.2947125434875488,-1.4272607564926147,1.56235933303833
1697638492626647000,3.01764697265625,2.0115323066711426,-1.0150597095489502,3.4239420890808105
1697638492636240400,3.027240478515625,1.0161848068237305,-1.6098783016204834,5.011780738830566
1697638492645834500,3.03683447265625,-0.24822664260864258,-1.7694284915924072,5.749418258666992
1697638492655427800,3.046427734375,-0.8550176620483398,-1.6358898878097534,5.385324478149414
1697638492665020400,3.0560205078125,-1.5273535251617432,-1.3892567157745361,4.0618085861206055
1697638492674613800,3.06561376953125,-2.3667092323303223,-0.877770185470581,2.387462615966797
1697638492684207900,3.075207763671875,-3.123781204223633,-0.09628677368164062,0.5784196853637695
1697638492693801200,3.08480126953125,-3.4202373027801514,0.620072603225708,-1.6388654708862305
1697638492703393800,3.094393798828125,-0.8589632511138916,2.446127414703369,-8.136635780334473
1697638492712987000,3.10398681640625,8.613139152526855,1.245970368385315,-13.631364822387695
1697638492722581200,3.113581298828125,7.500158786773682,-0.22495722770690918,-14.381906509399414
1697638492732174300,3.12317431640625,4.1594390869140625,-1.5073256492614746,-12.649136543273926
1697638492741767000,3.132766845703125,1.7430379390716553,-2.459484577178955,-12.25272274017334
1697638492751360300,3.1423603515625,0.8877556324005127,-2.098621368408203,-11.030342102050781
1697638492760954600,3.15195458984375,0.6949417591094971,-1.3517467975616455,-7.3227763175964355
1697638492770547700,3.161547607421875,0.9030666351318359,-1.7919405698776245,-0.7883157730102539
1697638492780140300,3.171140380859375,-0.8105788230895996,-3.6922454833984375,4.602916717529297
1697638492789733600,3.180733642578125,-1.8093422651290894,-5.470219612121582,5.612308502197266
1697638492799327700,3.19032763671875,-0.7205555438995361,-7.525806903839111,1.2854604721069336
1697638492808921000,3.199921142578125,1.2327094078063965,-8.842287063598633,-3.6968789100646973
1697638492818513700,3.209513671875,2.2817189693450928,-9.31669807434082,-7.01137113571167
1697638492828107000,3.21910693359375,2.0460097789764404,-8.788272857666016,-7.781375408172607
1697638492837701000,3.228701171875,3.000730514526367,-8.18132209777832,-6.306392669677734
1697638492847294500,3.23829443359375,3.204045534133911,-8.387333869934082,-4.153907299041748
1697638492856887000,3.247886962890625,-0.9750360250473022,-9.639951705932617,-3.445948600769043
1697638492866480400,3.25748046875,-3.0439164638519287,-10.763833045959473,-3.73610258102417
1697638492876074500,3.267074462890625,-3.300525188446045,-10.779590606689453,-4.263228893280029
1697638492885667800,3.276667724609375,-3.5328526496887207,-10.688840866088867,-4.666102409362793
1697638492895260200,3.28626025390625,-2.769439697265625,-10.450462341308594,-4.920125961303711
1697638492904853500,3.295853515625,-4.1407623291015625,-8.941474914550781,-5.496406555175781
1697638492914447600,3.305447509765625,-5.478788375854492,-8.868104934692383,-4.792281150817871
1697638492924040700,3.315040771484375,-7.707818984985352,-8.859414100646973,-3.0034866333007812
1697638492933633300,3.32463330078125,-9.134922981262207,-7.743833065032959,-1.4391555786132812
1697638492943226600,3.3342265625,-11.773680686950684,-6.8200836181640625,1.0090961456298828
1697638492952820700,3.34382080078125,-12.162693977355957,-5.458857536315918,2.276638984680176
1697638492962414000,3.3534140625,-11.1579008102417,-6.017845153808594,3.388167381286621
1697638492972006400,3.36300634765625,-6.2042555809021,-3.9336650371551514,4.696486473083496
1697638492981599700,3.372599853515625,-6.865285873413086,-5.606281280517578,5.096395492553711
1697638492991193900,3.38219384765625,-8.47048282623291,-7.245636463165283,5.805850028991699
1697638493000787200,3.391787109375,-11.839811325073242,-4.792017936706543,5.867605209350586
1697638493010379800,3.4013798828125,-18.682147979736328,-2.3639302253723145,6.942854881286621
1697638493019973000,3.41097314453125,-22.415279388427734,-0.9843564033508301,8.339865684509277
1697638493029567200,3.420567138671875,-24.310623168945312,0.5908617973327637,10.355233192443848
1697638493039160600,3.43016064453125,-21.56110191345215,2.0909955501556396,10.527295112609863
1697638493048753200,3.439753173828125,-19.01937484741211,4.059782028198242,9.895468711853027
1697638493058346500,3.449346435546875,-16.599666595458984,0.7382383346557617,12.474102973937988
1697638493067940600,3.458940673828125,-13.302170753479004,-1.859067440032959,14.148507118225098
1697638493077533700,3.46853369140625,-6.142356872558594,0.2750377655029297,8.897768020629883
1697638493087126300,3.478126220703125,-2.862574815750122,-0.11602592468261719,6.219304084777832
1697638493096719600,3.4877197265625,-1.2081048488616943,-0.6282844543457031,3.25396728515625
1697638493106313700,3.497313720703125,0.3369255065917969,0.5781230926513672,0.8216495513916016
1697638493115907000,3.506906982421875,0.8273718357086182,0.18241024017333984,-0.48682451248168945
1697638493125499600,3.516499755859375,1.8139935731887817,0.0451655387878418,-0.3471555709838867
1697638493135093000,3.526093017578125,3.663546562194824,-1.8649201393127441,-1.6136751174926758
1697638493144687000,3.53568701171875,5.600797176361084,-3.1635799407958984,-2.7966132164001465
1697638493154280400,3.545280517578125,7.53156852722168,-3.695676803588867,-3.827282428741455
1697638493163872800,3.554872802734375,7.7764573097229,-1.2567353248596191,-2.6860427856445312
1697638493173466000,3.564466064453125,5.123567581176758,-1.3310165405273438,-2.9821224212646484
1697638493183060500,3.574060546875,4.342347621917725,-0.3686528205871582,-1.7434449195861816
1697638493192653600,3.583653564453125,1.5154794454574585,-0.26621389389038086,-0.703484058380127
1697638493202246100,3.59324609375,2.521409511566162,0.6627473831176758,-0.07186079025268555
1697638493211839500,3.602839599609375,1.334362506866455,0.7222886085510254,0.4641084671020508
1697638493221433600,3.61243359375,0.2380083203315735,0.47258806228637695,0.5589380264282227
1697638493231027000,3.62202685546875,-0.8455783128738403,1.0191221237182617,-0.5700340270996094
1697638493240619500,3.63161962890625,-0.5045522451400757,1.0296635627746582,0.03006601333618164
1697638493250212600,3.641212646484375,1.3981316089630127,-0.02350330352783203,2.0292677879333496
1697638493259807000,3.650806884765625,2.1920623779296875,-0.5895700454711914,3.4334683418273926
1697638493269400000,3.660400146484375,0.8900527954101562,0.3811063766479492,2.7944388389587402
1697638493278992600,3.66999267578125,-0.5806550979614258,0.7866353988647461,0.49408483505249023
1697638493288586000,3.6795859375,-0.3669048547744751,0.14996910095214844,-1.7793617248535156
1697638493298180000,3.68918017578125,-0.18578660488128662,0.8952627182006836,-2.4884119033813477
1697638493307773400,3.6987734375,-0.6532377004623413,0.8557987213134766,-2.621527671813965
1697638493317366000,3.708365966796875,-1.7486412525177002,1.0642614364624023,-2.756199359893799
1697638493326959400,3.71795947265625,-2.4446606636047363,-0.6762003898620605,-2.719757556915283
1697638493336553500,3.727553466796875,-2.045586109161377,0.058780670166015625,-2.995222568511963
1697638493346146600,3.737146484375,-0.9262790679931641,-0.6268539428710938,-2.7041001319885254
1697638493355739100,3.7467392578125,0.24869537353515625,-1.6714081764221191,-3.1844983100891113
1697638493365332500,3.75633251953125,3.2378950119018555,-2.1136059761047363,-5.093103885650635
1697638493374926600,3.765926513671875,2.7052059173583984,-2.4252657890319824,-5.813234806060791
1697638493384520000,3.77552001953125,1.3835408687591553,2.656109571456909,-1.9294734001159668
1697638493394112500,3.785112548828125,-0.787814736366272,-6.749861240386963,-2.307497501373291
1697638493403705600,3.79470556640625,4.329122543334961,-9.357229232788086,-11.38601303100586
1697638493413300000,3.804300048828125,7.0273895263671875,-4.572099685668945,-11.301774978637695
1697638493422893000,3.81389306640625,5.573382377624512,-2.216879367828369,-8.342945098876953
1697638493432485600,3.823485595703125,2.4946248531341553,-4.201276779174805,-5.5033183097839355
1697638493442079000,3.833078857421875,-1.653354525566101,-4.164386749267578,-1.802133560180664
1697638493451673000,3.842673095703125,0.7396919131278992,-7.340404033660889,-3.092717409133911
1697638493461266400,3.852266357421875,4.413766860961914,-7.43862247467041,-1.9338595867156982
1697638493470858800,3.861858642578125,10.893486022949219,-6.069523811340332,-4.435067176818848
1697638493480452000,3.8714521484375,6.620209693908691,-7.726313591003418,-0.3026432991027832
1697638493490046200,3.881046142578125,7.216546535491943,-6.346955299377441,2.685701370239258
1697638493499639600,3.8906396484375,8.811944007873535,-4.578581809997559,3.6163787841796875
1697638493509232000,3.900232177734375,9.041748046875,-6.931777000427246,4.8955793380737305
1697638493518825500,3.909825439453125,7.179361820220947,-5.3313188552856445,9.419272422790527
1697638493528419600,3.919419677734375,0.6000688672065735,-0.719182014465332,13.067525863647461
1697638493538012700,3.9290126953125,1.8095080852508545,-3.301847457885742,9.526958465576172
1697638493547605200,3.938605224609375,6.150879383087158,-2.879643440246582,5.3040361404418945
1697638493557198600,3.948198486328125,3.2947256565093994,-4.720709800720215,0.3522491455078125
1697638493566792700,3.957792724609375,5.297444820404053,-2.313776969909668,-1.2779927253723145
1697638493576386000,3.967385986328125,4.32068395614624,-2.642721176147461,0.051758527755737305
1697638493585978600,3.976978515625,6.047758102416992,-2.1448326110839844,2.262439012527466
1697638493595571700,3.98657177734375,4.285937309265137,-3.8433303833007812,2.0405163764953613
1697638493605166000,3.996166015625,7.953403472900391,-4.383400917053223,0.34472131729125977
1697638493614759200,4.00575927734375,8.356826782226562,-6.657015800476074,-1.0203996896743774
1697638493624351700,4.015351806640625,4.6534504890441895,-6.787919998168945,3.3170573711395264
1697638493633945000,4.024945068359375,1.4013804197311401,-2.3482351303100586,5.422788143157959
1697638493643539200,4.034539306640625,2.023832321166992,3.4761710166931152,11.347902297973633
1697638493653132300,4.04413232421875,-2.2851614952087402,-2.2461233139038086,13.179348945617676
1697638493662724900,4.053724853515625,4.71929931640625,-8.448500633239746,-2.87003231048584
1697638493672318200,4.063318115234375,10.748997688293457,-1.8089141845703125,-3.5429370403289795
1697638493681912300,4.072912353515625,3.8541576862335205,-2.02816104888916,1.1532517671585083
1697638493691505700,4.082505615234375,2.6007180213928223,-0.7719240188598633,4.6217498779296875
1697638493701098200,4.09209814453125,2.72733998298645,-0.8392114639282227,5.813956260681152
1697638493710691300,4.10169140625,5.433645248413086,-1.4088449478149414,3.315674304962158
1697638493720285400,4.111285400390625,0.5426986217498779,0.0981292724609375,7.371935844421387
1697638493729878800,4.120878662109375,15.886414527893066,-0.18309497833251953,6.487415313720703
1697638493739471400,4.130471435546875,0.4146151542663574,-0.8421449661254883,13.581175804138184
1697638493749064700,4.140064697265625,-5.739684581756592,5.2309441566467285,17.161598205566406
1697638493758658800,4.149658935546875,-11.943924903869629,10.61668586730957,20.653844833374023
1697638493768252000,4.159251953125,-6.490070819854736,10.508526802062988,22.792829513549805
1697638493777844500,4.168844482421875,-2.646571159362793,8.389398574829102,17.72683334350586
1697638493787437800,4.178437744140625,-3.422009229660034,7.07635498046875,7.284175872802734
1697638493797032000,4.188031982421875,-1.7952406406402588,4.618856906890869,4.687579154968262
1697638493806625300,4.197625244140625,-1.9610053300857544,4.879079341888428,6.102349758148193
1697638493816217600,4.207217529296875,-2.2017297744750977,4.463314056396484,12.69879150390625
1697638493825811000,4.21681103515625,-4.541275501251221,5.147719383239746,11.455955505371094
1697638493835405000,4.226405029296875,-6.079302787780762,2.9474081993103027,6.125952243804932
1697638493844998400,4.235998291015625,-1.5166529417037964,0.0966634750366211,-0.3647878170013428
1697638493854591000,4.245591064453125,3.7729902267456055,-2.8368005752563477,-8.196724891662598
1697638493864184000,4.25518408203125,3.7396299839019775,-2.4911136627197266,-9.24980640411377
1697638493873778200,4.264778076171875,-0.28686439990997314,0.5516510009765625,-2.107999324798584
1697638493883371500,4.27437158203125,-2.8774895668029785,2.590667247772217,5.36169958114624
1697638493892964000,4.283964111328125,-2.614900588989258,1.7809443473815918,3.050288438796997
1697638493902557400,4.293557373046875,-1.2398045063018799,2.1054182052612305,2.21954083442688
1697638493912151600,4.303151611328125,-1.4295506477355957,2.3341283798217773,4.93837308883667
1697638493921744600,4.31274462890625,-0.7453211545944214,3.6226534843444824,5.913804054260254
1697638493931337200,4.322337158203125,-0.14959776401519775,2.085261821746826,4.5391340255737305
1697638493940930600,4.3319306640625,3.275646448135376,-4.183223724365234,1.8935960531234741
1697638493950524700,4.341524658203125,8.554126739501953,-8.408918380737305,-2.129770040512085
1697638493960117800,4.35111767578125,6.832895755767822,-5.476256370544434,-4.453564167022705
1697638493969710300,4.36071044921875,3.7452306747436523,-3.4964170455932617,-2.472698450088501
1697638493979303700,4.3703037109375,2.6790266036987305,-2.182493209838867,-0.21302807331085205
1697638493988897800,4.379897705078125,1.9860360622406006,-1.727726936340332,-6.433706283569336
1697638493998491100,4.3894912109375,-1.874528408050537,-1.1184206008911133,-8.87655258178711
1697638494008083500,4.39908349609375,-4.663568496704102,-1.377467155456543,-5.384835243225098
1697638494017676800,4.4086767578125,-3.4631528854370117,-1.7338285446166992,-1.493719220161438
1697638494027271000,4.41827099609375,-0.7028857469558716,0.21891212463378906,-0.9164285659790039
1697638494036864300,4.4278642578125,-1.641784429550171,-5.290835380554199,3.9001102447509766
1697638494046456800,4.437456787109375,3.3656163215637207,0.42672157287597656,0.468593955039978
1697638494056050000,4.4470498046875,0.16894102096557617,-3.976154327392578,5.286649227142334
1697638494065644000,4.45664404296875,2.0304737091064453,-2.018521308898926,2.3542723655700684
1697638494075237400,4.4662373046875,1.851597785949707,-0.4145689010620117,-0.13736942410469055
1697638494084830000,4.475829833984375,1.181937336921692,-0.31789588928222656,-0.6327977180480957
1697638494094423300,4.48542333984375,0.4074750542640686,-0.2197713851928711,-0.4359707832336426
1697638494104017400,4.495017333984375,4.645796775817871,-2.026333808898926,1.3617714643478394
1697638494113610500,4.504610595703125,4.80163049697876,-1.2362709045410156,1.9037327766418457
1697638494123203000,4.514203125,3.17667555809021,2.2902402877807617,-1.2768337726593018
1697638494132796400,4.52379638671875,3.032118320465088,-0.46083641052246094,2.331057071685791
1697638494142390500,4.533390625,6.178191184997559,-4.071374893188477,10.585800170898438
1697638494151983600,4.542983642578125,9.274923324584961,-3.4249343872070312,11.720771789550781
1697638494161576200,4.552576171875,-4.74561071395874,3.8314738273620605,-14.667594909667969
1697638494171169500,4.56216943359375,-4.845281600952148,3.0716195106506348,-14.982036590576172
1697638494180763600,4.571763671875,0.328757107257843,0.79461669921875,-1.8596162796020508
1697638494190356700,4.581356689453125,-5.566453456878662,0.5727453231811523,3.256899833679199
1697638494199949300,4.59094921875,-5.471805572509766,-1.2199373245239258,5.273787975311279
1697638494209542700,4.600542724609375,-1.6422874927520752,-3.9416322708129883,2.4526286125183105
1697638494219136800,4.61013671875,0.7245147228240967,-3.990121841430664,0.9529975652694702
1697638494228730000,4.619730224609375,2.059298276901245,-3.7939510345458984,1.4417824745178223
1697638494238322400,4.629322509765625,1.2597609758377075,-2.1356077194213867,-0.1444758176803589
1697638494247915800,4.638915771484375,0.8897544145584106,-1.4917497634887695,-1.6743156909942627
1697638494257510000,4.648510009765625,0.3070378303527832,-1.4148263931274414,-2.9849183559417725
1697638494267103200,4.658103271484375,-0.5283280611038208,-1.4156866073608398,-2.6865694522857666
1697638494276695600,4.667695556640625,-0.8000197410583496,-1.6284904479980469,-2.2525601387023926
1697638494286289000,4.677288818359375,-0.3598296642303467,-1.0883903503417969,-2.6045989990234375
1697638494295883000,4.686883056640625,0.2610510587692261,-1.1819257736206055,-2.1258318424224854
1697638494305476400,4.696476318359375,1.0289490222930908,-2.6558637619018555,-1.2392038106918335
1697638494315069000,4.70606884765625,1.8723222017288208,-2.716212272644043,-0.9905949831008911
1697638494324662000,4.715662109375,2.1195292472839355,-1.6326980590820312,-1.5174038410186768
1697638494334256000,4.725256103515625,1.665786862373352,0.6768093109130859,-2.967961311340332
1697638494343849500,4.734849365234375,0.9523777365684509,2.2607035636901855,-1.8155025243759155
1697638494353442000,4.744442138671875,1.0395082235336304,1.7826032638549805,0.5958662033081055
1697638494363035100,4.75403515625,0.3996601104736328,-0.3177032470703125,1.936668038368225
1697638494372629200,4.763629150390625,-0.20498347282409668,-0.31333065032958984,2.0431981086730957
1697638494382222600,4.77322265625,-0.12565135955810547,0.013278007507324219,0.7538667917251587
1697638494391815200,4.782815185546875,0.042865872383117676,0.409454345703125,-0.13027268648147583
1697638494401408300,4.792408203125,-0.29670631885528564,0.4129772186279297,-0.6546515226364136
1697638494411002400,4.80200244140625,-0.36554956436157227,0.4829521179199219,-0.48260271549224854
1697638494420595700,4.811595703125,-0.045880675315856934,0.3849945068359375,-0.3793107271194458
1697638494430188300,4.821188232421875,0.6613737940788269,0.4325428009033203,-0.41967058181762695
1697638494439781400,4.830781494140625,1.8602708578109741,1.9659337997436523,-0.8169069290161133
1697638494449375500,4.84037548828125,1.9433417320251465,3.012096405029297,-0.564926266670227
1697638494458968800,4.84996875,0.9556179046630859,2.6040477752685547,-0.7372877597808838
1697638494468561400,4.8595615234375,0.420734167098999,3.168910503387451,-0.7803758382797241
1697638494478154800,4.86915478515625,-2.393362045288086,4.747946262359619,0.95896315574646
1697638494487748900,4.878748779296875,-0.19673287868499756,3.913701057434082,1.3740301132202148
1697638494497342000,4.888342041015625,0.7935688495635986,3.764634609222412,1.383488416671753
1697638494506934500,4.8979345703125,4.178088665008545,9.686732292175293,-2.422905683517456
1697638494516527900,4.90752783203125,3.572500705718994,11.870169639587402,-1.941025972366333
1697638494526121700,4.917121826171875,3.3385090827941895,12.941926002502441,-1.3286993503570557
1697638494535715000,4.926715087890625,2.7601184844970703,11.494343757629395,-0.8106218576431274
1697638494545307600,4.9363076171875,3.2688426971435547,8.003401756286621,-0.43955275416374207
1697638494554901000,4.94590087890625,4.1113810539245605,5.214554309844971,1.0174871683120728
1697638494564494800,4.955494873046875,3.901158332824707,7.254249572753906,1.6654855012893677
1697638494574088200,4.965088134765625,2.904289722442627,7.2099785804748535,0.6557273864746094
1697638494583680800,4.9746806640625,1.3814315795898438,9.775054931640625,-0.9354345798492432
1697638494593273900,4.98427392578125,0.8730714321136475,9.895313262939453,-1.2451459169387817
1697638494602868000,4.993867919921875,1.504390001296997,6.722792625427246,-1.8163554668426514
1697638494612461300,5.00346142578125,3.5820744037628174,-1.0441808700561523,-0.457855761051178
1697638494622054000,5.013053955078125,3.4241116046905518,-7.705035209655762,1.7066782712936401
1697638494631647000,5.02264697265625,1.3849759101867676,-11.634881019592285,3.7165350914001465
1697638494641241000,5.032240966796875,-1.979097843170166,-12.469871520996094,4.690067291259766
1697638494650834400,5.04183447265625,-3.4888713359832764,-10.246917724609375,4.498083591461182
1697638494660427000,5.051427001953125,-2.25474214553833,-7.787062644958496,4.065148830413818
1697638494670020400,5.061020263671875,-2.0880086421966553,-10.55101203918457,3.724640369415283
1697638494679614500,5.070614501953125,-1.482060194015503,-7.819409370422363,-0.6960750222206116
1697638494689207600,5.08020751953125,-0.07696413993835449,-4.975378036499023,-3.097280502319336
1697638494698800000,5.089800048828125,-0.9567363262176514,-7.957893371582031,-4.720217704772949
1697638494708393500,5.0993935546875,-1.7368830442428589,-10.206398963928223,-6.114826202392578
1697638494717987600,5.108987548828125,-0.15082061290740967,-9.17568302154541,-7.5802903175354
1697638494727580700,5.11858056640625,0.7401154041290283,-6.638711929321289,-6.3287200927734375
1697638494737173200,5.12817333984375,-0.015516847372055054,-5.144558906555176,-2.938016653060913
1697638494746766300,5.137766357421875,-4.502655982971191,-5.751531600952148,0.27322107553482056
1697638494756360400,5.1473603515625,-9.716514587402344,-6.679818153381348,2.7837414741516113
1697638494765953800,5.156953857421875,-0.7642576694488525,-7.202365875244141,3.6555354595184326
1697638494775546400,5.16654638671875,3.732663631439209,-6.655562400817871,2.8131818771362305
1697638494785139500,5.176139404296875,4.505729675292969,-5.608790397644043,-0.437642365694046
1697638494794733600,5.185733642578125,2.6891205310821533,-3.312130928039551,-1.8708577156066895
1697638494804327000,5.195326904296875,0.034058526158332825,-3.9018211364746094,0.8003147840499878
1697638494813919500,5.20491943359375,-3.015065908432007,-3.7709474563598633,1.0861622095108032
1697638494823512600,5.2145126953125,-5.813085079193115,-3.7733993530273438,1.4830437898635864
1697638494833106700,5.224106689453125,-4.7377424240112305,-4.429780960083008,1.2772010564804077
1697638494842700000,5.233699951171875,-1.6701147556304932,-3.10784912109375,0.8298739194869995
1697638494852292400,5.243292236328125,-1.0878798961639404,-4.187268257141113,0.9891916513442993
1697638494861885700,5.2528857421875,-1.572681188583374,-4.014742851257324,1.2514945268630981
1697638494871479800,5.262479736328125,-1.2805302143096924,-2.743959426879883,0.11145272850990295
1697638494881073200,5.2720732421875,1.0269674062728882,-1.4169397354125977,-0.7136965990066528
1697638494890665500,5.28166552734375,1.1237379312515259,-0.5854721069335938,-0.5836343765258789
1697638494900258800,5.2912587890625,0.8527346849441528,0.1387033462524414,0.10081499814987183
1697638494909853000,5.30085302734375,0.6080335378646851,1.0400466918945312,0.4773176312446594
1697638494919446300,5.3104462890625,0.6227681040763855,1.9054994583129883,0.7953189611434937
1697638494929038600,5.32003857421875,0.40648409724235535,3.007089138031006,0.8497447967529297
1697638494938632000,5.3296318359375,0.15351438522338867,3.832838535308838,0.5730143785476685
1697638494948226000,5.33922607421875,0.36255523562431335,4.220998764038086,0.32825231552124023
1697638494957819100,5.348819091796875,0.6075941920280457,4.141788959503174,0.40824371576309204
1697638494967411700,5.35841162109375,0.5712433457374573,3.4079418182373047,0.6387969255447388
1697638494977005000,5.368005126953125,0.3672913610935211,2.813983917236328,0.7591113448143005
1697638494986599200,5.37759912109375,0.231689453125,2.423929214477539,0.8478565216064453
1697638494996192300,5.387192138671875,0.26704418659210205,2.1822800636291504,0.9459431767463684
1697638495005784800,5.396784912109375,0.36470967531204224,1.8929147720336914,0.9951320886611938
1697638495015378200,5.406378173828125,0.9411540627479553,1.873878002166748,0.9716945886611938
1697638495024972300,5.41597216796875,1.2236008644104004,1.9098639488220215,0.8994047045707703
1697638495034565400,5.4255654296875,1.527390718460083,1.8265070915222168,0.7499072551727295
1697638495044158000,5.435157958984375,1.539478063583374,1.8366045951843262,0.846529483795166
1697638495053751000,5.4447509765625,1.5140266418457031,1.8537063598632812,0.6968031525611877
1697638495063345200,5.45434521484375,1.4297971725463867,1.6913070678710938,0.5779640674591064
1697638495072938500,5.4639384765625,1.3658554553985596,1.5384464263916016,0.421222448348999
1697638495082531000,5.473531005859375,1.4501174688339233,1.3715391159057617,0.10294204950332642
1697638495092124200,5.483124267578125,1.5596435070037842,1.279362678527832,-0.018389105796813965
1697638495101718300,5.49271826171875,1.2309776544570923,1.0802850723266602,-0.23709452152252197
1697638495111311600,5.5023115234375,0.8283219933509827,0.9296674728393555,-0.4227745532989502
1697638495120904000,5.511904052734375,0.33129918575286865,0.7554206848144531,-0.6024953126907349
1697638495130497300,5.521497314453125,-0.29876601696014404,0.5645771026611328,-0.5450272560119629
1697638495140091400,5.53109130859375,-1.03428053855896,0.5456647872924805,-0.13591229915618896
1697638495149684700,5.540684814453125,-1.6855785846710205,0.8942584991455078,0.5101379752159119
1697638495159277000,5.550277099609375,-1.6944077014923096,1.5478887557983398,1.203157663345337
1697638495168870400,5.559870361328125,-1.1941802501678467,2.301072120666504,1.7457294464111328
1697638495178464500,5.569464599609375,-0.7978427410125732,2.9959359169006348,1.8907867670059204
1697638495188057600,5.5790576171875,-0.4765974283218384,3.4127259254455566,1.9711158275604248
1697638495197650200,5.588650146484375,0.43720537424087524,3.609943389892578,1.9988776445388794
1697638495207243500,5.598243408203125,1.1346473693847656,3.7578635215759277,1.8059957027435303
1697638495216837600,5.607837646484375,1.6274521350860596,3.7922000885009766,1.725334882736206
1697638495226430700,5.6174306640625,2.194340467453003,3.7822084426879883,1.1528823375701904
1697638495236023300,5.627023193359375,2.458616256713867,3.6081433296203613,0.3184072971343994
1697638495245616400,5.636616455078125,2.118316650390625,3.284615993499756,-0.08951568603515625
1697638495255210500,5.64621044921875,0.46254944801330566,3.2453746795654297,0.16537964344024658
1697638495264803800,5.655803955078125,-0.6933499574661255,3.507993221282959,1.3663655519485474
1697638495274396200,5.665396240234375,0.3941335082054138,3.658365249633789,4.101484775543213
1697638495283989500,5.674989501953125,1.1238659620285034,3.642582893371582,4.766220569610596
1697638495293583600,5.68458349609375,0.4732910394668579,2.863002300262451,4.004115104675293
1697638495303177000,5.694177001953125,-0.5855238437652588,1.442422866821289,2.780945301055908
1697638495312769300,5.703769287109375,-0.8991492986679077,-0.7417182922363281,1.8312207460403442
1697638495322362600,5.713362548828125,-2.1361184120178223,-3.2480764389038086,0.191514253616333
1697638495331956700,5.722956787109375,-3.180629253387451,-6.024890899658203,-1.795207142829895
1697638495341549800,5.7325498046875,-5.335474014282227,-8.60075569152832,-3.160569906234741
1697638495351142400,5.742142333984375,-6.78645133972168,-8.90228271484375,-4.769172191619873
1697638495360735700,5.75173583984375,-3.575009346008301,-6.598123550415039,-5.888754367828369
1697638495370329900,5.761329833984375,-0.19974422454833984,-3.6660146713256836,-5.180535793304443
1697638495379923000,5.7709228515625,1.7316861152648926,-1.6572389602661133,-4.05357027053833
1697638495389515500,5.780515625,2.9844870567321777,-2.0949907302856445,-3.185283660888672
1697638495399108600,5.790108642578125,3.223982334136963,-3.829501152038574,-1.451050043106079
1697638495408702700,5.79970263671875,2.3924503326416016,-5.15651798248291,1.141050934791565
1697638495418296000,5.809296142578125,1.9254567623138428,-5.348987579345703,1.7152378559112549
1697638495427888400,5.818888427734375,2.457136392593384,-5.981968879699707,1.061915397644043
1697638495437481700,5.828481689453125,1.242309808731079,-6.59134578704834,-0.6186655759811401
1697638495447075800,5.838075927734375,-0.06050783395767212,-6.471194267272949,-2.171344518661499
1697638495456669000,5.8476689453125,-0.9644569158554077,-5.495019912719727,-2.8452391624450684
1697638495466261500,5.857261474609375,-0.6289187073707581,-4.244626998901367,-3.32785701751709
1697638495475854800,5.866854736328125,0.13245558738708496,-2.8993682861328125,-3.447719097137451
1697638495485449000,5.876448974609375,0.6362044811248779,-2.0808019638061523,-2.683340072631836
1697638495495042000,5.8860419921875,0.7025644779205322,-1.8940277099609375,-1.7604260444641113
1697638495504634600,5.895634521484375,0.3708585500717163,-1.939742088317871,-0.9516984224319458
1697638495514227700,5.905227783203125,-0.2773476839065552,-1.851344108581543,-0.49335193634033203
1697638495523821800,5.91482177734375,-0.6822209358215332,-1.411585807800293,-0.4273306131362915
1697638495533415200,5.924415283203125,-0.7233145236968994,-0.44196128845214844,-0.6917761564254761
1697638495543007500,5.934007568359375,-0.46664321422576904,0.63873291015625,-0.8482925891876221
1697638495552600800,5.943600830078125,-0.2071930170059204,1.5299701690673828,-0.8447980880737305
1697638495562195000,5.95319482421875,0.291306734085083,2.0994181632995605,-0.7645273208618164
1697638495571788000,5.9627880859375,1.121567726135254,2.5093088150024414,-0.700285792350769
1697638495581380600,5.972380615234375,1.9965561628341675,3.0123610496520996,-0.5966382026672363
1697638495590973700,5.9819736328125,2.8089687824249268,3.5642404556274414,-0.3434344530105591
1697638495600567800,5.99156787109375,3.2126822471618652,4.100717067718506,0.04323256015777588
1697638495610161200,6.0011611328125,3.3402087688446045,4.580833911895752,0.49841880798339844
1697638495619753700,6.010753662109375,3.130270004272461,5.015445709228516,0.8353645205497742
1697638495629346800,6.020346923828125,2.7051429748535156,5.371986389160156,1.1242724657058716
1697638495638941000,6.02994091796875,2.067291259765625,5.453536033630371,1.4552913904190063
1697638495648534000,6.039533935546875,1.5918723344802856,5.443792819976807,1.6772133111953735
1697638495658126600,6.049126708984375,1.399537444114685,5.297145843505859,1.8950212001800537
1697638495667720000,6.058719970703125,1.3817768096923828,4.9732279777526855,2.15320086479187
1697638495677314000,6.06831396484375,1.4247303009033203,4.52025842666626,2.4100074768066406
1697638495686907100,6.0779072265625,1.4814624786376953,3.914755344390869,2.609194755554199
1697638495696499700,6.087499755859375,1.4040257930755615,3.090277671813965,2.674373149871826
1697638495706092800,6.0970927734375,1.065363883972168,2.1190261840820312,2.597637176513672
1697638495715687000,6.10668701171875,0.516819179058075,1.1946096420288086,2.3501665592193604
1697638495725280300,6.1162802734375,0.09547710418701172,0.5194931030273438,1.8295025825500488
1697638495734872600,6.12587255859375,0.05434000492095947,0.2359771728515625,1.2168552875518799
1697638495744466000,6.1354658203125,0.281623899936676,0.16167449951171875,0.9309800267219543
1697638495754060000,6.14506005859375,0.754765510559082,0.2559843063354492,1.0716251134872437
1697638495763653000,6.154653076171875,1.3505570888519287,0.6576271057128906,1.4962196350097656
1697638495773245700,6.16424560546875,1.972448706626892,1.1061372756958008,1.9529385566711426
1697638495782838800,6.1738388671875,2.6726064682006836,1.3344268798828125,2.067112445831299
1697638495792433000,6.183432861328125,2.866854190826416,1.1854515075683594,1.795247197151184
1697638495802026200,6.193026123046875,2.5122673511505127,1.1400814056396484,1.6007018089294434
1697638495811618600,6.20261865234375,2.2202186584472656,1.181344985961914,1.4647607803344727
1697638495821212000,6.2122119140625,2.057522773742676,1.261129379272461,1.130425214767456
1697638495830806000,6.221805908203125,2.1392788887023926,1.315110206604004,0.6274470686912537
1697638495840399000,6.231399169921875,1.408207654953003,0.6774768829345703,-0.32240331172943115
1697638495849991700,6.24099169921875,-0.10733509063720703,-0.975071907043457,-1.9500410556793213
1697638495859584800,6.250584716796875,-1.3243733644485474,-3.1532230377197266,-3.5278573036193848
1697638495869179000,6.260178955078125,-2.0045223236083984,-5.012670516967773,-4.488428592681885
1697638495878772200,6.269772216796875,-2.041118621826172,-5.8802947998046875,-4.6932053565979
1697638495888364500,6.279364501953125,-1.4289335012435913,-5.7483625411987305,-4.1307148933410645
1697638495897958000,6.2889580078125,-1.2064822912216187,-4.867895126342773,-3.237125873565674
1697638495907552000,6.298552001953125,-1.3369216918945312,-4.2544660568237305,-2.9941840171813965
1697638495917145000,6.30814501953125,-1.2536461353302002,-4.162053108215332,-2.860856294631958
1697638495926737700,6.317737548828125,-1.4253320693969727,-4.077341079711914,-2.9861297607421875
1697638495936330800,6.327330810546875,-1.4688160419464111,-4.158272743225098,-2.2170181274414062
1697638495945924900,6.3369248046875,-1.6023058891296387,-4.957833290100098,-0.5289261937141418
1697638495955518200,6.346518310546875,-1.6810564994812012,-6.265870094299316,0.7309429049491882
1697638495965110500,6.356110595703125,-2.0661356449127197,-7.82252311706543,2.4257211685180664
1697638495974703900,6.365703857421875,-2.777517795562744,-8.470330238342285,3.5145139694213867
1697638495984298000,6.375298095703125,-3.5910584926605225,-8.345633506774902,4.482290267944336
1697638495993891000,6.38489111328125,-2.766173839569092,-7.093152046203613,4.229308605194092
1697638496003483600,6.394483642578125,-2.8277289867401123,-4.928159713745117,2.2386677265167236
1697638496013076700,6.40407666015625,-2.903459072113037,-2.629977226257324,0.4746083617210388
1697638496022670800,6.4136708984375,-1.583925485610962,-1.5525579452514648,0.02043968439102173
1697638496032264200,6.42326416015625,0.1049087643623352,-1.7711963653564453,0.004516124725341797
1697638496041856500,6.4328564453125,1.5282607078552246,-1.595280647277832,-0.9685506224632263
1697638496051449900,6.442449951171875,3.287562131881714,-1.2811660766601562,-2.1406702995300293
1697638496061044000,6.4520439453125,14.225876808166504,-0.6408843994140625,-6.4523606300354
1697638496070637000,6.461636962890625,-0.6998996734619141,-2.9048080444335938,-4.06377649307251
1697638496080229400,6.4712294921875,-5.973118305206299,2.5643177032470703,1.3593847751617432
1697638496089822700,6.48082275390625,-7.649501323699951,2.023575782775879,2.154648780822754
1697638496099416800,6.490416748046875,-3.6456141471862793,1.6162643432617188,2.517516613006592
1697638496109010000,6.500010009765625,-3.663015842437744,1.955841064453125,2.275944471359253
1697638496118602500,6.5096025390625,-2.968724250793457,2.9062633514404297,0.9936786890029907
1697638496128195800,6.51919580078125,-2.8712830543518066,3.7228870391845703,0.9148055911064148
1697638496137789700,6.528789794921875,-2.498560905456543,4.445907115936279,1.2100062370300293
1697638496147383000,6.538383056640625,-0.721042811870575,4.898177146911621,1.4225980043411255
1697638496156975400,6.547975341796875,-0.4090099334716797,5.1041693687438965,2.0574166774749756
1697638496166568700,6.557568603515625,-0.5366032123565674,4.990169048309326,3.0017144680023193
1697638496176162800,6.567162841796875,-0.31692028045654297,4.821985721588135,3.490434169769287
1697638496185756000,6.576755859375,0.7570741176605225,4.934302806854248,3.1451375484466553
1697638496195348500,6.586348388671875,2.1235086917877197,5.2625651359558105,2.436361312866211
1697638496204941600,6.595941650390625,2.904582977294922,5.391308784484863,1.657921552658081
1697638496214535700,6.60553564453125,3.197469472885132,5.259286880493164,1.042677640914917
1697638496224129000,6.61512890625,3.373660087585449,4.858081817626953,0.724416971206665
1697638496233721300,6.624721435546875,3.34306263923645,4.01933479309082,0.42210090160369873
1697638496243314700,6.634314697265625,3.101686716079712,3.167337417602539,-0.07521921396255493
1697638496252908800,6.64390869140625,2.5125255584716797,2.474215507507324,-0.9729992151260376
1697638496262502000,6.653501953125,1.7094980478286743,1.7315354347229004,-2.1798765659332275
1697638496272094500,6.663094482421875,0.824211835861206,0.9579944610595703,-3.32659912109375
1697638496281687600,6.6726875,0.07490360736846924,0.22513484954833984,-3.703463554382324
1697638496291281700,6.68228173828125,-0.832158088684082,0.18253135681152344,-3.086595058441162
1697638496300874800,6.691874755859375,-1.7020392417907715,1.2961807250976562,-1.950879693031311
1697638496310467300,6.70146728515625,-2.3256797790527344,3.0392608642578125,-1.20041823387146
1697638496320060400,6.711060302734375,-2.0154294967651367,3.7647523880004883,-0.352247953414917
1697638496329654500,6.720654541015625,-0.7785950899124146,3.906005382537842,0.48282569646835327
1697638496339247900,6.730247802734375,0.41789335012435913,3.692206859588623,1.2594807147979736
1697638496348840200,6.739840087890625,1.3290989398956299,3.2917346954345703,1.692432165145874
1697638496358433500,6.74943359375,1.7499161958694458,2.6572623252868652,1.8330318927764893
1697638496368027600,6.759027587890625,1.93855619430542,2.0901975631713867,1.3482564687728882
1697638496377620700,6.768620849609375,1.8480982780456543,0.7477006912231445,0.7541130781173706
1697638496387213300,6.77821337890625,0.43920767307281494,-1.0460319519042969,-0.5841444730758667
1697638496396806400,6.787806396484375,-0.925856351852417,-3.323881149291992,-2.6899075508117676
1697638496406400500,6.797400390625,-2.2715346813201904,-6.258722305297852,-3.663520574569702
1697638496415993600,6.80699365234375,-2.7535347938537598,-7.792939186096191,-4.457139015197754
1697638496425586200,6.816586181640625,-3.2192091941833496,-6.622933387756348,-5.126585960388184
1697638496435179500,6.826179443359375,-3.08331298828125,-5.730960845947266,-3.2771477699279785
1697638496444773400,6.8357734375,-2.5230298042297363,-6.8655853271484375,-0.9835305213928223
1697638496454366700,6.84536669921875,-0.7094441652297974,-8.161153793334961,-0.7422149181365967
1697638496463959000,6.854958984375,1.7692766189575195,-7.167646408081055,-0.24917304515838623
1697638496473552400,6.864552490234375,2.7463340759277344,-4.275961875915527,1.2695976495742798
1697638496483146500,6.874146484375,2.2255663871765137,-2.01754093170166,1.9708118438720703
1697638496492739600,6.883739501953125,1.5841236114501953,-1.695326805114746,0.815448522567749
1697638496502332200,6.893332275390625,1.4988625049591064,-1.5339641571044922,-1.1319141387939453
1697638496511925200,6.90292529296875,1.761885643005371,-1.7927913665771484,-1.3937015533447266
1697638496521519400,6.912519287109375,2.5966219902038574,-2.0392675399780273,-1.0253151655197144
1697638496531112400,6.922112548828125,2.8575799465179443,-2.487306594848633,-0.7733404636383057
1697638496540705300,6.931705322265625,0.7460645437240601,-3.786862373352051,0.19058990478515625
1697638496550298400,6.94129833984375,-1.6825177669525146,-4.774365425109863,0.390869140625
1697638496559892500,6.950892578125,-3.0530030727386475,-4.052349090576172,-0.46079176664352417
1697638496569485600,6.960485595703125,-3.3448703289031982,-2.172125816345215,-0.7892672419548035
1697638496579078100,6.970078125,-3.3878397941589355,-1.4407482147216797,-0.7588639855384827
1697638496588671500,6.97967138671875,-2.8488504886627197,-1.0170698165893555,-1.3522967100143433
1697638496598265300,6.989265380859375,-1.5924463272094727,-0.7590713500976562,-2.1950020790100098
1697638496607858700,6.998858642578125,0.3357977867126465,-0.6198005676269531,-3.0286498069763184
1697638496617451000,7.008450927734375,2.286892890930176,0.028743743896484375,-3.2181925773620605
1697638496627044400,7.01804443359375,3.4771785736083984,1.3212203979492188,-2.6006669998168945
1697638496636638500,7.027638427734375,4.03460693359375,2.6386661529541016,-1.5486929416656494
1697638496646231600,7.0372314453125,4.423108100891113,3.7542920112609863,-0.8799898624420166
1697638496655824000,7.046823974609375,4.759191036224365,4.507813930511475,-0.441814661026001
1697638496665417200,7.056417236328125,4.946435451507568,4.79885196685791,0.14014476537704468
1697638496675011300,7.06601123046875,4.566080093383789,4.713393688201904,0.7072436809539795
1697638496684604400,7.0756044921875,3.790426254272461,4.3775105476379395,1.1283519268035889
1697638496694197000,7.085197021484375,2.6913256645202637,3.621051788330078,1.4035965204238892
1697638496703790000,7.0947900390625,1.5021061897277832,2.8335113525390625,1.431636095046997
1697638496713384200,7.10438427734375,0.5620935559272766,2.1294188499450684,1.6011228561401367
1697638496722977500,7.1139775390625,0.061675071716308594,1.8550786972045898,1.7197167873382568
1697638496732569900,7.12356982421875,-0.2072182297706604,1.8548588752746582,1.9450507164001465
1697638496742163200,7.1331630859375,-0.23293805122375488,1.7322568893432617,2.1126503944396973
1697638496751757000,7.142757080078125,-0.16584235429763794,1.5356988906860352,2.039022207260132
1697638496761350400,7.152350341796875,0.034702181816101074,1.296630859375,2.0040171146392822
1697638496770942700,7.161942626953125,0.23368561267852783,1.4499263763427734,1.9569716453552246
1697638496780536000,7.1715361328125,0.41661250591278076,1.901827335357666,2.2788000106811523
1697638496790130200,7.181130126953125,0.6161253452301025,2.4321093559265137,2.5204005241394043
1697638496799723300,7.19072314453125,0.869750440120697,2.8424606323242188,2.4854772090911865
1697638496809315600,7.200315673828125,1.3124452829360962,3.2646217346191406,2.219453811645508
1697638496818909000,7.209908935546875,1.4877500534057617,3.5696840286254883,1.76632559299469
1697638496828503000,7.2195029296875,1.3972805738449097,3.9297842979431152,1.175708293914795
1697638496838096100,7.22909619140625,1.2786890268325806,4.108277320861816,0.669327437877655
1697638496847688700,7.238688720703125,1.102236270904541,4.248782157897949,-0.01569730043411255
1697638496857281800,7.24828173828125,1.000071406364441,3.9312376976013184,-0.7295479774475098
1697638496866876000,7.2578759765625,0.9614214301109314,2.505110740661621,-1.6900004148483276
1697638496876469000,7.267468994140625,0.9074201583862305,0.03766345977783203,-2.787585496902466
1697638496886061600,7.2770615234375,0.6329143643379211,-2.5474987030029297,-3.7120866775512695
1697638496895654700,7.286654541015625,0.09167098999023438,-5.115457534790039,-4.547957420349121
1697638496905248800,7.296248779296875,0.36038005352020264,-6.860330581665039,-4.363003253936768
1697638496914842000,7.305842041015625,-0.46610885858535767,-6.645298957824707,-1.885845422744751
1697638496924434400,7.315434326171875,-2.1884822845458984,-4.7276153564453125,1.2729744911193848
1697638496934027800,7.32502783203125,-3.096133232116699,-3.850069999694824,3.001192092895508
1697638496943621600,7.33462158203125,-3.0378856658935547,-4.21024227142334,3.8144330978393555
1697638496953215000,7.344215087890625,-2.6373839378356934,-4.88279914855957,3.503235340118408
1697638496962807300,7.353807373046875,-1.8750438690185547,-5.241054534912109,3.4318649768829346
1697638496972400600,7.363400634765625,-1.9740805625915527,-5.689245223999023,2.9440064430236816
1697638496981994800,7.372994873046875,-2.6504364013671875,-5.956899642944336,2.1248726844787598
1697638496991587800,7.382587890625,-3.2541370391845703,-5.676172256469727,1.1806726455688477
1697638497001180200,7.39218017578125,-3.3871665000915527,-4.51362419128418,0.16293519735336304
1697638497010773500,7.4017734375,-2.820923328399658,-3.3787431716918945,0.16304326057434082
1697638497020367600,7.41136767578125,-1.7130866050720215,-2.7563858032226562,1.2429345846176147
1697638497029960700,7.420960693359375,-0.32848548889160156,-2.349733352661133,2.2921550273895264
1697638497039553000,7.430552978515625,1.0576708316802979,-1.8651952743530273,2.6078529357910156
1697638497049146400,7.440146484375,2.2728161811828613,-2.015072822570801,2.527169942855835
1697638497058740500,7.449740478515625,3.635641098022461,-0.472320556640625,1.3429008722305298
1697638497068333600,7.45933349609375,4.089213848114014,0.3325347900390625,1.1420472860336304
1697638497077926100,7.468926025390625,3.6868960857391357,1.060628890991211,1.2088826894760132
1697638497087519200,7.478519287109375,2.77888822555542,1.9821343421936035,1.4299211502075195
1697638497097113300,7.48811328125,1.6004252433776855,2.6047110557556152,1.5063568353652954
1697638497106706400,7.49770654296875,0.509215235710144,3.010389804840088,1.6077736616134644
1697638497116299000,7.507299072265625,-0.34229806065559387,3.183098316192627,1.808375597000122
1697638497125892000,7.51689208984375,-0.7672297358512878,2.87515926361084,2.0586514472961426
1697638497135486200,7.526486328125,-1.0491005182266235,2.3027591705322266,2.158792495727539
1697638497145079300,7.536079345703125,-1.1134729385375977,1.683725357055664,1.9488457441329956
1697638497154671900,7.545671875,-1.208655595779419,1.2447547912597656,1.850771188735962
1697638497164265000,7.555264892578125,-1.337931752204895,0.8846645355224609,1.6959527730941772
1697638497173859000,7.564859130859375,-1.3700714111328125,0.5909337997436523,1.6778955459594727
1697638497183452400,7.574452392578125,-1.033565878868103,0.7071390151977539,1.7472057342529297
1697638497193044700,7.584044677734375,-0.3852413594722748,1.2990522384643555,1.6207237243652344
1697638497202638000,7.59363818359375,0.5007526278495789,2.0839691162109375,1.6413991451263428
1697638497212232000,7.60323193359375,1.5409016609191895,2.8446216583251953,1.6840453147888184
1697638497221825300,7.6128251953125,2.3568243980407715,3.1972875595092773,1.7794263362884521
1697638497231417600,7.62241748046875,2.8574295043945312,3.162766933441162,1.7077223062515259
1697638497241011000,7.632010986328125,3.1641907691955566,3.1078529357910156,1.649076223373413
1697638497250604800,7.641604736328125,3.28065824508667,2.79884672164917,1.7062186002731323
1697638497260198100,7.6511982421875,3.235291004180908,2.0741167068481445,1.6326844692230225
1697638497269790500,7.66079052734375,3.2894251346588135,1.2571792602539062,1.5171797275543213
1697638497279383800,7.6703837890625,3.4759631156921387,0.8377828598022461,1.3845465183258057
1697638497288978000,7.67997802734375,3.5686187744140625,0.6645021438598633,1.5586951971054077
1697638497298571000,7.689571044921875,3.533714771270752,0.8893566131591797,1.9765934944152832
1697638497308163300,7.699163330078125,3.058170795440674,1.0331544876098633,2.5482516288757324
1697638497317756700,7.708756591796875,2.697223663330078,0.6947355270385742,3.0768306255340576
1697638497327350800,7.718350830078125,2.3768696784973145,0.10941886901855469,3.646291732788086
1697638497336943900,7.72794384765625,1.9725219011306763,-0.8224105834960938,3.5624947547912598
1697638497346536200,7.7375361328125,1.9722126722335815,-1.9897699356079102,2.790783405303955
1697638497356129500,7.747129638671875,0.6570358276367188,-3.160249710083008,2.0926401615142822
1697638497365723600,7.7567236328125,-2.139878511428833,-5.511336326599121,1.1630115509033203
1697638497375316700,7.766316650390625,-4.892882347106934,-8.894060134887695,-0.07172966003417969
1697638497384909000,7.775908935546875,-6.8201584815979,-10.271594047546387,-2.5688536167144775
1697638497394502400,7.78550244140625,-7.518906593322754,-6.34273624420166,-3.3587427139282227
1697638497404096500,7.795096435546875,-7.128844738006592,-0.25686073303222656,-3.115175724029541
1697638497413689600,7.804689697265625,-5.950734615325928,0.23904132843017578,-0.6589040756225586
1697638497423282200,7.8142822265625,-5.322860240936279,-0.7410011291503906,-0.5854078531265259
1697638497432875300,7.823875244140625,-5.010152816772461,-4.117572784423828,-1.537177324295044
1697638497442469400,7.833469482421875,-5.222165584564209,-6.8450822830200195,-4.56859016418457
1697638497452062500,7.8430625,-4.352027893066406,-6.85969352722168,-7.719844818115234
1697638497461655000,7.852655029296875,-2.5918128490448,-5.225305557250977,-8.232804298400879
1697638497471248100,7.862248046875,-2.169121503829956,-2.7305822372436523,-6.2939043045043945
1697638497480842200,7.87184228515625,-3.224367618560791,-1.1975889205932617,-4.7137370109558105
1697638497490435300,7.881435302734375,-3.017810344696045,-1.3840045928955078,-4.387228012084961
1697638497500028000,7.89102783203125,-1.6041386127471924,-1.4709091186523438,-4.199272632598877
1697638497509621000,7.90062109375,-0.03407740592956543,-1.2315244674682617,-3.9042532444000244
1697638497519215000,7.910215087890625,0.8879645466804504,-1.0438461303710938,-3.720949649810791
1697638497528808200,7.91980810546875,1.9092540740966797,-1.1356287002563477,-4.216433525085449
1697638497538400800,7.92940087890625,0.7636100053787231,-1.6353158950805664,-3.371613025665283
1697638497547993900,7.938993896484375,0.1405578851699829,-1.1813249588012695,-3.1495370864868164
1697638497557588000,7.948587890625,-1.0795269012451172,-0.6023416519165039,-3.269693374633789
1697638497567181000,7.95818115234375,-1.1417651176452637,-0.3668651580810547,-3.8043723106384277
1697638497576773600,7.967773681640625,-1.0980658531188965,-0.2681598663330078,-3.9232304096221924
1697638497586366700,7.97736669921875,-1.158514380455017,-0.06846904754638672,-3.3695662021636963
1697638497595960800,7.9869609375,-0.9109950065612793,-0.024984359741210938,-2.184924602508545
1697638497605554000,7.996553955078125,-0.7755568027496338,0.13976478576660156,-1.3933796882629395
1697638497615146500,8.006146484375,-0.5008442401885986,0.13871192932128906,-0.5417482852935791
1697638497624739600,8.015739501953124,0.26499640941619873,0.2785959243774414,-0.07954859733581543
1697638497634333700,8.025333740234375,1.3771791458129883,0.5598392486572266,0.36731863021850586
1697638497643926800,8.0349267578125,2.2796616554260254,0.8133916854858398,0.7581677436828613
1697638497653519400,8.044519287109376,2.8936734199523926,1.1310930252075195,1.295251727104187
1697638497663112400,8.054112548828124,3.1999711990356445,1.467789649963379,1.6610052585601807
1697638497672706600,8.06370654296875,3.3071813583374023,1.6893553733825684,1.877100944519043
1697638497682299600,8.073299560546875,3.3183064460754395,1.9144396781921387,2.0402536392211914
1697638497691892200,8.082892333984375,3.191291093826294,2.0917882919311523,2.2484703063964844
1697638497701485300,8.0924853515625,3.0340662002563477,2.2874903678894043,2.4531774520874023
1697638497711079400,8.102079345703125,2.6921679973602295,2.2906670570373535,2.5590622425079346
1697638497720672500,8.111672607421875,2.3707313537597656,2.0301246643066406,2.541120767593384
1697638497730265000,8.12126513671875,2.101836919784546,1.7816181182861328,2.4613397121429443
1697638497739858200,8.130858154296876,1.7964625358581543,1.540884017944336,2.275115728378296
1697638497749452300,8.140452392578124,1.636628270149231,1.4136714935302734,1.9028470516204834
1697638497759045400,8.15004541015625,1.6151936054229736,1.3524370193481445,1.3926112651824951
1697638497768638000,8.159637939453125,1.715193748474121,1.15899658203125,0.8727030754089355
1697638497778231000,8.16923095703125,2.0286707878112793,0.7814474105834961,0.2877824306488037
1697638497787825200,8.1788251953125,2.5747251510620117,0.302337646484375,-0.02433013916015625
1697638497797418200,8.188418212890625,2.8037989139556885,0.11650562286376953,0.04132986068725586
1697638497807010800,8.1980107421875,2.6967105865478516,0.127410888671875,0.2546377182006836
1697638497816604000,8.20760400390625,2.7516255378723145,0.030994415283203125,0.5132408142089844
1697638497826198000,8.217197998046874,3.1066982746124268,-0.34400272369384766,0.8464040756225586
1697638497835791000,8.226791015625,3.791551113128662,-0.7979393005371094,1.158365249633789
1697638497845383700,8.2363837890625,4.187004089355469,-0.8430299758911133,1.809983253479004
1697638497854976800,8.245976806640625,3.83174991607666,0.1368551254272461,2.71801495552063
1697638497864571000,8.25557080078125,2.847029447555542,1.1407794952392578,3.3614110946655273
1697638497874164000,8.2651640625,1.8934214115142822,1.0959539413452148,3.5040695667266846
1697638497883756500,8.274756591796875,0.9498835802078247,0.6740312576293945,3.467724323272705
1697638497893349600,8.284349609375,0.21257281303405762,0.38756752014160156,3.524430274963379
1697638497902943700,8.29394384765625,-0.005953550338745117,-0.4521026611328125,3.78412127494812
1697638497912536800,8.303536865234374,-0.2766711711883545,-1.6487407684326172,3.4007368087768555
1697638497922129400,8.31312939453125,-0.6185132265090942,-2.4109067916870117,2.0545520782470703
1697638497931722500,8.322722412109375,-0.9527164697647095,-2.8101234436035156,0.6647460460662842
1697638497941316600,8.332316650390625,-1.5817070007324219,-2.878049850463867,-0.6201217174530029
1697638497950909700,8.34190966796875,-2.312358856201172,-2.443136215209961,-2.0532162189483643
1697638497960502300,8.351502197265624,-3.0323915481567383,-1.7945947647094727,-2.899211883544922
1697638497970095400,8.361095458984375,-3.359830856323242,-1.7984342575073242,-3.609866142272949
1697638497979689500,8.370689453125,-3.7258050441741943,-2.771090507507324,-4.177706241607666
1697638497989282600,8.380282470703126,-3.8426389694213867,-4.459488868713379,-5.032852649688721
1697638497998875100,8.389875244140624,-3.963996410369873,-5.43303108215332,-4.728195667266846
1697638498008468200,8.39946826171875,-3.684129476547241,-6.073474884033203,-3.3854804039001465
1697638498018062300,8.409062255859375,-3.1727423667907715,-5.5072126388549805,-2.1973962783813477
1697638498027655400,8.418655517578125,-2.0621519088745117,-4.515692710876465,-0.2988865375518799
1697638498037248000,8.428248046875,-1.7603204250335693,-3.690582275390625,1.7377376556396484
1697638498046841000,8.437841064453124,-2.3060569763183594,-3.064016342163086,3.701723098754883
1697638498056435200,8.447435302734375,-3.0737030506134033,-2.150649070739746,4.728786468505859
1697638498066028300,8.4570283203125,-2.83870267868042,-1.1318902969360352,5.103302001953125
1697638498075620900,8.466620849609376,-2.451073408126831,-0.3080253601074219,5.822200298309326
1697638498085214000,8.4762138671875,-2.018197536468506,1.7438926696777344,5.025921821594238
1697638498094808000,8.48580810546875,-1.6703224182128906,2.9520559310913086,3.6001474857330322
1697638498104401200,8.495401123046875,-0.3707641363143921,3.1566219329833984,3.0541787147521973
1697638498113993700,8.50499365234375,0.6550999283790588,2.474825859069824,1.888306975364685
1697638498123586800,8.5145869140625,1.5030028820037842,1.3652563095092773,0.566346287727356
1697638498133181000,8.524180908203125,1.7290490865707397,1.1186437606811523,0.007700324058532715
1697638498142774000,8.53377392578125,1.4294633865356445,1.1835746765136719,-0.28938913345336914
1697638498152366300,8.543366455078125,1.093949794769287,1.1963682174682617,-0.5417864322662354
1697638498161959700,8.552959716796876,0.8360763788223267,1.171370506286621,-0.9954673051834106
1697638498171553800,8.5625537109375,0.6617552638053894,1.125370979309082,-1.2684649229049683
1697638498181147000,8.57214697265625,0.6358283162117004,1.1279582977294922,-1.1946665048599243
1697638498190739200,8.5817392578125,0.6129180192947388,1.2724618911743164,-0.7646105289459229
1697638498200332500,8.59133251953125,0.4824552834033966,1.5301332473754883,-0.10820245742797852
1697638498209926400,8.600926513671874,0.4421062171459198,1.7409477233886719,0.6064404845237732
1697638498219519700,8.610519775390625,0.5523027181625366,1.7977275848388672,1.2269090414047241
1697638498229112000,8.620112060546875,0.7843340039253235,1.8012819290161133,1.9289917945861816
1697638498238705400,8.629705322265625,1.011711835861206,1.8305997848510742,2.523245096206665
1697638498248299300,8.63929931640625,1.030425786972046,1.7804908752441406,3.071737289428711
1697638498257892600,8.648892578125,0.9500540494918823,1.7538442611694336,3.6429800987243652
1697638498267485000,8.65848486328125,0.7538095116615295,1.8245296478271484,3.9286370277404785
1697638498277078000,8.668078125,0.5176346898078918,1.8919181823730469,3.8671560287475586
1697638498286672100,8.677672119140626,0.4798143804073334,1.9393653869628906,3.6356773376464844
1697638498296265500,8.687265380859374,0.7693901062011719,1.871786117553711,3.395847797393799
1697638498305857800,8.69685791015625,1.3238108158111572,1.7855901718139648,3.071082592010498
1697638498315451000,8.706450927734375,1.8897286653518677,1.6859703063964844,2.8498387336730957
1697638498325045000,8.716044921875,2.421896457672119,1.365443229675293,2.7302887439727783
1697638498334638000,8.72563818359375,2.6902551651000977,0.738739013671875,2.64445161819458
1697638498344230700,8.735230712890624,2.605231285095215,0.0595245361328125,2.4428176879882812
1697638498353823700,8.74482373046875,2.526492118835449,-1.1044483184814453,2.430487632751465
1697638498363417900,8.75441796875,2.2711732387542725,-1.9899396896362305,2.6986396312713623
1697638498373011000,8.764010986328126,2.4660017490386963,-2.5114078521728516,3.200279474258423
1697638498382603500,8.773603515625,2.4366021156311035,-2.6460494995117188,3.8546786308288574
1697638498392196600,8.783196533203125,2.0934369564056396,-2.371194839477539,4.739182472229004
1697638498401790700,8.792790771484375,1.758241891860962,-1.6096582412719727,5.406558036804199
1697638498411383800,8.8023837890625,1.0780456066131592,-1.0558786392211914,5.870702743530273
1697638498420976400,8.811976318359376,0.08190929889678955,-0.6954879760742188,5.8051018714904785
1697638498430569500,8.821569580078124,-1.038123369216919,-0.8695230484008789,5.326929569244385
1697638498440163600,8.83116357421875,-2.195899248123169,-1.7890844345092773,4.128341197967529
1697638498449756700,8.840756591796875,-3.709697961807251,-3.684305191040039,2.109865427017212
1697638498459349000,8.850348876953126,-4.690685272216797,-5.3350324630737305,0.46511703729629517
1697638498468942300,8.8599423828125,-4.625316143035889,-5.517317771911621,-1.5121299028396606
1697638498478536200,8.8695361328125,-3.5965192317962646,-4.402457237243652,-3.7419276237487793
1697638498488129500,8.879129638671875,-1.1932737827301025,-2.777937889099121,-4.729426860809326
1697638498497721900,8.888721923828125,1.487403154373169,-0.2446613311767578,-4.749043941497803
1697638498507315200,8.898315185546876,2.9507522583007812,0.999664306640625,-2.1522836685180664
1697638498516909000,8.907908935546875,2.229888916015625,0.9136486053466797,0.2659412622451782
1697638498526502400,8.91750244140625,1.2154773473739624,-0.3468656539916992,1.281557321548462
1697638498536094700,8.9270947265625,-0.30581194162368774,0.17868423461914062,1.305729627609253
1697638498545687800,8.936687744140626,-2.4279894828796387,0.45459651947021484,1.8316893577575684
1697638498555282000,8.946281982421874,-4.190356731414795,0.22960472106933594,1.2736289501190186
1697638498564875000,8.955875,-5.347411155700684,-0.008543968200683594,0.27287089824676514
1697638498574467600,8.965467529296875,-5.506836891174316,-0.1027069091796875,-1.2002899646759033
1697638498584060700,8.975060791015625,-5.379145622253418,-0.5434236526489258,-2.740211248397827
1697638498593654800,8.98465478515625,-4.441257476806641,-1.167724609375,-3.5554018020629883
1697638498603247900,8.994247802734375,-3.027592182159424,-1.244588851928711,-4.140702724456787
1697638498612840400,9.00384033203125,-2.071904182434082,-1.4823684692382812,-4.119772434234619
1697638498622433500,9.01343359375,-1.0693726539611816,-1.2815418243408203,-4.515335559844971
1697638498632027600,9.023027587890626,0.0070868730545043945,-0.9866790771484375,-4.0004425048828125
1697638498641620700,9.032620849609375,1.2188130617141724,-0.6204795837402344,-2.924015998840332
1697638498651213300,9.04221337890625,2.109846353530884,-0.36679935455322266,-1.4312282800674438
1697638498660806400,9.051806396484375,2.8032379150390625,0.20444679260253906,-0.4888535737991333
1697638498670400500,9.061400390625,2.411839723587036,0.48201560974121094,0.09353470802307129
1697638498679993600,9.07099365234375,1.3449705839157104,0.6018199920654297,0.38613176345825195
1697638498689586000,9.0805859375,0.42277514934539795,0.7678489685058594,0.5786721706390381
1697638498699179300,9.09017919921875,-0.015839695930480957,0.6756582260131836,0.6312320232391357
1697638498708773000,9.099773193359376,-0.03389453887939453,0.6619110107421875,0.5033254623413086
1697638498718366500,9.109366455078124,0.3692770004272461,0.6285715103149414,0.47734808921813965
1697638498727958800,9.118958740234374,0.8750091791152954,0.6955070495605469,0.5551728010177612
1697638498737552100,9.12855224609375,1.0332674980163574,0.7124223709106445,0.7638261318206787
1697638498747146000,9.13814599609375,1.0687916278839111,0.6603374481201172,0.8552905321121216
1697638498756739000,9.147739013671876,0.796438992023468,0.6010227203369141,0.7672916650772095
1697638498766331600,9.15733154296875,0.5147076845169067,0.4166994094848633,0.5934939384460449
1697638498775924700,9.1669248046875,0.5031000375747681,0.3196420669555664,0.5132746696472168
1697638498785518800,9.176518798828125,0.8176693320274353,0.24956703186035156,0.5019382238388062
1697638498795112000,9.18611181640625,1.120331048965454,0.1898365020751953,0.6493179798126221
1697638498804704500,9.19570458984375,1.3964087963104248,0.10961627960205078,0.8439474105834961
1697638498814297600,9.205297607421874,1.8929388523101807,0.011593818664550781,1.1618919372558594
1697638498823891700,9.2148916015625,2.181457996368408,-0.015416145324707031,1.5367474555969238
1697638498833484800,9.22448486328125,2.251582622528076,0.1414318084716797,1.9639276266098022
1697638498843077400,9.234077392578126,2.411066770553589,0.36348915100097656,2.372114658355713
1697638498852670500,9.24367041015625,2.598334312438965,0.5897741317749023,2.5572073459625244
1697638498862264600,9.2532646484375,2.6951911449432373,0.8839778900146484,2.7890167236328125
1697638498871857700,9.262857666015625,2.9966838359832764,1.2786979675292969,3.0926246643066406
1697638498881450000,9.272449951171875,3.4819588661193848,1.5781464576721191,3.6517350673675537
1697638498891043300,9.282043212890626,3.6019272804260254,2.0214977264404297,4.184745788574219
1697638498900637200,9.29163720703125,3.8384623527526855,2.4594717025756836,4.76315975189209
1697638498910230500,9.30123046875,3.8634636402130127,2.6511616706848145,4.765771389007568
1697638498919822800,9.31082275390625,3.5824408531188965,2.2866907119750977,4.061218738555908
1697638498929416000,9.320416015625,3.0839810371398926,1.7091684341430664,3.3931567668914795
1697638498939010000,9.330010009765624,2.5428686141967773,1.1565675735473633,2.6691346168518066
1697638498948603100,9.33960302734375,2.172912836074829,0.44460391998291016,2.2158029079437256
1697638498958195700,9.34919580078125,2.0474894046783447,-0.046314239501953125,1.2536542415618896
1697638498967788800,9.358788818359375,1.8568658828735352,-0.13190841674804688,0.34662890434265137
1697638498977383000,9.3683828125,1.5876274108886719,0.2574033737182617,-0.17869365215301514
1697638498986976000,9.37797607421875,1.4278712272644043,0.7213716506958008,-0.564232587814331
1697638498996568600,9.387568603515625,1.4212517738342285,1.183420181274414,-0.7025920152664185
1697638499006161700,9.39716162109375,1.1645764112472534,1.4491233825683594,-0.642385721206665
1697638499015755800,9.406755859375,0.28327929973602295,1.0960731506347656,-0.7811704874038696
1697638499025348900,9.416348876953125,-0.5441036224365234,0.19900131225585938,-0.8464735746383667
1697638499034941200,9.425941162109375,-1.377954125404358,-0.7227392196655273,-0.6157909631729126
1697638499044534500,9.435534423828125,-1.6626794338226318,-1.5771169662475586,-0.7258788347244263
1697638499054128400,9.44512841796875,-2.756964683532715,-2.411454200744629,-1.0571281909942627
1697638499063721700,9.4547216796875,-3.375739097595215,-3.4728946685791016,-2.292961597442627
1697638499073314000,9.46431396484375,-4.295727729797363,-2.8749265670776367,-4.725454807281494
1697638499082907100,9.4739072265625,-2.4383835792541504,-4.024364471435547,-5.022895336151123
1697638499092501200,9.483501220703126,-1.9814364910125732,-3.387770652770996,-4.551956653594971
1697638499102094300,9.49309423828125,-2.0001745223999023,-2.7192726135253906,-3.4033889770507812
1697638499111687000,9.50268701171875,-2.452589988708496,-2.361414909362793,-2.5789809226989746
1697638499121280000,9.512280029296875,-3.5930545330047607,-2.3838510513305664,-1.5792032480239868
1697638499130874000,9.5218740234375,-3.8934662342071533,-3.5070934295654297,-0.07017314434051514
1697638499140467200,9.53146728515625,-3.101017713546753,-3.75628662109375,2.262552261352539
1697638499150059500,9.5410595703125,-2.2710256576538086,-2.3963260650634766,4.896186828613281
1697638499159652900,9.55065283203125,-3.1677839756011963,-0.7957983016967773,6.027892112731934
1697638499169246700,9.560246826171875,-4.75693416595459,-1.553628921508789,5.552411079406738
1697638499178840000,9.569840087890626,-6.465959072113037,-3.370528221130371,4.954230308532715
1697638499188432400,9.579432373046876,-6.587890625,-2.804372787475586,4.000079154968262
1697638499198025500,9.589025390625,-5.079624652862549,-1.5509576797485352,3.2245616912841797
1697638499207619600,9.59861962890625,-3.224116802215576,-0.6741218566894531,2.394610643386841
1697638499217212700,9.608212646484375,-1.5042046308517456,-0.02637958526611328,1.8844096660614014
1697638499226805200,9.61780517578125,-0.7255246639251709,0.3127555847167969,1.5891354084014893
1697638499236398300,9.6273984375,-0.48926979303359985,0.5453815460205078,1.8309038877487183
1697638499245992400,9.636992431640625,-0.08531844615936279,0.8580160140991211,2.1942052841186523
1697638499255585500,9.64658544921875,0.6673474907875061,1.2239274978637695,2.3741283416748047
1697638499265178000,9.65617822265625,1.0966737270355225,1.465597152709961,1.8406614065170288
1697638499274771200,9.665771240234376,1.1972013711929321,1.5514516830444336,0.8958227038383484
1697638499284365300,9.675365234375,1.138272762298584,1.851522445678711,0.18050050735473633
1697638499293958400,9.68495849609375,1.2050695419311523,2.2268123626708984,0.23856353759765625
1697638499303550700,9.69455078125,1.005416989326477,2.579303741455078,0.6598742604255676
1697638499313144000,9.70414404296875,0.5032953023910522,2.9469194412231445,0.7286815047264099
1697638499322738000,9.713738037109374,-0.08103173971176147,3.3721137046813965,0.600965678691864
1697638499332331000,9.7233310546875,-0.6295232176780701,3.947470188140869,0.4370002746582031
1697638499341923600,9.732923583984375,-1.0093590021133423,4.486112117767334,0.4985045790672302
1697638499351516700,9.7425166015625,-1.0921225547790527,5.0429253578186035,0.4553183317184448
1697638499361110800,9.75211083984375,-1.047656536102295,5.39561128616333,0.36409223079681396
1697638499370704000,9.761703857421875,-0.9527527093887329,5.0577826499938965,0.646869957447052
1697638499380296200,9.771296142578125,-0.6734999418258667,4.678793430328369,0.8902492523193359
1697638499389889500,9.7808896484375,-0.3566166162490845,4.657824993133545,1.2244062423706055
1697638499399483600,9.790483642578126,0.07380533218383789,4.557154178619385,1.5614123344421387
1697638499409076700,9.80007666015625,0.5197100639343262,4.31264591217041,1.8862661123275757
1697638499418669000,9.8096689453125,0.8036189079284668,3.8843512535095215,2.339466094970703
1697638499428262400,9.819262451171875,1.170875072479248,3.471285343170166,2.626987934112549
1697638499437856300,9.828856201171876,1.5264358520507812,3.026144027709961,2.6774325370788574
1697638499447449600,9.83844970703125,1.6921889781951904,2.6307621002197266,2.4336814880371094
1697638499457042000,9.8480419921875,1.6689378023147583,2.4332990646362305,1.683023452758789
1697638499466635000,9.857635009765625,1.6732326745986938,2.459500312805176,0.5293892025947571
1697638499476229000,9.86722900390625,1.747054934501648,2.3648972511291504,-0.49711883068084717
1697638499485822200,9.876822265625,1.4651732444763184,1.9993090629577637,-1.1382293701171875
1697638499495414500,9.88641455078125,0.8587680459022522,1.6301755905151367,-1.7677017450332642
1697638499505007900,9.8960078125,0.5031135678291321,1.2537336349487305,-1.896230936050415
1697638499514602000,9.90560205078125,-0.019434750080108643,1.2330665588378906,-1.317431926727295
1697638499524195000,9.915195068359376,-0.26809775829315186,1.0522212982177734,-1.0680028200149536
1697638499533787400,9.924787353515624,-0.6540951728820801,0.8001651763916016,-0.7983303070068359
1697638499543380700,9.934380615234375,-0.6067529916763306,0.9312562942504883,-0.03390812873840332
1697638499552974600,9.943974609375,0.08115172386169434,1.352595329284668,1.4526450634002686
1697638499562567700,9.953567626953125,-0.3947802186012268,1.7033147811889648,2.9101033210754395
1697638499572160300,9.96316015625,-1.6998157501220703,2.093277931213379,4.0951714515686035
1697638499581753300,9.97275341796875,-3.1291024684906006,2.066258430480957,4.523320198059082
1697638499591347500,9.982347412109375,-2.986229181289673,1.3233404159545898,4.257550239562988
1697638499600940500,9.9919404296875,-0.3709842562675476,-0.6629171371459961,2.982347011566162
1697638499610532900,10.001532958984376,-1.3045268058776855,-2.691343307495117,-2.5579402446746826
1697638499620126200,10.011126220703124,-3.033447504043579,-5.63228702545166,-5.785307884216309
1697638499629720300,10.02072021484375,-5.042238235473633,-7.863872528076172,-4.060060977935791
1697638499639313400,10.0303134765625,-6.837773323059082,-7.3425798416137695,-3.1617119312286377
1697638499648905700,10.03990576171875,-4.78319787979126,-7.143454551696777,-2.6351375579833984
1697638499658499000,10.0494990234375,0.9277454614639282,-8.575175285339355,-3.1425423622131348
1697638499668093000,10.059093017578125,2.510901689529419,-9.03995132446289,-3.272874355316162
1697638499677686000,10.06868603515625,1.3710144758224487,-7.124022483825684,-1.5214126110076904
1697638499687278600,10.078278564453125,-0.07213971018791199,-3.9368152618408203,1.1714884042739868
1697638499696871700,10.08787158203125,-1.1575467586517334,-1.7845888137817383,2.803584098815918
1697638499706465800,10.0974658203125,-1.1856269836425781,-1.831136703491211,2.9719245433807373
1697638499716059000,10.107058837890625,-0.809544026851654,-2.4786033630371094,1.899932622909546
1697638499725651200,10.116651123046875,0.34834539890289307,-3.1855783462524414,0.5551689267158508
1697638499735244500,10.12624462890625,0.7111666798591614,-3.5603418350219727,-0.8438513278961182
1697638499744838400,10.13583837890625,0.12552136182785034,-3.9763870239257812,-1.8741483688354492
1697638499754431700,10.145431640625,-1.1685181856155396,-4.507704734802246,-2.3911120891571045
1697638499764024000,10.155024169921875,-2.2034108638763428,-4.5737409591674805,-2.953782796859741
1697638499773617200,10.1646171875,-2.186072587966919,-3.833953857421875,-3.399747371673584
1697638499783211300,10.174211181640626,-1.6825768947601318,-2.349607467651367,-3.004256248474121
1697638499792804400,10.183804443359374,-1.5768986940383911,-0.9915981292724609,-2.002760887145996
1697638499802397000,10.19339697265625,-1.4664363861083984,0.3452301025390625,-1.3651306629180908
1697638499811990000,10.202989990234375,-0.6762417554855347,1.5008955001831055,-0.7041085958480835
1697638499821584100,10.212584228515626,0.5568990707397461,2.5096912384033203,-0.42053771018981934
1697638499831177200,10.22217724609375,1.8836920261383057,3.263003349304199,-0.3028496503829956
1697638499840769500,10.23176953125,2.868436336517334,3.60976505279541,-0.0036754608154296875
1697638499850363000,10.24136279296875,3.341113567352295,3.831393241882324,0.34445756673812866
1697638499859956700,10.250956787109375,3.5244247913360596,4.036136150360107,0.6681568622589111
1697638499869550000,10.260550048828126,3.363691806793213,4.171411991119385,0.9052132368087769
1697638499879142400,10.270142333984374,3.1709651947021484,4.351584434509277,1.0303535461425781
1697638499888735500,10.279735595703125,2.8173727989196777,4.5496087074279785,1.214113712310791
1697638499898329600,10.28932958984375,2.357349395751953,4.618963718414307,1.4096022844314575
1697638499907922700,10.298922607421876,1.885298490524292,4.506681442260742,1.4110829830169678
1697638499917515000,10.308514892578126,1.5553371906280518,4.260410308837891,1.1772595643997192
1697638499927108400,10.3181083984375,1.1243457794189453,3.7870640754699707,1.078077793121338
1697638499936702500,10.327702392578125,0.8022434115409851,3.287623405456543,0.8602399826049805
1697638499946295600,10.337295654296875,0.5902405977249146,2.7596116065979004,0.582460880279541
1697638499955887900,10.346887939453126,0.3871877193450928,2.1934423446655273,0.35757601261138916
1697638499965481000,10.35648095703125,0.30957290530204773,1.6346721649169922,0.3849443197250366
1697638499975075000,10.366074951171875,0.4112603962421417,1.253117561340332,0.5390208959579468
1697638499984668200,10.375668212890625,0.6395372152328491,1.2229938507080078,0.5941017866134644
1697638499994260700,10.3852607421875,0.9127053618431091,1.5629100799560547,0.701677680015564
1697638500003853800,10.394853759765626,1.096642255783081,2.25077486038208,0.9917780160903931
1697638500013448000,10.404447998046875,1.3040730953216553,2.9135217666625977,1.3469854593276978
1697638500023041000,10.414041015625,1.2541606426239014,3.252830982208252,1.5073071718215942
1697638500032633300,10.42363330078125,1.01887047290802,3.4056248664855957,1.4797170162200928
1697638500042226700,10.433226806640626,0.8731875419616699,3.448831558227539,1.556706428527832
1697638500051820500,10.442820556640624,0.4612393379211426,3.2298450469970703,1.6078017950057983
1697638500061414000,10.452413818359375,-0.36661386489868164,2.3478212356567383,1.4571527242660522
1697638500071006200,10.462006103515625,-1.0256071090698242,0.7253208160400391,0.7117335796356201
1697638500080599300,10.471599365234376,-0.851935625076294,-1.6142692565917969,-0.7701966762542725
1697638500090193400,10.481193359375,-1.1881216764450073,-4.136667251586914,-2.7305691242218018
1697638500099786500,10.490786376953125,-1.3051626682281494,-6.5073089599609375,-4.265227794647217
1697638500109378800,10.50037890625,-0.8884696364402771,-8.514593124389648,-4.264995574951172
1697638500118972200,10.50997216796875,0.5262070298194885,-7.347713470458984,-5.319150924682617
1697638500128566000,10.51956591796875,1.202653408050537,-10.200201988220215,-2.854814052581787
1697638500138159400,10.529159423828125,-2.3400967121124268,-10.578829765319824,0.8599516153335571
1697638500147751700,10.538751708984375,-3.6623501777648926,-8.809807777404785,2.524944543838501
1697638500157344800,10.5483447265625,-3.2348248958587646,-6.453309059143066,1.8562899827957153
1697638500166939000,10.55793896484375,-2.799980878829956,-4.74558162689209,2.325216770172119
1697638500176532000,10.567531982421874,-1.9531373977661133,-3.3267879486083984,2.289185047149658
1697638500186124300,10.577124267578125,-1.245160698890686,-2.642645835876465,1.8611648082733154
1697638500195717600,10.586717529296875,-1.5519561767578125,-2.299593925476074,1.1606414318084717
1697638500205311700,10.596311767578126,-2.4184422492980957,-2.189311981201172,0.018001452088356018
1697638500214904800,10.60590478515625,-2.2885353565216064,-1.9625825881958008,-0.42836815118789673
1697638500224497200,10.6154970703125,-1.7642455101013184,-1.4215326309204102,-0.9355031251907349
1697638500234090200,10.62509033203125,-1.5189354419708252,-0.9705829620361328,-1.607949137687683
1697638500243684400,10.634684326171875,-1.4666649103164673,-0.7362060546875,-2.1381211280822754
1697638500253277400,10.64427734375,-1.446577548980713,-0.5748214721679688,-2.083129405975342
1697638500262870000,10.6538701171875,-0.9889163374900818,-0.46248722076416016,-1.3767242431640625
1697638500272463000,10.663463134765625,-0.22059381008148193,-0.04076099395751953,-0.11694656312465668
1697638500282057200,10.67305712890625,0.4970910847187042,0.8213100433349609,1.0707907676696777
1697638500291650300,10.682650390625,1.2387831211090088,1.8961162567138672,2.384324312210083
1697638500301242600,10.69224267578125,1.4938358068466187,3.0685644149780273,2.3775157928466797
1697638500310836000,10.7018359375,1.0445539951324463,4.209176063537598,1.5839787721633911
1697638500320429800,10.711429931640625,0.7532638907432556,5.064858436584473,1.4712963104248047
1697638500330023000,10.72102294921875,0.6345460414886475,5.602930068969727,1.4971859455108643
1697638500339615500,10.730615478515626,0.61893230676651,5.872005939483643,1.5358848571777344
1697638500349208600,10.74020849609375,0.6886428594589233,5.911107540130615,1.5609335899353027
1697638500358802700,10.749802734375,0.7520946264266968,5.677982330322266,1.4736876487731934
1697638500368395800,10.759395751953125,0.6666019558906555,5.051623344421387,1.3178921937942505
1697638500377988000,10.768988037109375,0.39354652166366577,4.39357852935791,1.0161877870559692
1697638500387581400,10.77858154296875,0.5030125379562378,3.8902902603149414,0.6186323165893555
1697638500397175300,10.78817529296875,1.2651845216751099,3.6039843559265137,0.1842120885848999
1697638500406768400,10.797768310546875,1.9806652069091797,3.245612144470215,-0.40544837713241577
1697638500416361000,10.80736083984375,2.1536898612976074,2.9395289421081543,-1.3219213485717773
1697638500425954000,10.8169541015625,1.9950432777404785,2.5754289627075195,-2.5239126682281494
1697638500435548200,10.826548095703124,1.420379877090454,1.847076416015625,-3.002180337905884
1697638500445141200,10.836141357421875,0.21839529275894165,1.5730161666870117,-2.9033002853393555
1697638500454733600,10.845733642578125,-1.1544526815414429,1.2237281799316406,-1.4137721061706543
1697638500464327000,10.855326904296875,-1.4673247337341309,1.5641136169433594,-0.6250260472297668
1697638500473920800,10.864920654296874,-1.764244794845581,2.4808692932128906,0.3261563181877136
1697638500483513900,10.874513916015625,-1.5375312566757202,3.438632011413574,1.489165186882019
1697638500493106400,10.8841064453125,-0.7782654762268066,3.7194647789001465,1.947432518005371
1697638500502699500,10.893699462890625,-0.6806344985961914,2.02402400970459,1.3206838369369507
1697638500512293600,10.903293701171876,0.08656013011932373,-1.2451400756835938,0.21054893732070923
1697638500521886700,10.91288671875,1.1481965780258179,-4.4287109375,-2.8324244022369385
1697638500531479000,10.92247900390625,0.9661568999290466,-6.261212348937988,-4.084691524505615
1697638500541072400,10.932072265625,-2.558171033859253,-6.581171035766602,-2.1221566200256348
1697638500550666200,10.941666259765626,-4.6063127517700195,-5.058608055114746,-1.948512315750122
1697638500560259300,10.95125927734375,-3.3901071548461914,-3.9036006927490234,-0.3819767236709595
1697638500569852000,10.960851806640624,-1.287630319595337,-4.448248863220215,1.4211251735687256
1697638500579445000,10.970445068359375,-0.28583621978759766,-5.871832847595215,1.157131314277649
1697638500589039000,10.9800390625,-0.057119011878967285,-7.081281661987305,0.6596053838729858
1697638500598632200,10.989632080078126,0.5715973377227783,-7.594509124755859,1.2953088283538818
1697638500608224500,10.999224609375,0.20815426111221313,-7.09593391418457,2.1465256214141846
1697638500617817900,11.00881787109375,-0.2627248764038086,-5.560695648193359,1.499023199081421
1697638500627411700,11.01841162109375,-0.7352531552314758,-3.711430549621582,0.1506967544555664
1697638500637004800,11.0280048828125,-1.4836474657058716,-2.103804588317871,-1.3351411819458008
1697638500646597400,11.037597412109376,-1.2263669967651367,-1.348337173461914,-2.6717100143432617
1697638500656190500,11.0471904296875,0.42327916622161865,-0.6727437973022461,-3.98142671585083
1697638500665784600,11.05678466796875,2.466526508331299,-0.08949565887451172,-4.553837299346924
1697638500675377700,11.066377685546875,2.9328927993774414,0.35230064392089844,-3.9835214614868164
1697638500684970000,11.075969970703126,1.734358310699463,0.5904121398925781,-2.767141819000244
1697638500694563300,11.085563232421874,0.20620155334472656,0.8968019485473633,-1.804976463317871
1697638500704157200,11.0951572265625,-0.7160043120384216,1.3019380569458008,-1.0537256002426147
1697638500713750300,11.104750244140625,-0.9824612140655518,1.9774169921875,-0.5286082029342651
1697638500723342800,11.1143427734375,-0.7240468263626099,2.7411632537841797,-0.21694523096084595
1697638500732936000,11.12393603515625,-0.015164554119110107,3.5025219917297363,-0.214918315410614
1697638500742530000,11.133530029296875,0.8848788738250732,4.0589728355407715,-0.3130650520324707
1697638500752123100,11.143123046875,1.8998334407806396,4.466679573059082,-0.24152028560638428
1697638500761715500,11.152715576171875,2.856513261795044,4.607326030731201,0.025099575519561768
1697638500771308500,11.16230859375,3.6033902168273926,4.345882415771484,0.3892728090286255
1697638500780902700,11.171902587890624,4.001808166503906,3.8863115310668945,0.6479790210723877
1697638500790495700,11.181495849609375,4.020400047302246,3.4626951217651367,0.6568263173103333
1697638500800088300,11.19108837890625,3.758704662322998,3.1292152404785156,0.7002909779548645
1697638500809681400,11.200681396484375,3.2274675369262695,2.7034759521484375,1.1299326419830322
1697638500819275500,11.210275634765624,2.5798215866088867,2.4766297340393066,1.490269660949707
1697638500828868600,11.21986865234375,1.8902153968811035,2.703535556793213,1.6676138639450073
1697638500838461000,11.2294609375,1.0885570049285889,3.0723876953125,1.7502002716064453
1697638500848054000,11.239053955078125,0.39407047629356384,2.983315944671631,1.96714186668396
1697638500857648000,11.248648193359376,-0.08667635917663574,2.3252854347229004,2.0865299701690674
1697638500867241200,11.2582412109375,-0.0791885256767273,1.4581184387207031,1.9498705863952637
1697638500876833500,11.26783349609375,-0.09540355205535889,0.7742204666137695,1.5187840461730957
1697638500886427000,11.277427001953125,-0.08119761943817139,0.6125516891479492,0.9341330528259277
1697638500896021000,11.28702099609375,-0.08217191696166992,0.9243364334106445,0.5663822293281555
1697638500905614000,11.296614013671874,-0.19531458616256714,1.660848617553711,0.3838266134262085
1697638500915206400,11.306206298828124,-0.5611450672149658,2.2407894134521484,-0.10915504395961761
1697638500924799500,11.315799560546875,-0.7957659959793091,2.2107763290405273,-0.846420407295227
1697638500934393600,11.3253935546875,-0.7231714725494385,1.3526220321655273,-1.5636171102523804
1697638500943986700,11.334986572265626,-0.3775869607925415,0.24632549285888672,-2.0521695613861084
1697638500953579000,11.3445791015625,0.09152654558420181,-1.0100469589233398,-1.921413540840149
1697638500963172400,11.35417236328125,-0.3960990309715271,-3.2362499237060547,-1.4958739280700684
1697638500972766200,11.36376611328125,-1.1677616834640503,-6.239583969116211,-0.9075063467025757
1697638500982359600,11.373359619140626,-1.621100902557373,-9.45489501953125,-0.9669320583343506
1697638500991952000,11.382951904296876,-1.9820501804351807,-11.303011894226074,-1.0114480257034302
1697638501001545000,11.392544921875,-2.6093125343322754,-11.30875015258789,0.14769698679447174
1697638501011139000,11.40213916015625,-3.185886859893799,-9.22335433959961,1.8841280937194824
1697638501020732200,11.411732177734375,-4.198196887969971,-6.8806304931640625,1.294859766960144
1697638501030324500,11.421324462890626,-1.1767452955245972,-4.994783401489258,-1.277156949043274
1697638501039917800,11.430917724609374,-2.473790407180786,-4.834914207458496,2.4601356983184814
1697638501049511700,11.44051171875,-3.2505643367767334,-3.61234188079834,1.6215240955352783
1697638501059105000,11.45010498046875,-2.329051971435547,-2.51039981842041,0.832825243473053
1697638501068697300,11.459697265625,-1.7355413436889648,-1.4409875869750977,0.7282417416572571
1697638501078290400,11.46929052734375,-0.961934506893158,-0.9797420501708984,0.9426164627075195
1697638501087884500,11.478884521484375,-0.5117798447608948,-0.46596717834472656,0.7361353039741516
1697638501097477600,11.4884775390625,-0.0035329461097717285,-0.10515785217285156,0.734844446182251
1697638501107070000,11.498070068359375,0.9531790614128113,0.6620635986328125,0.6469840407371521
1697638501116663300,11.507663330078126,1.5544579029083252,1.557927131652832,0.37479808926582336
1697638501126257200,11.517257080078124,1.2794288396835327,2.4722681045532227,0.26825353503227234
1697638501135850500,11.5268505859375,0.6756031513214111,3.204380989074707,0.1318213939666748
1697638501145442800,11.53644287109375,0.5322034955024719,3.793067455291748,0.25575053691864014
1697638501155036000,11.546035888671875,0.6661045551300049,4.270350933074951,0.5053000450134277
1697638501164630000,11.555630126953124,0.8264018297195435,4.582316875457764,0.6942605972290039
1697638501174223000,11.56522314453125,0.7924010157585144,4.748947620391846,1.1490446329116821
1697638501183815400,11.5748154296875,0.5838950872421265,4.641655921936035,1.7104367017745972
1697638501193408800,11.58440869140625,0.3135356903076172,4.470949649810791,2.104084014892578
1697638501203002600,11.594002685546876,0.09731817245483398,4.229591369628906,2.4050638675689697
1697638501212595700,11.603595703125,0.08967292308807373,4.010837078094482,2.3690474033355713
1697638501222188300,11.613188232421875,0.7651360034942627,3.6334996223449707,2.3201708793640137
1697638501231781400,11.622781494140625,0.9801833629608154,3.2580456733703613,1.9379677772521973
1697638501241375500,11.63237548828125,0.7534548044204712,3.0320382118225098,0.6965542435646057
1697638501250968600,11.641968505859374,0.228692889213562,2.8040194511413574,-0.6053542494773865
1697638501260561000,11.651560791015624,-0.15346908569335938,2.590327739715576,-1.2787785530090332
1697638501270154000,11.661154052734375,-0.29881179332733154,2.5460429191589355,-1.6873573064804077
1697638501279748000,11.670748046875,0.03465890884399414,2.737813949584961,-2.0707828998565674
1697638501289341200,11.680341064453126,0.3389592170715332,2.8454065322875977,-2.130113124847412
1697638501298933500,11.68993359375,0.5728764533996582,3.1392459869384766,-1.9388622045516968
1697638501308526800,11.69952685546875,0.6963032484054565,3.382751941680908,-1.8468769788742065
1697638501318120700,11.70912060546875,1.101063847541809,3.0225729942321777,-1.448707103729248
1697638501327714000,11.718714111328126,1.131561517715454,1.540278434753418,-0.37367069721221924
1697638501337306400,11.728306396484374,-0.20608282089233398,-0.4497709274291992,-1.0202876329421997
1697638501346899500,11.7378994140625,-1.019118070602417,-3.851442337036133,-2.210214138031006
1697638501356493600,11.74749365234375,-2.0011379718780518,-7.534480094909668,-2.279520034790039
1697638501366086700,11.757086669921875,-3.0133743286132812,-8.495162010192871,-2.4215996265411377
1697638501375679000,11.766678955078126,-3.3384294509887695,-6.796083450317383,-1.939229130744934
1697638501385272300,11.776272216796874,-2.549034595489502,-5.213781356811523,-0.3529336154460907
1697638501394866200,11.7858662109375,-0.4408596158027649,-5.225415229797363,0.5640817880630493
1697638501404459300,11.795459228515625,1.378021001815796,-6.033916473388672,0.44699737429618835
1697638501414051800,11.8050517578125,0.8029923439025879,-6.651747703552246,0.29676175117492676
1697638501423645000,11.81464501953125,0.7034462690353394,-6.764468193054199,1.0090651512145996
1697638501433239000,11.824239013671875,-0.260703444480896,-6.113780975341797,1.3882713317871094
1697638501442832100,11.83383203125,-1.5180094242095947,-5.509459495544434,1.0951039791107178
1697638501452424400,11.843424560546875,-2.0505788326263428,-4.997014999389648,-0.2524043321609497
1697638501462017800,11.853017822265626,-1.7035236358642578,-5.029623985290527,-1.516448736190796
1697638501471611600,11.862611572265624,-1.2066316604614258,-5.101766586303711,-2.828575611114502
1697638501481204700,11.872204833984375,-0.8816315531730652,-4.580475807189941,-3.669553756713867
1697638501490797300,11.88179736328125,-0.6405607461929321,-3.703667640686035,-3.639906883239746
1697638501500390400,11.891390380859375,-0.3830384612083435,-2.448272705078125,-3.050896406173706
1697638501509984500,11.900984619140624,-0.120769202709198,-1.1472082138061523,-2.554677724838257
1697638501519577600,11.91057763671875,0.43887633085250854,0.4168071746826172,-2.342291831970215
1697638501529170000,11.920169921875,1.198121190071106,1.3552169799804688,-2.1676433086395264
1697638501538763000,11.929762939453125,1.7043322324752808,1.8708066940307617,-1.8242802619934082
1697638501548357000,11.939357177734376,2.1570887565612793,2.4118170738220215,-1.4129873514175415
1697638501557950200,11.9489501953125,2.266065835952759,2.959432601928711,-0.9767091274261475
1697638501567542500,11.95854248046875,2.142211437225342,3.375272750854492,-0.4756917655467987
1697638501577135900,11.968135986328125,1.948915719985962,3.748141288757324,-0.11016130447387695
1697638501586729700,11.977729736328126,1.7729291915893555,4.054365634918213,0.15086139738559723
1697638501596322800,11.98732275390625,1.6137332916259766,4.151116371154785,0.40394166111946106
1697638501605915400,11.996915283203125,1.6073652505874634,4.294642925262451,0.5263873338699341
1697638501615508500,12.006508544921875,1.5688625574111938,4.618425369262695,0.5646620988845825
1697638501625102300,12.016102294921875,1.5987250804901123,4.913909435272217,0.5207277536392212
1697638501634695700,12.02569580078125,1.6586647033691406,5.1401753425598145,0.4999123215675354
1697638501644288000,12.0352880859375,1.7796021699905396,5.296959400177002,0.41736140847206116
1697638501653881000,12.044881103515625,2.0347213745117188,5.300497531890869,0.35092493891716003
1697638501663475200,12.05447509765625,2.4222240447998047,5.215423107147217,0.3562086820602417
1697638501673068300,12.064068359375,2.7744548320770264,4.886630535125732,0.4988069534301758
1697638501682660600,12.07366064453125,3.216876983642578,4.680150508880615,0.7066343426704407
1697638501692254000,12.08325390625,3.3933799266815186,4.237705230712891,0.9993607401847839
1697638501701847800,12.092847900390625,3.3294930458068848,3.755826473236084,1.1465368270874023
1697638501711441000,12.10244091796875,2.7161526679992676,3.1867332458496094,1.0800983905792236
1697638501721033500,12.112033447265626,1.6760444641113281,2.5495986938476562,0.6018162369728088
1697638501730626600,12.12162646484375,0.6265759468078613,1.7968544960021973,0.10044577717781067
1697638501740220400,12.131220458984375,-0.08058750629425049,1.087052345275879,-0.46034079790115356
1697638501749813800,12.140813720703125,-0.5062570571899414,0.9564065933227539,-1.1718554496765137
1697638501759406000,12.150406005859375,-0.8969765901565552,1.1084394454956055,-1.967669129371643
1697638501768999200,12.159999267578126,-0.6595279574394226,1.251551628112793,-2.5321474075317383
1697638501778593300,12.16959326171875,0.2300795316696167,1.5360946655273438,-2.116875648498535
1697638501788186400,12.179186279296875,0.8083881735801697,1.6616096496582031,-0.20501187443733215
1697638501797778700,12.18877880859375,-0.033729344606399536,-0.06814002990722656,2.1277964115142822
1697638501807371800,12.198371826171876,-1.837693691253662,-4.212797164916992,1.489983081817627
1697638501816966000,12.2079658203125,-2.146089792251587,-9.504239082336426,0.5492504835128784
1697638501826559000,12.21755908203125,-2.48561692237854,-12.326096534729004,2.374889850616455
1697638501836151300,12.2271513671875,-5.076007843017578,-10.152838706970215,4.157209396362305
1697638501845744600,12.23674462890625,-6.76065731048584,-6.69670295715332,4.259050369262695
1697638501855338500,12.24633837890625,-6.026683807373047,-5.464472770690918,3.829096555709839
1697638501864931600,12.255931640625,-4.15206241607666,-5.171180725097656,2.4866080284118652
1697638501874524200,12.265524169921875,-1.9755101203918457,-4.509604454040527,0.936564564704895
