time,seconds_elapsed,z,y,x
1697638489834980400,0.22598046875,0.12339114397764206,0.37826716899871826,1.4165548086166382
1697638489844574500,0.235574462890625,-0.029320668429136276,0.46012070775032043,1.4458754062652588
1697638489854167800,0.245167724609375,-0.1954711228609085,0.6897992491722107,1.4312151670455933
1697638489863760400,0.254760498046875,-0.31031039357185364,0.8864920735359192,1.3933426141738892
1697638489873353700,0.264353759765625,-0.2113531529903412,0.6397097706794739,1.3481398820877075
1697638489882947800,0.27394775390625,0.03420744836330414,-0.0065666078589856625,1.2333005666732788
1697638489892541200,0.283541259765625,0.25533416867256165,-0.5198310017585754,1.0744802951812744
1697638489902133800,0.2931337890625,0.3164188861846924,-0.6713211536407471,0.8777875304222107
1697638489911727000,0.30272705078125,0.22845686972141266,-0.648108959197998,0.6639909744262695
1697638489921321200,0.3123212890625,0.043981000781059265,-0.5076140761375427,0.4549284875392914
1697638489930914600,0.32191455078125,-0.10140064358711243,-0.31199023127555847,0.24479703605175018
1697638489940507100,0.331507080078125,-0.15515519678592682,-0.17027367651462555,0.029778804630041122
1697638489950100500,0.3411005859375,-0.09284878522157669,-0.15316994488239288,-0.16935740411281586
1697638489959694800,0.35069482421875,-0.004886778071522713,-0.17271706461906433,-0.30740886926651
1697638489969288000,0.360287841796875,0.0024433890357613564,-0.15439164638519287,-0.3623851239681244
1697638489978880800,0.369880859375,-0.03542914241552353,-0.10552386194467545,-0.335507869720459
1697638489988473900,0.379473876953125,-0.0647498071193695,-0.016340164467692375,-0.24632415175437927
1697638489998068200,0.389068115234375,-0.09529217332601547,0.1375933438539505,-0.15958385169506073
1697638490007661600,0.39866162109375,-0.14171656966209412,0.31596073508262634,-0.13392825424671173
1697638490017254100,0.408254150390625,-0.20035789906978607,0.5016583204269409,-0.14125843346118927
1697638490026847500,0.417847412109375,-0.24433889985084534,0.6934643387794495,-0.16080553829669952
1697638490036441600,0.427441650390625,-0.2357870489358902,0.7545490860939026,-0.21333840489387512
1697638490046035000,0.437034912109375,-0.15271180868148804,0.752105712890625,-0.27686652541160583
1697638490055627500,0.44662744140625,-0.045202698558568954,0.7594358325004578,-0.3184041380882263
1697638490065220900,0.456220947265625,0.01710372418165207,0.8180772066116333,-0.3220692276954651
1697638490074815000,0.46581494140625,0.021990500390529633,0.7814263701438904,-0.3245126008987427
1697638490084408300,0.475408203125,-0.0647498071193695,0.6189410090446472,-0.31229567527770996
1697638490094001000,0.4850009765625,-0.2773246467113495,0.23532891273498535,-0.2817533016204834
1697638490103594500,0.494594482421875,-0.474017471075058,-0.032222192734479904,-0.19379130005836487
1697638490113188600,0.504188720703125,-0.5961869359016418,-0.164165198802948,-0.08139539510011673
1697638490122782000,0.513781982421875,-0.6597150564193726,-0.3095468580722809,-0.0032069480512291193
1697638490132374300,0.523374267578125,-0.6878139972686768,-0.35474956035614014,0.017561858519911766
1697638490141968000,0.5329677734375,-0.6914790868759155,-0.22402822971343994,-0.01175880990922451
1697638490151562000,0.54256201171875,-0.6743753552436829,-0.14583978056907654,-0.056961506605148315
1697638490161155300,0.5521552734375,-0.6560499668121338,-0.14461809396743774,-0.09727742522954941
1697638490170748000,0.561747802734375,-0.6377245187759399,-0.15316994488239288,-0.12171131372451782
1697638490180341200,0.57134130859375,-0.6218425035476685,-0.20570281147956848,-0.1241547018289566
1697638490189935400,0.580935302734375,-0.6181774139404297,-0.29977330565452576,-0.09605573117733002
1697638490199528700,0.59052880859375,-0.6438329815864563,-0.40361732244491577,-0.04718795046210289
1697638490209121300,0.600121337890625,-0.6951441764831543,-0.47585001587867737,0.004123218823224306
1697638490218714600,0.609714599609375,-0.758672297000885,-0.4953971207141876,0.029778804630041122
1697638490228309000,0.61930908203125,-0.8209787011146545,-0.45508119463920593,0.02489202655851841
1697638490237902000,0.628902099609375,-0.8625163435935974,-0.35597124695777893,-0.010537114925682545
1697638490247494700,0.63849462890625,-0.8796200752258301,-0.23624517023563385,-0.0716218426823616
1697638490257088000,0.648087890625,-0.8820634484291077,-0.10308047384023666,-0.14858859777450562
1697638490266682400,0.657682373046875,-0.8771766424179077,0.036192700266838074,-0.23410721123218536
1697638490276275700,0.667275634765625,-0.8722898960113525,0.17424418032169342,-0.29885703325271606
1697638490285868300,0.676868408203125,-0.8686248064041138,0.284196674823761,-0.333064466714859
1697638490295461600,0.686461669921875,-0.8576295375823975,0.3623851239681244,-0.32573428750038147
1697638490305055700,0.6960556640625,-0.8246437907218933,0.41980478167533875,-0.29030516743659973
1697638490314649000,0.705649169921875,-0.781884491443634,0.45523393154144287,-0.23166382312774658
1697638490324241700,0.71524169921875,-0.7281299233436584,0.441795289516449,-0.15958385169506073
1697638490333835000,0.7248349609375,-0.6597150564193726,0.3477247953414917,-0.07406523078680038
1697638490343429000,0.73442919921875,-0.5888567566871643,0.17180079221725464,0.02733541466295719
1697638490353022500,0.7440224609375,-0.5265503525733948,-0.050547610968351364,0.14217470586299896
1697638490362615000,0.753614990234375,-0.47646087408065796,-0.3046600818634033,0.2533488869667053
1697638490372208400,0.76320849609375,-0.4422534108161926,-0.5479300022125244,0.34375429153442383
1697638490381802500,0.772802490234375,-0.41048935055732727,-0.7275190949440002,0.39140036702156067
1697638490391395800,0.782395751953125,-0.367730051279068,-0.8619054555892944,0.402395635843277
1697638490400988700,0.79198876953125,-0.3151971995830536,-0.9584193229675293,0.39384377002716064
1697638490410582000,0.80158203125,-0.2895416021347046,-1.0024003982543945,0.38162681460380554
1697638490420176100,0.811176025390625,-0.3005368411540985,-0.9681929349899292,0.3730749487876892
1697638490429769500,0.82076953125,-0.33474430441856384,-0.8496885299682617,0.376740038394928
1697638490439362000,0.830362060546875,-0.4043808877468109,-0.6542174220085144,0.3877353072166443
1697638490448955400,0.839955322265625,-0.5106683373451233,-0.3706315755844116,0.3840702176094055
1697638490458549500,0.849549560546875,-0.6169557571411133,-0.04932591691613197,0.3205420970916748
1697638490468142800,0.859142822265625,-0.6878139972686768,0.24632415175437927,0.1898207813501358
1697638490477735400,0.8687353515625,-0.7024743556976318,0.4869979918003082,0.0004581354442052543
1697638490487328800,0.878328857421875,-0.6731536984443665,0.6384881138801575,-0.19989976286888123
1697638490496923000,0.8879228515625,-0.6096255779266357,0.6629219651222229,-0.3623851239681244
1697638490506516200,0.89751611328125,-0.5241069197654724,0.5993938446044922,-0.4381301999092102
1697638490516108800,0.90710888671875,-0.42392799258232117,0.4894413650035858,-0.4271349310874939
1697638490525702400,0.916702392578125,-0.32130566239356995,0.35505497455596924,-0.3306210935115814
1697638490535296500,0.926296630859375,-0.22723518311977386,0.21822518110275269,-0.1779092699289322
1697638490544889900,0.935889892578125,-0.1588202863931656,0.07650861889123917,-0.03374931216239929
1697638490554482400,0.945482421875,-0.10750912129878998,-0.07620319724082947,0.0725381150841713
1697638490564075800,0.95507568359375,-0.062306419014930725,-0.22402822971343994,0.13117945194244385
1697638490573670000,0.964669921875,-0.028098974376916885,-0.34375429153442383,0.14217470586299896
1697638490583263200,0.97426318359375,-0.014660334214568138,-0.4343124032020569,0.10552386194467545
1697638490592855800,0.983855712890625,-0.01710372418165207,-0.49417543411254883,0.031000498682260513
1697638490602449200,0.99344921875,-0.030542362481355667,-0.5381564497947693,-0.06673506647348404
1697638490612043300,1.003043212890625,-0.046424392610788345,-0.5515950918197632,-0.16080553829669952
1697638490621636600,1.01263671875,-0.06352811306715012,-0.527161180973053,-0.2279987335205078
1697638490631229200,1.022229248046875,-0.08185353130102158,-0.4734066128730774,-0.26342788338661194
1697638490640822500,1.031822509765625,-0.09040539711713791,-0.4146125912666321,-0.2585411071777344
1697638490650417000,1.0414169921875,-0.08551861345767975,-0.3608580231666565,-0.20722992718219757
1697638490660010000,1.051010009765625,-0.0781884491443634,-0.3180987238883972,-0.12048961967229843
1697638490669602600,1.0606025390625,-0.06963659077882767,-0.2924431264400482,-0.005650337319821119
1697638490679196000,1.07019580078125,-0.05864133685827255,-0.2912214398384094,0.10552386194467545
1697638490688790300,1.079790283203125,-0.047646086663007736,-0.3083251416683197,0.18371231853961945
1697638490698383600,1.089383544921875,-0.04031591862440109,-0.34008920192718506,0.21181128919124603
1697638490707976200,1.09897607421875,-0.029320668429136276,-0.3694098889827728,0.18737739324569702
1697638490717569500,1.108569580078125,-0.012216945178806782,-0.3962871730327606,0.1238492801785469
1697638490727163600,1.11816357421875,0.007330167107284069,-0.40606072545051575,0.04443913698196411
1697638490736757000,1.127757080078125,0.029320668429136276,-0.40728241205215454,-0.0325276181101799
1697638490746349600,1.137349609375,0.05008947476744652,-0.41827765107154846,-0.09605573117733002
1697638490755943000,1.14694287109375,0.07330167293548584,-0.44042086601257324,-0.14003673195838928
1697638490765537000,1.156537109375,0.10750912129878998,-0.4734066128730774,-0.1620272397994995
1697638490775130400,1.16613037109375,0.1319430023431778,-0.5296045541763306,-0.16080553829669952
1697638490784723000,1.175722900390625,0.1429382562637329,-0.5980194807052612,-0.1363716572523117
1697638490794316300,1.18531640625,0.1453816443681717,-0.6762079000473022,-0.09116895496845245
1697638490803910700,1.19491064453125,0.1429382562637329,-0.7849387526512146,-0.03130592033267021
1697638490813504000,1.20450390625,0.13805148005485535,-0.9413156509399414,0.028557108715176582
1697638490823096600,1.2140966796875,0.13560809195041656,-1.1123528480529785,0.07375980913639069
1697638490832690000,1.22368994140625,0.12827792763710022,-1.2235270738601685,0.07620319724082947
1697638490842284000,1.233283935546875,0.08551861345767975,-1.2430741786956787,0.02244863659143448
1697638490851877400,1.24287744140625,0.012216945178806782,-1.1453386545181274,-0.06917845457792282
1697638490861470000,1.252469970703125,-0.05375456064939499,-0.9694145917892456,-0.17057909071445465
1697638490871063300,1.262063232421875,-0.08674030750989914,-0.7409577369689941,-0.26220619678497314
1697638490880657400,1.271657470703125,-0.08307522535324097,-0.49295374751091003,-0.3245126008987427
1697638490890250800,1.281250732421875,-0.0659715011715889,-0.2912214398384094,-0.3574983477592468
1697638490899843300,1.29084326171875,-0.05619794875383377,-0.1898207813501358,-0.36605021357536316
1697638490909436700,1.300436767578125,-0.05741964280605316,-0.16905197501182556,-0.35383328795433044
1697638490919030800,1.31003076171875,-0.07207997888326645,-0.20936790108680725,-0.3245126008987427
1697638490928624000,1.3196240234375,-0.09407047927379608,-0.31199023127555847,-0.2805316150188446
1697638490938216700,1.329216796875,-0.11117420345544815,-0.4330907166004181,-0.23899398744106293
1697638490947810300,1.338810302734375,-0.11483928561210632,-0.518609344959259,-0.19623468816280365
1697638490957404400,1.348404296875,-0.10017894953489304,-0.5467082858085632,-0.14248012006282806
1697638490966997800,1.357997802734375,-0.07574506103992462,-0.5161659121513367,-0.09727742522954941
1697638490976590300,1.36759033203125,-0.04886778071522713,-0.4318690001964569,-0.0850604772567749
1697638490986183700,1.37718359375,-0.01832541823387146,-0.32542887330055237,-0.09361234307289124
1697638490995777800,1.38677783203125,0.012216945178806782,-0.2276933193206787,-0.11804623156785965
1697638491005371100,1.39637109375,0.03787253051996231,-0.1519482582807541,-0.15469707548618317
1697638491014963700,1.405963623046875,0.0525328628718853,-0.10185877978801727,-0.17913095653057098
1697638491024557000,1.41555712890625,0.05008947476744652,-0.08964183181524277,-0.18157434463500977
1697638491034151200,1.425151123046875,0.028098974376916885,-0.08842013776302338,-0.15958385169506073
1697638491043744500,1.43474462890625,-0.006108472589403391,-0.07864658534526825,-0.13392825424671173
1697638491053337000,1.444337158203125,-0.042759306728839874,-0.07375980913639069,-0.1107160672545433
1697638491062930400,1.453930419921875,-0.06963659077882767,-0.06154286116361618,-0.09483403712511063
1697638491072524800,1.46352490234375,-0.0781884491443634,-0.04199574887752533,-0.08139539510011673
1697638491082118100,1.4731181640625,-0.07085828483104706,-0.013896775431931019,-0.06429167091846466
1697638491091710700,1.482710693359375,-0.05497625470161438,0.008093725889921188,-0.04352286830544472
1697638491101304000,1.492303955078125,-0.0390942245721817,0.02764083817601204,-0.020310672000050545
1697638491110898200,1.501898193359375,-0.03665083646774292,0.04352286830544472,-0.001985253533348441
1697638491120491500,1.511491455078125,-0.047646086663007736,0.0459662564098835,0.0016798300202935934
1697638491130084000,1.521083984375,-0.06841489672660828,0.05085303261876106,-0.0068720318377017975
1697638491139677400,1.530677490234375,-0.09284878522157669,0.07528692483901978,-0.015423892997205257
1697638491149271600,1.540271484375,-0.11483928561210632,0.10094250738620758,-0.022754060104489326
1697638491158865000,1.549864990234375,-0.12705622613430023,0.1253764033317566,-0.02764083817601204
1697638491168457500,1.55945751953125,-0.1319430023431778,0.12781979143619537,-0.022754060104489326
1697638491178050800,1.56905078125,-0.13560809195041656,0.10460758954286575,0.0004581354442052543
1697638491187645200,1.578645263671875,-0.14171656966209412,0.0594048947095871,0.034665580838918686
1697638491197238300,1.58823828125,-0.15393351018428802,0.005650337319821119,0.0713164210319519
1697638491206830800,1.597830810546875,-0.17714570462703705,-0.032222192734479904,0.10674555599689484
1697638491216424200,1.607424072265625,-0.20768806338310242,-0.07742489129304886,0.12873606383800507
1697638491226018600,1.6170185546875,-0.2357870489358902,-0.11774080991744995,0.12995775043964386
1697638491235612000,1.62661181640625,-0.25655585527420044,-0.13484452664852142,0.10308047384023666
1697638491245204500,1.63620458984375,-0.26755109429359436,-0.111632339656353,0.04688252881169319
1697638491254797800,1.6457978515625,-0.26999449729919434,-0.04810422286391258,-0.02886253222823143
1697638491264392000,1.655391845703125,-0.26632940769195557,0.03374931216239929,-0.11560284346342087
1697638491273985300,1.6649853515625,-0.25289076566696167,0.12293300777673721,-0.18157434463500977
1697638491283577900,1.674577880859375,-0.22479179501533508,0.1889045089483261,-0.20600824058055878
1697638491293171200,1.684171142578125,-0.18936264514923096,0.21944688260555267,-0.1779092699289322
1697638491302765300,1.693765380859375,-0.14782503247261047,0.2047865390777588,-0.10460758954286575
1697638491312358700,1.703358642578125,-0.09407047927379608,0.14614520967006683,0.005344913341104984
1697638491321951200,1.712951171875,-0.03176405653357506,0.04230117425322533,0.1238492801785469
1697638491331544600,1.722544677734375,0.028098974376916885,-0.08964183181524277,0.2313583940267563
1697638491341139000,1.732138916015625,0.08185353130102158,-0.2411319613456726,0.31687700748443604
1697638491350732000,1.74173193359375,0.13682979345321655,-0.4121691882610321,0.3706315755844116
1697638491360324900,1.751324951171875,0.19180603325366974,-0.5882459282875061,0.3889569938182831
1697638491369918200,1.760918212890625,0.2357870489358902,-0.7458444833755493,0.37918344140052795
1697638491379512300,1.77051220703125,0.2504473626613617,-0.8863393664360046,0.3584146201610565
1697638491389105700,1.780105712890625,0.22845686972141266,-1.0195040702819824,0.3449759781360626
1697638491398698200,1.7896982421875,0.16737215220928192,-1.0940274000167847,0.34375429153442383
1697638491408291600,1.79929150390625,0.10384403169155121,-1.0842539072036743,0.3339807391166687
1697638491417885700,1.8088857421875,0.06841489672660828,-1.0219475030899048,0.30221667885780334
1697638491427479000,1.81847900390625,0.07085828483104706,-0.9449806809425354,0.2411319613456726
1697638491437071600,1.828071533203125,0.09407047927379608,-0.8594620823860168,0.15439164638519287
1697638491446665000,1.8376650390625,0.12094775587320328,-0.7605048418045044,0.050547610968351364
1697638491456259300,1.84725927734375,0.1441599577665329,-0.6493306159973145,-0.05329642444849014
1697638491465852400,1.856852294921875,0.16004198789596558,-0.5332696437835693,-0.14370182156562805
1697638491475445200,1.8664453125,0.16370706260204315,-0.4318690001964569,-0.20845162868499756
1697638491485038300,1.876038330078125,0.16004198789596558,-0.3486410677433014,-0.23899398744106293
1697638491494632700,1.8856328125,0.1429382562637329,-0.2790044844150543,-0.24876753985881805
1697638491504226000,1.89522607421875,0.11117420345544815,-0.2289150059223175,-0.22677704691886902
1697638491513818600,1.904818603515625,0.06841489672660828,-0.20692451298236847,-0.16691401600837708
1697638491523412000,1.914411865234375,0.02076880633831024,-0.2032594233751297,-0.072843536734581
1697638491533006000,1.924006103515625,-0.021990500390529633,-0.22158484160900116,0.03833066672086716
1697638491542599400,1.933599365234375,-0.05375456064939499,-0.25212720036506653,0.1629435122013092
1697638491552192000,1.94319189453125,-0.07330167293548584,-0.2533488869667053,0.2985515892505646
1697638491561785300,1.952785400390625,-0.08674030750989914,-0.20692451298236847,0.423164427280426
1697638491571379500,1.96237939453125,-0.09407047927379608,-0.15683503448963165,0.5184566378593445
1697638491580972800,1.971972900390625,-0.0916270911693573,-0.1385096162557602,0.5870242118835449
1697638491590565400,1.9815654296875,-0.07452336698770523,-0.16050012409687042,0.6175665855407715
1697638491600158700,1.99115869140625,-0.05497625470161438,-0.2313583940267563,0.6358919739723206
1697638491609753000,2.000753173828125,-0.05619794875383377,-0.3742966651916504,0.6371136903762817
1697638491619346200,2.01034619140625,-0.0781884491443634,-0.5723638534545898,0.6126797795295715
1697638491628938800,2.019938720703125,-0.1172826737165451,-0.8008207678794861,0.5540384650230408
1697638491638532400,2.029532470703125,-0.17714570462703705,-1.035386085510254,0.45615020394325256
1697638491648126500,2.03912646484375,-0.24678228795528412,-1.2088667154312134,0.32787227630615234
1697638491657719800,2.0487197265625,-0.3029802441596985,-1.2516260147094727,0.18126893043518066
1697638491667312400,2.0583125,-0.33474430441856384,-1.1233481168746948,0.0261137206107378
1697638491676905700,2.06790576171875,-0.33596599102020264,-0.8557969927787781,-0.12171131372451782
1697638491686499800,2.077499755859375,-0.3017585575580597,-0.5332696437835693,-0.2683146595954895
1697638491696093200,2.08709326171875,-0.24678228795528412,-0.2582356929779053,-0.41736137866973877
1697638491705685800,2.096685791015625,-0.2089097648859024,-0.11896250396966934,-0.5517477989196777
1697638491715279000,2.106279052734375,-0.2089097648859024,-0.12629267573356628,-0.6384881138801575
1697638491724873200,2.115873291015625,-0.25289076566696167,-0.2570139765739441,-0.6568135023117065
1697638491734466600,2.125466552734375,-0.3139754831790924,-0.4477510452270508,-0.6189410090446472
1697638491744059100,2.13505908203125,-0.3567348122596741,-0.6126797795295715,-0.5456393361091614
1697638491753652500,2.144652587890625,-0.36284327507019043,-0.6786513328552246,-0.47111594676971436
1697638491763246800,2.154246826171875,-0.3396310806274414,-0.6261184215545654,-0.43446511030197144
1697638491772840000,2.16383984375,-0.30664533376693726,-0.5002838969230652,-0.44301697611808777
1697638491782432500,2.1734326171875,-0.26877278089523315,-0.3180987238883972,-0.4772244095802307
1697638491792025900,2.18302587890625,-0.22967857122421265,-0.12262758612632751,-0.5175403356552124
1697638491801620200,2.1926201171875,-0.17836740612983704,0.04963133856654167,-0.5493044257164001
1697638491811213600,2.202213623046875,-0.12094775587320328,0.1632489264011383,-0.5651864409446716
1697638491820806000,2.211805908203125,-0.061084724962711334,0.2145601063966751,-0.5566345453262329
1697638491830399500,2.2213994140625,-0.0024433890357613564,0.2047865390777588,-0.5224271416664124
1697638491839993600,2.23099365234375,0.043981000781059265,0.12293300777673721,-0.4784461259841919
1697638491849587000,2.2405869140625,0.07696675509214401,-0.018783552572131157,-0.41858309507369995
1697638491859179500,2.250179443359375,0.10384403169155121,-0.2032594233751297,-0.36482852697372437
1697638491868772900,2.25977294921875,0.11239589750766754,-0.39262208342552185,-0.30985227227211
1697638491878367000,2.269366943359375,0.10384403169155121,-0.5528167486190796,-0.26098448038101196
1697638491887960300,2.278960205078125,0.08307522535324097,-0.6603258848190308,-0.22677704691886902
1697638491897553000,2.288552978515625,0.05375456064939499,-0.6920899152755737,-0.20600824058055878
1697638491907146200,2.298146240234375,0.010995250195264816,-0.6517740488052368,-0.21089501678943634
1697638491916740400,2.307740234375,-0.043981000781059265,-0.555260181427002,-0.2438807636499405
1697638491926333700,2.317333740234375,-0.10750912129878998,-0.41827765107154846,-0.2915268540382385
1697638491935926300,2.32692626953125,-0.17714570462703705,-0.2545706033706665,-0.33917292952537537
1697638491945519600,2.33651953125,-0.2357870489358902,-0.09941539168357849,-0.3733803927898407
1697638491955113700,2.34611376953125,-0.26632940769195557,0.016645587980747223,-0.3843756318092346
1697638491964707000,2.35570703125,-0.2736595869064331,0.072843536734581,-0.3709369897842407
1697638491974299600,2.365299560546875,-0.2724378705024719,0.08017370104789734,-0.3367295563220978
1697638491983893000,2.37489306640625,-0.2651077210903168,0.0459662564098835,-0.29030516743659973
1697638491993487000,2.384487060546875,-0.24678228795528412,-0.021226942539215088,-0.22677704691886902
1697638492003080400,2.39408056640625,-0.21379654109477997,-0.10063708573579788,-0.1510319858789444
1697638492012673000,2.403673095703125,-0.1710372269153595,-0.164165198802948,-0.06795676052570343
1697638492022266600,2.4132666015625,-0.12583453953266144,-0.22158484160900116,0.01511846948415041
1697638492031860700,2.42286083984375,-0.08307522535324097,-0.270452618598938,0.0859767496585846
1697638492041453800,2.432453857421875,-0.05131116881966591,-0.296108216047287,0.12140589207410812
1697638492051046400,2.44204638671875,-0.029320668429136276,-0.2777827978134155,0.11407572776079178
1697638492060640000,2.451639892578125,-0.010995250195264816,-0.21303297579288483,0.06887302547693253
1697638492070234000,2.461234130859375,0.007330167107284069,-0.12995775043964386,-0.016645587980747223
1697638492079827200,2.4708271484375,0.02076880633831024,-0.04443913698196411,-0.11804623156785965
1697638492089420000,2.480419921875,-0.01954711228609085,-0.012675080448389053,-0.21822518110275269
1697638492099013400,2.490013427734375,-0.1185043677687645,-0.03955236077308655,-0.24998924136161804
1697638492108607500,2.499607421875,-0.10262233763933182,0.03008422814309597,-0.2304421216249466
1697638492118200800,2.509200927734375,-0.047646086663007736,0.02764083817601204,-0.26342788338661194
1697638492127793400,2.51879345703125,-0.0012216945178806782,-0.07375980913639069,-0.2707580327987671
1697638492137386800,2.52838671875,0.042759306728839874,-0.07986827939748764,-0.2145601063966751
1697638492146980900,2.53798095703125,0.08307522535324097,-0.08353336155414581,-0.14736689627170563
1697638492156574200,2.54757421875,0.10995250940322876,-0.1385096162557602,-0.09239064902067184
1697638492166166800,2.557166748046875,0.12583453953266144,-0.15683503448963165,-0.04352286830544472
1697638492175760100,2.566760009765625,0.1441599577665329,-0.16660858690738678,-0.016645587980747223
1697638492185354200,2.576354248046875,0.17348061501979828,-0.21181128919124603,-0.005650337319821119
1697638492194947600,2.585947509765625,0.20280128717422485,-0.26312246918678284,-0.001985253533348441
1697638492204540200,2.5955400390625,0.21501824259757996,-0.30343836545944214,0.0016798300202935934
1697638492214133500,2.605133544921875,0.21623992919921875,-0.32909396290779114,0.016340164467692375
1697638492223727600,2.6147275390625,0.23090025782585144,-0.31443363428115845,0.051769305020570755
1697638492233321000,2.624321044921875,0.261442631483078,-0.2924431264400482,0.09330692142248154
1697638492242913500,2.63391357421875,0.29687178134918213,-0.28755635023117065,0.12873606383800507
1697638492252507000,2.6435068359375,0.33474430441856384,-0.27411770820617676,0.17393875122070312
1697638492262101000,2.65310107421875,0.36162158846855164,-0.2692309319972992,0.2154763638973236
1697638492271694300,2.6626943359375,0.3689517378807068,-0.296108216047287,0.24479703605175018
1697638492281287000,2.672286865234375,0.36284327507019043,-0.33886751532554626,0.2655658423900604
1697638492290880300,2.68188037109375,0.34696123003959656,-0.3975088596343994,0.2838912606239319
1697638492300474400,2.691474365234375,0.3286358118057251,-0.49051034450531006,0.30099499225616455
1697638492310067700,2.701067626953125,0.30786702036857605,-0.5943543910980225,0.319320410490036
1697638492319660300,2.710660400390625,0.2724378705024719,-0.6700994372367859,0.3364241421222687
1697638492329253600,2.720253662109375,0.2211267054080963,-0.7018635272979736,0.33764582872390747
1697638492338847700,2.72984765625,0.16370706260204315,-0.6737645268440247,0.3229855000972748
1697638492348441000,2.739441162109375,0.08918370306491852,-0.6212316751480103,0.30343836545944214
1697638492358033700,2.74903369140625,0.004886778071522713,-0.5589252710342407,0.2777827978134155
1697638492367627000,2.758626953125,-0.06963659077882767,-0.444085955619812,0.24846212565898895
1697638492377221000,2.76822119140625,-0.15393351018428802,-0.3608580231666565,0.23624517023563385
1697638492386814500,2.777814453125,-0.2504473626613617,-0.37796175479888916,0.22524993121623993
1697638492396407000,2.787406982421875,-0.3115321099758148,-0.5198310017585754,0.2032594233751297
1697638492406000400,2.79700048828125,-0.31031039357185364,-0.6517740488052368,0.16538690030574799
1697638492415594500,2.806594482421875,-0.2736595869064331,-0.6969767212867737,0.07620319724082947
1697638492425187800,2.816187744140625,-0.22723518311977386,-0.684759795665741,-0.0850604772567749
1697638492434780200,2.8257802734375,-0.28221142292022705,-0.6041279435157776,-0.31351736187934875
1697638492444373500,2.83537353515625,-0.4202629029750824,-0.4428642690181732,-0.5334223508834839
1697638492453968000,2.8449677734375,-0.5448757410049438,-0.32787227630615234,-0.7362236380577087
1697638492463561200,2.854561279296875,-0.5925218462944031,-0.3217637836933136,-0.9316948056221008
1697638492473153800,2.86415380859375,-0.5265503525733948,-0.42194274067878723,-1.0673028230667114
1697638492482747000,2.873746826171875,-0.38483378291130066,-0.5491516590118408,-1.145491361618042
1697638492492341200,2.88334130859375,-0.2089097648859024,-0.6407787799835205,-1.1992459297180176
1697638492501934300,2.892934326171875,-0.030542362481355667,-0.6774296164512634,-1.2187930345535278
1697638492511527000,2.90252685546875,0.129499614238739,-0.6981984376907349,-1.1833637952804565
1697638492521120300,2.912120361328125,0.2357870489358902,-0.7372926473617554,-1.1320526599884033
1697638492530714600,2.921714599609375,0.1710372269153595,-0.633448600769043,-1.2432268857955933
1697638492540307700,2.9313076171875,-0.043981000781059265,-0.5931326746940613,-1.4631319046020508
1697638492549900300,2.940900390625,-0.23823043704032898,-0.6456655263900757,-1.7453433275222778
1697638492559493600,2.95049365234375,-0.1563768982887268,-0.7140804529190063,-1.9945690631866455
1697638492569087700,2.960087646484375,0.2602209448814392,-0.7116370797157288,-2.0935263633728027
1697638492578681000,2.96968115234375,0.8441908955574036,-0.573585569858551,-1.9786869287490845
1697638492588273700,2.979273681640625,1.456259846687317,-0.22647161781787872,-1.7306829690933228
1697638492597867000,2.988866943359375,1.9950271844863892,0.15958385169506073,-1.5962965488433838
1697638492607461000,2.998461181640625,2.400629758834839,0.2548760175704956,-1.663489818572998
1697638492617054500,3.008054443359375,2.5728886127471924,-0.17882554233074188,-1.774664044380188
1697638492626647000,3.01764697265625,2.4690446853637695,-1.01706063747406,-1.8394137620925903
1697638492636240400,3.027240478515625,2.093984365463257,-1.7512991428375244,-1.8711779117584229
1697638492645834500,3.03683447265625,1.5283398628234863,-2.334047317504883,-1.8882815837860107
1697638492655427800,3.046427734375,0.8796200752258301,-2.9253475666046143,-1.8968334197998047
1697638492665020400,3.0560205078125,0.23945212364196777,-3.4323506355285645,-1.907828688621521
1697638492674613800,3.06561376953125,-0.35795649886131287,-3.676689624786377,-1.9505879878997803
1697638492684207900,3.075207763671875,-0.8783983588218689,-3.593614339828491,-2.0434367656707764
1697638492693801200,3.08480126953125,-0.9590302109718323,-3.016974687576294,-2.2108089923858643
1697638492703393800,3.094393798828125,-0.1441599577665329,-2.513636589050293,-1.9090503454208374
1697638492712987000,3.10398681640625,1.100746750831604,-2.695668935775757,-0.6336013078689575
1697638492722581200,3.113581298828125,2.3994081020355225,-2.5014195442199707,0.7739434838294983
1697638492732174300,3.12317431640625,3.445178508758545,-2.0664963722229004,1.757407546043396
1697638492741767000,3.132766845703125,4.310290813446045,-1.7158699035644531,2.1532366275787354
1697638492751360300,3.1423603515625,4.987109661102295,-1.5839269161224365,2.2167646884918213
1697638492760954600,3.15195458984375,5.207014560699463,-1.5179554224014282,2.204547643661499
1697638492770547700,3.161547607421875,4.610827922821045,-1.0219475030899048,2.2179863452911377
1697638492780140300,3.171140380859375,3.274141311645508,0.17057909071445465,2.1397979259490967
1697638492789733600,3.180733642578125,1.7983343601226807,1.2334532737731934,1.8783552646636963
1697638492799327700,3.19032763671875,0.8429692387580872,1.2566654682159424,1.5607147216796875
1697638492808921000,3.199921142578125,0.517998456954956,0.5028799772262573,1.378682255744934
1697638492818513700,3.209513671875,0.6022953987121582,-0.4587462842464447,1.3628002405166626
1697638492828107000,3.21910693359375,0.8124268651008606,-1.3591351509094238,1.4642008543014526
1697638492837701000,3.228701171875,0.873511552810669,-2.1764488220214844,1.8160488605499268
1697638492847294500,3.23829443359375,0.7098045349121094,-2.803178071975708,2.3535945415496826
1697638492856887000,3.247886962890625,0.5277720093727112,-3.120818614959717,2.75675368309021
1697638492866480400,3.25748046875,0.522885262966156,-3.3834829330444336,3.0157530307769775
1697638492876074500,3.267074462890625,0.7513421177864075,-3.541081666946411,3.280860662460327
1697638492885667800,3.276667724609375,1.1752700805664062,-3.6033880710601807,3.7280008792877197
1697638492895260200,3.28626025390625,1.7433581352233887,-3.437237501144409,4.495224952697754
1697638492904853500,3.295853515625,2.389634370803833,-2.999870777130127,5.281996250152588
1697638492914447600,3.305447509765625,2.9112980365753174,-2.8777015209198,5.824428558349609
1697638492924040700,3.315040771484375,3.1715190410614014,-2.974215269088745,6.086023807525635
1697638492933633300,3.32463330078125,3.248485803604126,-2.9693286418914795,6.182538032531738
1697638492943226600,3.3342265625,3.142198324203491,-2.6797869205474854,5.9895100593566895
1697638492952820700,3.34382080078125,2.979712963104248,-2.6858954429626465,5.6766037940979
1697638492962414000,3.3534140625,2.770803213119507,-2.919239044189453,5.5556559562683105
1697638492972006400,3.36300634765625,2.6339733600616455,-3.3077378273010254,6.031047821044922
1697638492981599700,3.372599853515625,2.6022093296051025,-3.5997228622436523,6.528277397155762
1697638492991193900,3.38219384765625,2.591214179992676,-4.197131633758545,6.408551216125488
1697638493000787200,3.391787109375,2.6999449729919434,-4.217900276184082,5.61796236038208
1697638493010379800,3.4013798828125,2.808675765991211,-2.9436728954315186,4.6100640296936035
1697638493019973000,3.41097314453125,2.91374135017395,-1.4385453462600708,3.2295494079589844
1697638493029567200,3.420567138671875,2.7927937507629395,-0.1776038408279419,1.5326157808303833
1697638493039160600,3.43016064453125,2.453162670135498,0.543195903301239,0.028557108715176582
1697638493048753200,3.439753173828125,2.18438982963562,1.3311889171600342,-1.0697462558746338
1697638493058346500,3.449346435546875,1.6089717149734497,1.5755277872085571,-2.111851692199707
1697638493067940600,3.458940673828125,0.9028322696685791,1.5278817415237427,-2.930387020111084
1697638493077533700,3.46853369140625,0.5851916670799255,1.6500511169433594,-3.167395830154419
1697638493087126300,3.478126220703125,0.3836120665073395,1.8284186124801636,-3.182056188583374
1697638493096719600,3.4877197265625,0.3286358118057251,1.8956117630004883,-3.2553577423095703
1697638493106313700,3.497313720703125,0.4862344264984131,2.0373282432556152,-3.2504708766937256
1697638493115907000,3.506906982421875,0.6646018028259277,2.329313278198242,-3.2333672046661377
1697638493125499600,3.516499755859375,0.7012526392936707,2.369629144668579,-3.1954946517944336
1697638493135093000,3.526093017578125,0.6865923404693604,2.0287764072418213,-3.0769903659820557
1697638493144687000,3.53568701171875,0.7244648337364197,1.5205515623092651,-2.8912928104400635
1697638493154280400,3.545280517578125,0.8075400590896606,1.004996418952942,-2.534558057785034
1697638493163872800,3.554872802734375,0.9455915689468384,0.8437327742576599,-2.010451078414917
1697638493173466000,3.564466064453125,1.0518789291381836,0.9158127307891846,-1.735569715499878
1697638493183060500,3.574060546875,1.110520362854004,0.9439117312431335,-1.5987399816513062
1697638493192653600,3.583653564453125,1.1178505420684814,1.0379822254180908,-1.6243956089019775
1697638493202246100,3.59324609375,1.0408837795257568,0.8510629534721375,-1.5962965488433838
1697638493211839500,3.602839599609375,0.9565867781639099,0.7374453544616699,-1.6134003400802612
1697638493221433600,3.61243359375,0.9675820469856262,0.6006155610084534,-1.7319047451019287
1697638493231027000,3.62202685546875,1.1031901836395264,0.5273138880729675,-1.869956135749817
1697638493240619500,3.63161962890625,1.1410627365112305,0.5554128885269165,-1.9432578086853027
1697638493250212600,3.641212646484375,0.9736905097961426,0.669030487537384,-1.8357486724853516
1697638493259807000,3.650806884765625,0.6951441764831543,0.7508839964866638,-1.6219521760940552
1697638493269400000,3.660400146484375,0.4960079789161682,0.8486195802688599,-1.5315468311309814
1697638493278992600,3.66999267578125,0.49112120270729065,0.941468358039856,-1.5975183248519897
1697638493288586000,3.6795859375,0.605960488319397,0.9573503732681274,-1.6854803562164307
1697638493298180000,3.68918017578125,0.7281299233436584,1.0184351205825806,-1.773442268371582
1697638493307773400,3.6987734375,0.8893936276435852,1.122279167175293,-1.8687344789505005
1697638493317366000,3.708365966796875,1.0824213027954102,1.238340139389038,-2.008007764816284
1697638493326959400,3.71795947265625,1.2363548278808594,1.3091983795166016,-2.2266910076141357
1697638493336553500,3.727553466796875,1.391510009765625,1.4154858589172363,-2.429492235183716
1697638493346146600,3.737146484375,1.430604338645935,1.6182870864868164,-2.5089023113250732
1697638493355739100,3.7467392578125,1.4208307266235352,1.7428998947143555,-2.511345863342285
1697638493365332500,3.75633251953125,1.4684767723083496,1.5914098024368286,-2.259676694869995
1697638493374926600,3.765926513671875,1.595533013343811,1.4301460981369019,-2.045880079269409
1697638493384520000,3.77552001953125,1.346307396888733,1.3324105739593506,-1.8577392101287842
1697638493394112500,3.785112548828125,0.8026533126831055,1.004996418952942,-2.152167558670044
1697638493403705600,3.79470556640625,1.1923738718032837,0.6079457402229309,-2.458812952041626
1697638493413300000,3.804300048828125,1.8447587490081787,0.5505260825157166,-2.0544321537017822
1697638493422893000,3.81389306640625,2.410403251647949,1.0404255390167236,-1.6134003400802612
1697638493432485600,3.823485595703125,2.9638309478759766,1.7148009538650513,-1.5352119207382202
1697638493442079000,3.833078857421875,3.442735195159912,2.9230568408966064,-1.7709989547729492
1697638493451673000,3.842673095703125,3.544135808944702,4.081223011016846,-2.323204755783081
1697638493461266400,3.852266357421875,3.685852289199829,4.876546382904053,-2.4514827728271484
1697638493470858800,3.861858642578125,4.161091327667236,4.48193883895874,-1.8039846420288086
1697638493480452000,3.8714521484375,4.298074245452881,3.5595595836639404,-1.4105989933013916
1697638493490046200,3.881046142578125,4.012044906616211,2.9755897521972656,-1.2077977657318115
1697638493499639600,3.8906396484375,3.9411864280700684,2.1485025882720947,-0.5810684561729431
1697638493509232000,3.900232177734375,3.6064422130584717,2.186375141143799,0.1519482582807541
1697638493518825500,3.909825439453125,3.3230090141296387,2.0642056465148926,0.10063708573579788
1697638493528419600,3.919419677734375,3.167853832244873,2.731250762939453,0.27656111121177673
1697638493538012700,3.9290126953125,2.7817983627319336,3.6438565254211426,0.1776038408279419
1697638493547605200,3.938605224609375,2.9088547229766846,4.006700038909912,0.22280654311180115
1697638493557198600,3.948198486328125,3.3926455974578857,3.949280261993408,0.33031564950942993
1697638493566792700,3.957792724609375,3.8984272480010986,3.8136720657348633,0.5919110178947449
1697638493576386000,3.967385986328125,4.084124565124512,3.7367053031921387,0.846023440361023
1697638493585978600,3.976978515625,3.9815025329589844,3.298117160797119,1.2650647163391113
1697638493595571700,3.98657177734375,3.810465097427368,3.3164424896240234,1.7647377252578735
1697638493605166000,3.996166015625,3.902092218399048,3.9004125595092773,2.0493924617767334
1697638493614759200,4.00575927734375,4.338389873504639,4.010365009307861,2.238755226135254
1697638493624351700,4.015351806640625,4.471554756164551,3.4557156562805176,2.261967420578003
1697638493633945000,4.024945068359375,4.510648727416992,3.6182010173797607,2.0640528202056885
1697638493643539200,4.034539306640625,4.932133674621582,4.14475154876709,1.8563648462295532
1697638493653132300,4.04413232421875,5.09339714050293,5.172348976135254,1.7207567691802979
1697638493662724900,4.053724853515625,4.961453914642334,4.739716529846191,2.238755226135254
1697638493672318200,4.063318115234375,4.990774631500244,3.833219289779663,2.8483808040618896
1697638493681912300,4.072912353515625,4.695124626159668,3.3335461616516113,3.0328567028045654
1697638493691505700,4.082505615234375,4.249206066131592,2.9438257217407227,3.034078359603882
1697638493701098200,4.09209814453125,3.8348991870880127,2.629850149154663,3.1061582565307617
1697638493710691300,4.10169140625,3.734720230102539,2.5089023113250732,3.317511558532715
1697638493720285400,4.111285400390625,3.5416924953460693,2.5956428050994873,3.306516170501709
1697638493729878800,4.120878662109375,3.1312029361724854,1.8956117630004883,3.974783182144165
1697638493739471400,4.130471435546875,1.9901403188705444,1.6329474449157715,3.56429386138916
1697638493749064700,4.140064697265625,0.8160919547080994,1.3861651420593262,2.073826551437378
1697638493758658800,4.149658935546875,-0.2504473626613617,2.0434367656707764,0.7165238261222839
1697638493768252000,4.159251953125,-1.3476817607879639,2.6481754779815674,-0.037414394319057465
1697638493777844500,4.168844482421875,-1.982962965965271,2.8277647495269775,-0.28786176443099976
1697638493787437800,4.178437744140625,-1.890114188194275,2.427048921585083,-0.5126535892486572
1697638493797032000,4.188031982421875,-1.9377602338790894,1.50589120388031,-0.7936432957649231
1697638493806625300,4.197625244140625,-2.5473856925964355,0.5236487984657288,-1.168703556060791
1697638493816217600,4.207217529296875,-3.673788070678711,-0.47707170248031616,-1.6219521760940552
1697638493825811000,4.21681103515625,-4.585172176361084,-0.9743013978004456,-2.117960214614868
1697638493835405000,4.226405029296875,-4.830732822418213,-0.9779664874076843,-2.621298313140869
1697638493844998400,4.235998291015625,-4.441012382507324,-0.6639909744262695,-2.537001371383667
1697638493854591000,4.245591064453125,-3.2523036003112793,-0.43797749280929565,-1.8455222845077515
1697638493864184000,4.25518408203125,-1.9609724283218384,-0.4868452548980713,-1.1406044960021973
1697638493873778200,4.264778076171875,-1.6176762580871582,-0.24846212565898895,-0.7765395641326904
1697638493883371500,4.27437158203125,-2.111240863800049,-0.18371231853961945,-0.8364025950431824
1697638493892964000,4.283964111328125,-2.4252164363861084,-0.7971556782722473,-1.0135482549667358
1697638493902557400,4.293557373046875,-2.563267707824707,-1.4654226303100586,-1.1662601232528687
1697638493912151600,4.303151611328125,-2.9065639972686768,-1.9663172960281372,-1.468018651008606
1697638493921744600,4.31274462890625,-3.2303130626678467,-2.169118642807007,-1.8748430013656616
1697638493931337200,4.322337158203125,-3.2852892875671387,-2.164231777191162,-2.1704931259155273
1697638493940930600,4.3319306640625,-3.1924405097961426,-2.0518360137939453,-2.0471019744873047
1697638493950524700,4.341524658203125,-3.04950213432312,-2.1043689250946045,-1.5999616384506226
1697638493960117800,4.35111767578125,-2.9847524166107178,-2.3157219886779785,-1.4289244413375854
1697638493969710300,4.36071044921875,-3.2266478538513184,-2.8312771320343018,-1.4936742782592773
1697638493979303700,4.3703037109375,-3.3854682445526123,-3.587506055831909,-1.522994875907898
1697638493988897800,4.379897705078125,-2.5327253341674805,-3.274752140045166,-1.3653963804244995
1697638493998491100,4.3894912109375,-1.0213366746902466,-1.8563648462295532,-1.3653963804244995
1697638494008083500,4.39908349609375,0.17714570462703705,-0.34131091833114624,-1.7367914915084839
1697638494017676800,4.4086767578125,0.893058717250824,0.43324342370033264,-2.291440725326538
1697638494027271000,4.41827099609375,1.5112360715866089,0.6250494718551636,-2.7349159717559814
1697638494036864300,4.4278642578125,1.8972915410995483,0.9402466416358948,-2.786226987838745
1697638494046456800,4.437456787109375,2.4666011333465576,1.3238587379455566,-2.418497085571289
1697638494056050000,4.4470498046875,2.354205369949341,1.8467439413070679,-1.788102626800537
1697638494065644000,4.45664404296875,2.1831681728363037,1.844300627708435,-1.1027320623397827
1697638494075237400,4.4662373046875,1.997470498085022,1.8186450004577637,-0.6201626658439636
1697638494084830000,4.475829833984375,1.6444008350372314,1.986017107963562,-0.3232909142971039
1697638494094423300,4.48542333984375,1.1520578861236572,2.0703141689300537,-0.10827267915010452
1697638494104017400,4.495017333984375,0.6181774139404297,1.3385190963745117,0.17027367651462555
1697638494113610500,4.504610595703125,0.46302223205566406,0.6849125027656555,0.31565532088279724
1697638494123203000,4.514203125,0.8918370008468628,0.46989426016807556,0.23258009552955627
1697638494132796400,4.52379638671875,1.188708782196045,0.5566345453262329,0.07864658534526825
1697638494142390500,4.533390625,0.9883508682250977,0.2157817929983139,-0.015423892997205257
1697638494151983600,4.542983642578125,0.7721109390258789,-0.45508119463920593,-0.039857782423496246
1697638494161576200,4.552576171875,1.9156169891357422,1.450914978981018,-0.3184041380882263
1697638494171169500,4.56216943359375,2.7402608394622803,2.39528489112854,-0.7154548764228821
1697638494180763600,4.571763671875,2.328549861907959,1.4240376949310303,-1.1711468696594238
1697638494190356700,4.581356689453125,1.3096565008163452,0.8620582222938538,-1.7758857011795044
1697638494199949300,4.59094921875,0.01832541823387146,0.5065450668334961,-1.9676917791366577
1697638494209542700,4.600542724609375,-0.7843278646469116,0.5700731873512268,-1.4252593517303467
1697638494219136800,4.61013671875,-0.8234221339225769,1.1015102863311768,-0.4161396920681
1697638494228730000,4.619730224609375,-0.7085828185081482,1.287207841873169,0.5625903010368347
1697638494238322400,4.629322509765625,-0.5241069197654724,1.1235008239746094,1.1942063570022583
1697638494247915800,4.638915771484375,-0.33230090141296387,0.4894413650035858,1.3542484045028687
1697638494257510000,4.648510009765625,-0.17225892841815948,-0.31687700748443604,1.0610417127609253
1697638494267103200,4.658103271484375,-0.17836740612983704,-0.9767447710037231,0.49524441361427307
1697638494276695600,4.667695556640625,-0.30908870697021484,-1.3982293605804443,-0.04474456235766411
1697638494286289000,4.677288818359375,-0.28343313932418823,-1.6169127225875854,-0.3843756318092346
1697638494295883000,4.686883056640625,-0.3286358118057251,-1.8013886213302612,-0.5260922312736511
1697638494305476400,4.696476318359375,-0.601073682308197,-1.9125627279281616,-0.45889899134635925
1697638494315069000,4.70606884765625,-0.8502993583679199,-1.9675390720367432,-0.28541839122772217
1697638494324662000,4.715662109375,-0.7146912813186646,-2.0029680728912354,-0.23288552463054657
1697638494334256000,4.725256103515625,-0.08674030750989914,-1.8404828310012817,-0.2939702570438385
1697638494343849500,4.734849365234375,0.6694886088371277,-1.4825263023376465,-0.2817533016204834
1697638494353442000,4.744442138671875,1.1642749309539795,-1.1624423265457153,-0.1632489264011383
1697638494363035100,4.75403515625,1.2094775438308716,-0.7605048418045044,-0.01175880990922451
1697638494372629200,4.763629150390625,0.9675820469856262,-0.27411770820617676,0.12262758612632751
1697638494382222600,4.77322265625,0.712247908115387,-0.03833066672086716,0.17393875122070312
1697638494391815200,4.782815185546875,0.4862344264984131,-0.0590994730591774,0.13484452664852142
1697638494401408300,4.792408203125,0.27976804971694946,-0.18615570664405823,0.007788302376866341
1697638494411002400,4.80200244140625,0.11117420345544815,-0.2912214398384094,-0.13270656764507294
1697638494420595700,4.811595703125,0.06841489672660828,-0.2973299026489258,-0.2011214643716812
1697638494430188300,4.821188232421875,0.11606097966432571,-0.31199023127555847,-0.19379130005836487
1697638494439781400,4.830781494140625,0.17225892841815948,-0.36574479937553406,-0.11315945535898209
1697638494449375500,4.84037548828125,0.12461283802986145,-0.24968381226062775,-0.04963133856654167
1697638494458968800,4.84996875,0.07085828483104706,-0.19470755755901337,-0.06184828653931618
1697638494468561400,4.8595615234375,-0.10017894953489304,-0.28755635023117065,-0.1913478970527649
1697638494478154800,4.86915478515625,-0.8209787011146545,-0.1519482582807541,-0.7973083853721619
1697638494487748900,4.878748779296875,-1.4185400009155273,0.4124746024608612,-0.5908420085906982
1697638494497342000,4.888342041015625,-1.659213900566101,0.4246915578842163,-0.26342788338661194
1697638494506934500,4.8979345703125,-1.6421101093292236,-0.09086353331804276,-0.08750387281179428
1697638494516527900,4.90752783203125,-1.449082374572754,-0.5577035546302795,0.050547610968351364
1697638494526121700,4.917121826171875,-1.0787562131881714,-0.8313631415367126,0.20081603527069092
1697638494535715000,4.926715087890625,-0.6169557571411133,-0.7519529461860657,0.37796175479888916
1697638494545307600,4.9363076171875,-0.3029802441596985,-0.4489727318286896,0.7678350210189819
1697638494554901000,4.94590087890625,-0.25411245226860046,-0.35352784395217896,1.2345223426818848
1697638494564494800,4.955494873046875,-0.20157960057258606,-0.5332696437835693,1.5668232440948486
1697638494574088200,4.965088134765625,0.01710372418165207,-0.6371136903762817,1.7366387844085693
1697638494583680800,4.9746806640625,0.5925218462944031,-0.6053496599197388,1.6132476329803467
1697638494593273900,4.98427392578125,1.3108782768249512,-0.5638120174407959,1.4226632118225098
1697638494602868000,4.993867919921875,1.784895658493042,-0.39140036702156067,1.4092246294021606
1697638494612461300,5.00346142578125,1.6248537302017212,-0.35108447074890137,1.531394124031067
1697638494622054000,5.013053955078125,1.0836430788040161,-0.8081509470939636,1.483747959136963
1697638494631647000,5.02264697265625,0.517998456954956,-1.1795459985733032,1.1465603113174438
1697638494641241000,5.032240966796875,0.03542914241552353,-1.1160179376602173,0.4133908748626709
1697638494650834400,5.04183447265625,-0.29687178134918213,-0.786160409450531,-0.3855973184108734
1697638494660427000,5.051427001953125,-0.6389462351799011,-0.6859814524650574,-0.9011524319648743
1697638494670020400,5.061020263671875,-1.0335536003112793,-0.8570187091827393,-1.278656005859375
1697638494679614500,5.070614501953125,-1.196191668510437,-0.9058864712715149,-1.3226370811462402
1697638494689207600,5.08020751953125,-1.2475028038024902,-0.7898254990577698,-0.9487984776496887
1697638494698800000,5.089800048828125,-1.2096302509307861,-0.6994200944900513,-0.566408097743988
1697638494708393500,5.0993935546875,-1.0811996459960938,-0.6737645268440247,-0.21822518110275269
1697638494717987600,5.108987548828125,-0.7696675658226013,-0.6151232123374939,0.32665055990219116
1697638494727580700,5.11858056640625,-0.3432961702346802,-0.5088357925415039,0.9290986657142639
1697638494737173200,5.12817333984375,0.010995250195264816,-0.2154763638973236,1.332257866859436
1697638494746766300,5.137766357421875,0.20157960057258606,1.0550858974456787,1.0744802951812744
1697638494756360400,5.1473603515625,0.21868331730365753,3.2150418758392334,0.4121691882610321
1697638494765953800,5.156953857421875,0.10628741979598999,3.9407284259796143,0.24601873755455017
1697638494775546400,5.16654638671875,0.05986303091049194,3.387300729751587,0.38040512800216675
1697638494785139500,5.176139404296875,0.1966928243637085,2.0348849296569824,0.527161180973053
1697638494794733600,5.185733642578125,0.416597843170166,0.4405735731124878,0.4402681589126587
1697638494804327000,5.195326904296875,0.367730051279068,-0.8509102463722229,0.23991025984287262
1697638494813919500,5.20491943359375,0.20768806338310242,-1.378682255744934,0.10918894410133362
1697638494823512600,5.2145126953125,0.007330167107284069,-1.0549331903457642,0.0725381150841713
1697638494833106700,5.224106689453125,-0.08796200156211853,-0.7788302302360535,0.0847550556063652
1697638494842700000,5.233699951171875,-0.004886778071522713,-1.23940908908844,-0.11926792562007904
1697638494852292400,5.243292236328125,-0.023212196305394173,-1.4715310335159302,-0.34161633253097534
1697638494861885700,5.2528857421875,-0.08674030750989914,-1.1013575792312622,-0.2951919436454773
1697638494871479800,5.262479736328125,-0.16370706260204315,-1.1086877584457397,-0.31473904848098755
1697638494881073200,5.2720732421875,-0.18814095854759216,-1.5350592136383057,-0.4100312292575836
1697638494890665500,5.28166552734375,-0.1453816443681717,-1.7097615003585815,-0.40758782625198364
1697638494900258800,5.2912587890625,-0.11606097966432571,-1.6486767530441284,-0.38193225860595703
1697638494909853000,5.30085302734375,-0.09529217332601547,-1.4861913919448853,-0.36849361658096313
1697638494919446300,5.3104462890625,-0.06963659077882767,-1.3029371500015259,-0.3709369897842407
1697638494929038600,5.32003857421875,-0.014660334214568138,-1.0769237279891968,-0.41980478167533875
1697638494938632000,5.3296318359375,0.0781884491443634,-0.8240329623222351,-0.49677154421806335
1697638494948226000,5.33922607421875,0.18814095854759216,-0.6163448691368103,-0.5456393361091614
1697638494957819100,5.348819091796875,0.2858765125274658,-0.4990622103214264,-0.5505260825157166
1697638494967411700,5.35841162109375,0.3396310806274414,-0.46485477685928345,-0.5370874404907227
1697638494977005000,5.368005126953125,0.3640649616718292,-0.47951510548591614,-0.5346440672874451
1697638494986599200,5.37759912109375,0.3823903799057007,-0.5161659121513367,-0.5493044257164001
1697638494996192300,5.387192138671875,0.4031592011451721,-0.5491516590118408,-0.5651864409446716
1697638495005784800,5.396784912109375,0.41537612676620483,-0.5662553906440735,-0.5725166201591492
1697638495015378200,5.406378173828125,0.42637139558792114,-0.5992411375045776,-0.5419742465019226
1697638495024972300,5.41597216796875,0.43858832120895386,-0.5870242118835449,-0.4808894991874695
1697638495034565400,5.4255654296875,0.4556920528411865,-0.550373375415802,-0.4112529158592224
1697638495044158000,5.435157958984375,0.4605788290500641,-0.46607646346092224,-0.3611634373664856
1697638495053751000,5.4447509765625,0.4679090082645416,-0.3730749487876892,-0.3379512429237366
1697638495063345200,5.45434521484375,0.4679090082645416,-0.31443363428115845,-0.34405970573425293
1697638495072938500,5.4639384765625,0.4679090082645416,-0.31321191787719727,-0.35627666115760803
1697638495082531000,5.473531005859375,0.4679090082645416,-0.35597124695777893,-0.3367295563220978
1697638495092124200,5.483124267578125,0.4618005156517029,-0.43919917941093445,-0.28786176443099976
1697638495101718300,5.49271826171875,0.4593571424484253,-0.48073679208755493,-0.23410721123218536
1697638495111311600,5.5023115234375,0.474017471075058,-0.4868452548980713,-0.1779092699289322
1697638495120904000,5.511904052734375,0.5106683373451233,-0.4599680006504059,-0.12781979143619537
1697638495130497300,5.521497314453125,0.546097457408905,-0.40728241205215454,-0.09239064902067184
1697638495140091400,5.53109130859375,0.5607577562332153,-0.35230615735054016,-0.09239064902067184
1697638495149684700,5.540684814453125,0.5326588153839111,-0.2973299026489258,-0.1253764033317566
1697638495159277000,5.550277099609375,0.4703523814678192,-0.24846212565898895,-0.15469707548618317
1697638495168870400,5.559870361328125,0.393385648727417,-0.188599094748497,-0.1510319858789444
1697638495178464500,5.569464599609375,0.342074453830719,-0.0016798300202935934,-0.1241547018289566
1697638495188057600,5.5790576171875,0.30664533376693726,0.3220692276954651,-0.09972081333398819
1697638495197650200,5.588650146484375,0.2638860046863556,0.5761816501617432,-0.0459662564098835
1697638495207243500,5.598243408203125,0.2211267054080963,0.7142331600189209,0.018783552572131157
1697638495216837600,5.607837646484375,0.17225892841815948,0.7765395641326904,0.07986827939748764
1697638495226430700,5.6174306640625,0.13438639044761658,0.6873558759689331,0.12995775043964386
1697638495236023300,5.627023193359375,0.1185043677687645,0.4271349310874939,0.17027367651462555
1697638495245616400,5.636616455078125,0.09895725548267365,0.12171131372451782,0.19715094566345215
1697638495255210500,5.64621044921875,0.1185043677687645,0.04474456235766411,0.164165198802948
1697638495264803800,5.655803955078125,0.14782503247261047,0.19256959855556488,0.06887302547693253
1697638495274396200,5.665396240234375,0.07696675509214401,0.3245126008987427,0.033443886786699295
1697638495283989500,5.674989501953125,-0.0036650835536420345,0.3245126008987427,0.050547610968351364
1697638495293583600,5.68458349609375,-0.03665083646774292,0.22189027070999146,0.03955236077308655
1697638495303177000,5.694177001953125,-0.01710372418165207,0.1388150453567505,0.016340164467692375
1697638495312769300,5.703769287109375,0.04031591862440109,0.13270656764507294,0.04321744292974472
1697638495322362600,5.713362548828125,0.130721315741539,0.4283566474914551,0.11529742181301117
1697638495331956700,5.722956787109375,0.15271180868148804,0.830294132232666,0.17149536311626434
1697638495341549800,5.7325498046875,0.0036650835536420345,1.075854778289795,0.028557108715176582
1697638495351142400,5.742142333984375,-0.18081079423427582,1.0831849575042725,-0.2707580327987671
1697638495360735700,5.75173583984375,-0.3005368411540985,0.5004366040229797,-0.43568679690361023
1697638495370329900,5.761329833984375,-0.34696123003959656,-0.46363306045532227,-0.4002576768398285
1697638495379923000,5.7709228515625,-0.29565006494522095,-1.411668062210083,-0.2573194205760956
1697638495389515500,5.780515625,-0.24311721324920654,-2.149571418762207,-0.08261708915233612
1697638495399108600,5.790108642578125,-0.33230090141296387,-2.407349109649658,0.10796725004911423
1697638495408702700,5.79970263671875,-0.5216635465621948,-1.9883078336715698,0.2570139765739441
1697638495418296000,5.809296142578125,-0.6157340407371521,-1.323706030845642,0.31687700748443604
1697638495427888400,5.818888427734375,-0.6499415040016174,-0.7128587365150452,0.39262208342552185
1697638495437481700,5.828481689453125,-0.6413896083831787,-0.02244863659143448,0.5099047422409058
1697638495447075800,5.838075927734375,-0.5607577562332153,0.5383091568946838,0.6358919739723206
1697638495456669000,5.8476689453125,-0.46424391865730286,0.9255862832069397,0.7140804529190063
1697638495466261500,5.857261474609375,-0.32130566239356995,1.0294303894042969,0.6432221531867981
1697638495475854800,5.866854736328125,-0.12216944992542267,0.9097042679786682,0.38040512800216675
1697638495485449000,5.876448974609375,0.09895725548267365,0.8009734749794006,0.06520794332027435
1697638495495042000,5.8860419921875,0.27854636311531067,0.7618792653083801,-0.1754658818244934
1697638495504634600,5.895634521484375,0.38849884271621704,0.7863131165504456,-0.3318427801132202
1697638495514227700,5.905227783203125,0.45080527663230896,0.8339592218399048,-0.4527905285358429
1697638495523821800,5.91482177734375,0.49112120270729065,0.8803836107254028,-0.5505260825157166
1697638495533415200,5.924415283203125,0.517998456954956,0.9060391783714294,-0.617719292640686
1697638495543007500,5.934007568359375,0.5241069197654724,0.9121476411819458,-0.6555918455123901
1697638495552600800,5.943600830078125,0.5021164417266846,0.9097042679786682,-0.6641436815261841
1697638495562195000,5.95319482421875,0.4618005156517029,0.9023740887641907,-0.6213843822479248
1697638495571788000,5.9627880859375,0.40193748474121094,0.904817521572113,-0.5028799772262573
1697638495581380600,5.972380615234375,0.32252734899520874,0.9268079996109009,-0.3086305856704712
1697638495590973700,5.9819736328125,0.21990501880645752,0.9524635672569275,-0.06551336497068405
1697638495600567800,5.99156787109375,0.09895725548267365,0.9732323884963989,0.1763821393251419
1697638495610161200,6.0011611328125,-0.029320668429136276,0.9707890152931213,0.3865135908126831
1697638495619753700,6.010753662109375,-0.14171656966209412,0.936581552028656,0.5381564497947693
1697638495629346800,6.020346923828125,-0.22601348161697388,0.8742751479148865,0.6114581227302551
1697638495638941000,6.02994091796875,-0.2907632887363434,0.8217422962188721,0.6139014959335327
1697638495648534000,6.039533935546875,-0.33474430441856384,0.7802046537399292,0.5699204802513123
1697638495658126600,6.049126708984375,-0.3567348122596741,0.7337802648544312,0.5074613690376282
1697638495667720000,6.058719970703125,-0.365286648273468,0.6580352187156677,0.44515493512153625
1697638495677314000,6.06831396484375,-0.36284327507019043,0.5444176197052002,0.39140036702156067
1697638495686907100,6.0779072265625,-0.3506263196468353,0.40758782625198364,0.35108447074890137
1697638495696499700,6.087499755859375,-0.33718767762184143,0.284196674823761,0.31199023127555847
1697638495706092800,6.0970927734375,-0.3310792148113251,0.19256959855556488,0.26067906618118286
1697638495715687000,6.10668701171875,-0.3274141252040863,0.1253764033317566,0.18126893043518066
1697638495725280300,6.1162802734375,-0.3029802441596985,0.02641914412379265,0.07498150318861008
1697638495734872600,6.12587255859375,-0.24311721324920654,-0.12995775043964386,-0.038636088371276855
1697638495744466000,6.1354658203125,-0.17714570462703705,-0.28877803683280945,-0.14125843346118927
1697638495754060000,6.14506005859375,-0.1319430023431778,-0.42194274067878723,-0.21089501678943634
1697638495763653000,6.154653076171875,-0.1185043677687645,-0.5454866290092468,-0.24510246515274048
1697638495773245700,6.16424560546875,-0.1319430023431778,-0.6395570635795593,-0.2426590770483017
1697638495782838800,6.1738388671875,-0.16492876410484314,-0.7104153633117676,-0.20845162868499756
1697638495792433000,6.183432861328125,-0.20646637678146362,-0.7262973785400391,-0.18035265803337097
1697638495802026200,6.193026123046875,-0.2748812735080719,-0.6627692580223083,-0.18279604613780975
1697638495811618600,6.20261865234375,-0.36162158846855164,-0.5870242118835449,-0.19501298666000366
1697638495821212000,6.2122119140625,-0.4202629029750824,-0.5955760478973389,-0.1901262104511261
1697638495830806000,6.221805908203125,-0.4080459773540497,-0.7250757217407227,-0.10094250738620758
1697638495840399000,6.231399169921875,-0.36162158846855164,-0.8619054555892944,0.051769305020570755
1697638495849991700,6.24099169921875,-0.31031039357185364,-0.9290986657142639,0.18371231853961945
1697638495859584800,6.250584716796875,-0.2235700935125351,-0.9071081876754761,0.3046600818634033
1697638495869179000,6.260178955078125,-0.10873081535100937,-0.7776085734367371,0.4549284875392914
1697638495878772200,6.269772216796875,0.0036650835536420345,-0.5772506594657898,0.6810947060585022
1697638495888364500,6.279364501953125,0.05497625470161438,-0.3498627543449402,0.9889616966247559
1697638495897958000,6.2889580078125,0,-0.18615570664405823,1.2699514627456665
1697638495907552000,6.298552001953125,-0.08551861345767975,-0.15805672109127045,1.4617575407028198
1697638495917145000,6.30814501953125,-0.1050657257437706,-0.2802261710166931,1.5924787521362305
1697638495926737700,6.317737548828125,-0.03420744836330414,-0.4856235682964325,1.6657804250717163
1697638495936330800,6.327330810546875,0.03176405653357506,-0.6517740488052368,1.6865493059158325
1697638495945924900,6.3369248046875,0.007330167107284069,-0.7262973785400391,1.670667290687561
1697638495955518200,6.346518310546875,-0.07085828483104706,-0.7360709309577942,1.623021125793457
1697638495965110500,6.356110595703125,-0.17714570462703705,-0.6786513328552246,1.5094035863876343
1697638495974703900,6.365703857421875,-0.2748812735080719,-0.5369347333908081,1.26872980594635
1697638495984298000,6.375298095703125,-0.43858832120895386,-0.4489727318286896,0.8851176500320435
1697638495993891000,6.38489111328125,-0.6633801460266113,-0.4868452548980713,0.4500417113304138
1697638496003483600,6.394483642578125,-0.7855495810508728,-0.46607646346092224,-0.08994726091623306
1697638496013076700,6.40407666015625,-0.7464553713798523,-0.3718532621860504,-0.6824691295623779
1697638496022670800,6.4136708984375,-0.6365028619766235,-0.2851129472255707,-1.1296093463897705
1697638496032264200,6.42326416015625,-0.5399889945983887,-0.2435753494501114,-1.3006465435028076
1697638496041856500,6.4328564453125,-0.41048935055732727,-0.34008920192718506,-1.19191575050354
1697638496051449900,6.442449951171875,-0.24067382514476776,-0.7995990514755249,-0.835180938243866
1697638496061044000,6.4520439453125,0.5118899941444397,-5.278331279754639,0.6920899152755737
1697638496070637000,6.461636962890625,0.17958909273147583,-4.87272834777832,1.081810474395752
1697638496080229400,6.4712294921875,0.16004198789596558,-1.9406617879867554,0.3889569938182831
1697638496089822700,6.48082275390625,0.3946073353290558,-1.0292776823043823,0.034665580838918686
1697638496099416800,6.490416748046875,0.3958290219306946,-0.6200099587440491,-0.19501298666000366
1697638496109010000,6.500010009765625,0.36284327507019043,-0.25212720036506653,-0.4369085133075714
1697638496118602500,6.5096025390625,0.3555130958557129,-0.07498150318861008,-0.6788040399551392
1697638496128195800,6.51919580078125,0.342074453830719,0.0325276181101799,-0.9439117312431335
1697638496137789700,6.528789794921875,0.3310792148113251,0.09116895496845245,-1.1760337352752686
1697638496147383000,6.538383056640625,0.3249707520008087,-0.05421269312500954,-1.2774343490600586
1697638496156975400,6.547975341796875,0.3005368411540985,-0.052990999072790146,-1.334854006767273
1697638496166568700,6.557568603515625,0.2858765125274658,0.08750387281179428,-1.4093773365020752
1697638496176162800,6.567162841796875,0.2761029601097107,0.27564483880996704,-1.4313678741455078
1697638496185756000,6.576755859375,0.29442837834358215,0.3990359604358673,-1.3739482164382935
1697638496195348500,6.586348388671875,0.33718767762184143,0.4100312292575836,-1.238340139389038
1697638496204941600,6.595941650390625,0.390942245721817,0.35505497455596924,-1.074633002281189
1697638496214535700,6.60553564453125,0.45447036623954773,0.30130040645599365,-0.9121476411819458
1697638496224129000,6.61512890625,0.497229665517807,0.2560977041721344,-0.7496622800827026
1697638496233721300,6.624721435546875,0.5021164417266846,0.19256959855556488,-0.5920637249946594
1697638496243314700,6.634314697265625,0.4679090082645416,0.08994726091623306,-0.4405735731124878
1697638496252908800,6.64390869140625,0.42759308218955994,-0.0029015245381742716,-0.29885703325271606
1697638496262502000,6.653501953125,0.41537612676620483,-0.032222192734479904,-0.16935740411281586
1697638496272094500,6.663094482421875,0.4422534108161926,-0.009009997360408306,-0.056961506605148315
1697638496281687600,6.6726875,0.45080527663230896,0.025197450071573257,0.02367033064365387
1697638496291281700,6.68228173828125,0.40071579813957214,0.09972081333398819,0.05421269312500954
1697638496300874800,6.691874755859375,0.33352261781692505,0.20845162868499756,0.0261137206107378
1697638496310467300,6.70146728515625,0.32252734899520874,0.36482852697372437,-0.036192700266838074
1697638496320060400,6.711060302734375,0.33230090141296387,0.5077667832374573,-0.07895200699567795
1697638496329654500,6.720654541015625,0.3310792148113251,0.6164975762367249,-0.0459662564098835
1697638496339247900,6.730247802734375,0.3274141252040863,0.7044596076011658,0.06032116711139679
1697638496348840200,6.739840087890625,0.33352261781692505,0.778982937335968,0.20692451298236847
1697638496358433500,6.74943359375,0.3384093940258026,0.8241856694221497,0.35474956035614014
1697638496368027600,6.759027587890625,0.3396310806274414,0.7948650121688843,0.5025745630264282
1697638496377620700,6.768620849609375,0.29442837834358215,0.7252284288406372,0.6420004963874817
1697638496387213300,6.77821337890625,0.20524467527866364,0.7130114436149597,0.7238540053367615
1697638496396806400,6.787806396484375,0.10017894953489304,0.6897992491722107,0.7238540053367615
1697638496406400500,6.797400390625,-0.06352811306715012,0.6788040399551392,0.6517740488052368
1697638496415993600,6.80699365234375,-0.2113531529903412,0.6910209655761719,0.5674771070480347
1697638496425586200,6.816586181640625,-0.2357870489358902,0.677582323551178,0.4769189953804016
1697638496435179500,6.826179443359375,-0.26755109429359436,0.5957288146018982,0.3755183517932892
1697638496444773400,6.8357734375,-0.42637139558792114,0.5590779781341553,0.21791976690292358
1697638496454366700,6.84536669921875,-0.652384877204895,0.594507098197937,0.004123218823224306
1697638496463959000,6.854958984375,-0.911384105682373,0.29885703325271606,-0.27686652541160583
1697638496473552400,6.864552490234375,-1.0836430788040161,0.01175880990922451,-0.43324342370033264
1697638496483146500,6.874146484375,-1.1606098413467407,-0.09575030952692032,-0.4136963188648224
1697638496492739600,6.883739501953125,-1.1312891244888306,-0.1519482582807541,-0.33917292952537537
1697638496502332200,6.893332275390625,-0.8747332692146301,-0.16783028841018677,-0.2683146595954895
1697638496511925200,6.90292529296875,-0.546097457408905,-0.12018419802188873,-0.15591876208782196
1697638496521519400,6.912519287109375,-0.22601348161697388,-0.11407572776079178,0.08108997344970703
1697638496531112400,6.922112548828125,0.042759306728839874,-0.1238492801785469,0.39384377002716064
1697638496540705500,6.93170556640625,0.21990501880645752,0.056961506605148315,0.5625903010368347
1697638496550298400,6.94129833984375,0.3542914092540741,0.4161396920681,0.5123481154441833
1697638496559892500,6.950892578125,0.4984513521194458,0.775317907333374,0.30099499225616455
1697638496569485600,6.960485595703125,0.5754181146621704,1.0709679126739502,-0.004428642801940441
1697638496579078100,6.970078125,0.5485408306121826,1.343405842781067,-0.35138988494873047
1697638496588671500,6.97967138671875,0.497229665517807,1.5718626976013184,-0.669030487537384
1697638496598265300,6.989265380859375,0.45080527663230896,1.7160226106643677,-0.8767185211181641
1697638496607858700,6.998858642578125,0.4227063059806824,1.7709989547729492,-0.9084826111793518
1697638496617451000,7.008450927734375,0.3897205591201782,1.8039846420288086,-0.7643226385116577
1697638496627044400,7.01804443359375,0.3029802441596985,1.8601826429367065,-0.5138752460479736
1697638496636638500,7.027638427734375,0.1832541823387146,1.93104088306427,-0.23288552463054657
1697638496646231600,7.0372314453125,0.0781884491443634,1.9518096446990967,0.050547610968351364
1697638496655824000,7.046823974609375,0.01832541823387146,1.8626259565353394,0.3058817684650421
1697638496665417200,7.056417236328125,-0.01588202826678753,1.7086925506591797,0.5147915482521057
1697638496675011300,7.06601123046875,-0.03176405653357506,1.5718626976013184,0.6627692580223083
1697638496684604400,7.0756044921875,-0.01710372418165207,1.4643535614013672,0.7238540053367615
1697638496694197000,7.085197021484375,0.026877280324697495,1.40449059009552,0.6969767212867737
1697638496703790000,7.0947900390625,0.08918370306491852,1.4020471572875977,0.5906893014907837
1697638496713384200,7.10438427734375,0.13927318155765533,1.3849434852600098,0.43293800950050354
1697638496722977500,7.1139775390625,0.17592400312423706,1.3043116331100464,0.270452618598938
1697638496732569900,7.12356982421875,0.18569757044315338,1.1980241537094116,0.14828316867351532
1697638496742163200,7.1331630859375,0.17592400312423706,1.0770764350891113,0.0725381150841713
1697638496751757000,7.142757080078125,0.16859383881092072,0.9500201940536499,0.03955236077308655
1697638496761350400,7.152350341796875,0.15515519678592682,0.7777612805366516,0.02489202655851841
1697638496770942700,7.161942626953125,0.13805148005485535,0.6164975762367249,0.021226942539215088
1697638496780536000,7.1715361328125,0.08796200156211853,0.5150969624519348,0.02489202655851841
1697638496790130200,7.181130126953125,0.0036650835536420345,0.5028799772262573,0.020005248486995697
1697638496799723300,7.19072314453125,-0.10873081535100937,0.5395308136940002,0.0004581354442052543
1697638496809315600,7.200315673828125,-0.22723518311977386,0.5847335457801819,-0.008093725889921188
1697638496818909000,7.209908935546875,-0.3384093940258026,0.6592568755149841,0.009009997360408306
1697638496828503000,7.2195029296875,-0.43736663460731506,0.709346354007721,0.03833066672086716
1697638496838096100,7.22909619140625,-0.5253286361694336,0.6922426819801331,0.08108997344970703
1697638496847688700,7.238688720703125,-0.5656445622444153,0.6397097706794739,0.15927842259407043
1697638496857281800,7.24828173828125,-0.546097457408905,0.5334223508834839,0.3046600818634033
1697638496866876000,7.2578759765625,-0.4581354558467865,0.3978142738342285,0.5381564497947693
1697638496876469000,7.267468994140625,-0.30786702036857605,0.20845162868499756,0.846023440361023
1697638496886061600,7.2770615234375,-0.09040539711713791,-0.06398624926805496,1.1734375953674316
1697638496895654700,7.286654541015625,0.15393351018428802,-0.3352024257183075,1.4373235702514648
1697638496905248800,7.296248779296875,0.3640649616718292,-0.6456655263900757,1.6291296482086182
1697638496914842000,7.305842041015625,0.393385648727417,-0.8875610828399658,1.6914360523223877
1697638496924434400,7.315434326171875,0.25655585527420044,-0.7519529461860657,1.6437900066375732
1697638496934027800,7.32502783203125,0.09407047927379608,-0.24601873755455017,1.5656014680862427
1697638496943621600,7.33462158203125,-0.047646086663007736,0.3208475112915039,1.4385453462600708
1697638496953215000,7.344215087890625,-0.16492876410484314,0.7447755336761475,1.2785032987594604
1697638496962807300,7.353807373046875,-0.25289076566696167,0.9255862832069397,1.136786699295044
1697638496972400600,7.363400634765625,-0.2724378705024719,0.9170344471931458,0.9523108601570129
1697638496981994800,7.372994873046875,-0.22967857122421265,0.8437327742576599,0.7128587365150452
1697638496991587800,7.382587890625,-0.1575985997915268,0.7508839964866638,0.43415969610214233
1697638497001180200,7.39218017578125,-0.06719319522380829,0.5847335457801819,0.10918894410133362
1697638497010773500,7.4017734375,0,0.38071054220199585,-0.22189027070999146
1697638497020367600,7.41136767578125,-0.012216945178806782,0.2426590770483017,-0.4906630516052246
1697638497029960700,7.420960693359375,-0.0781884491443634,0.2279987335205078,-0.6433748602867126
1697638497039553000,7.430552978515625,-0.1575985997915268,0.32817769050598145,-0.6653653979301453
1697638497049146400,7.440146484375,-0.22479179501533508,0.4039227366447449,-0.5822901725769043
1697638497058740500,7.449740478515625,-0.20280128717422485,0.4039227366447449,-0.4100312292575836
1697638497068333600,7.45933349609375,-0.16126367449760437,0.3501681983470917,-0.2047865390777588
1697638497077926100,7.468926025390625,-0.11117420345544815,0.2536543309688568,-0.036192700266838074
1697638497087519200,7.478519287109375,-0.04153761267662048,0.13270656764507294,0.06276455521583557
1697638497097113300,7.48811328125,0.05375456064939499,0.03374931216239929,0.08842013776302338
1697638497106706400,7.49770654296875,0.1698155403137207,-0.02733541466295719,0.052990999072790146
1697638497116299000,7.507299072265625,0.2870981991291046,-0.04199574887752533,-0.02886253222823143
1697638497125892000,7.51689208984375,0.38849884271621704,-0.050547610968351364,-0.14858859777450562
1697638497135486200,7.526486328125,0.4752391576766968,-0.0859767496585846,-0.31351736187934875
1697638497145079300,7.536079345703125,0.5595360994338989,-0.16783028841018677,-0.5150969624519348
1697638497154671900,7.545671875,0.6267293095588684,-0.24724042415618896,-0.724006712436676
1697638497164265000,7.555264892578125,0.6792621612548828,-0.2655658423900604,-0.9194778203964233
1697638497173859000,7.564859130859375,0.7049177289009094,-0.21914145350456238,-1.0831849575042725
1697638497183452400,7.574452392578125,0.6927008032798767,-0.15316994488239288,-1.1894723176956177
1697638497193044700,7.584044677734375,0.6694886088371277,-0.10430216789245605,-1.2358967065811157
1697638497202638000,7.59363818359375,0.6316160559654236,-0.07742489129304886,-1.215127944946289
1697638497212232000,7.60323193359375,0.5864133834838867,-0.08108997344970703,-1.1283875703811646
1697638497221825300,7.6128251953125,0.5387672781944275,-0.08842013776302338,-0.9842276573181152
1697638497231417600,7.62241748046875,0.49112120270729065,-0.09697200357913971,-0.8046385645866394
1697638497241011000,7.632010986328125,0.44958359003067017,-0.10918894410133362,-0.6128324866294861
1697638497250604800,7.641604736328125,0.41048935055732727,-0.09697200357913971,-0.4246915578842163
1697638497260198100,7.6511982421875,0.37261682748794556,-0.04077405482530594,-0.24876753985881805
1697638497269790500,7.66079052734375,0.33474430441856384,0.012980503961443901,-0.07895200699567795
1697638497279383800,7.6703837890625,0.3029802441596985,0.02886253222823143,0.08964183181524277
1697638497288978000,7.67997802734375,0.25777754187583923,-0.0029015245381742716,0.2423536479473114
1697638497298571000,7.689571044921875,0.2101314514875412,-0.0456608310341835,0.3730749487876892
1697638497308163300,7.699163330078125,0.1832541823387146,0.0032069480512291193,0.47081053256988525
1697638497317756700,7.708756591796875,0.15149012207984924,0.09483403712511063,0.5479300022125244
1697638497327350800,7.718350830078125,0.09529217332601547,0.1754658818244934,0.5943543910980225
1697638497336943900,7.72794384765625,0.01954711228609085,0.19745637476444244,0.610236406326294
1697638497346536200,7.7375361328125,-0.0659715011715889,0.10216420143842697,0.679872989654541
1697638497356129500,7.747129638671875,-0.1710372269153595,0.04230117425322533,0.7886037826538086
1697638497365723600,7.7567236328125,-0.2883199155330658,0.14125843346118927,0.8729007244110107
1697638497375316700,7.766316650390625,-0.4581354558467865,0.3306210935115814,0.9083298444747925
1697638497384909000,7.775908935546875,-0.5595360994338989,0.15836215019226074,0.7336275577545166
1697638497394502400,7.78550244140625,-0.5302154421806335,-0.6994200944900513,0.1385096162557602
1697638497404096500,7.795096435546875,-0.43736663460731506,-1.4764177799224854,-0.45767730474472046
1697638497413689600,7.804689697265625,-0.40071579813957214,-1.5631581544876099,-0.5993938446044922
1697638497423282200,7.8142822265625,-0.3384093940258026,-1.5252856016159058,-0.6873558759689331
1697638497432875300,7.823875244140625,-0.2736595869064331,-1.323706030845642,-0.755770742893219
1697638497442469400,7.833469482421875,-0.16737215220928192,-1.0072871446609497,-0.8119687438011169
1697638497452062500,7.8430625,0.007330167107284069,-0.6468872427940369,-0.747218906879425
1697638497461655000,7.852655029296875,0.1844758689403534,-0.2570139765739441,-0.5212054252624512
1697638497471248100,7.862248046875,0.261442631483078,0.19989976286888123,-0.31473904848098755
1697638497480842200,7.87184228515625,0.2870981991291046,0.7252284288406372,-0.2683146595954895
1697638497490435300,7.881435302734375,0.33718767762184143,1.2041326761245728,-0.2915268540382385
1697638497500028000,7.89102783203125,0.42514967918395996,1.5547590255737305,-0.28664007782936096
1697638497509621000,7.90062109375,0.5289937257766724,1.8345270156860352,-0.21822518110275269
1697638497519215000,7.910215087890625,0.6633801460266113,2.0092294216156006,-0.06673506647348404
1697638497528808200,7.91980810546875,0.7879929542541504,1.9261541366577148,-0.05329642444849014
1697638497538400800,7.92940087890625,0.9370396733283997,2.2266910076141357,0.013896775431931019
1697638497547993900,7.938993896484375,1.0298885107040405,2.2987709045410156,-0.072843536734581
1697638497557588000,7.948587890625,1.1141854524612427,2.5614352226257324,-0.14370182156562805
1697638497567181000,7.95818115234375,1.2094775438308716,2.763014793395996,-0.17424418032169342
1697638497576773600,7.967773681640625,1.2510151863098145,2.814326047897339,-0.22066856920719147
1697638497586366700,7.97736669921875,1.2424633502960205,2.8619720935821533,-0.24510246515274048
1697638497595960800,7.9869609375,1.1838220357894897,2.8314297199249268,-0.27320143580436707
1697638497605554000,7.996553955078125,1.1190721988677979,2.780118703842163,-0.3208475112915039
1697638497615146500,8.006146484375,1.0653176307678223,2.739802598953247,-0.3733803927898407
1697638497624739600,8.015739501953124,1.014006495475769,2.745911121368408,-0.37948885560035706
1697638497634333700,8.025333740234375,0.9675820469856262,2.748354434967041,-0.3342861533164978
1697638497643926800,8.0349267578125,0.916270911693573,2.7434678077697754,-0.2548760175704956
1697638497653519400,8.044519287109376,0.8502993583679199,2.7288074493408203,-0.14858859777450562
1697638497663112400,8.054112548828124,0.7831062078475952,2.704373598098755,-0.037414394319057465
1697638497672706600,8.06370654296875,0.7317950129508972,2.6603925228118896,0.06276455521583557
1697638497682299600,8.073299560546875,0.707361102104187,2.5907559394836426,0.13117945194244385
1697638497691892200,8.082892333984375,0.7024743556976318,2.5015721321105957,0.16050012409687042
1697638497701485300,8.0924853515625,0.7085828185081482,2.3818461894989014,0.15439164638519287
1697638497711079400,8.102079345703125,0.7159129977226257,2.2608983516693115,0.11407572776079178
1697638497720672500,8.111672607421875,0.7134696245193481,2.1656062602996826,0.06154286116361618
1697638497730265000,8.12126513671875,0.6914790868759155,2.122846841812134,0.010231691412627697
1697638497739858200,8.130858154296876,0.6572716236114502,2.111851692199707,-0.02764083817601204
1697638497749452300,8.140452392578124,0.6169557571411133,2.1240687370300293,-0.038636088371276855
1697638497759045400,8.15004541015625,0.5705313682556152,2.1167385578155518,-0.03374931216239929
1697638497768638000,8.159637939453125,0.5277720093727112,2.062983989715576,-0.016645587980747223
1697638497778231000,8.16923095703125,0.499673068523407,1.987238883972168,0.029778804630041122
1697638497787825200,8.1788251953125,0.4825693368911743,1.9249324798583984,0.12751436233520508
1697638497797418200,8.188418212890625,0.4618005156517029,1.9420361518859863,0.2435753494501114
1697638497807010800,8.1980107421875,0.43614494800567627,2.050766944885254,0.34008920192718506
1697638497816604000,8.20760400390625,0.40071579813957214,2.198591947555542,0.4121691882610321
1697638497826198000,8.217197998046874,0.342074453830719,2.3305349349975586,0.4769189953804016
1697638497835791000,8.226791015625,0.2602209448814392,2.378180980682373,0.550373375415802
1697638497845383700,8.2363837890625,0.15026842057704926,2.314652919769287,0.6163448691368103
1697638497854976800,8.245976806640625,0.05008947476744652,2.137507200241089,0.6371136903762817
1697638497864571000,8.25557080078125,0.010995250195264816,1.876064658164978,0.6114581227302551
1697638497874164000,8.2651640625,0.04031591862440109,1.5816363096237183,0.6358919739723206
1697638497883756500,8.274756591796875,0.1172826737165451,1.3519576787948608,0.7275190949440002
1697638497893349600,8.284349609375,0.21501824259757996,1.240783452987671,0.8729007244110107
1697638497902943700,8.29394384765625,0.29320669174194336,1.1503781080245972,1.1013575792312622
1697638497912536800,8.303536865234374,0.32008397579193115,1.0844066143035889,1.3762388229370117
1697638497922129400,8.31312939453125,0.3005368411540985,1.1296093463897705,1.6486767530441284
1697638497931722500,8.322722412109375,0.25533416867256165,1.2126845121383667,1.8771336078643799
1697638497941316600,8.332316650390625,0.23090025782585144,1.2652174234390259,2.0603878498077393
1697638497950909700,8.34190966796875,0.22845686972141266,1.2957597970962524,2.1972177028656006
1697638497960502300,8.351502197265624,0.21379654109477997,1.2982031106948853,2.2521939277648926
1697638497970095400,8.361095458984375,0.17836740612983704,1.2456703186035156,2.192330837249756
1697638497979689500,8.370689453125,0.12339114397764206,1.154043197631836,1.9980813264846802
1697638497989282600,8.380282470703126,0.0794101431965828,1.1112838983535767,1.702431321144104
1697638497998875100,8.389875244140624,0.043981000781059265,1.2297883033752441,1.3676869869232178
1697638498008468200,8.39946826171875,0.07085828483104706,1.3825000524520874,1.0451596975326538
1697638498018062300,8.409062255859375,0.14660334587097168,1.6011834144592285,0.8594620823860168
1697638498027655400,8.418655517578125,0.16737215220928192,1.72823965549469,0.8533536195755005
1697638498037248000,8.428248046875,0.130721315741539,1.7367914915084839,0.9193251132965088
1697638498046841000,8.437841064453124,0.03665083646774292,1.6964755058288574,0.9229902029037476
1697638498056435200,8.447435302734375,-0.08185353130102158,1.6439427137374878,0.8167027831077576
1697638498066028300,8.4570283203125,-0.24678228795528412,1.5730843544006348,0.6395570635795593
1697638498075620900,8.466620849609376,-0.46424391865730286,1.5217732191085815,0.4109475016593933
1697638498085214000,8.4762138671875,-0.6597150564193726,1.4851224422454834,0.15316994488239288
1697638498094808000,8.48580810546875,-0.8429692387580872,1.4814573526382446,-0.08628217875957489
1697638498104401200,8.495401123046875,-1.068982720375061,1.413042426109314,-0.26464956998825073
1697638498113993700,8.50499365234375,-1.1618314981460571,1.4704620838165283,-0.29030516743659973
1697638498123586800,8.5145869140625,-1.0787562131881714,1.6769284009933472,-0.15958385169506073
1697638498133181000,8.524180908203125,-0.9785773158073425,1.8394137620925903,-0.037414394319057465
1697638498142774000,8.53377392578125,-0.8637380003929138,1.9847954511642456,0.06398624926805496
1697638498152366300,8.543366455078125,-0.7403468489646912,2.105743169784546,0.14828316867351532
1697638498161959700,8.552959716796876,-0.5949652194976807,2.183931589126587,0.21425467729568481
1697638498171553800,8.5625537109375,-0.43614494800567627,2.2120306491851807,0.26190075278282166
1697638498181147000,8.57214697265625,-0.2883199155330658,2.1949269771575928,0.30099499225616455
1697638498190739200,8.5817392578125,-0.16126367449760437,2.139950752258301,0.3315373361110687
1697638498200332500,8.59133251953125,-0.061084724962711334,2.0788660049438477,0.3461976945400238
1697638498209926400,8.600926513671874,0.009773556143045425,2.019002914428711,0.3461976945400238
1697638498219519700,8.610519775390625,0.061084724962711334,1.9518096446990967,0.3364241421222687
1697638498229112000,8.620112060546875,0.09895725548267365,1.8650693893432617,0.3217637836933136
1697638498238705400,8.629705322265625,0.129499614238739,1.7563385963439941,0.30099499225616455
1697638498248299300,8.63929931640625,0.1575985997915268,1.6512728929519653,0.2667875289916992
1697638498257892600,8.648892578125,0.17836740612983704,1.562089204788208,0.21791976690292358
1697638498267485000,8.65848486328125,0.20035789906978607,1.5132213830947876,0.1519482582807541
1697638498277078000,8.668078125,0.2235700935125351,1.4948959350585938,0.0725381150841713
1697638498286672100,8.677672119140626,0.24556060135364532,1.5119997262954712,0.004123218823224306
1697638498296265500,8.687265380859374,0.25777754187583923,1.5547590255737305,-0.016645587980747223
1697638498305857800,8.69685791015625,0.23823043704032898,1.5315468311309814,0.0016798300202935934
1697638498315451000,8.706450927734375,0.2101314514875412,1.4631319046020508,0.06032116711139679
1697638498325045000,8.716044921875,0.19058434665203094,1.4154858589172363,0.17027367651462555
1697638498334638000,8.72563818359375,0.16248537600040436,1.403268814086914,0.293664813041687
1697638498344230700,8.735230712890624,0.1172826737165451,1.3739482164382935,0.3584146201610565
1697638498353823700,8.74482373046875,0.05986303091049194,1.3055332899093628,0.3865135908126831
1697638498363417900,8.75441796875,-0.012216945178806782,1.2566654682159424,0.43049460649490356
1697638498373011000,8.764010986328126,-0.09529217332601547,1.19191575050354,0.5160132050514221
1697638498382603500,8.773603515625,-0.16737215220928192,1.135717749595642,0.624896764755249
1697638498392196600,8.783196533203125,-0.2516690790653229,1.0697462558746338,0.6994200944900513
1697638498401790700,8.792790771484375,-0.3396310806274414,0.9145910739898682,0.6529957056045532
1697638498411383800,8.8023837890625,-0.3836120665073395,0.7997517585754395,0.5308262705802917
1697638498420976400,8.811976318359376,-0.3689517378807068,0.8315158486366272,0.37796175479888916
1697638498430569500,8.821569580078124,-0.3384093940258026,0.9219212532043457,0.2032594233751297
1697638498440163600,8.83116357421875,-0.3164188861846924,0.9500201940536499,-0.0007635590736754239
1697638498449756700,8.840756591796875,-0.28098973631858826,0.853506326675415,-0.2817533016204834
1697638498459349000,8.850348876953126,-0.24556060135364532,0.7362236380577087,-0.5578562617301941
1697638498468942300,8.8599423828125,-0.1966928243637085,0.5370874404907227,-0.8278507590293884
1697638498478536200,8.8695361328125,-0.09529217332601547,0.3709369897842407,-1.002553105354309
1697638498488129500,8.879129638671875,0.03176405653357506,0.3868190348148346,-0.8657232522964478
1697638498497721900,8.888721923828125,0.1429382562637329,0.40758782625198364,-0.5798467397689819
1697638498507315200,8.898315185546876,0.1710372269153595,0.5688515305519104,-0.2170034945011139
1697638498516909000,8.907908935546875,0.08918370306491852,0.8205205798149109,0.10674555599689484
1697638498526502400,8.91750244140625,-0.04153761267662048,1.0404255390167236,0.34131091833114624
1697638498536094700,8.9270947265625,-0.12705622613430023,1.3311889171600342,0.4695888161659241
1697638498545687800,8.936687744140626,-0.17958909273147583,1.6769284009933472,0.44637662172317505
1697638498555282000,8.946281982421874,-0.17836740612983704,1.8809514045715332,0.293664813041687
1697638498564875000,8.955875,-0.12827792763710022,1.8516308069229126,0.07009471952915192
1697638498574467600,8.965467529296875,-0.007330167107284069,1.663489818572998,-0.15958385169506073
1697638498584060700,8.975060791015625,0.20035789906978607,1.4814573526382446,-0.3733803927898407
1697638498593654800,8.98465478515625,0.4459185004234314,1.3385190963745117,-0.5395308136940002
1697638498603247900,8.994247802734375,0.7085828185081482,1.2358967065811157,-0.645818293094635
1697638498612840400,9.00384033203125,0.9529217481613159,1.2505570650100708,-0.7032378911972046
1697638498622433500,9.01343359375,1.1972606182098389,1.4008255004882812,-0.7178982496261597
1697638498632027600,9.023027587890626,1.3792930841445923,1.5889664888381958,-0.6824691295623779
1697638498641620700,9.032620849609375,1.4501514434814453,1.6964755058288574,-0.594507098197937
1697638498651213300,9.04221337890625,1.3792930841445923,1.7245745658874512,-0.44423866271972656
1697638498660806400,9.051806396484375,1.2314680814743042,1.6561596393585205,-0.23777230083942413
1697638498670400500,9.061400390625,1.0567657947540283,1.5816363096237183,-0.04352286830544472
1697638498679993600,9.07099365234375,0.9138274788856506,1.5730843544006348,0.07498150318861008
1697638498689586000,9.0805859375,0.8295305967330933,1.6011834144592285,0.10308047384023666
1697638498699179300,9.09017919921875,0.7794411182403564,1.6561596393585205,0.08231166750192642
1697638498708773000,9.099773193359376,0.7611156702041626,1.7636687755584717,0.04199574887752533
1697638498718366500,9.109366455078124,0.7550072073936462,1.93104088306427,0.020005248486995697
1697638498727958800,9.118958740234374,0.7513421177864075,2.1216251850128174,0.028557108715176582
1697638498737552100,9.12855224609375,0.7317950129508972,2.2951059341430664,0.04321744292974472
1697638498747146000,9.13814599609375,0.7085828185081482,2.3903980255126953,0.04932591691613197
1697638498756739000,9.147739013671876,0.6975875496864319,2.427048921585083,0.034665580838918686
1697638498766331600,9.15733154296875,0.7085828185081482,2.4282705783843994,-0.004428642801940441
1697638498775924700,9.1669248046875,0.7403468489646912,2.389176368713379,-0.05207473039627075
1697638498785518800,9.176518798828125,0.7855495810508728,2.310987949371338,-0.10094250738620758
1697638498795112000,9.18611181640625,0.8197570443153381,2.21569561958313,-0.14736689627170563
1697638498804704500,9.19570458984375,0.8393041491508484,2.11429500579834,-0.1913478970527649
1697638498814297600,9.205297607421874,0.8490777015686035,1.9799087047576904,-0.2279987335205078
1697638498823891700,9.2148916015625,0.8441908955574036,1.867512822151184,-0.2560977041721344
1697638498833484800,9.22448486328125,0.8026533126831055,1.8174233436584473,-0.2829749882221222
1697638498843077400,9.234077392578126,0.7232431769371033,1.8137582540512085,-0.2915268540382385
1697638498852670500,9.24367041015625,0.6157340407371521,1.861404299736023,-0.27197974920272827
1697638498862264600,9.2532646484375,0.4691306948661804,1.9982341527938843,-0.22189027070999146
1697638498871857700,9.262857666015625,0.28221142292022705,2.1252903938293457,-0.1375933438539505
1697638498881450000,9.272449951171875,0.08796200156211853,2.1167385578155518,-0.04963133856654167
1697638498891043300,9.282043212890626,-0.11117420345544815,2.0617620944976807,0.04321744292974472
1697638498900637200,9.29163720703125,-0.2870981991291046,1.907828688621521,0.12751436233520508
1697638498910230500,9.30123046875,-0.39949411153793335,1.7111358642578125,0.18371231853961945
1697638498919822800,9.31082275390625,-0.4324798583984375,1.4814573526382446,0.2044811248779297
1697638498929416000,9.320416015625,-0.41171106696128845,1.1882506608963013,0.17149536311626434
1697638498939010000,9.330010009765624,-0.3432961702346802,0.8400676846504211,0.10918894410133362
1697638498948603100,9.33960302734375,-0.24433889985084534,0.5383091568946838,0.04810422286391258
1697638498958195700,9.34919580078125,-0.12461283802986145,0.3342861533164978,0.010231691412627697
1697638498967788800,9.358788818359375,-0.013438640162348747,0.2438807636499405,0.005344913341104984
1697638498977383000,9.3683828125,0.062306419014930725,0.2438807636499405,0.034665580838918686
1697638498986976000,9.37797607421875,0.08796200156211853,0.2438807636499405,0.1250709742307663
1697638498996568600,9.387568603515625,0.08063183724880219,0.2047865390777588,0.30343836545944214
1697638499006161700,9.39716162109375,0.06352811306715012,0.1363716572523117,0.5467082858085632
1697638499015755800,9.406755859375,0.045202698558568954,0.09116895496845245,0.7959339618682861
1697638499025348900,9.416348876953125,0.0036650835536420345,0.07040014863014221,1.009730577468872
1697638499034941200,9.425941162109375,-0.09529217332601547,-0.007788302376866341,1.1917630434036255
1697638499044534500,9.435534423828125,-0.19180603325366974,-0.3058817684650421,1.3432531356811523
1697638499054128400,9.44512841796875,-0.2883199155330658,-0.6126797795295715,1.4238849878311157
1697638499063721700,9.4547216796875,-0.5277720093727112,-1.4422104358673096,0.9962918758392334
1697638499073314000,9.46431396484375,-0.5265503525733948,-1.3017154932022095,0.7043069005012512
1697638499082907100,9.4739072265625,-0.28098973631858826,-0.8594620823860168,0.8276980519294739
1697638499092501200,9.483501220703126,-0.12583453953266144,-0.633448600769043,1.0024003982543945
1697638499102094300,9.49309423828125,-0.042759306728839874,-0.49417543411254883,1.1942063570022583
1697638499111687000,9.50268701171875,0.043981000781059265,-0.3461976945400238,1.3591351509094238
1697638499121280000,9.512280029296875,0.12827792763710022,-0.14461809396743774,1.4556490182876587
1697638499130874000,9.5218740234375,0.17836740612983704,0.023975754156708717,1.4922997951507568
1697638499140467200,9.53146728515625,0.1319430023431778,0.2536543309688568,1.5973656177520752
1697638499150059500,9.5410595703125,-0.046424392610788345,0.5236487984657288,1.702431321144104
1697638499159652900,9.55065283203125,-0.2516690790653229,0.6995728015899658,1.5802618265151978
1697638499169246700,9.560246826171875,-0.3274141252040863,0.775317907333374,1.1795459985733032
1697638499178840000,9.569840087890626,-0.3005368411540985,0.8681666851043701,0.5796940326690674
1697638499188432400,9.579432373046876,-0.26632940769195557,0.881605327129364,-0.022754060104489326
1697638499198025500,9.589025390625,-0.26999449729919434,0.7863131165504456,-0.43080002069473267
1697638499207619600,9.59861962890625,-0.284654825925827,0.6641436815261841,-0.6018372774124146
1697638499217212700,9.608212646484375,-0.30908870697021484,0.5700731873512268,-0.571294903755188
1697638499226805200,9.61780517578125,-0.37506023049354553,0.47233763337135315,-0.4527905285358429
1697638499236398300,9.6273984375,-0.4886777997016907,0.4002576768398285,-0.3306210935115814
1697638499245992400,9.636992431640625,-0.6120689511299133,0.3574983477592468,-0.22433365881443024
1697638499255585500,9.64658544921875,-0.7244648337364197,0.3196258246898651,-0.11682453751564026
1697638499265178000,9.65617822265625,-0.790436327457428,0.2793098986148834,-0.008093725889921188
1697638499274771200,9.665771240234376,-0.7879929542541504,0.2426590770483017,0.09208522737026215
1697638499284365300,9.675365234375,-0.7379034757614136,0.19501298666000366,0.1776038408279419
1697638499293958400,9.68495849609375,-0.6890357136726379,0.14003673195838928,0.2570139765739441
1697638499303550700,9.69455078125,-0.6633801460266113,0.08628217875957489,0.31443363428115845
1697638499313144000,9.70414404296875,-0.6206207871437073,0.03374931216239929,0.3315373361110687
1697638499322738000,9.713738037109374,-0.5289937257766724,-0.02244863659143448,0.30099499225616455
1697638499332331000,9.7233310546875,-0.3897205591201782,-0.0859767496585846,0.21181128919124603
1697638499341923600,9.732923583984375,-0.2113531529903412,-0.15316994488239288,0.08108997344970703
1697638499351516700,9.7425166015625,-0.007330167107284069,-0.20570281147956848,-0.072843536734581
1697638499361110800,9.75211083984375,0.21379654109477997,-0.2276933193206787,-0.2304421216249466
1697638499370704000,9.761703857421875,0.3775036036968231,-0.23502348363399506,-0.3623851239681244
1697638499380296200,9.771296142578125,0.4727957844734192,-0.2435753494501114,-0.44790375232696533
1697638499389889500,9.7808896484375,0.5289937257766724,-0.2582356929779053,-0.5028799772262573
1697638499399483600,9.790483642578126,0.5668662786483765,-0.27289602160453796,-0.5285356044769287
1697638499409076700,9.80007666015625,0.5986303091049194,-0.27656111121177673,-0.5297572612762451
1697638499418669000,9.8096689453125,0.6022953987121582,-0.2570139765739441,-0.5212054252624512
1697638499428262400,9.819262451171875,0.5815265774726868,-0.2301367074251175,-0.5004366040229797
1697638499437856300,9.828856201171876,0.5363239049911499,-0.17149536311626434,-0.45767730474472046
1697638499447449600,9.83844970703125,0.46668729186058044,-0.05787777900695801,-0.39292749762535095
1697638499457042000,9.8480419921875,0.3897205591201782,0.07650861889123917,-0.32817769050598145
1697638499466635000,9.857635009765625,0.33352261781692505,0.15958385169506073,-0.2548760175704956
1697638499476229000,9.86722900390625,0.31031039357185364,0.17180079221725464,-0.15347537398338318
1697638499485822200,9.876822265625,0.2870981991291046,0.11315945535898209,-0.06062658876180649
1697638499495414500,9.88641455078125,0.30908870697021484,0.020310672000050545,0.010231691412627697
1697638499505007900,9.8960078125,0.4337015450000763,-0.052990999072790146,0.06887302547693253
1697638499514602000,9.90560205078125,0.5399889945983887,-0.03955236077308655,0.12873606383800507
1697638499524195000,9.915195068359376,0.5888567566871643,0.009315420873463154,0.20936790108680725
1697638499533787400,9.924787353515624,0.6157340407371521,0.08628217875957489,0.2924431264400482
1697638499543380700,9.934380615234375,0.6084038615226746,0.15836215019226074,0.38040512800216675
1697638499552974600,9.943974609375,0.5387672781944275,0.19745637476444244,0.5099047422409058
1697638499562567700,9.953567626953125,0.4227063059806824,0.25121092796325684,0.6139014959335327
1697638499572160300,9.96316015625,0.2870981991291046,0.36849361658096313,0.6517740488052368
1697638499581753300,9.97275341796875,0.12827792763710022,0.6042806506156921,0.6236750483512878
1697638499591347500,9.982347412109375,-0.0659715011715889,0.881605327129364,0.6468872427940369
1697638499600940500,9.9919404296875,-0.2651077210903168,1.0648595094680786,0.8435800671577454
1697638499610532900,10.001532958984376,-0.3005368411540985,1.1613733768463135,0.990183413028717
1697638499620126200,10.011126220703124,-0.32252734899520874,1.028208613395691,0.9657495021820068
1697638499629720300,10.02072021484375,-0.4312581717967987,0.7337802648544312,0.7104153633117676
1697638499639313400,10.0303134765625,-0.45324867963790894,0.49677154421806335,0.3315373361110687
1697638499648905700,10.03990576171875,-0.45447036623954773,0.26464956998825073,0.13362284004688263
1697638499658499000,10.0494990234375,-0.4947862923145294,0.13270656764507294,0.23624517023563385
1697638499668093000,10.059093017578125,-0.5595360994338989,0.17180079221725464,0.35474956035614014
1697638499677686000,10.06868603515625,-0.6646018028259277,0.15714046359062195,0.39140036702156067
1697638499687278600,10.078278564453125,-0.790436327457428,0.10338589549064636,0.3620797097682953
1697638499696871700,10.08787158203125,-0.8747332692146301,0.10338589549064636,0.22647161781787872
1697638499706465800,10.0974658203125,-0.8747332692146301,0.29030516743659973,0.07742489129304886
1697638499716059000,10.107058837890625,-0.7965448498725891,0.5505260825157166,-0.0068720318377017975
1697638499725651200,10.116651123046875,-0.6731536984443665,0.7374453544616699,0.06154286116361618
1697638499735244500,10.12624462890625,-0.4984513521194458,0.7826480269432068,0.15439164638519287
1697638499744838400,10.13583837890625,-0.3005368411540985,0.7264500856399536,0.16660858690738678
1697638499754431700,10.145431640625,-0.1050657257437706,0.6336013078689575,0.06398624926805496
1697638499764024000,10.155024169921875,0.07696675509214401,0.5358657836914062,-0.12293300777673721
1697638499773617200,10.1646171875,0.20768806338310242,0.41736137866973877,-0.3196258246898651
1697638499783211300,10.174211181640626,0.25289076566696167,0.2951919436454773,-0.4931064546108246
1697638499792804400,10.183804443359374,0.23212195932865143,0.24510246515274048,-0.6702521443367004
1697638499802397000,10.19339697265625,0.20280128717422485,0.2805316150188446,-0.8449544906616211
1697638499811990000,10.202989990234375,0.1710372269153595,0.35383328795433044,-0.9573503732681274
1697638499821584100,10.212584228515626,0.1453816443681717,0.42957833409309387,-0.9585720896720886
1697638499831177200,10.22217724609375,0.12339114397764206,0.47355934977531433,-0.8425110578536987
1697638499840769500,10.23176953125,0.08307522535324097,0.5163186192512512,-0.6421532034873962
1697638499850363000,10.24136279296875,0.009773556143045425,0.5676298141479492,-0.4014793634414673
1697638499859956700,10.250956787109375,-0.08063183724880219,0.6336013078689575,-0.1522536724805832
1697638499869550000,10.260550048828126,-0.17348061501979828,0.7105680704116821,0.07742489129304886
1697638499879142400,10.270142333984374,-0.261442631483078,0.7679877281188965,0.2716743052005768
1697638499888735500,10.279735595703125,-0.34573954343795776,0.798530101776123,0.4121691882610321
1697638499898329600,10.28932958984375,-0.4227063059806824,0.798530101776123,0.48302745819091797
1697638499907922700,10.298922607421876,-0.48012593388557434,0.7728744745254517,0.4903576374053955
1697638499917515000,10.308514892578126,-0.4984513521194458,0.7569924592971802,0.45981526374816895
1697638499927108400,10.3181083984375,-0.5021164417266846,0.6983511447906494,0.39262208342552185
1697638499936702500,10.327702392578125,-0.47890424728393555,0.617719292640686,0.3046600818634033
1697638499946295600,10.337295654296875,-0.4190412163734436,0.5138752460479736,0.20081603527069092
1697638499955887900,10.346887939453126,-0.3298575282096863,0.37948885560035706,0.07742489129304886
1697638499965481000,10.35648095703125,-0.22845686972141266,0.20845162868499756,-0.04107947647571564
1697638499975075000,10.366074951171875,-0.13316470384597778,0.06306997686624527,-0.1241547018289566
1697638499984668200,10.375668212890625,-0.045202698558568954,-0.04077405482530594,-0.15714046359062195
1697638499994260700,10.3852607421875,0.026877280324697495,-0.1238492801785469,-0.1363716572523117
1697638500003853800,10.394853759765626,0.062306419014930725,-0.18371231853961945,-0.08628217875957489
1697638500013448000,10.404447998046875,0.05008947476744652,-0.2032594233751297,-0.01175880990922451
1697638500023041000,10.414041015625,-0.004886778071522713,-0.1751604527235031,0.05421269312500954
1697638500032633300,10.42363330078125,-0.09284878522157669,-0.1507265567779541,0.0981936976313591
1697638500042226700,10.433226806640626,-0.20280128717422485,-0.18615570664405823,0.14095300436019897
1697638500051820500,10.442820556640624,-0.3274141252040863,-0.24479703605175018,0.18126893043518066
1697638500061414000,10.452413818359375,-0.4422534108161926,-0.2838912606239319,0.19592925906181335
1697638500071006200,10.462006103515625,-0.47768256068229675,-0.3755183517932892,0.22402822971343994
1697638500080599300,10.471599365234376,-0.365286648273468,-0.6041279435157776,0.3474193811416626
1697638500090193400,10.481193359375,-0.16615045070648193,-0.8276980519294739,0.5037962794303894
1697638500099786500,10.490786376953125,-0.042759306728839874,-1.1673290729522705,0.5858024954795837
1697638500109378800,10.50037890625,-0.3139754831790924,-2.5417354106903076,0.23380178213119507
1697638500118972200,10.50997216796875,-0.27121618390083313,-3.378596305847168,0.3327590525150299
1697638500128566000,10.51956591796875,-0.09407047927379608,-3.3895914554595947,0.7006418108940125
1697638500138159400,10.529159423828125,-0.20280128717422485,-2.8703713417053223,0.7372926473617554
1697638500147751700,10.538751708984375,-0.41171106696128845,-2.160566806793213,0.6053496599197388
1697638500157344800,10.5483447265625,-0.5570927262306213,-1.458092451095581,0.41827765107154846
1697638500166939000,10.55793896484375,-0.6071822047233582,-0.7739434838294983,0.19592925906181335
1697638500176532000,10.567531982421874,-0.5522059202194214,-0.31565532088279724,0.028557108715176582
1697638500186124300,10.577124267578125,-0.48012593388557434,-0.12262758612632751,-0.06306997686624527
1697638500195717600,10.586717529296875,-0.4178195297718048,0.004428642801940441,-0.15836215019226074
1697638500205311700,10.596311767578126,-0.3127537965774536,0.14248012006282806,-0.3171824514865875
1697638500214904800,10.60590478515625,-0.17714570462703705,0.20600824058055878,-0.4760027229785919
1697638500224497200,10.6154970703125,-0.05008947476744652,0.14736689627170563,-0.5822901725769043
1697638500234090200,10.62509033203125,0.07696675509214401,-0.033443886786699295,-0.6482616662979126
1697638500243684400,10.634684326171875,0.21623992919921875,-0.2435753494501114,-0.7069029808044434
1697638500253277400,10.64427734375,0.34696123003959656,-0.3486410677433014,-0.7716528177261353
1697638500262870000,10.6538701171875,0.43858832120895386,-0.37796175479888916,-0.8046385645866394
1697638500272463000,10.663463134765625,0.4691306948661804,-0.4306473135948181,-0.7960866689682007
1697638500282057200,10.67305712890625,0.4434750974178314,-0.45385950803756714,-0.7386670708656311
1697638500291650300,10.682650390625,0.38605546951293945,-0.49295374751091003,-0.6617003083229065
1697638500301242600,10.69224267578125,0.393385648727417,-0.5283828973770142,-0.5896202921867371
1697638500310836000,10.7018359375,0.4556920528411865,-0.5247178077697754,-0.5505260825157166
1697638500320429800,10.711429931640625,0.4886777997016907,-0.49173203110694885,-0.51998370885849
1697638500330023000,10.72102294921875,0.48989951610565186,-0.43919917941093445,-0.4955498278141022
1697638500339615500,10.730615478515626,0.48012593388557434,-0.3718532621860504,-0.47233763337135315
1697638500349208600,10.74020849609375,0.4703523814678192,-0.293664813041687,-0.439351886510849
1697638500358802700,10.749802734375,0.4556920528411865,-0.1910424828529358,-0.3978142738342285
1697638500368395800,10.759395751953125,0.42759308218955994,-0.032222192734479904,-0.358720064163208
1697638500377988000,10.768988037109375,0.3958290219306946,0.19256959855556488,-0.3318427801132202
1697638500387581400,10.77858154296875,0.3823903799057007,0.3880407214164734,-0.2927485406398773
1697638500397175300,10.78817529296875,0.3946073353290558,0.44790375232696533,-0.19745637476444244
1697638500406768400,10.797768310546875,0.42514967918395996,0.36482852697372437,-0.054518118500709534
1697638500416361000,10.80736083984375,0.4727957844734192,0.2170034945011139,0.10063708573579788
1697638500425954000,10.8169541015625,0.5216635465621948,0.09116895496845245,0.23868857324123383
1697638500435548200,10.826548095703124,0.5619794726371765,0.04107947647571564,0.3217637836933136
1697638500445141200,10.836141357421875,0.6474980711936951,0.07773031294345856,0.3071034550666809
1697638500454733600,10.845733642578125,0.6975875496864319,0.20234315097332,0.21181128919124603
1697638500464327000,10.855326904296875,0.6902574300765991,0.3452814221382141,0.11407572776079178
1697638500473920800,10.864920654296874,0.652384877204895,0.5041016936302185,0.04688252881169319
1697638500483513900,10.874513916015625,0.582748293876648,0.6360446810722351,0.03955236077308655
1697638500493106400,10.8841064453125,0.4984513521194458,0.7716528177261353,0.10308047384023666
1697638500502699500,10.893699462890625,0.41293275356292725,0.8987090587615967,0.2044811248779297
1697638500512293600,10.903293701171876,0.3115321099758148,0.9439117312431335,0.40606072545051575
1697638500521886700,10.91288671875,0.25655585527420044,0.8290724158287048,0.7262973785400391
1697638500531479000,10.92247900390625,0.11117420345544815,0.5407525300979614,0.9914051294326782
1697638500541072400,10.932072265625,-0.10140064358711243,0.2548760175704956,0.9217684864997864
1697638500550666200,10.941666259765626,-0.16859383881092072,0.07650861889123917,0.6297835111618042
1697638500560259300,10.95125927734375,-0.2651077210903168,0.0007635590736754239,0.39506545662879944
1697638500569852000,10.960851806640624,-0.42514967918395996,0.005650337319821119,0.3339807391166687
1697638500579445000,10.970445068359375,-0.5387672781944275,0.08017370104789734,0.3339807391166687
1697638500589039000,10.9800390625,-0.6316160559654236,0.22677704691886902,0.31443363428115845
1697638500598632200,10.989632080078126,-0.7733326554298401,0.3746020793914795,0.2826695740222931
1697638500608224500,10.999224609375,-0.939483106136322,0.5725166201591492,0.2154763638973236
1697638500617817900,11.00881787109375,-1.0188932418823242,0.7704311013221741,0.10796725004911423
1697638500627411700,11.01841162109375,-0.9895725846290588,0.8596147894859314,-0.06551336497068405
1697638500637004800,11.0280048828125,-0.8869501948356628,0.8364025950431824,-0.32573428750038147
1697638500646597400,11.037597412109376,-0.7379034757614136,0.7618792653083801,-0.51998370885849
1697638500656190500,11.0471904296875,-0.5204418897628784,0.6348230242729187,-0.5126535892486572
1697638500665784600,11.05678466796875,-0.26632940769195557,0.5187620520591736,-0.30740886926651
1697638500675377700,11.066377685546875,-0.047646086663007736,0.44790375232696533,-0.055739812552928925
1697638500684970000,11.075969970703126,0.10384403169155121,0.42224815487861633,0.0859767496585846
1697638500694563300,11.085563232421874,0.20035789906978607,0.4369085133075714,0.09452861547470093
1697638500704157200,11.0951572265625,0.24556060135364532,0.4772244095802307,0.018783552572131157
1697638500713750300,11.104750244140625,0.25411245226860046,0.5529694557189941,-0.09239064902067184
1697638500723342800,11.1143427734375,0.24311721324920654,0.6653653979301453,-0.19867807626724243
1697638500732936000,11.12393603515625,0.2223484069108963,0.798530101776123,-0.26342788338661194
1697638500742530000,11.133530029296875,0.18814095854759216,0.9439117312431335,-0.27442312240600586
1697638500752123100,11.143123046875,0.12461283802986145,1.066081166267395,-0.21822518110275269
1697638500761715500,11.152715576171875,0.024433890357613564,1.122279167175293,-0.10582929104566574
1697638500771308500,11.16230859375,-0.10017894953489304,1.1027320623397827,0.03955236077308655
1697638500780902700,11.171902587890624,-0.22845686972141266,1.0379822254180908,0.188599094748497
1697638500790495700,11.181495849609375,-0.32252734899520874,0.9683456420898438,0.3242071866989136
1697638500800088300,11.19108837890625,-0.3689517378807068,0.9145910739898682,0.4280512034893036
1697638500809681400,11.200681396484375,-0.38483378291130066,0.8473978638648987,0.4756973087787628
1697638500819275500,11.210275634765624,-0.3811686933040619,0.807081937789917,0.4781406819820404
1697638500828868600,11.21986865234375,-0.367730051279068,0.783869743347168,0.4549284875392914
1697638500838461000,11.2294609375,-0.33718767762184143,0.7154548764228821,0.3901786804199219
1697638500848054000,11.239053955078125,-0.3115321099758148,0.6103891134262085,0.2826695740222931
1697638500857648000,11.248648193359376,-0.31031039357185364,0.48333290219306946,0.15683503448963165
1697638500867241200,11.2582412109375,-0.32008397579193115,0.35627666115760803,0.052990999072790146
1697638500876833500,11.26783349609375,-0.30908870697021484,0.2951919436454773,-0.001985253533348441
1697638500886427000,11.277427001953125,-0.2773246467113495,0.2976353168487549,0.004123218823224306
1697638500896021000,11.28702099609375,-0.24678228795528412,0.2939702570438385,0.06276455521583557
1697638500905614000,11.296614013671874,-0.24311721324920654,0.2915268540382385,0.1629435122013092
1697638500915206400,11.306206298828124,-0.2504473626613617,0.24998924136161804,0.28755635023117065
1697638500924799500,11.315799560546875,-0.22845686972141266,0.08994726091623306,0.425607830286026
1697638500934393600,11.3253935546875,-0.14782503247261047,-0.18004722893238068,0.5943543910980225
1697638500943986700,11.334986572265626,-0.030542362481355667,-0.49051034450531006,0.8399149775505066
1697638500953579000,11.3445791015625,0.0390942245721817,-0.7470661997795105,1.142895221710205
1697638500963172400,11.35417236328125,0.010995250195264816,-0.7995990514755249,1.373795509338379
1697638500972766200,11.36376611328125,-0.08918370306491852,-0.7372926473617554,1.5106252431869507
1697638500982359600,11.373359619140626,-0.1453816443681717,-0.731184184551239,1.5729316473007202
1697638500991952000,11.382951904296876,-0.10384403169155121,-0.754396378993988,1.5399459600448608
1697638501001545000,11.392544921875,-0.0390942245721817,-0.8594620823860168,1.332257866859436
1697638501011139000,11.40213916015625,-0.17958909273147583,-1.410446286201477,0.7641699314117432
1697638501020732200,11.411732177734375,-0.5925218462944031,-2.5967116355895996,-0.27320143580436707
1697638501030324500,11.421324462890626,-0.41415444016456604,-2.3206088542938232,-0.3868190348148346
1697638501039917800,11.430917724609374,-0.43981003761291504,-1.8380393981933594,-0.6323796510696411
1697638501049511700,11.44051171875,-0.42637139558792114,-1.3542484045028687,-0.9720106720924377
1697638501059105000,11.45010498046875,-0.34696123003959656,-1.0976924896240234,-1.1809204816818237
1697638501068697300,11.459697265625,-0.24678228795528412,-0.8961129188537598,-1.2737692594528198
1697638501078290400,11.46929052734375,-0.14660334587097168,-0.6969767212867737,-1.3043116331100464
1697638501087884500,11.478884521484375,-0.028098974376916885,-0.5210527181625366,-1.3189719915390015
1697638501097477600,11.4884775390625,0.08429691940546036,-0.4611896872520447,-1.316528558731079
1697638501107070000,11.498070068359375,0.19302773475646973,-0.5564818382263184,-1.2725476026535034
1697638501116663300,11.507663330078126,0.29687178134918213,-0.7006418108940125,-1.1992459297180176
1697638501126257200,11.517257080078124,0.38727715611457825,-0.7653915882110596,-1.1430479288101196
1697638501135850500,11.5268505859375,0.4691306948661804,-0.7018635272979736,-1.1002886295318604
1697638501145442800,11.53644287109375,0.5253286361694336,-0.5234960913658142,-1.0379822254180908
1697638501155036000,11.546035888671875,0.5644228458404541,-0.26434415578842163,-0.9194778203964233
1697638501164630000,11.555630126953124,0.5900784730911255,0.021532366052269936,-0.7533273696899414
1697638501174223000,11.56522314453125,0.605960488319397,0.2683146595954895,-0.5737382769584656
1697638501183815400,11.5748154296875,0.6035171151161194,0.42224815487861633,-0.41858309507369995
1697638501193408800,11.58440869140625,0.5741963982582092,0.5089884996414185,-0.31229567527770996
1697638501203002600,11.594002685546876,0.5082249045372009,0.6568135023117065,-0.2426590770483017
1697638501212595700,11.603595703125,0.43736663460731506,0.8473978638648987,-0.1901262104511261
1697638501222188300,11.613188232421875,0.38605546951293945,0.9145910739898682,-0.1119377613067627
1697638501231781400,11.622781494140625,0.3408527672290802,0.8767185211181641,-0.0325276181101799
1697638501241375500,11.63237548828125,0.34696123003959656,0.7582141757011414,0.011453386396169662
1697638501250968600,11.641968505859374,0.38605546951293945,0.5871769189834595,0.010231691412627697
1697638501260561000,11.651560791015624,0.4080459773540497,0.39170581102371216,-0.022754060104489326
1697638501270154000,11.661154052734375,0.3921639323234558,0.22189027070999146,-0.0716218426823616
1697638501279748000,11.670748046875,0.3542914092540741,0.09972081333398819,-0.10949437320232391
1697638501289341200,11.680341064453126,0.3274141252040863,0.023975754156708717,-0.11560284346342087
1697638501298933500,11.68993359375,0.32374903559684753,0.019088976085186005,-0.08628217875957489
1697638501308526800,11.69952685546875,0.32008397579193115,0.06062658876180649,-0.0325276181101799
1697638501318120700,11.70912060546875,0.3298575282096863,0.072843536734581,0.0725381150841713
1697638501327714000,11.718714111328126,0.2907632887363434,0.19745637476444244,0.2154763638973236
1697638501337306400,11.728306396484374,0.1954711228609085,0.4246915578842163,0.35352784395217896
1697638501346899500,11.7378994140625,0.062306419014930725,0.4369085133075714,0.4756973087787628
1697638501356493600,11.74749365234375,-0.13438639044761658,0.3049654960632324,0.5344913601875305
1697638501366086700,11.757086669921875,-0.27121618390083313,0.13026317954063416,0.5147915482521057
1697638501375679000,11.766678955078126,-0.3139754831790924,-0.1104106456041336,0.45737189054489136
1697638501385272300,11.776272216796874,-0.34573954343795776,-0.36818817257881165,0.43538138270378113
1697638501394866200,11.7858662109375,-0.37506023049354553,-0.5320479869842529,0.5025745630264282
1697638501404459300,11.795459228515625,-0.37506023049354553,-0.5540384650230408,0.6273401379585266
1697638501414051800,11.8050517578125,-0.3665083646774292,-0.5076140761375427,0.6933116316795349
1697638501423645000,11.81464501953125,-0.40193748474121094,-0.3828485310077667,0.7104153633117676
1697638501433239000,11.824239013671875,-0.4471401870250702,-0.10674555599689484,0.6224533319473267
1697638501442832100,11.83383203125,-0.45202696323394775,0.2279987335205078,0.4243861436843872
1697638501452424400,11.843424560546875,-0.3775036036968231,0.5236487984657288,0.1751604527235031
1697638501462017800,11.853017822265626,-0.27121618390083313,0.7875348329544067,-0.04107947647571564
1697638501471611600,11.862611572265624,-0.1441599577665329,0.9634588360786438,-0.2170034945011139
1697638501481204700,11.872204833984375,-0.013438640162348747,1.0306520462036133,-0.37948885560035706
1697638501490797300,11.88179736328125,0.05741964280605316,1.0172133445739746,-0.5334223508834839
1697638501500390400,11.891390380859375,0.06963659077882767,1.0123265981674194,-0.6604785919189453
1697638501509984500,11.900984619140624,0.07207997888326645,1.025765299797058,-0.7655443549156189
1697638501519577600,11.91057763671875,0.09651386737823486,1.0221002101898193,-0.835180938243866
1697638501529170000,11.920169921875,0.13682979345321655,0.987892746925354,-0.8400676846504211
1697638501538763000,11.929762939453125,0.1820324808359146,0.913369357585907,-0.7875348329544067
1697638501548357000,11.939357177734376,0.21990501880645752,0.7973083853721619,-0.6934643387794495
1697638501557950200,11.9489501953125,0.25289076566696167,0.6421532034873962,-0.5847335457801819
1697638501567542500,11.95854248046875,0.2761029601097107,0.4918847680091858,-0.4784461259841919
1697638501577135900,11.968135986328125,0.28221142292022705,0.3721587061882019,-0.3758237659931183
1697638501586729700,11.977729736328126,0.2651077210903168,0.3061871826648712,-0.27808821201324463
1697638501596322800,11.98732275390625,0.21501824259757996,0.3110739588737488,-0.17302247881889343
1697638501605915400,11.996915283203125,0.13682979345321655,0.36849361658096313,-0.06551336497068405
1697638501615508500,12.006508544921875,0.043981000781059265,0.44790375232696533,0.02489202655851841
1697638501625102300,12.016102294921875,-0.05619794875383377,0.5273138880729675,0.08842013776302338
1697638501634695700,12.02569580078125,-0.1563768982887268,0.6079457402229309,0.1250709742307663
1697638501644288000,12.0352880859375,-0.24433889985084534,0.6910209655761719,0.1360662281513214
1697638501653881000,12.044881103515625,-0.32130566239356995,0.7582141757011414,0.12751436233520508
1697638501663475200,12.05447509765625,-0.39827242493629456,0.7704311013221741,0.10674555599689484
1697638501673068300,12.064068359375,-0.4691306948661804,0.7264500856399536,0.0859767496585846
1697638501682660600,12.07366064453125,-0.5216635465621948,0.6360446810722351,0.07742489129304886
1697638501692254000,12.08325390625,-0.5656445622444153,0.5505260825157166,0.09575030952692032
1697638501701847800,12.092847900390625,-0.5888567566871643,0.5089884996414185,0.12995775043964386
1697638501711441000,12.10244091796875,-0.5656445622444153,0.5639647245407104,0.15561333298683167
1697638501721033500,12.112033447265626,-0.4862344264984131,0.709346354007721,0.15927842259407043
1697638501730626600,12.12162646484375,-0.4056025743484497,0.7911999225616455,0.15439164638519287
