time,seconds_elapsed,z,y,x
1697638489811011000,0.202010986328125,9.581459999084473,2.2872393131256104,4.4344987869262695
1697638489820604400,0.2116044921875,9.691530227661133,2.2250258922576904,3.9798622131347656
1697638489830197000,0.221197021484375,9.535996437072754,2.2561326026916504,4.173680782318115
1697638489839790300,0.230790283203125,8.693124771118164,2.174776792526245,4.221537113189697
1697638489849384400,0.240384521484375,7.280761241912842,2.301596164703369,4.6525444984436035
1697638489858977800,0.249977783203125,6.425925254821777,2.6871397495269775,4.853541851043701
1697638489868570400,0.2595703125,7.927122116088867,3.426821231842041,2.9551360607147217
1697638489878163700,0.269163818359375,9.291629791259766,4.145266056060791,1.7964116334915161
1697638489887757800,0.2787578125,9.061918258666992,4.614558696746826,1.7078771591186523
1697638489897351200,0.28835107421875,7.4123663902282715,4.087838172912598,2.7804598808288574
1697638489906943700,0.29794384765625,7.115357398986816,4.331906318664551,3.457927703857422
1697638489916537000,0.307537109375,6.80668306350708,3.93679141998291,4.18564510345459
1697638489926131200,0.317131103515625,6.428318023681641,4.085445404052734,4.010969161987305
1697638489935724500,0.326724609375,6.562315940856934,4.750949382781982,3.8168511390686035
1697638489945317000,0.336317138671875,7.328617572784424,5.232205867767334,3.098705291748047
1697638489954910500,0.345910400390625,7.989335536956787,5.167300701141357,2.9718856811523438
1697638489964504800,0.3555048828125,8.144868850708008,4.403690814971924,3.920041799545288
1697638489974098000,0.365097900390625,8.434700012207031,4.142873287200928,4.552045822143555
1697638489983690800,0.374690673828125,8.851051330566406,4.298406600952148,4.721936225891113
1697638489993284000,0.3842841796875,8.719446182250977,4.394119739532471,4.954040050506592
1697638490002878200,0.393878173828125,8.242975234985352,4.4635114669799805,5.047659397125244
1697638490012471600,0.403471435546875,7.833802223205566,4.422833442687988,4.949254512786865
1697638490022064000,0.413064208984375,7.374081134796143,4.150051593780518,4.753043174743652
1697638490031657500,0.422657470703125,7.496115207672119,4.200301170349121,4.276572227478027
1697638490041251600,0.43225146484375,7.845766544342041,4.240979194641113,3.218346357345581
1697638490050845000,0.441844970703125,7.893622875213623,4.039682865142822,2.7900311946868896
1697638490060437500,0.4514375,8.417949676513672,4.202693939208984,3.1728827953338623
1697638490070030800,0.46103076171875,9.298808097839355,4.1644086837768555,3.328416347503662
1697638490079625000,0.470625,9.868598937988281,3.850649833679199,3.740280866622925
1697638490089218300,0.48021826171875,10.019346237182617,4.061517238616943,5.540580749511719
1697638490098811000,0.489810791015625,10.033703804016113,3.809971809387207,5.770590782165527
1697638490108404500,0.499404541015625,10.065109252929688,3.6017963886260986,5.418546676635742
1697638490117998600,0.50899853515625,9.794421195983887,3.738187074661255,5.052444934844971
1697638490127592000,0.518592041015625,9.064311027526855,4.0420756340026855,4.564010143280029
1697638490137184500,0.5281845703125,8.2788667678833,4.118945121765137,4.345963954925537
1697638490146777900,0.53777783203125,8.199904441833496,4.05912446975708,4.233501434326172
1697638490156372000,0.5473720703125,8.3267240524292,4.123730659484863,4.082753658294678
1697638490165965300,0.55696533203125,8.274081230163574,4.284049987792969,3.934398651123047
1697638490175558000,0.566557861328125,8.4562349319458,4.3295135498046875,3.8718862533569336
1697638490185151200,0.576151123046875,8.7505521774292,4.379762649536133,3.972683906555176
1697638490194745300,0.585745361328125,9.004490852355957,4.523332118988037,4.211966037750244
1697638490204338700,0.595338623046875,8.99970531463623,4.652843475341797,4.41057014465332
1697638490213931300,0.60493115234375,8.810373306274414,4.750949382781982,4.561617374420166
1697638490223524600,0.614524658203125,8.532805442810059,4.825126647949219,4.501796722412109
1697638490233119000,0.624118896484375,8.235795974731445,4.851448059082031,4.267001152038574
1697638490242712000,0.633712158203125,7.967800140380859,4.8299126625061035,3.910470485687256
1697638490252304600,0.6433046875,7.7593255043029785,4.808377265930176,3.5871403217315674
1697638490261898000,0.65289794921875,7.6253275871276855,4.76530647277832,3.340679407119751
1697638490271492400,0.662492431640625,7.716254711151123,4.65523624420166,3.136990547180176
1697638490281085700,0.672085693359375,7.974978923797607,4.520939350128174,2.964707374572754
1697638490290678300,0.68167822265625,8.266902923583984,4.360620021820068,2.6365914344787598
1697638490300271600,0.691271728515625,8.446663856506348,4.2194437980651855,2.191227436065674
1697638490309865700,0.70086572265625,8.496912956237793,4.154837608337402,1.877767562866211
1697638490319459000,0.710458984375,8.530412673950195,4.118945121765137,1.511366605758667
1697638490329051600,0.7200517578125,8.635697364807129,4.109373569488525,1.169192910194397
1697638490338645000,0.72964501953125,8.769695281982422,4.157230377197266,0.9822536706924438
1697638490348239000,0.739239013671875,8.810373306274414,4.166801452636719,0.9200403094291687
1697638490357832400,0.74883251953125,8.834300994873047,4.18355131149292,0.9990034699440002
1697638490367425000,0.758425048828125,8.740981101989746,4.229014873504639,1.1787642240524292
1697638490377018600,0.7680185546875,8.374580383300781,4.291228294372559,1.3486546277999878
1697638490386612700,0.77761279296875,8.058727264404297,4.398905277252197,1.4946168661117554
1697638490396206000,0.7872060546875,7.982157230377197,4.485046863555908,1.7533408403396606
1697638490405798700,0.796798583984375,8.03958511352539,4.458725929260254,2.361416816711426
1697638490415392000,0.80639208984375,8.030014038085938,4.348656177520752,3.153740167617798
1697638490424986000,0.815986083984375,8.037192344665527,4.272085666656494,3.795315742492676
1697638490434579500,0.825579345703125,7.915158271789551,4.291228294372559,4.408177375793457
1697638490444172000,0.835172119140625,7.45782995223999,4.31515645980835,4.78893518447876
1697638490453765400,0.844765380859375,6.62931489944458,4.334299087524414,4.664508819580078
1697638490463359500,0.854359375,5.8082780838012695,4.465904235839844,4.001397609710693
1697638490472952800,0.863952880859375,5.061418056488037,4.59511661529541,3.22552490234375
1697638490482545400,0.87354541015625,4.771587371826172,4.638486862182617,2.47387957572937
1697638490492138800,0.883138671875,5.25045108795166,4.810770034790039,1.7748762369155884
1697638490501732900,0.89273291015625,6.069095611572266,4.990231513977051,1.32711923122406
1697638490511326200,0.902326171875,6.98614501953125,5.0811591148376465,1.0950154066085815
1697638490520918800,0.911918701171875,7.974978923797607,5.133800983428955,1.0372886657714844
1697638490530512400,0.921512451171875,8.597412109375,5.2130632400512695,1.2026925086975098
1697638490540106500,0.9311064453125,8.760123252868652,5.229813098907471,1.444367527961731
1697638490549699800,0.940699951171875,8.606983184814453,5.234598636627197,1.700698733329773
1697638490559292400,0.95029248046875,8.259724617004395,5.248955726623535,1.906481385231018
1697638490568885800,0.9598857421875,7.8433732986450195,5.239384174346924,2.268096685409546
1697638490578479900,0.96947998046875,7.500900745391846,5.215456008911133,2.749054193496704
1697638490588073200,0.9790732421875,7.251748085021973,5.181956768035889,3.139383316040039
1697638490597665800,0.988665771484375,7.191927433013916,5.191527843475342,3.426821231842041
1697638490607259100,0.998259033203125,7.378866672515869,5.1891350746154785,3.639782428741455
1697638490616853200,1.007853271484375,7.64447021484375,5.136193752288818,3.8383865356445312
1697638490626446600,1.017446533203125,7.996514320373535,4.9639105796813965,4.063611030578613
1697638490636039200,1.0270390625,8.427521705627441,4.8299126625061035,4.082753658294678
1697638490645632500,1.036632568359375,8.779266357421875,4.722235679626465,4.058825492858887
1697638490655227000,1.046226806640625,9.02841854095459,4.633700847625732,4.066003799438477
1697638490664820000,1.055820068359375,9.14566707611084,4.561617374420166,4.092324733734131
1697638490674412800,1.065412841796875,8.886942863464355,4.516153812408447,4.135395526885986
1697638490684006000,1.075005859375,8.350651741027832,4.564010143280029,4.125824451446533
1697638490693600300,1.084600341796875,7.632505893707275,4.707878589630127,4.109074592590332
1697638490703193600,1.094193603515625,6.962216377258301,4.837090969085693,4.070789337158203
1697638490712786200,1.1037861328125,6.409175395965576,4.978267669677734,3.9559340476989746
1697638490722379500,1.113379638671875,6.066702842712402,5.076373100280762,3.8886358737945557
1697638490731973600,1.1229736328125,5.90159797668457,5.157729148864746,3.773780345916748
1697638490741567000,1.13256689453125,6.009274959564209,5.234598636627197,3.7761733531951904
1697638490751159600,1.14215966796875,6.169893264770508,5.301597595214844,3.694817304611206
1697638490760753000,1.1517529296875,6.380461692810059,5.3709893226623535,3.6182470321655273
1697638490770347000,1.161346923828125,6.619743824005127,5.461916923522949,3.718745470046997
1697638490779940400,1.1709404296875,6.823432922363281,5.591129302978516,3.8503506183624268
1697638490789533000,1.180532958984375,7.002894401550293,5.662913799285889,3.9487555027008057
1697638490799126300,1.190126220703125,7.048357963562012,5.694020748138428,4.008575916290283
1697638490808720600,1.199720703125,7.057929515838623,5.74696159362793,4.06839656829834
1697638490818314000,1.20931396484375,6.9358954429626465,5.7756757736206055,4.032504558563232
1697638490827906600,1.218906494140625,6.562315940856934,5.818746566772461,4.202394962310791
1697638490837500000,1.2285,6.251249313354492,5.861817359924316,4.863112926483154
1697638490847094000,1.238093994140625,6.006882190704346,5.900102615356445,5.4520463943481445
1697638490856687400,1.247687255859375,6.109773635864258,5.880959987640381,5.648557186126709
1697638490866280000,1.257280029296875,6.363711833953857,5.7756757736206055,5.485546112060547
1697638490875873300,1.266873291015625,6.653243541717529,5.605485916137695,5.093122959136963
1697638490885467400,1.27646728515625,6.9598236083984375,5.43080997467041,4.760221481323242
1697638490895060700,1.286060791015625,7.290332317352295,5.280062198638916,4.633401870727539
1697638490904653300,1.2956533203125,7.498507976531982,5.167300701141357,4.5257248878479
1697638490914247000,1.305246826171875,7.65164852142334,5.052444934844971,4.497011184692383
1697638490923841000,1.314841064453125,7.797610759735107,4.971088886260986,4.424927234649658
1697638490933434000,1.32443408203125,7.8194451332092285,4.932804107666016,4.365106582641602
1697638490943026700,1.334026611328125,7.811967849731445,4.901697158813477,4.2693939208984375
1697638490952620300,1.343620361328125,7.855337619781494,4.856233596801758,4.13060998916626
1697638490962214400,1.35321435546875,7.76889705657959,4.820341110229492,4.135395526885986
1697638490971807700,1.362807861328125,7.448258876800537,4.8059844970703125,4.209573268890381
1697638490981400300,1.372400390625,7.208677291870117,4.789234638214111,4.2000017166137695
1697638490990993700,1.38199365234375,6.998108863830566,4.875376224517822,4.178466320037842
1697638491000587800,1.391587890625,6.864110946655273,4.971088886260986,4.178466320037842
1697638491010181000,1.40118115234375,6.916752815246582,5.088337421417236,4.233501434326172
1697638491019773700,1.410773681640625,7.189534664154053,5.164907455444336,4.400999069213867
1697638491029367000,1.420366943359375,7.33340311050415,5.150550842285156,4.5568318367004395
1697638491038961200,1.429961181640625,7.292725086212158,5.1529436111450195,4.645366191864014
1697638491048554500,1.439554443359375,7.264011383056641,5.140979290008545,4.621438026428223
1697638491058147000,1.44914697265625,7.170392036437988,5.126622676849365,4.477868556976318
1697638491067740400,1.458740478515625,7.139285564422607,5.0907301902771,4.312464714050293
1697638491077334800,1.468334716796875,7.158428192138672,5.052444934844971,4.180859565734863
1697638491086928100,1.47792822265625,7.208677291870117,5.006981372833252,4.099503517150879
1697638491096520700,1.487520751953125,7.223034381866455,5.014159679412842,4.13060998916626
1697638491106114000,1.497114013671875,7.1488566398620605,5.0356950759887695,4.231108665466309
1697638491115708200,1.506708251953125,7.048357963562012,5.009374141693115,4.343571186065674
1697638491125301500,1.516301513671875,6.900003433227539,5.004588603973389,4.412963390350342
1697638491134894000,1.52589404296875,6.794719219207764,4.975874900817871,4.4512481689453125
1697638491144487400,1.5354873046875,6.787540435791016,4.992624282836914,4.408177375793457
1697638491154081500,1.54508154296875,6.797111988067627,5.052444934844971,4.322035789489746
1697638491163675000,1.5546748046875,6.9119672775268555,5.088337421417236,4.24785852432251
1697638491173267500,1.564267333984375,7.050751209259033,5.085944652557373,4.2454657554626465
1697638491182860800,1.57386083984375,7.151249408721924,5.073980331420898,4.334000110626221
1697638491192455200,1.583455078125,7.249355316162109,5.095515727996826,4.475475788116455
1697638491202048300,1.59304833984375,7.196712970733643,5.117051124572754,4.65733003616333
1697638491211640800,1.602640869140625,7.108178615570068,5.114658355712891,4.765007019042969
1697638491221234200,1.612234130859375,6.947859764099121,5.131408214569092,4.829613208770752
1697638491230828500,1.62182861328125,6.689135551452637,5.140979290008545,4.839184761047363
1697638491240422000,1.631421875,6.394818305969238,5.1290154457092285,4.834399223327637
1697638491250014500,1.641014404296875,6.1675004959106445,5.136193752288818,4.839184761047363
1697638491259607800,1.65060791015625,6.049952983856201,5.124229907989502,4.810471057891846
1697638491269202000,1.660201904296875,6.153143405914307,5.040481090545654,4.681258201599121
1697638491278795300,1.669795166015625,6.457031726837158,4.930410861968994,4.461118698120117
1697638491288387800,1.679387939453125,6.828218460083008,4.84187650680542,4.219144344329834
1697638491297981200,1.688981201171875,7.112964630126953,4.731806755065918,4.032504558563232
1697638491307575300,1.6985751953125,7.232605457305908,4.645665168762207,3.7689948081970215
1697638491317168600,1.708168701171875,7.160820960998535,4.597509384155273,3.5081770420074463
1697638491326761200,1.71776123046875,6.859325408935547,4.547260284423828,3.443570852279663
1697638491336354600,1.7273544921875,6.4115681648254395,4.552045822143555,3.4148569107055664
1697638491345949000,1.736948974609375,5.959025859832764,4.559224605560303,3.3020951747894287
1697638491355542300,1.746542236328125,5.468197822570801,4.5568318367004395,3.2279176712036133
1697638491365134800,1.756134765625,5.039882659912109,4.544867515563965,3.31884503364563
1697638491374728200,1.765728271484375,4.852943420410156,4.508975028991699,3.646960735321045
1697638491384322300,1.775322265625,4.958227634429932,4.4395833015441895,4.039682865142822
1697638491393915600,1.78491552734375,5.130809783935547,4.389334201812744,4.709972381591797
1697638491403508200,1.79450830078125,5.051846981048584,4.389334201812744,5.093122959136963
1697638491413101600,1.8041015625,4.982155799865723,4.386941432952881,5.131408214569092
1697638491422695700,1.81369580078125,4.907978534698486,4.4012980461120605,4.994718074798584
1697638491432289000,1.8232890625,4.805087089538574,4.489832401275635,4.937290191650391
1697638491441881600,1.832881591796875,4.7596235275268555,4.583152770996094,5.02133846282959
1697638491451475000,1.842474853515625,4.84815788269043,4.64805793762207,5.136193752288818
1697638491461069300,1.8520693359375,5.078167915344238,4.6887359619140625,5.298905849456787
1697638491470662400,1.861662353515625,5.4418768882751465,4.71744966506958,5.478367328643799
1697638491480255200,1.871255126953125,5.853741645812988,4.774877548217773,5.593522071838379
1697638491489848600,1.8808486328125,6.215356826782227,4.870590686798096,5.780162334442139
1697638491499442700,1.890442626953125,6.6245293617248535,4.992624282836914,6.02901554107666
1697638491509036000,1.9000361328125,7.127321243286133,5.057230472564697,6.2638115882873535
1697638491518628600,1.909628662109375,7.522436141967773,5.133800983428955,6.3738813400268555
1697638491528222000,1.919221923828125,7.795217990875244,5.225027561187744,6.3499531745910645
1697638491537816000,1.928816162109375,8.006085395812988,5.253741264343262,6.304489612579346
1697638491547409400,1.938409423828125,8.073084831237793,5.24416971206665,6.203990936279297
1697638491557002000,1.948001953125,7.922336578369141,5.303990364074707,6.115157604217529
1697638491566595300,1.95759521484375,7.6636128425598145,5.411667346954346,6.019444465637207
1697638491576189400,1.967189453125,7.4362945556640625,5.504987716674805,5.914160251617432
1697638491585782800,1.97678271484375,7.172784805297852,5.612664699554443,5.737091541290283
1697638491595375400,1.986375244140625,7.134500026702881,5.720341682434082,5.641378402709961
1697638491604968700,1.99596875,7.206284523010254,5.825924873352051,5.859125137329102
1697638491614563000,2.00556298828125,7.191927433013916,5.897709846496582,6.177670001983643
1697638491624156200,2.01515625,7.177570819854736,5.902495384216309,6.577271461486816
1697638491633749000,2.0247490234375,7.165606498718262,5.797211170196533,7.092027187347412
1697638491643342300,2.03434228515625,7.067500591278076,5.61745023727417,7.558926582336426
1697638491652936400,2.0439365234375,6.990930557250977,5.344668388366699,7.8439717292785645
1697638491662529800,2.05352978515625,6.823432922363281,5.062016487121582,7.889435291290283
1697638491672122400,2.063122314453125,6.68435001373291,4.82751989364624,7.683353424072266
1697638491681715700,2.0727158203125,6.4905314445495605,4.676771640777588,7.302894592285156
1697638491691309800,2.082309814453125,6.330212116241455,4.638486862182617,6.843173503875732
1697638491700903200,2.091903076171875,6.447460651397705,4.607080936431885,6.6490559577941895
1697638491710495700,2.101495849609375,6.93828821182251,4.585545539855957,6.7570319175720215
1697638491720089000,2.111089111328125,7.65164852142334,4.599902629852295,6.948457717895508
1697638491729683200,2.12068310546875,8.2788667678833,4.609473705291748,7.05134916305542
1697638491739276500,2.130276611328125,8.659625053405762,4.599902629852295,6.816852569580078
1697638491748869000,2.139869140625,8.583054542541504,4.573581218719482,6.476772785186768
1697638491758462500,2.14946240234375,8.089834213256836,4.585545539855957,6.189633846282959
1697638491768056800,2.159056884765625,7.618149280548096,4.566402912139893,6.0146589279174805
1697638491777650000,2.16864990234375,7.1799635887146,4.575973987579346,5.784947872161865
1697638491787242500,2.178242431640625,6.933502674102783,4.564010143280029,5.591129302978516
1697638491796835800,2.1878359375,6.797111988067627,4.58793830871582,5.160121917724609
1697638491806430200,2.19743017578125,6.706184387207031,4.671986103057861,4.820042133331299
1697638491816023600,2.2070234375,6.725327014923096,4.801198482513428,4.506582260131836
1697638491825616100,2.2166162109375,6.74446964263916,4.978267669677734,4.324428558349609
1697638491835209500,2.22620947265625,6.80668306350708,5.1891350746154785,4.24785852432251
1697638491844803600,2.235803466796875,6.864110946655273,5.428417205810547,4.2550368309021
1697638491854397000,2.24539697265625,6.87607479095459,5.627021312713623,4.298107624053955
1697638491863989500,2.254989501953125,6.988537788391113,5.7756757736206055,4.489832401275635
1697638491873582800,2.264582763671875,7.069893836975098,5.852245807647705,4.736293315887451
1697638491883177000,2.274177001953125,7.089035987854004,5.840281963348389,5.069194793701172
1697638491892770300,2.283770263671875,7.022037029266357,5.782854080200195,5.392225742340088
1697638491902363000,2.29336279296875,6.864110946655273,5.67966365814209,5.717948913574219
1697638491911956200,2.302956298828125,6.62213659286499,5.5743794441223145,6.0385870933532715
1697638491921550300,2.31255029296875,6.524031162261963,5.449952602386475,6.2877397537231445
1697638491931143700,2.322143798828125,6.476174354553223,5.313561916351318,6.416952133178711
1697638491940736300,2.331736328125,6.569494724273682,5.177170753479004,6.259026050567627
1697638491950329600,2.34132958984375,6.742076873779297,5.040481090545654,5.842375755310059
1697638491959923700,2.350923828125,6.93110990524292,4.89691162109375,5.382654666900635
1697638491969517000,2.36051708984375,7.019644260406494,4.7605204582214355,5.088337421417236
1697638491979109600,2.370109619140625,7.022037029266357,4.676771640777588,4.846363067626953
1697638491988703000,2.379702880859375,7.122535705566406,4.628915309906006,4.561617374420166
1697638491998297000,2.389297119140625,7.201498985290527,4.585545539855957,4.37228536605835
1697638492007890400,2.398890380859375,7.199106216430664,4.573581218719482,4.329214572906494
1697638492017483000,2.40848291015625,7.208677291870117,4.6046881675720215,4.334000110626221
1697638492027076600,2.41807666015625,7.074679374694824,4.657629489898682,4.377070903778076
1697638492036670700,2.427670654296875,6.730112552642822,4.755734920501709,4.552045822143555
1697638492046263800,2.437263916015625,6.303891181945801,4.817948341369629,4.733900547027588
1697638492055856400,2.4468564453125,5.851348876953125,4.90408992767334,4.872684001922607
1697638492065450000,2.456449951171875,5.49930477142334,4.983053207397461,4.9277191162109375
1697638492075044000,2.466044189453125,5.281557559967041,4.975874900817871,4.997110843658447
1697638492084637200,2.47563720703125,5.288736343383789,4.844269275665283,5.387440204620361
1697638492094230000,2.48522998046875,5.9566330909729,4.674378871917725,6.895815849304199
1697638492103823400,2.4948232421875,5.9901323318481445,4.755734920501709,4.4512481689453125
1697638492113417500,2.50441748046875,5.731707572937012,5.148158073425293,4.338785648345947
1697638492123010800,2.5140107421875,6.464210510253906,5.131408214569092,4.599902629852295
1697638492132603400,2.523603271484375,6.67717170715332,4.96630334854126,4.4512481689453125
1697638492142196700,2.53319677734375,6.669992923736572,5.088337421417236,4.513761043548584
1697638492151790800,2.542790771484375,6.797111988067627,5.066802024841309,4.757828712463379
1697638492161384200,2.55238427734375,6.602993965148926,4.997410297393799,4.939683437347412
1697638492170976800,2.561976806640625,6.394818305969238,5.014159679412842,4.939683437347412
1697638492180570000,2.571570068359375,6.363711833953857,4.9639105796813965,4.841577529907227
1697638492190164200,2.581164306640625,6.330212116241455,4.8538408279418945,4.815256595611572
1697638492199757600,2.590757568359375,6.320641040802002,4.636094093322754,4.997110843658447
1697638492209350100,2.60035009765625,6.433103561401367,4.367798805236816,5.045266628265381
1697638492218943500,2.609943603515625,6.574280261993408,4.2194437980651855,4.882255554199219
1697638492228537600,2.61953759765625,6.564708709716797,4.037290096282959,4.683651447296143
1697638492238131000,2.629130859375,6.49770975112915,3.90568470954895,4.578367233276367
1697638492247723500,2.6387236328125,6.368497371673584,3.8745779991149902,4.516153812408447
1697638492257316900,2.64831689453125,6.248856544494629,3.809971809387207,4.59511661529541
1697638492266911000,2.657910888671875,6.08823823928833,3.7286159992218018,4.848755836486816
1697638492276504300,2.66750439453125,5.90159797668457,3.800400495529175,4.982754230499268
1697638492286097000,2.677096923828125,5.710172176361084,3.888935089111328,5.093122959136963
1697638492295690200,2.686690185546875,5.556732177734375,4.003790378570557,5.205585479736328
1697638492305284400,2.696284423828125,5.547161102294922,4.109373569488525,5.3347978591918945
1697638492314877700,2.705877685546875,5.453841209411621,4.178765773773193,5.540580749511719
1697638492324470300,2.71547021484375,5.248058319091797,4.197908401489258,5.782555103302002
1697638492334063600,2.725063720703125,5.111667156219482,4.154837608337402,6.040979862213135
1697638492343657700,2.73465771484375,5.147559642791748,4.262514591217041,6.184848308563232
1697638492353251000,2.7442509765625,5.216951370239258,4.296013832092285,6.254240036010742
1697638492362843600,2.75384375,5.228915691375732,4.331906318664551,6.165705680847168
1697638492372437000,2.76343701171875,5.456233978271484,4.451547622680664,6.201598167419434
1697638492382031000,2.773031005859375,5.597709655761719,4.6046881675720215,5.995516300201416
1697638492391624400,2.78262451171875,5.5737810134887695,4.731806755065918,5.593522071838379
1697638492401217000,2.792217041015625,5.219344615936279,4.865804672241211,4.9277191162109375
1697638492410810400,2.801810302734375,4.589733123779297,5.184349536895752,4.24785852432251
1697638492420404500,2.811404541015625,4.309473514556885,5.552844047546387,4.111467361450195
1697638492429997800,2.820997802734375,3.8856449127197266,4.956732273101807,6.0864434242248535
1697638492439590400,2.83059033203125,4.5323052406311035,5.495416164398193,6.713961124420166
1697638492449183500,2.84018359375,5.173880577087402,5.912066459655762,6.91974401473999
1697638492458777900,2.84977783203125,5.810670852661133,5.861817359924316,6.488736629486084
1697638492468371200,2.85937109375,6.830611228942871,5.880959987640381,5.837589740753174
1697638492477963800,2.8689638671875,7.453044414520264,5.888138294219971,5.358726501464844
1697638492487557000,2.87855712890625,7.790432453155518,6.053243160247803,5.219942569732666
1697638492497151200,2.888151123046875,8.298009872436523,6.374180316925049,5.576473236083984
1697638492506744300,2.897744384765625,9.081061363220215,6.6230340003967285,6.187241077423096
1697638492516337000,2.9073369140625,9.868598937988281,6.536892414093018,6.962814807891846
1697638492525930200,2.91693017578125,8.159226417541504,6.115456581115723,8.365607261657715
1697638492535524600,2.926524658203125,7.95344352722168,5.2680983543396,9.584450721740723
1697638492545117700,2.93611767578125,7.491329669952393,4.504189491271973,10.151848793029785
1697638492554710300,2.945710205078125,7.476972579956055,4.324728012084961,9.007481575012207
1697638492564303600,2.9553037109375,8.422736167907715,4.64805793762207,7.0800628662109375
1697638492573897700,2.964897705078125,9.396913528442383,4.700700283050537,6.177670001983643
1697638492583491000,2.974490966796875,9.38734245300293,3.9391841888427734,6.0625152587890625
1697638492593083600,2.984083740234375,7.747361660003662,2.0455641746520996,6.745068073272705
1697638492602677000,2.993677001953125,6.275177478790283,0.7145566344261169,7.393822193145752
1697638492612271000,3.00327099609375,7.069893836975098,1.5451651811599731,8.887541770935059
1697638492621864400,3.012864501953125,7.771289825439453,1.6767704486846924,10.88435173034668
1697638492631457000,3.02245703125,6.699006080627441,0.8222336769104004,12.636795043945312
1697638492641050400,3.03205029296875,5.303092956542969,0.4414757788181305,13.553844451904297
1697638492650644500,3.04164453125,4.510769844055176,0.40319061279296875,13.378870010375977
1697638492660237800,3.05123779296875,3.6032917499542236,0.5300102233886719,12.246466636657715
1697638492669830400,3.060830322265625,2.4996023178100586,0.9729815125465393,10.750353813171387
1697638492679423700,3.070423828125,1.477268934249878,1.731805443763733,9.091230392456055
1697638492689017900,3.080017822265625,0.9601200819015503,2.4335005283355713,6.98195743560791
1697638492698611200,3.089611083984375,3.3424742221832275,4.200301170349121,0.5587241053581238
1697638492708203800,3.099203857421875,12.626626014709473,2.885744094848633,-4.8568315505981445
1697638492717797000,3.108797119140625,11.3147611618042,1.2385848760604858,-5.524728298187256
1697638492727391200,3.11839111328125,7.788039684295654,-0.28145575523376465,-3.7148571014404297
1697638492736984300,3.127984375,5.207380294799805,-1.54067862033844,-3.255136013031006
1697638492746577000,3.137576904296875,4.201796531677246,-1.5478571653366089,-1.9815562963485718
1697638492756170200,3.147170166015625,3.8712878227233887,-1.19132661819458,1.7676976919174194
1697638492765764600,3.1567646484375,3.9936211109161377,-1.97407865524292,8.32971477508545
1697638492775357700,3.166357666015625,2.29860520362854,-4.109673023223877,13.721342086791992
1697638492784950300,3.1759501953125,1.410269856452942,-6.005685806274414,14.702998161315918
1697638492794543600,3.185543701171875,2.614457845687866,-8.110173225402832,10.33609676361084
1697638492804137700,3.1951376953125,4.623232364654541,-9.45583724975586,5.322834014892578
1697638492813731000,3.20473095703125,5.647958755493164,-9.967901229858398,1.9974087476730347
1697638492823323600,3.21432373046875,5.310271739959717,-9.491728782653809,1.2409776449203491
1697638492832917000,3.2239169921875,6.097809314727783,-8.931509971618652,2.756232500076294
1697638492842511000,3.233510986328125,6.0834527015686035,-9.158827781677246,4.970789909362793
1697638492852104400,3.2431044921875,1.6474584341049194,-10.415657997131348,5.746662616729736
1697638492861697000,3.252697021484375,-0.7085745930671692,-11.54806137084961,5.521438121795654
1697638492871290400,3.262290283203125,-1.2664014101028442,-11.595917701721191,5.050052165985107
1697638492880884500,3.271884521484375,-1.8026927709579468,-11.576774597167969,4.688436985015869
1697638492890477800,3.281477783203125,-1.316650629043579,-11.459527015686035,4.456333160400391
1697638492900070100,3.291070068359375,-2.9159533977508545,-10.126126289367676,3.87667179107666
1697638492909663500,3.30066357421875,-4.457529544830322,-10.279267311096191,4.561617374420166
1697638492919257600,3.310257568359375,-6.887740135192871,-10.528120994567871,6.321238994598389
1697638492928850700,3.3198505859375,-8.501399993896484,-9.683155059814453,7.846364498138428
1697638492938443300,3.329443359375,-11.295319557189941,-9.027222633361816,10.249955177307129
1697638492948036600,3.33903662109375,-11.831610679626465,-7.923532962799072,11.468500137329102
1697638492957630700,3.348630615234375,-10.979167938232422,-8.730213165283203,12.529118537902832
1697638492967224000,3.35822412109375,-6.169294834136963,-6.882057189941406,13.78355598449707
1697638492976816600,3.367816650390625,-6.971488952636719,-8.799605369567871,14.12124252319336
1697638492986410000,3.377409912109375,-8.759824752807617,-10.695917129516602,14.75803279876709
1697638492996004000,3.387004150390625,-12.331710815429688,-8.507680892944336,14.729318618774414
1697638493005597200,3.39659716796875,-19.308284759521484,-6.348158359527588,15.706189155578613
1697638493015189800,3.406189697265625,-23.100608825683594,-5.234897613525391,17.00369644165039
1697638493024783000,3.415783203125,-25.018157958984375,-3.899104595184326,18.930816650390625
1697638493034377200,3.425377197265625,-22.28645133972168,-2.59411883354187,19.028921127319336
1697638493043970600,3.434970458984375,-19.741683959960938,-0.784247636795044,18.334705352783203
1697638493053563100,3.444563232421875,-17.342580795288086,-4.219742774963379,20.88455581665039
1697638493063156500,3.454156494140625,-14.101202964782715,-6.874878406524658,22.567607879638672
1697638493072750600,3.46375048828125,-6.978667259216309,-4.76321268081665,17.32672691345215
1697638493082344000,3.473343994140625,-3.7130625247955322,-5.160720348358154,14.662320137023926
1697638493091936300,3.482936279296875,-2.0659031867980957,-5.67547607421875,11.705389022827148
1697638493101529600,3.492529541015625,-0.5120640397071838,-4.480859279632568,9.268299102783203
1697638493111123700,3.502123779296875,0.012263216078281403,-4.904388904571533,7.944470405578613
1697638493120717000,3.511717041015625,1.0390832424163818,-5.074578762054443,8.06650447845459
1697638493130309600,3.5213095703125,2.9114668369293213,-7.023233413696289,6.776174545288086
1697638493139903000,3.530903076171875,4.843372344970703,-8.368897438049316,5.559723377227783
1697638493149497000,3.5404970703125,6.749255180358887,-8.957830429077148,4.485046863555908
1697638493159090400,3.55009033203125,6.981359004974365,-6.58265495300293,5.576473236083984
1697638493168683000,3.55968310546875,4.326223373413086,-6.731309413909912,5.224728107452393
1697638493178276000,3.569276123046875,3.5482568740844727,-5.845366477966309,6.407381057739258
1697638493187870500,3.578870361328125,0.7208378314971924,-5.819045543670654,7.393822193145752
1697638493197463600,3.588463623046875,1.714457392692566,-4.957330226898193,7.975576877593994
1697638493207056100,3.59805615234375,0.5003990530967712,-4.957330226898193,8.466404914855957
1697638493216649500,3.6076494140625,-0.643968403339386,-5.26600456237793,8.514261245727539
1697638493226243600,3.61724365234375,-1.7931214570999146,-4.784748077392578,7.326822757720947
1697638493235837000,3.6268369140625,-1.5200406312942505,-4.83978271484375,7.8678998947143555
1697638493245429500,3.636429443359375,0.3329014480113983,-5.948257923126221,9.82373332977295
1697638493255022800,3.64602294921875,1.0968101024627686,-6.551548480987549,11.205288887023926
1697638493264617000,3.655616943359375,-0.2273181527853012,-5.601298809051514,10.55384349822998
1697638493274210000,3.6652099609375,-1.721037745475769,-5.213362216949463,8.236394882202148
1697638493283802600,3.674802734375,-1.5343974828720093,-5.876473426818848,5.933302879333496
1697638493293396000,3.68439599609375,-1.3812568187713623,-5.163113117218018,5.186442852020264
1697638493302990000,3.693989990234375,-1.8768702745437622,-5.244469165802002,5.006682395935059
1697638493312583400,3.70358349609375,-3.004487991333008,-5.088935375213623,4.815256595611572
1697638493322176000,3.713176025390625,-3.744169235229492,-6.894021034240723,4.7865424156188965
1697638493331769300,3.722769287109375,-3.3945181369781494,-6.228517532348633,4.436891555786133
1697638493341363500,3.732363525390625,-2.3150558471679688,-6.984948635101318,4.654937267303467
1697638493350956500,3.74195654296875,-1.170688509941101,-8.100602149963379,4.101896286010742
1697638493360549000,3.751549072265625,1.7982062101364136,-8.62014389038086,2.1098713874816895
1697638493370142500,3.761142578125,1.2427722215652466,-9.020044326782227,1.2936197519302368
1697638493379736600,3.770736572265625,-0.10289137065410614,-3.9972102642059326,5.1050872802734375
1697638493389330000,3.780329833984375,-2.3461625576019287,-13.44437313079834,4.683651447296143
1697638493398922500,3.789922607421875,2.6647071838378906,-16.11835289001465,-4.492823600769043
1697638493408515600,3.799515625,5.2839508056640625,-11.433205604553223,-4.55055046081543
1697638493418110000,3.80910986328125,3.804288864135742,-9.211469650268555,-1.7566308975219727
1697638493427703000,3.818703125,0.735194742679596,-11.366207122802734,0.8961120843887329
1697638493437295600,3.828295654296875,-3.3634114265441895,-11.519347190856934,4.400999069213867
1697638493446889000,3.837888916015625,-0.8952147960662842,-14.88545036315918,2.9144580364227295
1697638493456483000,3.847483154296875,2.8875386714935303,-15.175281524658203,3.8718862533569336
1697638493466076400,3.857076416015625,9.504889488220215,-14.023735046386719,1.1093723773956299
1697638493475669000,3.8666689453125,5.3246283531188965,-15.905390739440918,4.954040050506592
1697638493485262000,3.876261962890625,5.9901323318481445,-14.725131034851074,7.6666035652160645
1697638493494856200,3.885856201171875,7.661220073699951,-13.144970893859863,8.310571670532227
1697638493504449500,3.895449462890625,8.022834777832031,-15.675680160522461,9.325727462768555
1697638493514042000,3.9050419921875,6.27278470993042,-14.22712516784668,13.611272811889648
1697638493523635500,3.914635498046875,-0.1746760457754135,-9.742975234985352,17.041982650756836
1697638493533229600,3.9242294921875,1.1901301145553589,-12.438789367675781,13.307085037231445
1697638493542822700,3.93382275390625,5.707779407501221,-12.127423286437988,8.861220359802246
1697638493552415200,3.943415283203125,3.019144058227539,-14.093127250671387,3.6206398010253906
1697638493562008600,3.953008544921875,5.202594757080078,-11.809178352355957,1.6405789852142334
1697638493571602700,3.962602783203125,4.412364959716797,-12.25214958190918,2.5959134101867676
1697638493581196000,3.972196044921875,6.346961975097656,-11.84746265411377,4.436891555786133
1697638493590788600,3.98178857421875,4.824229717254639,-13.621441841125488,3.8503506183624268
1697638493600381700,3.991381591796875,8.764909744262695,-14.21994686126709,1.7629120349884033
1697638493609976000,4.00097607421875,9.447162628173828,-16.5397891998291,-0.052043892443180084
1697638493619569200,4.010569091796875,5.994917869567871,-16.692928314208984,3.828815221786499
1697638493629161700,4.02016162109375,2.9521448612213135,-12.24257755279541,5.468796253204346
1697638493638755000,4.029755126953125,3.746861219406128,-6.369693756103516,10.889137268066406
1697638493648349200,4.03934912109375,-0.4426721930503845,-12.031710624694824,12.184252738952637
1697638493657942500,4.048942626953125,6.725327014923096,-18.1534481048584,-4.423431873321533
1697638493667534800,4.058534912109375,12.978670120239258,-11.373385429382324,-5.644369602203369
1697638493677128200,4.068128173828125,6.294320106506348,-11.42363452911377,-1.4476577043533325
1697638493686722300,4.077722412109375,5.2384867668151855,-9.980164527893066,1.5807584524154663
1697638493696315600,4.087315673828125,5.56151819229126,-9.848259925842285,2.3829522132873535
1697638493705908200,4.096908203125,8.477770805358887,-10.197911262512207,-0.49710890650749207
1697638493715501300,4.106501220703125,3.76361083984375,-8.455039024353027,3.2039895057678223
1697638493725095400,4.116095458984375,19.389938354492188,-8.47896671295166,2.0213370323181152
1697638493734688800,4.125688720703125,4.12761926651001,-8.929117202758789,8.93539810180664
1697638493744281300,4.13528125,-1.9438693523406982,-2.730808734893799,12.445369720458984
1697638493753874700,4.144874755859375,-8.216354370117188,2.6967110633850098,15.933506965637207
1697638493763468800,4.15446875,-2.9015965461730957,2.5531418323516846,18.138492584228516
1697638493773062000,4.164061767578125,0.7878368496894836,0.3577269911766052,13.173087120056152
1697638493782654500,4.173654541015625,-0.14117653667926788,-1.0357930660247803,2.816352367401123
1697638493792247800,4.183247802734375,1.355234980583191,-3.587738513946533,0.3358924686908722
1697638493801842000,4.192842041015625,1.0701899528503418,-3.453740358352661,1.9519450664520264
1697638493811435300,4.202435302734375,0.7112665176391602,-4.045066833496094,8.889934539794922
1697638493821027800,4.21202783203125,-1.781157374382019,-3.563810110092163,8.08086109161377
1697638493830621000,4.221620849609375,-3.5264222621917725,-5.969793319702148,3.1992039680480957
1697638493840215000,4.231215087890625,0.8309076428413391,-8.996115684509277,-2.893819808959961
1697638493849808400,4.240808349609375,5.978168487548828,-12.05085277557373,-10.451848983764648
1697638493859401000,4.25040087890625,5.863312721252441,-11.775678634643555,-11.344970703125
1697638493868994300,4.259994384765625,1.7718851566314697,-8.778069496154785,-4.059722900390625
1697638493878588400,4.26958837890625,-0.8976075649261475,-6.786344051361084,3.615854024887085
1697638493888181500,4.279181396484375,-0.7205387353897095,-7.648059368133545,1.5448660850524902
1697638493897774000,4.288774169921875,0.5653043389320374,-7.372884750366211,0.9774680733680725
1697638493907367400,4.298367431640625,0.2587239444255829,-7.193423271179199,4.00618314743042
1697638493916961500,4.30796142578125,0.7854440212249756,-5.948257923126221,5.325226783752441
1697638493926554600,4.3175546875,1.1901301145553589,-7.523632526397705,4.2933220863342285
1697638493936147200,4.327147216796875,4.436293125152588,-13.829617500305176,1.9710876941680908
1697638493945740500,4.336740478515625,9.583852767944336,-18.086448669433594,-1.7542381286621094
1697638493955334700,4.346334716796875,7.7353973388671875,-15.165709495544434,-3.7914273738861084
1697638493964928000,4.355927978515625,4.496412754058838,-13.180863380432129,-1.495514154434204
1697638493974520300,4.365520263671875,3.256033420562744,-11.845069885253906,1.0998010635375977
1697638493984113700,4.37511376953125,2.3967108726501465,-11.366207122802734,-4.887938499450684
1697638493993707800,4.384707763671875,-1.622931957244873,-10.74855899810791,-7.253243446350098
1697638494003301000,4.394301025390625,-4.589433670043945,-11.016555786132812,-3.7914273738861084
1697638494012893400,4.4038935546875,-3.6029927730560303,-11.390134811401367,0.012861421331763268
1697638494022486800,4.41348681640625,-1.0890333652496338,-9.451051712036133,0.44835513830184937
1697638494032081000,4.423080810546875,-2.2788643836975098,-14.983556747436523,5.102694511413574
1697638494041674200,4.43267431640625,2.525923490524292,-9.273683547973633,1.4515460729599
1697638494051266800,4.442266845703125,-0.8210372924804688,-13.690834045410156,6.079265117645264
1697638494060860000,4.45185986328125,0.9553344249725342,-11.742178916931152,2.967100143432617
1697638494070454000,4.4614541015625,0.7328019142150879,-10.142875671386719,0.3071786165237427
1697638494080047400,4.47104736328125,0.04336991161108017,-10.049555778503418,-0.32243284583091736
1697638494089640000,4.480639892578125,-0.734895646572113,-9.953543663024902,-0.21236300468444824
1697638494099233300,4.4902333984375,3.533900022506714,-11.768500328063965,1.5448660850524902
1697638494108827400,4.499827392578125,3.73250412940979,-10.985448837280273,2.0548365116119385
1697638494118420500,4.50942041015625,2.1379871368408203,-7.456633567810059,-1.2083754539489746
1697638494128013000,4.519012939453125,2.008774518966675,-10.209875106811523,2.299203395843506
1697638494137606400,4.5286064453125,5.169095039367676,-13.829617500305176,10.489236831665039
1697638494147200500,4.538200439453125,8.286046028137207,-13.190434455871582,11.576176643371582
1697638494156793600,4.547793701171875,-5.7792649269104,-5.91715145111084,-15.014962196350098
1697638494166386200,4.55738623046875,-5.968297958374023,-6.649953365325928,-15.599109649658203
1697638494175979500,4.5669794921875,-0.9119645357131958,-8.895617485046387,-2.682952404022217
1697638494185573600,4.57657373046875,-6.9930243492126465,-9.082257270812988,2.330310106277466
1697638494195166700,4.586166748046875,-7.098308563232422,-10.849058151245117,4.365106582641602
1697638494204759300,4.59575927734375,-3.4091739654541016,-13.564014434814453,1.6310077905654907
1697638494214352600,4.6053525390625,-1.0866405963897705,-13.621441841125488,0.22821545600891113
1697638494223946800,4.61494677734375,0.29700911045074463,-13.449158668518066,0.8075776696205139
1697638494233540000,4.6245400390625,-0.39481574296951294,-11.81874942779541,-0.7127620577812195
1697638494243132400,4.63413232421875,-0.6391827464103699,-11.201102256774902,-2.208874464035034
1697638494252725800,4.643725830078125,-1.1201400756835938,-11.14367389678955,-3.5162527561187744
1697638494262319900,4.65331982421875,-1.9055840969085693,-11.155638694763184,-3.2216365337371826
1697638494271913200,4.662913330078125,-2.1759731769561768,-11.373385429382324,-2.7834508419036865
1697638494281505500,4.672505615234375,-1.7644076347351074,-10.832307815551758,-3.137887716293335
1697638494291099000,4.682098876953125,-1.1826525926589966,-10.923234939575195,-2.659024238586426
1697638494300693000,4.69169287109375,-0.4450650215148926,-12.400504112243652,-1.7470595836639404
1697638494310286300,4.701286376953125,0.385543555021286,-12.467503547668457,-1.4500504732131958
1697638494319879000,4.71087890625,0.6251249313354492,-11.387742042541504,-1.9432710409164429
1697638494329472000,4.720471923828125,0.15583257377147675,-9.072686195373535,-3.4205398559570312
1697638494339066000,4.730066162109375,-0.5742774605751038,-7.475776195526123,-2.3575284481048584
1697638494348659500,4.739659423828125,-0.49292147159576416,-7.940282821655273,-0.07118647545576096
1697638494358252000,4.749251953125,-1.1273186206817627,-10.032806396484375,1.150050401687622
1697638494367845000,4.75884521484375,-1.7186448574066162,-10.023235321044922,1.1668001413345337
1697638494377439200,4.768439208984375,-1.622931957244873,-9.692726135253906,-0.18843477964401245
1697638494387032600,4.778032470703125,-1.441077470779419,-9.292825698852539,-1.119541883468628
1697638494396625200,4.787625244140625,-1.7787644863128662,-9.28564739227295,-1.674975872039795
1697638494406218200,4.79721826171875,-1.8577276468276978,-9.211469650268555,-1.5194423198699951
1697638494415812400,4.806812255859375,-1.5535401105880737,-9.304789543151855,-1.428515076637268
1697638494425405700,4.81640576171875,-0.8593224287033081,-9.252147674560547,-1.4859428405761719
1697638494434998300,4.825998291015625,0.33768710494041443,-7.710272789001465,-1.9073787927627563
1697638494444591400,4.83559130859375,0.42382872104644775,-6.654738903045654,-1.672582983970642
1697638494454185500,4.845185546875,-0.5647061467170715,-7.054340362548828,-1.857129454612732
1697638494463778800,4.85477880859375,-1.1129616498947144,-6.479763507843018,-1.8978074789047241
1697638494473371400,4.864371337890625,-4.00528621673584,-4.885246753692627,-0.08315058797597885
1697638494482964700,4.87396484375,-1.86729896068573,-5.713761329650879,0.47228336334228516
1697638494492558800,4.883558837890625,-0.9023932218551636,-5.86211633682251,0.6448656916618347
1697638494502152000,4.89315185546875,2.4852454662323,0.07507480680942535,-3.018246650695801
1697638494511744500,4.90274462890625,1.8963119983673096,2.2800607681274414,-2.417349100112915
1697638494521337900,4.912337890625,1.6929219961166382,3.3765718936920166,-1.7231314182281494
1697638494530931700,4.921931640625,1.1590235233306885,1.949851393699646,-1.1629117727279663
1697638494540525000,4.931525146484375,1.7479569911956787,-1.5335001945495605,-0.7725825905799866
1697638494550117600,4.94111767578125,2.714956283569336,-4.327419757843018,0.7046862840652466
1697638494559711000,4.9507109375,2.659921407699585,-2.2902302742004395,1.3677972555160522
1697638494569305000,4.96030517578125,1.8317056894302368,-2.3356940746307373,0.35024940967559814
1697638494578898200,4.969898193359375,0.4621138870716095,0.24047867953777313,-1.3040883541107178
1697638494588490800,4.97949072265625,0.08883354067802429,0.37926238775253296,-1.7422740459442139
1697638494598084000,4.989083984375,0.8548358678817749,-2.7762725353240967,-2.4843480587005615
1697638494607678200,4.99867822265625,3.0837502479553223,-10.542776107788086,-1.277767300605774
1697638494617271300,5.008271240234375,3.0765717029571533,-17.219648361206055,0.7884350419044495
1697638494626863900,5.01786376953125,1.1566306352615356,-21.177078247070312,2.756232500076294
1697638494636457200,5.027457275390625,-2.1640090942382812,-22.04387855529785,3.7354953289031982
1697638494646051300,5.03705126953125,-3.710669755935669,-19.84846305847168,3.5799617767333984
1697638494655644400,5.04664453125,-2.5591237545013428,-17.411373138427734,3.2135608196258545
1697638494665237000,5.056237060546875,-2.5088746547698975,-20.205293655395508,2.974278450012207
1697638494674830300,5.065830322265625,-2.0228323936462402,-17.4951229095459,-1.3423734903335571
1697638494684424400,5.075424560546875,-0.701396107673645,-14.665310859680176,-3.6406795978546143
1697638494694017500,5.085017578125,-1.6325032711029053,-17.669797897338867,-5.1681976318359375
1697638494703610000,5.094610107421875,-2.434697151184082,-19.946569442749023,-6.482455730438232
1697638494713203500,5.104203369140625,-0.8162516355514526,-18.943378448486328,-7.899903774261475
1697638494722797600,5.113797607421875,0.16540385782718658,-16.429718017578125,-6.63559627532959
1697638494732390700,5.123390625,-0.46420758962631226,-14.954842567443848,-3.255136013031006
1697638494741983200,5.132983154296875,-4.864608287811279,-15.579668045043945,-0.05922235921025276
1697638494751576300,5.142576416015625,-10.074082374572754,-16.52543067932129,2.4475584030151367
1697638494761170400,5.15217041015625,-1.1129616498947144,-17.066509246826172,3.3308091163635254
1697638494770763800,5.161763671875,3.4190444946289062,-16.537395477294922,2.5002005100250244
1697638494780356400,5.1713564453125,4.247260093688965,-15.50549030303955,-0.7654041647911072
1697638494789949400,5.180949462890625,2.478066921234131,-13.216755867004395,-2.2423739433288574
1697638494799543600,5.19054345703125,-0.15074782073497772,-13.815260887145996,0.393320232629776
1697638494809137000,5.200136962890625,-3.1911280155181885,-13.69322681427002,0.6592226624488831
1697638494818729500,5.2097294921875,-5.9922261238098145,-13.705190658569336,1.0564311742782593
1697638494828322600,5.219322509765625,-4.917250633239746,-14.373087882995605,0.8602197170257568
1697638494837916700,5.228916748046875,-1.8601205348968506,-13.058829307556152,0.4124628007411957
1697638494847510000,5.238510009765625,-1.3070793151855469,-14.148161888122559,0.5730810165405273
1697638494857102600,5.2481025390625,-1.8194425106048584,-13.98544979095459,0.8434699773788452
1697638494866695700,5.25769580078125,-1.555932879447937,-12.721142768859863,-0.2841476798057556
1697638494876289800,5.267289794921875,0.7208378314971924,-11.397313117980957,-1.0980064868927002
1697638494885883100,5.276883056640625,0.7878368496894836,-10.566704750061035,-0.9616156220436096
1697638494895475700,5.286475830078125,0.48843491077423096,-9.841081619262695,-0.2721835672855377
1697638494905068800,5.29606884765625,0.21565313637256622,-8.936295509338379,0.10857433080673218
1697638494914663000,5.305662841796875,0.20129621028900146,-8.064709663391113,0.4292125701904297
1697638494924256300,5.31525634765625,-0.05024927482008934,-6.953841686248779,0.481854647397995
1697638494933848600,5.3248486328125,-0.34695929288864136,-6.116054534912109,0.1947159469127655
1697638494943442000,5.33444189453125,-0.1866401731967926,-5.713761329650879,-0.07118647545576096
1697638494953036000,5.3440361328125,0.009870393201708794,-5.778367519378662,-0.02063809521496296
1697638494962629000,5.353629150390625,-0.07417750358581543,-6.498906135559082,0.17557336390018463
1697638494972221700,5.3632216796875,-0.32542386651039124,-7.080661296844482,0.2593221664428711
1697638494981815000,5.37281494140625,-0.5096712112426758,-7.459026336669922,0.30957141518592834
1697638494991409200,5.3824091796875,-0.5240281820297241,-7.688737392425537,0.36699917912483215
1697638495001002200,5.392002197265625,-0.47617170214653015,-7.966603755950928,0.37417763471603394
1697638495010594800,5.4015947265625,0.055334024131298065,-7.973782539367676,0.3071786165237427
1697638495020188200,5.411188232421875,0.2994019389152527,-7.9259257316589355,0.1899302899837494
1697638495029782300,5.4207822265625,0.5724828243255615,-7.997710704803467,-0.0062811593525111675
1697638495039375400,5.430375244140625,0.5581258535385132,-7.976175308227539,0.043968115001916885
1697638495048968000,5.439968017578125,0.5075774788856506,-7.947461128234863,-0.15254244208335876
1697638495058561300,5.449561279296875,0.3975076675415039,-8.098209381103516,-0.31764721870422363
1697638495068155400,5.4591552734375,0.30658039450645447,-8.239385604858398,-0.5210371017456055
1697638495077748500,5.46874853515625,0.36640095710754395,-8.395217895507812,-0.8874381184577942
1697638495087341000,5.478341064453125,0.4573282301425934,-8.476573944091797,-1.057328462600708
1697638495096934100,5.48793408203125,0.11515458673238754,-8.665607452392578,-1.3256237506866455
1697638495106528300,5.4975283203125,-0.2967100143432617,-8.806783676147461,-1.5625132322311401
1697638495116121600,5.50712158203125,-0.7995018362998962,-8.972187995910645,-1.7973089218139648
1697638495125714000,5.5167138671875,-1.43389892578125,-9.15404224395752,-1.7973089218139648
1697638495135307300,5.526307373046875,-2.1759731769561768,-9.163613319396973,-1.4452649354934692
1697638495144901400,5.5359013671875,-2.8390841484069824,-8.804390907287598,-0.8515457510948181
1697638495154494700,5.54549462890625,-2.863311290740967,-8.138887405395508,-0.2027917206287384
1697638495164087000,5.555087158203125,-2.3772692680358887,-7.372884750366211,0.3047857880592346
1697638495173680400,5.564680419921875,-1.994118571281433,-6.664309978485107,0.4220340847969055
1697638495183274500,5.5742744140625,-1.6875381469726562,-6.233303070068359,0.481854647397995
1697638495192867600,5.58386767578125,-0.7851449251174927,-6.022435665130615,0.49621158838272095
1697638495202460200,5.593460205078125,-0.0933200865983963,-5.86211633682251,0.2952145040035248
1697638495212053500,5.603053466796875,0.39990049600601196,-5.816652774810791,0.21146570146083832
1697638495221647600,5.612647705078125,0.9744769930839539,-5.816652774810791,-0.36311084032058716
1697638495231240700,5.62224072265625,1.2547364234924316,-5.981757640838623,-1.2035897970199585
1697638495240833300,5.631833251953125,0.9361918568611145,-6.297909259796143,-1.6199408769607544
1697638495250426400,5.64142626953125,-0.7037889361381531,-6.329015731811523,-1.3758729696273804
1697638495260020500,5.6510205078125,-1.8577276468276978,-6.056233882904053,-0.18364913761615753
1697638495269613800,5.66061376953125,-0.7707880139350891,-5.895616054534912,2.5576283931732178
1697638495279206100,5.6702060546875,-0.03798605874180794,-5.902794361114502,3.2374889850616455
1697638495288799500,5.679799560546875,-0.6870391964912415,-6.676274299621582,2.490629196166992
1697638495298393600,5.6893935546875,-1.7476578950881958,-8.093423843383789,1.2768700122833252
1697638495307987000,5.698987060546875,-2.061117649078369,-10.279267311096191,0.3287140130996704
1697638495317579300,5.708579345703125,-3.298804998397827,-12.79322624206543,-1.3184453248977661
1697638495327172600,5.718172607421875,-4.34745979309082,-15.584453582763672,-3.3149566650390625
1697638495336766700,5.7277666015625,-6.528517246246338,-18.182161331176758,-4.677370071411133
1697638495346359800,5.73735986328125,-8.036892890930176,-18.505491256713867,-6.269494533538818
1697638495355952400,5.746952392578125,-4.8813581466674805,-16.21675682067871,-7.370790958404541
1697638495365545700,5.756545654296875,-1.536790370941162,-13.293326377868652,-6.649953365325928
1697638495375139800,5.766139892578125,0.39511483907699585,-11.289636611938477,-5.524728298187256
1697638495384733000,5.77573291015625,1.6785650253295898,-11.735000610351562,-4.670191764831543
1697638495394325500,5.785325439453125,1.970489501953125,-13.485051155090332,-2.939283609390259
1697638495403918600,5.794918701171875,1.1973086595535278,-14.835201263427734,-0.3200400173664093
1697638495413512700,5.8045126953125,0.7830511927604675,-15.053247451782227,0.3000001311302185
1697638495423106000,5.81410595703125,1.3671990633010864,-15.71396541595459,-0.29850462079048157
1697638495432698400,5.823698486328125,0.20368902385234833,-16.353147506713867,-1.9217356443405151
1697638495442291700,5.833291748046875,-1.0459625720977783,-16.26222038269043,-3.4229328632354736
1697638495451885800,5.8428857421875,-1.896012783050537,-15.31167221069336,-4.052544116973877
1697638495461479000,5.85247900390625,-1.5128620862960815,-14.08116340637207,-4.504787921905518
1697638495471071500,5.862071533203125,-0.7253243923187256,-12.74746322631836,-4.615156650543213
1697638495480664800,5.871664794921875,-0.2225325107574463,-11.933605194091797,-3.8608193397521973
1697638495490259000,5.881259033203125,-0.17946170270442963,-11.746964454650879,-2.96321177482605
1697638495499852000,5.89085205078125,-0.550349235534668,-11.790035247802734,-2.1873390674591064
1697638495509444600,5.900444580078125,-1.252044439315796,-11.696715354919434,-1.7662022113800049
1697638495519037700,5.91003759765625,-1.721037745475769,-11.248958587646484,-1.739881157875061
1697638495528631800,5.9196318359375,-1.8337994813919067,-10.267302513122559,-2.0461623668670654
1697638495538225200,5.92922509765625,-1.6516457796096802,-9.170791625976562,-2.2447667121887207
1697638495547817500,5.9388173828125,-1.4673985242843628,-8.260921478271484,-2.2809581756591797
1697638495557410800,5.948410888671875,-1.038784146308899,-7.671987533569336,-2.2351953983306885
1697638495567005000,5.9580048828125,-0.26560330390930176,-7.2436723709106445,-2.199303150177002
1697638495576598000,5.967597900390625,0.5724828243255615,-6.724130630493164,-2.1155543327331543
1697638495586190600,5.977190673828125,1.3719847202301025,-6.159125328063965,-1.8714864253997803
1697638495595784000,5.986783935546875,1.786242127418518,-5.61326265335083,-1.4811571836471558
1697638495605378000,5.9963779296875,1.9441684484481812,-5.127220630645752,-1.0094720125198364
1697638495614971100,6.00597119140625,1.7790635824203491,-4.689034938812256,-0.6457630395889282
1697638495624563700,6.015563720703125,1.4054841995239258,-4.329812526702881,-0.32243284583091736
1697638495634156800,6.02515673828125,0.8189435601234436,-4.246063709259033,0.0487537607550621
1697638495643751000,6.0347509765625,0.39032918214797974,-4.253242015838623,0.31435707211494446
1697638495653344300,6.04434423828125,0.23958136141300201,-4.397110939025879,0.5778666734695435
1697638495662936600,6.0539365234375,0.2587239444255829,-4.717749118804932,0.8817551732063293
1697638495672530000,6.063530029296875,0.33529427647590637,-5.167898654937744,1.1835498809814453
1697638495682124000,6.0731240234375,0.42382872104644775,-5.771189212799072,1.425225019454956
1697638495691717000,6.082717041015625,0.37597227096557617,-6.594619274139404,1.5305092334747314
1697638495701309700,6.092309814453125,0.06251249462366104,-7.5667033195495605,1.4922239780426025
1697638495710902800,6.10190283203125,-0.46899324655532837,-8.493324279785156,1.2816556692123413
1697638495720497000,6.111496826171875,-0.8832506537437439,-9.170791625976562,0.7932206988334656
1697638495730090200,6.12109033203125,-0.9263214468955994,-9.45583724975586,0.20428723096847534
1697638495739682600,6.1306826171875,-0.7085745930671692,-9.530014038085938,-0.06640082597732544
1697638495749276000,6.14027587890625,-0.24885354936122894,-9.434301376342773,0.08464609831571579
1697638495758870000,6.1498701171875,0.3329014480113983,-9.02961540222168,0.5177469849586487
1697638495768463000,6.159463134765625,0.9433703422546387,-8.577073097229004,0.9846464991569519
1697638495778055700,6.1690556640625,1.6375880241394043,-8.344968795776367,1.1117652654647827
1697638495787648800,6.178648681640625,1.8293129205703735,-8.490931510925293,0.8554341197013855
1697638495797243000,6.188242919921875,1.470090389251709,-8.534002304077148,0.6831508874893188
1697638495806836200,6.197836181640625,1.170987606048584,-8.490931510925293,0.5778666734695435
1697638495816428500,6.207428466796875,1.0007981061935425,-8.409575462341309,0.27846473455429077
1697638495826022000,6.21702197265625,1.084846019744873,-8.35453987121582,-0.19322042167186737
1697638495835616000,6.226615966796875,0.368793785572052,-8.993722915649414,-1.119541883468628
1697638495845209000,6.236208984375,-1.1225329637527466,-10.652846336364746,-2.733201742172241
1697638495854801700,6.2458017578125,-2.307877540588379,-12.843475341796875,-4.3085761070251465
1697638495864394800,6.255394775390625,-2.944667339324951,-14.720345497131348,-5.278267860412598
1697638495873988900,6.26498876953125,-2.918346405029297,-15.608681678771973,-5.500800132751465
1697638495883582200,6.274582275390625,-2.2142581939697266,-15.498311996459961,-4.957330226898193
1697638495893174500,6.284174560546875,-1.8744773864746094,-14.638989448547363,-4.074079513549805
1697638495902767900,6.293767822265625,-1.8696918487548828,-14.045270919799805,-3.8321053981781006
1697638495912362000,6.303362060546875,-1.6372889280319214,-13.97109317779541,-3.6981074810028076
1697638495921955000,6.312955078125,-1.6516457796096802,-13.901402473449707,-3.8297126293182373
1697638495931547600,6.322547607421875,-1.5343974828720093,-13.99502182006836,-3.0708887577056885
1697638495941140700,6.332140625,-1.5080764293670654,-14.806487083435059,-1.3854442834854126
1697638495950734800,6.34173486328125,-1.4315061569213867,-16.1279239654541,-0.11665010452270508
1697638495960328200,6.351328125,-1.673181176185608,-17.700904846191406,1.602293848991394
1697638495969920500,6.36092041015625,-2.2669003009796143,-18.366409301757812,2.7275187969207764
1697638495979513900,6.370513916015625,-3.0020952224731445,-18.261125564575195,3.749852180480957
1697638495989108000,6.38010791015625,-2.137687921524048,-17.028223037719727,3.5727832317352295
1697638495998701000,6.389701171875,-2.2118654251098633,-14.880664825439453,1.6648063659667969
1697638496008293600,6.399293701171875,-2.358126640319824,-12.596715927124023,-0.025423740968108177
1697638496017886700,6.40888671875,-1.1488540172576904,-11.53131103515625,-0.4181457459926605
1697638496027480800,6.418480712890625,0.4166502356529236,-11.761321067810059,-0.38225340843200684
1697638496037074200,6.42807421875,1.7312071323394775,-11.593524932861328,-1.3184453248977661
1697638496046666500,6.43766650390625,3.4214372634887695,-11.28485107421875,-2.472383975982666
1697638496056259800,6.447259765625,14.479568481445312,-10.643275260925293,-6.841678142547607
1697638496065854000,6.45685400390625,-0.32542386651039124,-12.91047477722168,-4.466502666473389
1697638496075447000,6.466447021484375,-5.568397521972656,-7.432705402374268,0.9511470198631287
1697638496085039600,6.47603955078125,-7.256234645843506,-7.966603755950928,1.7174484729766846
1697638496094632700,6.4856328125,-3.2772696018218994,-8.368897438049316,2.050050735473633
1697638496104226800,6.495226806640625,-3.344268798828125,-8.024031639099121,1.7796618938446045
1697638496113820000,6.50481982421875,-2.7218358516693115,-7.0663042068481445,0.4651049077510834
1697638496123412500,6.51441259765625,-2.7218358516693115,-6.240481376647949,0.35503506660461426
1697638496133005800,6.524005859375,-2.4681966304779053,-5.505585670471191,0.6209374666213989
1697638496142600000,6.533599853515625,-0.8138588070869446,-5.038686275482178,0.8051848411560059
1697638496152193000,6.543193115234375,-0.6296114325523376,-4.815854549407959,1.4156537055969238
1697638496161785600,6.55278564453125,-0.8928219676017761,-4.911567687988281,2.339881420135498
1697638496171378700,6.562378662109375,-0.8114659786224365,-5.0602216720581055,2.8115665912628174
1697638496180972800,6.571972900390625,0.13190434873104095,-4.925924301147461,2.4475584030151367
1697638496190566000,6.58156591796875,1.383948802947998,-4.574179649353027,1.7150555849075317
1697638496200158500,6.591158447265625,2.0685951709747314,-4.42103910446167,0.9056833982467651
1697638496209751800,6.600751708984375,2.281855583190918,-4.528716087341309,0.2521436810493469
1697638496219345700,6.610345703125,2.394318103790283,-4.906782150268555,-0.1094716340303421
1697638496228939000,6.61993896484375,2.315355062484741,-5.7257256507873535,-0.45643091201782227
1697638496238531300,6.62953125,2.0398812294006348,-6.561119556427002,-0.9975079298019409
1697638496248124700,6.639124755859375,1.4294124841690063,-7.241279602050781,-1.9384855031967163
1697638496257718800,6.64871875,0.615553617477417,-7.973782539367676,-3.1905298233032227
1697638496267311900,6.658311767578125,-0.2727817893028259,-8.739784240722656,-4.387539386749268
1697638496276904400,6.667904541015625,-1.0196415185928345,-9.467801094055176,-4.8161540031433105
1697638496286497500,6.67749755859375,-1.9247267246246338,-9.506086349487305,-4.243969917297363
1697638496296091600,6.687091552734375,-2.7984061241149902,-8.38564682006836,-3.1426734924316406
1697638496305684700,6.696684814453125,-3.435495138168335,-6.630810737609863,-2.4221346378326416
1697638496315277300,6.70627734375,-3.1432716846466064,-5.890830039978027,-1.6007983684539795
1697638496324870700,6.71587060546875,-1.9199410676956177,-5.735296726226807,-0.789332389831543
1697638496334464500,6.725464599609375,-0.7253243923187256,-5.936294078826904,-0.032602209597826004
1697638496344057900,6.735057861328125,0.1989033818244934,-6.32662296295166,0.3813561201095581
1697638496353650200,6.744650146484375,0.646660327911377,-6.953841686248779,0.5033900737762451
1697638496363243500,6.754243408203125,0.8763712644577026,-7.516454219818115,-0.0014955141814425588
1697638496372837600,6.763837646484375,0.8404789566993713,-8.859724998474121,-0.6146563291549683
1697638496382430700,6.7734306640625,-0.5096712112426758,-10.660024642944336,-1.9671993255615234
1697638496392023300,6.783023193359375,-1.8194425106048584,-12.951152801513672,-4.083651065826416
1697638496401616400,6.792616455078125,-3.1193435192108154,-15.907784461975098,-5.055436134338379
1697638496411210500,6.80221044921875,-3.5647075176239014,-17.468801498413086,-5.836094379425049
1697638496420803800,6.811803955078125,-4.002892971038818,-16.322040557861328,-6.4920268058776855
1697638496430396200,6.821396240234375,-3.8470606803894043,-15.450455665588379,-4.622334957122803
1697638496439989500,6.830989501953125,-3.279662609100342,-16.609180450439453,-2.2881367206573486
1697638496449583400,6.840583251953125,-1.4745769500732422,-17.933307647705078,-1.983949065208435
1697638496459176700,6.8501767578125,0.97926265001297,-16.96600914001465,-1.404586911201477
1697638496468769000,6.85976904296875,1.9226330518722534,-14.093127250671387,0.2186441719532013
1697638496478362400,6.8693623046875,1.3695918321609497,-11.84746265411377,1.0325030088424683
1697638496487956500,6.87895654296875,0.7016952633857727,-11.536097526550293,-0.01585244946181774
1697638496497549600,6.888549560546875,0.5964110493659973,-11.382956504821777,-1.8858433961868286
1697638496507142100,6.89814208984375,0.8500502705574036,-11.6485595703125,-2.1011974811553955
1697638496516735200,6.9077353515625,1.7001005411148071,-11.902498245239258,-1.7156537771224976
1697638496526329300,6.917329345703125,2.0063817501068115,-12.35982608795166,-1.4715858697891235
1697638496535922400,6.92692236328125,-0.05024927482008934,-13.671690940856934,-0.5282155871391296
1697638496545515500,6.936515625,-2.4370899200439453,-14.672489166259766,-0.35832518339157104
1697638496555108400,6.9461083984375,-3.792025566101074,-13.959129333496094,-1.2538390159606934
1697638496564702500,6.955702392578125,-4.100998878479004,-12.079566955566406,-1.6319050788879395
1697638496574295800,6.9652958984375,-4.196712017059326,-11.344671249389648,-1.6462619304656982
1697638496583888100,6.97488818359375,-3.741776466369629,-10.913663864135742,-2.2785654067993164
1697638496593481500,6.9844814453125,-2.5878376960754395,-10.645668029785156,-3.154637575149536
1697638496603075300,6.994075439453125,-0.7612167000770569,-10.494621276855469,-4.019044876098633
1697638496612668700,7.003668701171875,1.1063814163208008,-9.833903312683105,-4.23439884185791
1697638496622261000,7.013260986328125,2.2387847900390625,-8.529216766357422,-3.631108283996582
1697638496631854300,7.022854248046875,2.7652056217193604,-7.200601577758789,-2.5776681900024414
1697638496641448400,7.032448486328125,3.1507492065429688,-6.075376510620117,-1.8954145908355713
1697638496651041500,7.04204150390625,3.5099716186523438,-5.313860893249512,-1.4380863904953003
1697638496660633900,7.0516337890625,3.7420754432678223,-5.01715087890625,-0.8347960114479065
1697638496670227200,7.061227294921875,3.4214372634887695,-5.098506927490234,-0.24586252868175507
1697638496679821300,7.0708212890625,2.7101707458496094,-5.431109428405762,0.1947159469127655
1697638496689414400,7.080414306640625,1.6713865995407104,-6.185446739196777,0.48424747586250305
1697638496699007000,7.090007080078125,0.529412031173706,-6.9705915451049805,0.5201398134231567
1697638496708600000,7.09960009765625,-0.380458801984787,-7.671987533569336,0.6927221417427063
1697638496718194200,7.109194091796875,-0.8665009140968323,-7.942675590515137,0.8099704384803772
1697638496727787500,7.11878759765625,-1.1321041584014893,-7.93789005279541,1.0325030088424683
1697638496737379800,7.1283798828125,-1.1611171960830688,-8.05513858795166,1.1979068517684937
1697638496746973200,7.13797314453125,-1.098604679107666,-8.246563911437988,1.1213364601135254
1697638496756567000,7.147567138671875,-0.9023932218551636,-8.481359481811523,1.0827522277832031
1697638496766160400,7.157160400390625,-0.7061817646026611,-8.323433876037598,1.0325030088424683
1697638496775752700,7.166752685546875,-0.5240281820297241,-7.866105556488037,1.3558331727981567
1697638496785346000,7.176345947265625,-0.32542386651039124,-7.3298139572143555,1.6070795059204102
1697638496794940200,7.185940185546875,-0.07417750358581543,-6.913163661956787,1.5927225351333618
1697638496804533200,7.195533203125,0.36640095710754395,-6.484549522399902,1.35822594165802
1697638496814125600,7.20512548828125,0.5413761138916016,-6.173482418060303,0.9463613629341125
1697638496823719000,7.214718994140625,0.45254257321357727,-5.80708122253418,0.4052843451499939
1697638496833313000,7.22431298828125,0.3400799036026001,-5.622834205627441,-0.04486542567610741
1697638496842906000,7.233906005859375,0.17736798524856567,-5.4765729904174805,-0.6720840334892273
1697638496852498700,7.243498779296875,0.10319047421216965,-5.790331840515137,-1.332802176475525
1697638496862091800,7.253091796875,0.11515458673238754,-7.21735143661499,-2.2519452571868896
1697638496871686000,7.262685791015625,0.1414756327867508,-9.692726135253906,-3.326920747756958
1697638496881279000,7.272279052734375,-0.021236300468444824,-12.292827606201172,-4.253541469573975
1697638496890871600,7.28187158203125,-0.4259224236011505,-14.880664825439453,-5.117948532104492
1697638496900464600,7.291464599609375,0.00029910283046774566,-16.647464752197266,-4.981258392333984
1697638496910058800,7.301058837890625,-0.6631109714508057,-16.45125389099121,-2.5489542484283447
1697638496919652000,7.310652099609375,-2.2310080528259277,-14.545669555664062,0.5874379873275757
1697638496929244400,7.320244384765625,-2.997309446334839,-13.67647647857666,2.3135604858398438
1697638496938837800,7.329837646484375,-2.812762975692749,-14.045270919799805,3.139383316040039
1697638496948431600,7.339431640625,-2.3030917644500732,-14.727523803710938,2.8498518466949463
1697638496958025000,7.34902490234375,-1.4434702396392822,-15.096318244934082,2.806781053543091
1697638496967617300,7.3586171875,-1.4626128673553467,-15.555740356445312,2.347059965133667
1697638496977210600,7.368210693359375,-2.082653045654297,-15.835999488830566,1.5496517419815063
1697638496986804700,7.3778046875,-2.6572296619415283,-15.567704200744629,0.6185446381568909
1697638496996397800,7.387397705078125,-2.7912275791168213,-14.416158676147461,-0.3966103494167328
1697638497005990400,7.396990478515625,-2.2549362182617188,-13.290933609008789,-0.39900317788124084
1697638497015583500,7.40658349609375,-1.1994023323059082,-12.678071975708008,0.6831508874893188
1697638497025177600,7.416177490234375,0.12233305722475052,-12.280862808227539,1.7437695264816284
1697638497034770700,7.425770751953125,1.446162223815918,-11.804391860961914,2.0787646770477295
1697638497044363300,7.43536328125,2.6096723079681396,-11.962318420410156,2.0237298011779785
1697638497053956400,7.444956298828125,3.94097900390625,-10.422836303710938,0.8602197170257568
1697638497063550500,7.454550537109375,4.383651256561279,-9.618548393249512,0.6759724020957947
1697638497073143600,7.4641435546875,3.9864425659179688,-8.888439178466797,0.7549355626106262
1697638497082736000,7.473736083984375,3.090928554534912,-7.961818218231201,0.9822536706924438
1697638497092329200,7.4833291015625,1.9250258207321167,-7.332206726074219,1.0564311742782593
1697638497101923300,7.49292333984375,0.8404789566993713,-6.917949199676514,1.145264744758606
1697638497111516400,7.502516357421875,-0.014057832770049572,-6.736094951629639,1.322333574295044
1697638497121109000,7.51210888671875,-0.4546363055706024,-7.035197734832764,1.5400804281234741
1697638497130702000,7.5217021484375,-0.768395185470581,-7.600203037261963,1.5999010801315308
1697638497140296200,7.531296142578125,-0.8832506537437439,-8.213064193725586,1.3414762020111084
1697638497149889300,7.54088916015625,-1.0483554601669312,-8.646464347839355,1.1883355379104614
1697638497159481900,7.55048193359375,-1.2664014101028442,-9.000901222229004,0.9726824164390564
1697638497169075000,7.560074951171875,-1.40279221534729,-9.288040161132812,0.8913264274597168
1697638497178669000,7.5696689453125,-1.1802598237991333,-9.163613319396973,0.898504912853241
1697638497188262400,7.579262451171875,-0.6487540602684021,-8.560322761535645,0.711864709854126
1697638497197854700,7.588854736328125,0.12472587823867798,-7.760821342468262,0.6759724020957947
1697638497207448000,7.598447998046875,1.0630114078521729,-6.982555389404297,0.6664010882377625
1697638497217042000,7.6080419921875,1.7934205532073975,-6.611668109893799,0.714257538318634
1697638497226635300,7.61763525390625,2.226820468902588,-6.62841796875,0.5994020700454712
1697638497236227600,7.6272275390625,2.4852454662323,-6.666703224182129,0.5009972453117371
1697638497245821000,7.636821044921875,2.5713870525360107,-6.961019992828369,0.5225326418876648
1697638497255414800,7.646414794921875,2.511566400527954,-7.674380302429199,0.4172484576702118
1697638497265008000,7.656008056640625,2.566601276397705,-8.483752250671387,0.27367907762527466
1697638497274600400,7.665600341796875,2.7702903747558594,-8.89801025390625,0.11575279384851456
1697638497284193800,7.67519384765625,2.894717216491699,-9.067900657653809,0.26889345049858093
1697638497293788000,7.684787841796875,2.9042885303497314,-8.840283393859863,0.6711867451667786
1697638497303381000,7.694381103515625,2.480459690093994,-8.694320678710938,1.231406331062317
1697638497312973600,7.7039736328125,2.17627215385437,-9.032008171081543,1.7533408403396606
1697638497322566700,7.713566650390625,1.9154545068740845,-9.618548393249512,2.323131799697876
1697638497332160800,7.723160888671875,1.5705889463424683,-10.554740905761719,2.246561288833618
1697638497341753900,7.73275390625,1.6375880241394043,-11.730215072631836,1.4874383211135864
1697638497351346400,7.742346435546875,0.3975076675415039,-12.912867546081543,0.8099704384803772
1697638497360939500,7.751939453125,-2.324627161026001,-15.282958030700684,-0.09032905846834183
1697638497370533600,7.76153369140625,-5.008177757263184,-18.69452476501465,-1.28255295753479
1697638497380126700,7.771126708984375,-6.885347366333008,-20.104795455932617,-3.733999729156494
1697638497389719300,7.78071923828125,-7.581957817077637,-16.197614669799805,-4.48325252532959
1697638497399312400,7.7903125,-7.237092018127441,-10.116555213928223,-4.208077907562256
1697638497408906500,7.799906494140625,-6.114260196685791,-9.623334884643555,-1.7183457612991333
1697638497418499600,7.80949951171875,-5.549254894256592,-10.607382774353027,-1.6175481081008911
1697638497428092200,7.819092041015625,-5.307579517364502,-13.99502182006836,-2.551347255706787
1697638497437685200,7.828685302734375,-5.599503993988037,-16.738691329956055,-5.582156181335449
1697638497447279400,7.838279296875,-4.804787635803223,-16.767406463623047,-8.756834030151367
1697638497456872400,7.84787255859375,-3.0978081226348877,-15.1417818069458,-9.309874534606934
1697638497466465000,7.857465087890625,-2.7122645378112793,-12.649357795715332,-7.411468982696533
1697638497476058000,7.86705810546875,-3.8087754249572754,-11.114960670471191,-5.867201328277588
1697638497485652200,7.87665234375,-3.6508491039276123,-11.29920768737793,-5.577370643615723
1697638497495245300,7.886245361328125,-2.286342144012451,-11.382956504821777,-5.431408405303955
1697638497504838000,7.895837890625,-0.7588238716125488,-11.138888359069824,-5.184947490692139
1697638497514431000,7.905430908203125,0.134297177195549,-10.944770812988281,-5.0602216720581055
1697638497524025000,7.915025146484375,1.1303095817565918,-11.028519630432129,-5.627619743347168
1697638497533618200,7.9246181640625,-0.04307080805301666,-11.519347190856934,-4.864010334014893
1697638497543210800,7.934210693359375,-0.7061817646026611,-11.052447319030762,-4.730011940002441
1697638497552803800,7.943803955078125,-1.9821544885635376,-10.45633602142334,-4.942973613739014
1697638497562398000,7.95339794921875,-2.108973979949951,-10.20030403137207,-5.577370643615723
1697638497571991000,7.962990966796875,-2.137687921524048,-10.078269958496094,-5.79780912399292
1697638497581583600,7.97258349609375,-2.2764716148376465,-9.853045463562012,-5.340480804443359
1697638497591176700,7.9821767578125,-2.1113669872283936,-9.783653259277344,-4.2415771484375
1697638497600770800,7.991770751953125,-2.0635104179382324,-9.592227935791016,-3.5258240699768066
1697638497610364000,8.001364013671875,-1.8816559314727783,-9.565906524658203,-2.740380048751831
1697638497619956500,8.01095654296875,-1.2089736461639404,-9.398110389709473,-2.3359930515289307
1697638497629549600,8.020549560546876,-0.18424734473228455,-9.089435577392578,-1.9384855031967163
1697638497639143700,8.030143798828124,0.6394818425178528,-8.809176445007324,-1.588834285736084
1697638497648736800,8.03973681640625,1.1853444576263428,-8.467002868652344,-1.0836495161056519
1697638497658329300,8.049329345703125,1.434198021888733,-8.107780456542969,-0.7414759397506714
1697638497667922700,8.058922607421875,1.4940186738967896,-7.866105556488037,-0.542572557926178
1697638497677516500,8.0685166015625,1.4653047323226929,-7.621738433837891,-0.39421752095222473
1697638497687109600,8.078109619140625,1.3025928735733032,-7.425527095794678,-0.20039889216423035
1697638497696702200,8.0877021484375,1.111167073249817,-7.210172653198242,-0.011066804639995098
1697638497706295600,8.097295654296875,0.7328019142150879,-7.186244487762451,0.07746763527393341
1697638497715889400,8.106889404296876,0.37118661403656006,-7.425527095794678,0.041575293987989426
1697638497725482500,8.116482421875,0.057726845145225525,-7.6528449058532715,-0.054436713457107544
1697638497735075000,8.126074951171875,-0.2967100143432617,-7.873283863067627,-0.25304099917411804
1697638497744668400,8.13566845703125,-0.5072783827781677,-7.980960845947266,-0.6337988972663879
1697638497754262300,8.14526220703125,-0.5790630578994751,-8.024031639099121,-1.1482558250427246
1697638497763855400,8.15485546875,-0.5264210104942322,-8.20110034942627,-1.6701902151107788
1697638497773448000,8.164447998046874,-0.25363919138908386,-8.565108299255371,-2.256730794906616
1697638497783041000,8.174041015625,0.263509601354599,-9.034400939941406,-2.5704896450042725
1697638497792635100,8.18363525390625,0.4740779995918274,-9.213862419128418,-2.503490686416626
1697638497802228200,8.193228271484376,0.35443684458732605,-9.199505805969238,-2.283350944519043
1697638497811820800,8.20282080078125,0.39990049600601196,-9.295218467712402,-2.010270118713379
1697638497821414000,8.212413818359375,0.7495517134666443,-9.673583984375,-1.6534404754638672
1697638497831008000,8.222008056640625,1.4365909099578857,-10.135697364807129,-1.3088740110397339
1697638497840601000,8.23160107421875,1.8436698913574219,-10.19312572479248,-0.6146563291549683
1697638497850193700,8.241193603515624,1.505982756614685,-9.22582721710205,0.34307095408439636
1697638497859786800,8.250786865234375,0.5413761138916016,-8.232207298278809,1.0348957777023315
1697638497869380900,8.260380859375,-0.3852444589138031,-8.28724193572998,1.2170493602752686
1697638497878974000,8.269973876953125,-1.2903295755386353,-8.72064208984375,1.2074781656265259
1697638497888566500,8.27956640625,-1.9749759435653687,-9.020044326782227,1.2792627811431885
1697638497898159600,8.28915966796875,-2.1185452938079834,-9.876974105834961,1.5448660850524902
1697638497907753700,8.298753662109375,-2.2887349128723145,-11.097911834716797,1.1620144844055176
1697638497917346800,8.308346923828125,-2.506481647491455,-11.890533447265625,-0.1860419660806656
1697638497926939400,8.317939453125,-2.6979074478149414,-12.323933601379395,-1.576870083808899
1697638497936532500,8.327532470703124,-3.1695926189422607,-12.426825523376465,-2.8651061058044434
1697638497946126600,8.337126708984375,-3.7322051525115967,-12.024532318115234,-4.306183338165283
1697638497955719700,8.3467197265625,-4.280460834503174,-11.404491424560547,-5.163412094116211
1697638497965312300,8.356312255859375,-4.440779685974121,-11.433205604553223,-5.886343479156494
1697638497974905300,8.3659052734375,-4.656432628631592,-12.429218292236328,-6.465705871582031
1697638497984499500,8.37549951171875,-4.649254322052002,-14.140983581542969,-7.332505702972412
1697638497994092500,8.385092529296875,-4.680361270904541,-15.136996269226074,-7.035496711730957
1697638498003685000,8.39468505859375,-4.3426737785339355,-15.797714233398438,-5.699703693389893
1697638498013278200,8.4042783203125,-3.7944185733795166,-15.247065544128418,-4.5215373039245605
1697638498022872300,8.413872314453124,-2.647658348083496,-14.267803192138672,-2.630310297012329
1697638498032465400,8.42346533203125,-2.3030917644500732,-13.453944206237793,-0.5928218364715576
1697638498042058000,8.43305810546875,-2.80558443069458,-12.838689804077148,1.3845469951629639
1697638498051651000,8.442651123046875,-3.5407793521881104,-11.93599796295166,2.4379870891571045
1697638498061245200,8.4522451171875,-3.2868409156799316,-10.928021430969238,2.854637384414673
1697638498070838300,8.46183837890625,-2.8992037773132324,-10.116555213928223,3.6373894214630127
1697638498080430800,8.471430908203125,-2.4873390197753906,-8.074280738830566,2.9216363430023193
1697638498090024000,8.48102392578125,-2.1807587146759033,-6.874878406524658,1.5903297662734985
1697638498099618000,8.4906181640625,-0.9334999322891235,-6.681059837341309,1.1596217155456543
1697638498109211100,8.500211181640625,0.04097708687186241,-7.375277519226074,0.11575279384851456
1697638498118803700,8.5098037109375,0.8500502705574036,-8.498109817504883,-1.093220829963684
1697638498128396800,8.519396728515625,1.048654556274414,-8.756534576416016,-1.5481562614440918
1697638498137991000,8.528990966796876,0.7304090857505798,-8.701499938964844,-1.7518452405929565
1697638498147584000,8.538583984375,0.38315072655677795,-8.6967134475708,-1.9217356443405151
1697638498157176300,8.54817626953125,0.11994023621082306,-8.72782039642334,-2.307279348373413
1697638498166769700,8.557769775390625,-0.05503492057323456,-8.778069496154785,-2.527418851852417
1697638498176363800,8.56736376953125,-0.07657032459974289,-8.778069496154785,-2.4149563312530518
1697638498185956900,8.576956787109374,-0.09092725813388824,-8.634500503540039,-1.9576280117034912
1697638498195549200,8.586549072265624,-0.2105683982372284,-8.376075744628906,-1.28255295753479
1697638498205142500,8.596142578125,-0.2392822653055191,-8.16281509399414,-0.5545366406440735
1697638498214736600,8.605736572265625,-0.11724831163883209,-8.102994918823242,0.07507480680942535
1697638498224329700,8.615329833984376,0.12711870670318604,-8.095816612243652,0.7836494445800781
1697638498233922000,8.624922119140624,0.36640095710754395,-8.06231689453125,1.3821542263031006
1697638498243515400,8.634515380859375,0.39511483907699585,-8.107780456542969,1.932802438735962
1697638498253109500,8.644109619140625,0.3209373354911804,-8.129315376281738,2.50498628616333
1697638498262702600,8.65370263671875,0.12472587823867798,-8.052745819091797,2.7900311946868896
1697638498272295000,8.663294921875,-0.11964113265275955,-7.978568077087402,2.725125789642334
1697638498281888300,8.67288818359375,-0.17228323221206665,-7.923532962799072,2.488236427307129
1697638498291482000,8.682482177734375,0.10079765319824219,-7.983353614807129,2.2417757511138916
1697638498301075500,8.692075439453125,0.6418746709823608,-8.06231689453125,1.9112670421600342
1697638498310667800,8.701667724609376,1.202094316482544,-8.15563678741455,1.6863417625427246
1697638498320261000,8.71126123046875,1.7407784461975098,-8.47178840637207,1.5640087127685547
1697638498329855000,8.72085498046875,2.0279171466827393,-9.096614837646484,1.4778671264648438
1697638498339448300,8.7304482421875,1.9680966138839722,-9.776474952697754,1.2792627811431885
1697638498349040600,8.74004052734375,1.9178473949432373,-10.944770812988281,1.2744771242141724
1697638498358633700,8.7496337890625,1.695314884185791,-11.837891578674316,1.5568302869796753
1697638498368227800,8.759227783203125,1.932204246520996,-12.369397163391113,2.0811574459075928
1697638498377821000,8.768821044921875,1.9561325311660767,-12.515359878540039,2.765803813934326
1697638498387413500,8.77841357421875,1.6737794876098633,-12.25214958190918,3.6900315284729004
1697638498397006600,8.788006591796876,1.3959128856658936,-11.500205039978027,4.405784606933594
1697638498406600700,8.7976005859375,0.7615157961845398,-10.954341888427734,4.922933578491211
1697638498416193800,8.80719384765625,-0.20578274130821228,-10.600204467773438,4.908576488494873
1697638498425786400,8.816786376953125,-1.316650629043579,-10.77966594696045,4.477868556976318
1697638498435379500,8.82637939453125,-2.4873390197753906,-11.706286430358887,3.321237802505493
1697638498444973600,8.8359736328125,-4.0435709953308105,-13.611870765686035,1.3366905450820923
1697638498454566700,8.845566650390625,-5.094618320465088,-15.275779724121094,-0.28175488114356995
1697638498464159000,8.855158935546875,-5.123332500457764,-15.469598770141602,-2.2423739433288574
1697638498473752300,8.86475244140625,-4.201497554779053,-14.361123085021973,-4.471288204193115
1697638498483346400,8.874346435546874,-1.8864415884017944,-12.737892150878906,-5.472086429595947
1697638498492939500,8.883939453125,0.7399803996086121,-10.20030403137207,-5.515157222747803
1697638498502531800,8.89353173828125,2.1858434677124023,-8.950652122497559,-2.9368906021118164
1697638498512125200,8.903125244140625,1.474876046180725,-9.034400939941406,-0.5210371017456055
1697638498521719300,8.91271923828125,0.48843491077423096,-10.298409461975098,0.5081757307052612
1697638498531312400,8.9223125,-0.9981061220169067,-9.776474952697754,0.5563312768936157
1697638498540904700,8.93190478515625,-3.0954151153564453,-9.503693580627441,1.114158034324646
1697638498550498000,8.941498046875,-4.852644443511963,-9.731011390686035,0.5874379873275757
1697638498560092000,8.951091796875,-6.02811861038208,-9.970293998718262,-0.389431893825531
1697638498569685000,8.96068505859375,-6.22702169418335,-10.063913345336914,-1.8547366857528687
1697638498579277600,8.970277587890624,-6.1573309898376465,-10.501799583435059,-3.410968780517578
1697638498588870700,8.97987060546875,-5.290830135345459,-11.122138977050781,-4.267898082733154
1697638498598464800,8.98946484375,-3.954737663269043,-11.191530227661133,-4.921437740325928
1697638498608057900,8.999057861328126,-3.0810582637786865,-11.418848991394043,-4.990829944610596
1697638498617650400,9.008650390625,-2.161616086959839,-11.203495025634766,-5.498407363891602
1697638498627243500,9.018243408203125,-1.165902853012085,-10.88973617553711,-5.108377456665039
1697638498636837600,9.027837646484375,-0.026021946221590042,-10.501799583435059,-4.157828330993652
1697638498646430700,9.0374306640625,0.8069794178009033,-10.226624488830566,-2.77866530418396
1697638498656023300,9.047023193359376,1.4629119634628296,-9.635298728942871,-1.9336998462677002
1697638498665616400,9.056616455078125,1.0510473251342773,-9.340682029724121,-1.430907964706421
1697638498675210500,9.06621044921875,-0.02841476909816265,-9.206684112548828,-1.2035897970199585
1697638498684803600,9.075803466796875,-0.9646066427230835,-9.027222633361816,-1.0668997764587402
1697638498694396000,9.08539599609375,-1.4219348430633545,-9.106185913085938,-1.064507007598877
1697638498703989200,9.0949892578125,-1.46500563621521,-9.106185913085938,-1.2394821643829346
1697638498713583400,9.104583251953125,-1.0914262533187866,-9.125328063964844,-1.3088740110397339
1697638498723176400,9.114176513671875,-0.6176473498344421,-9.04397201538086,-1.2705888748168945
1697638498732768800,9.123768798828126,-0.49292147159576416,-9.012866020202637,-1.095613718032837
1697638498742362000,9.133362060546874,-0.49292147159576416,-9.05115032196045,-1.033400297164917
1697638498751956000,9.1429560546875,-0.8042874932289124,-9.096614837646484,-1.1482558250427246
1697638498761549000,9.152549072265625,-1.129711389541626,-9.266505241394043,-1.3495519161224365
1697638498771141600,9.1621416015625,-1.189831018447876,-9.347860336303711,-1.459621787071228
1697638498780734700,9.171734619140626,-0.9263214468955994,-9.400503158569336,-1.5050854682922363
1697638498790328800,9.181328857421875,-0.6774678826332092,-9.441479682922363,-1.3950155973434448
1697638498799922000,9.190921875,-0.4570291340351105,-9.501300811767578,-1.2394821643829346
1697638498809514500,9.200514404296875,-0.016450656577944756,-9.57787036895752,-0.9616156220436096
1697638498819107600,9.210107666015626,0.21565313637256622,-9.582656860351562,-0.6266204118728638
1697638498828701700,9.21970166015625,0.22761724889278412,-9.4028959274292,-0.23389841616153717
1697638498838294800,9.229294677734375,0.3281157910823822,-9.158827781677246,0.14925231039524078
1697638498847887400,9.238887451171875,0.4573282301425934,-8.91236686706543,0.32153555750846863
1697638498857480400,9.24848046875,0.4980062246322632,-8.601000785827637,0.5587241053581238
1697638498867074600,9.258074462890624,0.7495517134666443,-8.19392204284668,0.8889335989952087
1697638498876667600,9.267667724609375,1.194915771484375,-7.887640953063965,1.4946168661117554
1697638498886260000,9.277260009765625,1.285843014717102,-7.442276477813721,2.0931215286254883
1697638498895853300,9.286853271484375,1.505982756614685,-7.006484031677246,2.7514469623565674
1697638498905447400,9.296447509765626,1.5251253843307495,-6.819843769073486,2.840280532836914
1697638498915040500,9.30604052734375,1.2451651096343994,-7.191030025482178,2.2178475856781006
1697638498924632800,9.3156328125,0.7495517134666443,-7.775177955627441,1.6214364767074585
1697638498934226200,9.32522607421875,0.2108674943447113,-8.33300495147705,0.9535398483276367
1697638498943820000,9.334820068359376,-0.1579262912273407,-9.048757553100586,0.5395814776420593
1697638498953413000,9.3444130859375,-0.28235307335853577,-9.54197883605957,-0.4013960063457489
1697638498963005700,9.354005615234374,-0.4713860750198364,-9.628120422363281,-1.301695466041565
1697638498972598800,9.363598876953125,-0.7372884750366211,-9.237791061401367,-1.8284156322479248
1697638498982193000,9.37319287109375,-0.885643482208252,-8.773283958435059,-2.2184457778930664
1697638498991786000,9.382785888671876,-0.8641080856323242,-8.313861846923828,-2.362314224243164
1697638499001378600,9.392378662109374,-1.0698908567428589,-8.05513858795166,-2.307279348373413
1697638499010971600,9.4019716796875,-1.8792630434036255,-8.421539306640625,-2.4508485794067383
1697638499020565800,9.411565673828125,-2.616551637649536,-9.338289260864258,-2.5178475379943848
1697638499030158800,9.421158935546876,-3.344268798828125,-10.286445617675781,-2.2809581756591797
1697638499039751200,9.430751220703126,-3.5048868656158447,-11.172388076782227,-2.3814568519592285
1697638499049344500,9.440344482421875,-4.464707851409912,-12.041281700134277,-2.699702262878418
1697638499058938400,9.4499384765625,-4.977071285247803,-13.13539981842041,-3.9158542156219482
1697638499068531700,9.45953173828125,-5.822335720062256,-12.563216209411621,-6.331707954406738
1697638499078124000,9.4691240234375,-3.8805601596832275,-13.738690376281738,-6.62841796875
1697638499087717400,9.47871728515625,-3.3251261711120605,-13.125828742980957,-6.166304111480713
1697638499097311200,9.488311279296875,-3.2294132709503174,-12.479467391967773,-5.029115200042725
1697638499106904300,9.497904296875,-3.555136203765869,-12.141779899597168,-4.220041751861572
1697638499116497000,9.507496826171876,-4.565505504608154,-12.18245792388916,-3.238386392593384
1697638499126090000,9.517090087890624,-4.735395908355713,-13.324433326721191,-1.7470595836639404
1697638499135684000,9.52668408203125,-3.803989887237549,-13.592727661132812,0.5802595019340515
1697638499145277200,9.536277099609375,-2.827120065689087,-12.249756813049316,3.232703447341919
1697638499154869500,9.545869384765625,-3.593421459197998,-10.6624174118042,4.405784606933594
1697638499164462800,9.555462890625,-5.094618320465088,-11.433205604553223,3.9774694442749023
1697638499174057000,9.565056884765625,-6.777669906616211,-13.264612197875977,3.4220354557037354
1697638499183650000,9.574650146484375,-6.930810928344727,-12.70917797088623,2.50498628616333
1697638499193242400,9.584242431640625,-5.487041473388672,-11.461919784545898,1.7653049230575562
1697638499202835700,9.593835693359376,-3.7058839797973633,-10.588240623474121,0.9702895879745483
1697638499212429600,9.6034296875,-2.051546335220337,-9.941579818725586,0.49621158838272095
1697638499222022700,9.613022705078125,-1.323829174041748,-9.604191780090332,0.24257239699363708
1697638499231615200,9.622615234375,-1.1249257326126099,-9.374181747436523,0.537188708782196
1697638499241208300,9.632208251953125,-0.7468597888946533,-9.065507888793945,0.9655039310455322
1697638499250802400,9.641802490234374,-0.00687936507165432,-8.703892707824707,1.2218350172042847
1697638499260395500,9.6513955078125,0.4214358925819397,-8.467002868652344,0.7692924737930298
1697638499269988000,9.660988037109375,0.5318048596382141,-8.38564682006836,-0.0975075215101242
1697638499279581200,9.670581298828125,0.490827739238739,-8.088638305664062,-0.7414759397506714
1697638499289175300,9.68017529296875,0.584446907043457,-7.715058326721191,-0.6170491576194763
1697638499298768400,9.689768310546874,0.4166502356529236,-7.363313674926758,-0.13100704550743103
1697638499308360700,9.699360595703125,-0.0526420995593071,-6.9945197105407715,-0.0014955141814425588
1697638499317954000,9.7089541015625,-0.6080760359764099,-6.565905570983887,-0.07836493849754333
1697638499327548000,9.7185478515625,-1.1368898153305054,-5.984150409698486,-0.20518454909324646
1697638499337141000,9.72814111328125,-1.5104693174362183,-5.435894966125488,-0.12382857501506805
1697638499346733600,9.737733642578124,-1.6013965606689453,-4.8661041259765625,-0.16689938306808472
1697638499356326700,9.74732666015625,-1.5798611640930176,-4.4976091384887695,-0.2793620526790619
1697638499365920800,9.756920654296875,-1.5200406312942505,-4.818247318267822,-0.032602209597826004
1697638499375513900,9.766513916015626,-1.2831511497497559,-5.179862976074219,0.1660020649433136
1697638499385106400,9.7761064453125,-1.012463092803955,-5.182255744934082,0.4507479667663574
1697638499394699500,9.785699462890625,-0.6296114325523376,-5.263611793518066,0.7357929348945618
1697638499404293600,9.795293701171875,-0.22971096634864807,-5.48883581161499,1.0061819553375244
1697638499413886700,9.80488671875,0.009870393201708794,-5.898008823394775,1.4060823917388916
1697638499423479000,9.81447900390625,0.33529427647590637,-6.293123722076416,1.6429718732833862
1697638499433072400,9.824072265625,0.6538388133049011,-6.721737861633301,1.6477575302124023
1697638499442666200,9.833666259765625,0.7878368496894836,-7.10219669342041,1.3654043674468994
1697638499452259600,9.843259521484375,0.737587571144104,-7.2867431640625,0.5826523303985596
1697638499461852000,9.852851806640626,0.7208378314971924,-7.248457908630371,-0.6002993583679199
1697638499471445000,9.862445068359374,0.7830511927604675,-7.332206726074219,-1.6558332443237305
1697638499481039000,9.8720390625,0.4980062246322632,-7.688737392425537,-2.3264217376708984
1697638499490632200,9.881632080078125,-0.1052841991186142,-8.050353050231934,-2.989532709121704
1697638499500224800,9.891224853515626,-0.45224347710609436,-8.419146537780762,-3.1642088890075684
1697638499509817900,9.90081787109375,-0.9622138142585754,-8.431110382080078,-2.6398816108703613
1697638499519412000,9.910411865234375,-1.1922239065170288,-8.6033935546875,-2.448455810546875
1697638499529005000,9.920005126953125,-1.5535401105880737,-8.847461700439453,-2.2375881671905518
1697638499538597400,9.929597412109375,-1.4745769500732422,-8.708678245544434,-1.5290136337280273
1697638499548190700,9.939190673828126,-0.7420741319656372,-8.28006362915039,-0.08793623000383377
1697638499557784600,9.94878466796875,-1.165902853012085,-7.923532962799072,1.3390833139419556
1697638499567377700,9.958377685546875,-2.420340061187744,-7.528418064117432,2.5097718238830566
1697638499576970200,9.96797021484375,-3.8087754249572754,-7.552346706390381,2.940778970718384
1697638499586563300,9.977563232421875,-3.6269209384918213,-8.297112464904785,2.6964120864868164
1697638499596157400,9.987157470703124,-0.9502496719360352,-10.293623924255371,1.4587244987487793
1697638499605750500,9.99675048828125,-1.812264084815979,-12.33829116821289,-4.05493688583374
1697638499615343000,10.006343017578125,-3.4737801551818848,-15.302101135253906,-7.262814998626709
1697638499624936200,10.015936279296875,-5.43918514251709,-17.562122344970703,-5.505585670471191
1697638499634530300,10.0255302734375,-7.227520942687988,-17.066509246826172,-4.572085857391357
1697638499644123400,10.035123291015625,-5.175974369049072,-16.89183235168457,-4.0094733238220215
1697638499653715700,10.0447158203125,0.5581258535385132,-18.352052688598633,-4.478466510772705
1697638499663309000,10.05430908203125,2.1786649227142334,-18.847665786743164,-4.564907550811768
1697638499672903000,10.06390283203125,1.0773683786392212,-16.958831787109375,-2.754737138748169
1697638499682496000,10.07349609375,-0.3326023519039154,-13.791332244873047,0.015254244208335876
1697638499692088600,10.083088623046875,-1.4003994464874268,-11.653345108032227,1.7365909814834595
1697638499701681700,10.092681640625,-1.4267204999923706,-11.713464736938477,1.9950158596038818
1697638499711275800,10.10227587890625,-1.0579266548156738,-12.374183654785156,1.0037890672683716
1697638499720868900,10.111868896484374,0.10079765319824219,-13.094721794128418,-0.2745763957500458
1697638499730461400,10.12146142578125,0.4740779995918274,-13.482658386230469,-1.6271194219589233
1697638499740054500,10.131054443359375,-0.10049854964017868,-13.911273002624512,-2.6327030658721924
1697638499749648400,10.1406484375,-1.3956137895584106,-14.454442977905273,-3.145066261291504
1697638499759241700,10.15024169921875,-2.451446771621704,-14.531312942504883,-3.7220356464385986
1697638499768834000,10.159833984375,-2.472982168197632,-13.798510551452637,-4.196113586425781
1697638499778427100,10.16942724609375,-2.0228323936462402,-12.316755294799805,-3.8321053981781006
1697638499788021200,10.179021240234375,-1.9869401454925537,-10.956734657287598,-2.8579275608062744
1697638499797614300,10.1886142578125,-1.9630118608474731,-9.613762855529785,-2.2423739433288574
1697638499807207000,10.19820703125,-1.2687941789627075,-8.447860717773438,-1.5984054803848267
1697638499816800000,10.207800048828124,-0.12921242415905,-7.425527095794678,-1.3280165195465088
1697638499826394000,10.21739404296875,1.1183454990386963,-6.657131671905518,-1.2203395366668701
1697638499835987200,10.2269873046875,2.0446670055389404,-6.295516490936279,-0.9257232546806335
1697638499845579500,10.23657958984375,2.4828526973724365,-6.0610198974609375,-0.5736792087554932
1697638499855172900,10.2461728515625,2.6551358699798584,-5.845366477966309,-0.23629122972488403
1697638499864766700,10.2557666015625,2.5043880939483643,-5.7017974853515625,0.024825535714626312
1697638499874360000,10.265360107421875,2.3392832279205322,-5.515157222747803,0.1827518343925476
1697638499883952400,10.274952392578125,2.025524377822876,-5.311468124389648,0.40767714381217957
1697638499893545500,10.28454541015625,1.6112669706344604,-5.237290382385254,0.6520441770553589
1697638499903139600,10.2941396484375,1.1853444576263428,-5.344967365264893,0.7070791125297546
1697638499912732700,10.303732666015625,0.8979067206382751,-5.586941719055176,0.5276173949241638
1697638499922325000,10.313324951171875,0.5027918815612793,-6.056233882904053,0.481854647397995
1697638499931918300,10.32291845703125,0.20847466588020325,-6.551548480987549,0.31435707211494446
1697638499941512400,10.332512451171874,0.014656038954854012,-7.075875759124756,0.07986045628786087
1697638499951105500,10.34210546875,-0.1818545162677765,-7.638488292694092,-0.11186445504426956
1697638499960697900,10.35169775390625,-0.2632105052471161,-8.19392204284668,-0.06161518394947052
1697638499970291000,10.361291015625,-0.17228323221206665,-8.572287559509277,0.10618150234222412
1697638499979885000,10.370885009765624,0.04336991161108017,-8.598608016967773,0.1660020649433136
1697638499989478100,10.38047802734375,0.30658039450645447,-8.253742218017578,0.271286278963089
1697638499999070700,10.39007080078125,0.4860421121120453,-7.559525012969971,0.5563312768936157
1697638500008663800,10.399663818359375,0.6969096064567566,-6.889235496520996,0.9080761671066284
1697638500018258000,10.4092578125,0.6562315821647644,-6.5419769287109375,1.0707881450653076
1697638500027851000,10.41885107421875,0.4334000051021576,-6.38165807723999,1.054038405418396
1697638500037443300,10.428443359375,0.3041875660419464,-6.331408500671387,1.1524431705474854
1697638500047036700,10.43803662109375,-0.08853443711996078,-6.544369697570801,1.236191987991333
1697638500056630500,10.447630615234376,-0.8976075649261475,-7.423133850097656,1.1285150051116943
1697638500066223900,10.457223876953124,-1.536790370941162,-9.046364784240723,0.42681974172592163
1697638500075816200,10.466816162109374,-1.3310075998306274,-11.39252758026123,-1.026221752166748
1697638500085409300,10.4764091796875,-1.6205391883850098,-13.928022384643555,-2.9823544025421143
1697638500095003400,10.48600341796875,-1.6827524900436401,-16.3172550201416,-4.529015064239502
1697638500104596500,10.495596435546876,-1.2400803565979004,-18.347267150878906,-4.519144535064697
1697638500114188800,10.505188720703124,0.21565313637256622,-17.20050621032715,-5.572584629058838
1697638500123782100,10.5147822265625,0.9696913957595825,-20.08086585998535,-3.1163523197174072
1697638500133376000,10.5243759765625,-2.5016961097717285,-20.487646102905273,0.6137589812278748
1697638500142969300,10.53396923828125,-3.7704901695251465,-18.742382049560547,2.3207387924194336
1697638500152561700,10.543561767578124,-3.3083763122558594,-16.403396606445312,1.7078771591186523
1697638500162154800,10.55315478515625,-2.8609185218811035,-14.708381652832031,2.2393829822540283
1697638500171748900,10.562748779296875,-2.0156540870666504,-13.298111915588379,2.260918378829956
1697638500181342000,10.572342041015625,-1.316650629043579,-12.620643615722656,1.882553219795227
1697638500190934300,10.581934326171876,-1.6420745849609375,-12.283255577087402,1.2242279052734375
1697638500200527600,10.591527587890624,-2.544766902923584,-12.177672386169434,0.11096715182065964
1697638500210121700,10.601121826171875,-2.465803623199463,-11.955140113830566,-0.3200400173664093
1697638500219714800,10.61071484375,-2.0012969970703125,-11.41645622253418,-0.8252246975898743
1697638500229307100,10.62030712890625,-1.8218353986740112,-10.96630573272705,-1.5098711252212524
1697638500238900200,10.629900146484376,-1.8409779071807861,-10.731809616088867,-2.067697763442993
1697638500248494300,10.639494384765625,-1.89840567111969,-10.569097518920898,-2.0533409118652344
1697638500258087400,10.64908740234375,-1.5200406312942505,-10.453943252563477,-1.3950155973434448
1697638500267680000,10.658679931640625,-0.8282157182693481,-10.028020858764648,-0.18364913761615753
1697638500277273000,10.668273193359376,-0.17946170270442963,-9.158827781677246,0.9607182741165161
1697638500286867200,10.6778671875,0.5027918815612793,-8.074280738830566,2.2393829822540283
1697638500296460300,10.687460205078125,0.706480860710144,-6.889235496520996,2.1960129737854004
1697638500306052600,10.697052490234375,0.20847466588020325,-5.732903957366943,1.35822594165802
1697638500315646000,10.70664599609375,-0.12921242415905,-4.8589253425598145,1.1979068517684937
1697638500325239800,10.71623974609375,-0.2919243574142456,-4.301098823547363,1.176371455192566
1697638500334833000,10.7258330078125,-0.349352091550827,-4.011567115783691,1.169192910194397
1697638500344425500,10.735425537109375,-0.31824541091918945,-3.951746702194214,1.150050401687622
1697638500354018600,10.7450185546875,-0.28953152894973755,-4.164707660675049,1.0205388069152832
1697638500363612700,10.75461279296875,-0.40677985548973083,-4.7727837562561035,0.8267202377319336
1697638500373205800,10.764205810546875,-0.7109674215316772,-5.4143595695495605,0.4914259612560272
1697638500382798000,10.773798095703125,-0.6296114325523376,-5.902794361114502,0.06311069428920746
1697638500392391400,10.783391357421875,0.11515458673238754,-6.175875186920166,-0.40378883481025696
1697638500401985300,10.7929853515625,0.828514814376831,-6.522834300994873,-1.0310074090957642
1697638500411578600,10.80257861328125,1.0151549577713013,-6.819843769073486,-1.9935203790664673
1697638500421171000,10.8121708984375,0.8835497498512268,-7.176673412322998,-3.2503504753112793
1697638500430764000,10.821763916015625,0.34247273206710815,-7.899604797363281,-3.789034605026245
1697638500440358100,10.831358154296876,-0.8306085467338562,-8.167600631713867,-3.757927894592285
1697638500449951200,10.840951171875,-2.1879372596740723,-8.5100736618042,-2.3359930515289307
1697638500459543600,10.85054345703125,-2.496910333633423,-8.160422325134277,-1.6103696823120117
1697638500469137000,10.860136962890625,-2.7984061241149902,-7.23170804977417,-0.7151548862457275
1697638500478730800,10.869730712890625,-2.5782663822174072,-6.259624004364014,0.40289151668548584
1697638500488324000,10.879323974609376,-1.8194425106048584,-5.965007781982422,0.8267202377319336
1697638500497916400,10.88891650390625,-1.7138592004776,-7.6528449058532715,0.17318053543567657
1697638500507509500,10.898509521484375,-0.91914302110672,-10.925628662109375,-0.9568299651145935
1697638500517103600,10.908103515625,0.20368902385234833,-14.124234199523926,-4.023830413818359
1697638500526696700,10.91769677734375,0.11036894470453262,-15.979568481445312,-5.292624473571777
1697638500536289000,10.9272890625,-3.337090253829956,-16.324434280395508,-3.3245279788970947
1697638500545882400,10.93688232421875,-5.338686466217041,-14.820844650268555,-3.1402807235717773
1697638500555476200,10.946476318359375,-4.093820571899414,-13.681262969970703,-1.550549030303955
1697638500565069600,10.956069580078125,-1.9630118608474731,-14.243874549865723,0.2952145040035248
1697638500574662000,10.965661865234376,-0.9311071038246155,-15.69003677368164,0.08464609831571579
1697638500584255000,10.9752548828125,-0.675075113773346,-16.925331115722656,-0.35114672780036926
1697638500593849000,10.98484912109375,-0.021236300468444824,-17.46640968322754,0.36221352219581604
1697638500603442200,10.994442138671875,-0.3684946894645691,-16.99472427368164,1.3103694915771484
1697638500613034500,11.004034423828125,-0.8353942036628723,-15.481562614440918,0.7668996453285217
1697638500622627800,11.0136279296875,-1.3214362859725952,-13.6477632522583,-0.4827519655227661
1697638500632221700,11.0232216796875,-2.108973979949951,-12.048460006713867,-1.8834505081176758
1697638500641815000,11.03281494140625,-1.9079769849777222,-11.296814918518066,-3.152244806289673
1697638500651407400,11.042407470703125,-0.3086741268634796,-10.621739387512207,-4.418646335601807
1697638500661000400,11.05200048828125,1.7096717357635498,-10.037591934204102,-4.9740800857543945
1697638500670594600,11.061594482421874,2.17627215385437,-9.594620704650879,-4.406682014465332
1697638500680187600,11.071187744140625,0.9888339638710022,-9.355039596557617,-3.2048869132995605
1697638500689780000,11.080780029296875,-0.5312066078186035,-9.046364784240723,-2.263909339904785
1697638500699373300,11.090373291015625,-1.4554343223571777,-8.636893272399902,-1.5361921787261963
1697638500708967200,11.09996728515625,-1.7356936931610107,-7.954639911651611,-1.033400297164917
1697638500718560300,11.109560302734375,-1.500898003578186,-7.181458950042725,-0.7414759397506714
1697638500728152800,11.11915283203125,-0.8210372924804688,-6.4079790115356445,-0.755832850933075
1697638500737746000,11.128745849609375,0.05054837837815285,-5.838188171386719,-0.8659027218818665
1697638500747340000,11.138340087890626,1.043868899345398,-5.416752338409424,-0.7989036440849304
1697638500756933000,11.14793310546875,1.9920248985290527,-5.263611793518066,-0.5258227586746216
1697638500766525400,11.157525390625,2.746062994003296,-5.515157222747803,-0.14297115802764893
1697638500776118800,11.167118896484375,3.16749906539917,-5.967400550842285,0.14685949683189392
1697638500785712600,11.176712646484376,3.222533941268921,-6.386443614959717,0.1947159469127655
1697638500795305700,11.1863056640625,3.0071799755096436,-6.716952323913574,0.28085756301879883
1697638500804898300,11.195898193359374,2.525923490524292,-7.140481948852539,0.7549355626106262
1697638500814491400,11.205491455078125,1.92741858959198,-7.365706443786621,1.1596217155456543
1697638500824085500,11.21508544921875,1.2834502458572388,-7.1356964111328125,1.3797613382339478
1697638500833678600,11.2246787109375,0.5195416212081909,-6.762415885925293,1.5017952919006348
1697638500843271000,11.23427099609375,-0.14835500717163086,-6.846164703369141,1.755733609199524
1697638500852864300,11.2438642578125,-0.6152545213699341,-7.499704360961914,1.9112670421600342
1697638500862458000,11.2534580078125,-0.6032904386520386,-8.36411190032959,1.810768485069275
1697638500872051200,11.26305126953125,-0.6200401782989502,-9.046364784240723,1.413260817527771
1697638500881643800,11.272643798828126,-0.6056832075119019,-9.206684112548828,0.8578268885612488
1697638500891236900,11.28223681640625,-0.6008976101875305,-8.893224716186523,0.5153541564941406
1697638500900831000,11.2918310546875,-0.6990033388137817,-8.153244018554688,0.3574278950691223
1697638500910424000,11.301424072265625,-1.038784146308899,-7.569096088409424,-0.11186445504426956
1697638500920016400,11.311016357421876,-1.2352946996688843,-7.595417499542236,-0.8300103545188904
1697638500929609500,11.320609375,-1.1081759929656982,-8.452646255493164,-1.5385849475860596
1697638500939203600,11.33020361328125,-0.6846463680267334,-9.561120986938477,-2.0318055152893066
1697638500948796700,11.339796630859375,-0.10767702013254166,-10.822736740112305,-1.9121644496917725
1697638500958389200,11.34938916015625,-0.4666004180908203,-13.058829307556152,-1.4931213855743408
1697638500967982300,11.358982421875,-1.098604679107666,-16.077674865722656,-0.8994022011756897
1697638500977576200,11.368576171875,-1.4075778722763062,-19.314565658569336,-0.9472586512565613
1697638500987169500,11.37816943359375,-1.6277176141738892,-21.186649322509766,-0.9831510186195374
1697638500996761900,11.387761962890625,-2.1352951526641846,-21.215662002563477,0.1827518343925476
1697638501006355000,11.39735498046875,-2.647658348083496,-19.149459838867188,1.9471594095230103
1697638501015949000,11.406948974609374,-3.6987056732177734,-16.824832916259766,1.4300106763839722
1697638501025542100,11.416542236328125,-0.7205387353897095,-14.952449798583984,-1.095613718032837
1697638501035134700,11.426134765625,-2.0874385833740234,-14.806487083435059,2.6964120864868164
1697638501044727800,11.435727783203125,-2.968595504760742,-13.595121383666992,1.906481385231018
1697638501054321700,11.44532177734375,-2.168794631958008,-12.50100326538086,1.1548360586166382
1697638501063915000,11.4549150390625,-1.7042878866195679,-11.435598373413086,1.0755738019943237
1697638501073507300,11.46450732421875,-1.0603195428848267,-10.97587776184082,1.3055838346481323
1697638501083100400,11.474100341796875,-0.7396813035011292,-10.461121559143066,1.1021939516067505
1697638501092694500,11.483694580078126,-0.35892340540885925,-10.097412109375,1.0926226377487183
1697638501102287600,11.49328759765625,0.47647079825401306,-9.323932647705078,0.9846464991569519
1697638501111880000,11.5028798828125,0.9649057388305664,-8.419146537780762,0.6807580590248108
1697638501121473300,11.512473388671875,0.582054078578949,-7.492526054382324,0.5324030518531799
1697638501131067100,11.522067138671876,-0.12681959569454193,-6.745666027069092,0.3454637825489044
1697638501140660500,11.531660400390624,-0.3684946894645691,-6.1399827003479,0.41485562920570374
1697638501150252800,11.541252685546874,-0.3206382393836975,-5.644369602203369,0.6089733839035034
1697638501159846000,11.550845947265625,-0.22971096634864807,-5.313860893249512,0.7429714202880859
1697638501169440000,11.56043994140625,-0.3158525824546814,-5.129613399505615,1.145264744758606
1697638501179033000,11.570033203125,-0.5623133182525635,-5.220541000366211,1.6576279401779175
1697638501188625400,11.57962548828125,-0.8617152571678162,-5.376074314117432,2.0069799423217773
1697638501198218800,11.58921875,-1.1009975671768188,-5.603691577911377,2.2728824615478516
1697638501207812600,11.5988125,-1.1273186206817627,-5.809474468231201,2.210369825363159
1697638501217405700,11.60840576171875,-0.4618147611618042,-6.175875186920166,2.1409780979156494
1697638501226998300,11.617998291015626,-0.24885354936122894,-6.5419769287109375,1.7413766384124756
1697638501236591400,11.62759130859375,-0.4737788736820221,-6.76002311706543,0.47706902027130127
1697638501246185500,11.637185546875,-0.9981061220169067,-6.980162620544434,-0.8563314080238342
1697638501255778600,11.646778564453125,-1.3836497068405151,-7.186244487762451,-1.5672988891601562
1697638501265371000,11.656370849609376,-1.536790370941162,-7.222136974334717,-2.0150556564331055
1697638501274964000,11.6659638671875,-1.2137593030929565,-7.020840644836426,-2.4364917278289795
1697638501284558000,11.67555810546875,-0.91914302110672,-6.903592586517334,-2.5322046279907227
1697638501294151200,11.685151123046875,-0.6918248534202576,-6.599404811859131,-2.376671075820923
1697638501303743500,11.694743408203125,-0.5694918036460876,-6.345765590667725,-2.3192434310913086
1697638501313336800,11.7043369140625,-0.15553347766399384,-6.69780969619751,-1.955235242843628
1697638501322930700,11.7139306640625,-0.10289137065410614,-8.177172660827637,-0.9065806865692139
1697638501332524000,11.72352392578125,-1.409970760345459,-10.171589851379395,-1.5696916580200195
1697638501342116400,11.733116455078125,-2.1831514835357666,-13.587942123413086,-2.7667012214660645
1697638501351709400,11.74270947265625,-3.1217362880706787,-17.296518325805664,-2.826521635055542
1697638501361303600,11.752303466796874,-4.093820571899414,-18.285053253173828,-2.948854923248291
1697638501370896600,11.761896728515625,-4.383351802825928,-16.609180450439453,-2.4436700344085693
1697638501380489000,11.771489013671875,-3.5575289726257324,-15.046069145202637,-0.8300103545188904
1697638501390082300,11.781082275390625,-1.4003994464874268,-15.07717514038086,0.11814561486244202
1697638501399676200,11.79067626953125,0.48364928364753723,-15.907784461975098,0.03200400248169899
1697638501409269500,11.80026953125,-0.021236300468444824,-16.549360275268555,-0.08793623000383377
1697638501418861800,11.80986181640625,-0.05024927482008934,-16.68575096130371,0.6616154313087463
1697638501428455000,11.819454833984375,-0.9550353288650513,-16.05613899230957,1.085145115852356
1697638501438049000,11.829049072265626,-2.1759731769561768,-15.469598770141602,0.8386843204498291
1697638501447642000,11.83864208984375,-2.6979074478149414,-14.97159194946289,-0.4707878530025482
1697638501457234400,11.848234375,-2.3605196475982666,-15.01705551147461,-1.7084753513336182
1697638501466827800,11.857827880859375,-1.8888343572616577,-15.101103782653809,-3.0086753368377686
1697638501476421600,11.867421630859376,-1.6037893295288086,-14.588740348815918,-3.851248025894165
1697638501486014700,11.8770146484375,-1.4171491861343384,-13.717154502868652,-3.8297126293182373
1697638501495607300,11.886607177734374,-1.225723385810852,-12.46271800994873,-3.247957706451416
1697638501505200400,11.896200439453125,-1.038784146308899,-11.158031463623047,-2.7571299076080322
1697638501514794500,11.90579443359375,-0.5599204897880554,-9.585049629211426,-2.551347255706787
1697638501524387600,11.9153876953125,0.11994023621082306,-8.634500503540039,-2.386242389678955
1697638501533980000,11.92497998046875,0.5533402562141418,-8.105387687683105,-2.0557336807250977
1697638501543573000,11.934572998046875,0.9433703422546387,-7.549953460693359,-1.6606189012527466
1697638501553167000,11.9441669921875,1.0007981061935425,-6.987341403961182,-1.2442678213119507
1697638501562760200,11.95376025390625,0.8356932997703552,-6.556334018707275,-0.7654041647911072
1697638501572352500,11.9633525390625,0.6107679605484009,-6.168696880340576,-0.42293140292167664
1697638501581945900,11.97294580078125,0.41186460852622986,-5.847759246826172,-0.18364913761615753
1697638501591539700,11.982539794921875,0.23958136141300201,-5.73768949508667,0.05353940650820732
1697638501601132800,11.9921328125,0.23001007735729218,-5.582156181335449,0.16839489340782166
1697638501610725400,12.001725341796876,0.19651055335998535,-5.246861934661865,0.20907287299633026
1697638501620318500,12.011318359375,0.23718854784965515,-4.940580368041992,0.1779661774635315
1697638501629912600,12.02091259765625,0.3113660514354706,-4.703392028808594,0.18035900592803955
1697638501639505700,12.030505615234375,0.44775694608688354,-4.535894393920898,0.1301097273826599
1697638501649098000,12.040097900390625,0.7184450030326843,-4.5215373039245605,0.10378868132829666
1697638501658691000,12.049691162109376,1.1207382678985596,-4.595715045928955,0.15643078088760376
1697638501668285200,12.05928515625,1.4868401288986206,-4.9139604568481445,0.3526422381401062
1697638501677878300,12.068878173828125,1.9441684484481812,-5.110470771789551,0.6185446381568909
1697638501687470600,12.078470703125,2.1379871368408203,-5.54387092590332,0.9726824164390564
1697638501697064000,12.08806396484375,2.094916343688965,-6.0176496505737305,1.1835498809814453
1697638501706657800,12.09765771484375,1.5035899877548218,-6.580262184143066,1.1787642240524292
1697638501716251000,12.1072509765625,0.48364928364753723,-7.2125654220581055,0.7549355626106262
1697638501725843500,12.116843505859375,-0.5479564070701599,-7.961818218231201,0.3000001311302185
1697638501735436500,12.1264365234375,-1.2352946996688843,-8.670392990112305,-0.22432711720466614
1697638501745030700,12.13603076171875,-1.6277176141738892,-8.801998138427734,-0.9161519408226013
1697638501754623700,12.145623779296875,-1.9630118608474731,-8.653642654418945,-1.7132610082626343
1697638501764216000,12.155216064453125,-1.6372889280319214,-8.517251968383789,-2.300100803375244
1697638501773809200,12.16480908203125,-0.6152545213699341,-8.241778373718262,-1.924128532409668
1697638501783403300,12.1744033203125,0.1462612897157669,-8.126922607421875,-0.05922235921025276
1697638501792996400,12.183996337890624,-0.4737788736820221,-9.869794845581055,2.2417757511138916
1697638501802588700,12.193588623046875,-2.0395822525024414,-14.033307075500488,1.5855441093444824
1697638501812182000,12.20318212890625,-2.106581211090088,-19.3504581451416,0.6400800347328186
1697638501821776000,12.21277587890625,-2.2214367389678955,-22.199411392211914,2.4858436584472656
1697638501831369000,12.222368896484374,-4.644468784332275,-20.044675827026367,4.31007194519043
1697638501840961500,12.23196142578125,-6.243771553039551,-16.599609375,4.465904235839844
1697638501850554600,12.2415546875,-5.50139856338501,-15.378670692443848,4.097110748291016
1697638501860148500,12.2511484375,-3.67238450050354,-15.098711013793945,2.8139593601226807
1697638501869741600,12.260741455078126,-1.5702898502349854,-14.449657440185547,1.3127623796463013
1697638501879334100,12.270334228515624,0.005084747914224863,-14.66052532196045,0.7525427341461182
1697638501888927200,12.27992724609375,0.4668995141983032,-14.045270919799805,0.2952145040035248
1697638501898521300,12.289521240234375,1.0534402132034302,-11.933605194091797,-0.46839502453804016
1697638501908114400,12.299114501953126,2.782254457473755,-10.77248764038086,-2.544168710708618
1697638501917706800,12.308706787109376,2.3009979724884033,-12.606287002563477,-0.724726140499115
1697638501927299800,12.3182998046875,1.6809579133987427,-12.646965026855469,-0.4013960063457489
1697638501936894000,12.32789404296875,1.3695918321609497,-11.469098091125488,-0.030209386721253395
1697638501946487000,12.337487060546875,0.42382872104644775,-10.071091651916504,0.48424747586250305
1697638501956079400,12.347079345703126,-0.25363919138908386,-8.634500503540039,1.1285150051116943
1697638501965672400,12.35667236328125,-0.30628129839897156,-7.578667640686035,1.6863417625427246
1697638501975266600,12.3662666015625,-0.26560330390930176,-7.037590503692627,1.9591234922409058
1697638501984859600,12.375859619140625,-0.2632105052471161,-6.553941249847412,2.0237298011779785
1697638501994452000,12.385451904296875,0.024227328598499298,-6.166304111480713,2.4044876098632812
1697638502004045300,12.39504541015625,0.24197418987751007,-5.687440395355225,2.710768938064575
