time,seconds_elapsed,z,y,x
1701713683433651200,0.100651123046875,0,0,0
1701713683443245600,0.11024560546875,0,0,0
1701713683452839000,0.1198388671875,-0.05398225784301758,-0.10590815544128418,-0.000698089599609375
1701713683462433000,0.12943310546875,-0.7678079605102539,0.7291269302368164,0.29587864875793457
1701713683472028200,0.139028076171875,-1.528127670288086,0.3402118682861328,0.9778852462768555
1701713683481622300,0.148622314453125,-1.163011074066162,0.22675561904907227,0.25320005416870117
1701713683491215600,0.158215576171875,-1.301675796508789,0.7031388282775879,-0.25961899757385254
1701713683500810000,0.16781005859375,-0.911226749420166,1.2618775367736816,-1.0515888929367065
1701713683510404900,0.17740478515625,-0.40625905990600586,1.9552383422851562,-1.9533883333206177
1701713683519999000,0.1869990234375,0.06923627853393555,2.342947006225586,-2.440307378768921
1701713683529592600,0.196592529296875,0.35927295684814453,2.1551671028137207,-2.5511364936828613
1701713683539186700,0.206186767578125,0.398587703704834,1.6927504539489746,-2.3768649101257324
1701713683548781800,0.21578173828125,0.42960309982299805,1.0091023445129395,-2.187952756881714
1701713683558376000,0.2253759765625,0.25659656524658203,0.41508007049560547,-2.06191086769104
1701713683567969300,0.23496923828125,0.06097555160522461,0.11245298385620117,-2.030060052871704
1701713683577563400,0.2445634765625,-0.37279367446899414,-0.12309026718139648,-2.094996929168701
1701713683587158500,0.254158447265625,-0.941800594329834,-0.708899974822998,-2.275418758392334
1701713683596752600,0.263752685546875,1.1038718223571777,-0.260770320892334,-2.9795925617218018
1701713683606346200,0.27334619140625,4.001760482788086,1.5191893577575684,-3.983940601348877
1701713683615940400,0.2829404296875,4.460101127624512,1.641587734222412,-3.727278709411621
1701713683625535500,0.292535400390625,2.849733829498291,0.7212438583374023,-1.7639895677566528
1701713683635129600,0.302129638671875,1.9064860343933105,-0.3974952697753906,0.38538670539855957
1701713683644723000,0.311722900390625,1.8184776306152344,-0.9074087142944336,1.528948426246643
1701713683654317000,0.321317138671875,1.727043628692627,-0.8238234519958496,1.5441510677337646
1701713683663912200,0.330912109375,1.4388790130615234,-0.6521644592285156,1.0284597873687744
1701713683673506300,0.34050634765625,1.3969507217407227,-0.5082101821899414,0.19646704196929932
1701713683683099600,0.350099609375,1.0937352180480957,-0.29074764251708984,-0.34957385063171387
1701713683692694000,0.359694091796875,0.7515449523925781,-0.02558755874633789,-0.4085891842842102
1701713683702289200,0.3692890625,0.42520809173583984,0.007198333740234375,0.17320266366004944
1701713683711883300,0.37888330078125,0.16795778274536133,-0.16369056701660156,0.9594756364822388
1701713683721476600,0.3884765625,-0.16291284561157227,-0.47641611099243164,1.7014104127883911
1701713683731070700,0.39807080078125,-0.4802107810974121,-0.6266813278198242,1.5595747232437134
1701713683740665900,0.407665771484375,-0.622314453125,0.3876633644104004,-0.16018421947956085
1701713683750260000,0.417260009765625,-2.375643253326416,-0.8238506317138672,0.5963445901870728
1701713683759853300,0.426853271484375,-2.33493709564209,-1.0050854682922363,0.22721314430236816
1701713683769447700,0.43644775390625,-2.843143939971924,0.9210090637207031,-0.8028067946434021
1701713683779042600,0.44604248046875,-1.8292617797851562,1.9374356269836426,-1.269026279449463
1701713683788637000,0.455636962890625,-1.2217636108398438,1.5861430168151855,-0.9733014702796936
1701713683798230300,0.465230224609375,-0.47174501419067383,0.7687420845031738,-0.20999664068222046
1701713683807824400,0.474824462890625,0.7626094818115234,0.11663198471069336,0.34672802686691284
1701713683817419500,0.48441943359375,2.1987056732177734,-0.18420839309692383,0.5190668106079102
1701713683827013600,0.494013671875,3.396895408630371,-0.27193355560302734,0.5828766822814941
1701713683836607000,0.50360693359375,4.206122398376465,-0.5733556747436523,0.6201903223991394
1701713683846201300,0.513201416015625,4.618742942810059,-0.9503762722015381,0.52280592918396
1701713683855796200,0.522796142578125,4.538211822509766,-0.9716761112213135,0.10412754118442535
1701713683865390300,0.532390380859375,3.9066476821899414,-0.866626501083374,-0.2843881845474243
1701713683874984000,0.54198388671875,2.8313169479370117,-0.7752914428710938,-0.370807021856308
1701713683884578000,0.551578125,1.7925748825073242,-0.7194404602050781,-0.09273689985275269
1701713683894173200,0.561173095703125,0.6290817260742188,-0.669856071472168,0.1857062578201294
1701713683903767300,0.570767333984375,-0.5053396224975586,-0.4610323905944824,0.254338800907135
1701713683913360600,0.580360595703125,-1.353771686553955,-0.0610203742980957,0.10401980578899384
1701713683922954800,0.589954833984375,-1.8046412467956543,0.11778974533081055,0.015418514609336853
1701713683932550000,0.5995498046875,-2.0587539672851562,0.0714268684387207,-0.07936018705368042
1701713683942144000,0.60914404296875,-1.9826116561889648,0.02624988555908203,-0.16065645217895508
1701713683951737600,0.618737548828125,-1.817335605621338,0.015354156494140625,-0.2475644052028656
1701713683961331700,0.628331787109375,-1.425340175628662,0.0925741195678711,-0.30733221769332886
1701713683970926800,0.6379267578125,-0.9397363662719727,0.1474766731262207,-0.3742915987968445
1701713683980521000,0.64752099609375,-0.5621047019958496,0.12837457656860352,-0.553253173828125
1701713683990114300,0.6571142578125,0.013868331909179688,0.09775114059448242,-0.6285762786865234
1701713683999708400,0.66670849609375,0.6732978820800781,0.014948368072509766,-0.5917079448699951
1701713684009303600,0.676303466796875,1.122859001159668,-0.10601949691772461,-0.4815050959587097
1701713684018897700,0.685897705078125,1.359954833984375,-0.21655607223510742,-0.34013229608535767
1701713684028491000,0.695490966796875,1.3667850494384766,-0.27202463150024414,-0.10037790238857269
1701713684038085400,0.70508544921875,1.0843896865844727,-0.3041539192199707,0.1081404983997345
1701713684047680300,0.71468017578125,0.6888704299926758,-0.24536705017089844,0.06000800430774689
1701713684057274600,0.724274658203125,0.1621112823486328,-0.11082983016967773,-0.035745248198509216
1701713684066868000,0.733867919921875,-0.315460205078125,0.06289148330688477,-0.2452753633260727
1701713684076462000,0.743462158203125,-0.697300910949707,0.1676630973815918,-0.5090861320495605
1701713684086057200,0.75305712890625,-0.7520465850830078,0.14890336990356445,-0.5977760553359985
1701713684095651300,0.7626513671875,-0.7054018974304199,0.20514392852783203,-0.6727688312530518
1701713684105244700,0.77224462890625,-0.5291705131530762,0.09732627868652344,-0.5672659277915955
1701713684114839000,0.781839111328125,-0.09112071990966797,-0.05461454391479492,-0.4184068441390991
1701713684124434000,0.791433837890625,0.2771034240722656,-0.13346529006958008,-0.26812851428985596
1701713684134028000,0.801028076171875,0.6474390029907227,-0.3071475028991699,-0.06401413679122925
1701713684143621600,0.81062158203125,0.8560152053833008,-0.40676116943359375,0.14580339193344116
1701713684153215700,0.8202158203125,1.0495624542236328,-0.4671492576599121,0.29476282000541687
1701713684162811000,0.829810791015625,0.846928596496582,-0.46596384048461914,0.28957265615463257
1701713684172405000,0.839405029296875,0.5589876174926758,-0.39690732955932617,0.17991232872009277
1701713684181998300,0.848998291015625,0.3680448532104492,-0.39141225814819336,-0.1536637842655182
1701713684191592700,0.8585927734375,0.0185699462890625,-0.04731941223144531,-0.5983655452728271
1701713684201187600,0.8681875,-0.3147859573364258,-0.14339351654052734,-0.374846875667572
1701713684210781700,0.87778173828125,-0.3242464065551758,-0.35133981704711914,-0.2496507167816162
1701713684220375300,0.887375244140625,-0.07580280303955078,-0.18334484100341797,-0.14087346196174622
1701713684229969400,0.896969482421875,-0.03302955627441406,-0.17716121673583984,0.047929346561431885
1701713684239564300,0.906564208984375,-0.0941619873046875,-0.32099294662475586,-0.19296781718730927
1701713684249158700,0.91615869140625,-0.2800149917602539,-0.16708087921142578,-0.48262012004852295
1701713684258752000,0.925751953125,-0.2848854064941406,0.05812215805053711,-0.4277271032333374
1701713684268346000,0.93534619140625,-0.37125110626220703,-0.0007109642028808594,-0.28358885645866394
1701713684277941200,0.944941162109375,-0.3866758346557617,0.16841650009155273,0.09312546253204346
1701713684287535400,0.954535400390625,-0.31209850311279297,0.16362476348876953,0.3484671115875244
1701713684297128700,0.964128662109375,-0.27362918853759766,0.1255345344543457,0.49614375829696655
1701713684306723000,0.97372314453125,-0.19973182678222656,0.0399169921875,0.4254426956176758
1701713684316318000,0.98331787109375,-0.12640762329101562,0.01152944564819336,0.26453691720962524
1701713684325912000,0.992912109375,-0.15821075439453125,0.05668067932128906,0.20284628868103027
1701713684335505700,1.002505615234375,-0.1929759979248047,0.09730195999145508,0.24463039636611938
1701713684345099800,1.012099853515625,-0.17700481414794922,0.10082244873046875,0.4417402148246765
1701713684354695000,1.02169482421875,0.12958335876464844,0.0426630973815918,0.6997427940368652
1701713684364289000,1.0312890625,0.27723217010498047,0.16096019744873047,0.8575529456138611
1701713684373882400,1.04088232421875,0.40741920471191406,0.18386602401733398,0.8515331745147705
1701713684383476500,1.0504765625,0.43259143829345703,0.10801410675048828,0.7405138611793518
1701713684393071600,1.060071533203125,0.5768442153930664,0.09064340591430664,0.5877571702003479
1701713684402665700,1.069665771484375,0.7185792922973633,0.016748905181884766,0.5280218124389648
1701713684412259000,1.079259033203125,0.8157510757446289,-0.004899501800537109,0.554404079914093
1701713684421853400,1.088853515625,0.7904844284057617,-0.007674694061279297,0.5317054986953735
1701713684431448300,1.0984482421875,0.7411346435546875,-0.022336959838867188,0.517905592918396
1701713684441042700,1.108042724609375,0.7319326400756836,-0.022521018981933594,0.5374550819396973
1701713684450636000,1.117635986328125,0.6938934326171875,-0.0417790412902832,0.5513314604759216
1701713684460230100,1.127230224609375,0.6938247680664062,-0.054058074951171875,0.6140105128288269
1701713684469825300,1.1368251953125,0.6509180068969727,-0.10984373092651367,0.6781291365623474
1701713684479419400,1.14641943359375,0.5630502700805664,-0.16854619979858398,0.6499946713447571
1701713684489012700,1.1560126953125,0.3943319320678711,-0.18646574020385742,0.6392545104026794
1701713684498607000,1.165607177734375,0.13926982879638672,-0.1783456802368164,0.5977488160133362
1701713684508202000,1.175201904296875,-0.1244668960571289,-0.1897745132446289,0.5936497449874878
1701713684517796000,1.184796142578125,-0.2861061096191406,-0.19066810607910156,0.620538055896759
1701713684527389700,1.1943896484375,-0.36591625213623047,-0.15886306762695312,0.6395658850669861
1701713684536983800,1.20398388671875,-0.29787158966064453,-0.15431833267211914,0.6396740078926086
1701713684546579000,1.213578857421875,-0.20349407196044922,-0.14727401733398438,0.6662701964378357
1701713684556173000,1.223173095703125,-0.14871883392333984,-0.1437835693359375,0.6772300601005554
1701713684565766400,1.232766357421875,-0.09461116790771484,-0.12814950942993164,0.5726147294044495
1701713684575360500,1.242360595703125,0.035416603088378906,-0.17489290237426758,0.4253900349140167
1701713684584955600,1.25195556640625,0.12707996368408203,-0.16039800643920898,0.2986609637737274
1701713684594549800,1.2615498046875,0.1999063491821289,-0.16140317916870117,0.20785656571388245
1701713684604143000,1.27114306640625,0.39117431640625,-0.16515731811523438,0.15638479590415955
1701713684613737500,1.280737548828125,0.4799060821533203,-0.22833251953125,0.19536906480789185
1701713684623332400,1.290332275390625,0.4556427001953125,-0.24346351623535156,0.24247923493385315
1701713684632926700,1.2999267578125,0.2790260314941406,-0.21413040161132812,0.2323317527770996
1701713684642520000,1.30952001953125,0.055106163024902344,-0.19117307662963867,0.16410711407661438
1701713684652114200,1.3191142578125,-0.06772613525390625,-0.1826953887939453,-0.0019293129444122314
1701713684661709300,1.328709228515625,-0.18082523345947266,-0.14331531524658203,-0.1073799729347229
1701713684671303400,1.338303466796875,-0.14287567138671875,-0.13025140762329102,-0.17238840460777283
1701713684680896800,1.347896728515625,-0.03572273254394531,-0.1700143814086914,-0.2395288199186325
1701713684690491100,1.3574912109375,0.02276134490966797,-0.23747014999389648,-0.29387062788009644
1701713684700086000,1.3670859375,0.2037515640258789,-0.3193941116333008,-0.2277608960866928
1701713684709680000,1.37668017578125,0.35047245025634766,-0.3789658546447754,-0.09613120555877686
1701713684719273700,1.386273681640625,0.32965850830078125,-0.4242997169494629,0.04653012752532959
1701713684728867800,1.395867919921875,0.20038509368896484,-0.4082365036010742,-0.010300293564796448
1701713684738462700,1.405462646484375,0.0009927749633789062,-0.3770136833190918,-0.1797863095998764
1701713684748057000,1.41505712890625,-0.2284555435180664,-0.2913703918457031,-0.2900092303752899
1701713684757650400,1.424650390625,-0.39860010147094727,-0.23601150512695312,-0.2744291424751282
1701713684767244500,1.43424462890625,-0.5272164344787598,-0.17702054977416992,-0.2552835941314697
1701713684776839700,1.443839599609375,-0.6458592414855957,-0.15410566329956055,-0.3341471552848816
1701713684786433800,1.453433837890625,-0.7648119926452637,-0.1486978530883789,-0.46509096026420593
1701713684796027100,1.463027099609375,-0.8376731872558594,-0.1255483627319336,-0.6094079613685608
1701713684805621500,1.47262158203125,-0.7026801109313965,-0.19244813919067383,-0.5771623849868774
1701713684815216400,1.48221630859375,-0.5240640640258789,-0.23421239852905273,-0.4204334616661072
1701713684824810500,1.491810546875,-0.2081904411315918,-0.2433338165283203,-0.276204913854599
1701713684834404000,1.501404052734375,0.02378368377685547,-0.2594265937805176,-0.23735472559928894
1701713684843998200,1.510998291015625,0.0918569564819336,-0.27331972122192383,-0.30956971645355225
1701713684853593300,1.52059326171875,0.07499408721923828,-0.272188663482666,-0.3710986375808716
1701713684863187500,1.5301875,-0.058465003967285156,-0.263643741607666,-0.34601515531539917
1701713684872780800,1.53978076171875,-0.20674943923950195,-0.262481689453125,-0.25512704253196716
1701713684882375000,1.549375,-0.25380659103393555,-0.23926067352294922,-0.18094074726104736
1701713684891970000,1.558969970703125,-0.23836183547973633,-0.2916374206542969,-0.11044983565807343
1701713684901564200,1.568564208984375,-0.07932758331298828,-0.3962841033935547,-0.047891926020383835
1701713684911157800,1.57815771484375,0.056885719299316406,-0.4473533630371094,-0.08014177531003952
1701713684920751900,1.587751953125,0.111724853515625,-0.49152231216430664,-0.19887199997901917
1701713684930346800,1.5973466796875,0.18587589263916016,-0.5434846878051758,-0.23644818365573883
1701713684939940900,1.60694091796875,0.1554546356201172,-0.574549674987793,-0.21353477239608765
1701713684949534500,1.616534423828125,0.0972433090209961,-0.5682029724121094,-0.18859273195266724
1701713684959128600,1.626128662109375,-0.04876708984375,-0.5141162872314453,-0.2300870716571808
1701713684968723700,1.6357236328125,-0.1363048553466797,-0.44471025466918945,-0.29634517431259155
1701713684978317800,1.64531787109375,-0.1008901596069336,-0.35393571853637695,-0.26567089557647705
1701713684987911200,1.6549111328125,-0.014804840087890625,-0.31099700927734375,-0.17552749812602997
1701713684997505300,1.66450537109375,0.027345657348632812,-0.28036022186279297,-0.11382060497999191
1701713685007100400,1.674100341796875,0.0687551498413086,-0.2572169303894043,-0.1631125658750534
1701713685016694500,1.683694580078125,0.1002817153930664,-0.2583122253417969,-0.30199405550956726
1701713685026287900,1.693287841796875,0.20473194122314453,-0.26242733001708984,-0.3703084886074066
1701713685035882200,1.70288232421875,0.1952381134033203,-0.2252483367919922,-0.3673345744609833
1701713685045477000,1.71247705078125,0.1300811767578125,-0.13078546524047852,-0.3434795141220093
1701713685055071500,1.722071533203125,0.07075977325439453,-0.03553342819213867,-0.3133096396923065
1701713685064664800,1.731664794921875,-0.02331066131591797,0.04468870162963867,-0.2981494665145874
1701713685074259000,1.741259033203125,-0.11652565002441406,0.12700223922729492,-0.27350950241088867
1701713685083854000,1.75085400390625,-0.16909408569335938,0.2093205451965332,-0.16025793552398682
1701713685093448200,1.7604482421875,-0.10631752014160156,0.2609710693359375,0.021637439727783203
1701713685103041500,1.77004150390625,-0.07338523864746094,0.2984580993652344,0.04174588620662689
1701713685112635600,1.7796357421875,-0.03904247283935547,0.23233318328857422,-0.12280884385108948
1701713685122230800,1.789230712890625,0.07249927520751953,0.16484594345092773,-0.3173397183418274
1701713685131825000,1.798824951171875,0.1306629180908203,0.13338613510131836,-0.3836557865142822
1701713685141418200,1.808418212890625,0.11463546752929688,0.0910487174987793,-0.2940707206726074
1701713685151012600,1.8180126953125,0.05101966857910156,0.08823633193969727,-0.19850876927375793
1701713685160607500,1.827607421875,-0.003009796142578125,0.06798219680786133,-0.11114795506000519
1701713685170201900,1.837201904296875,-0.019403457641601562,0.08243656158447266,-0.15220554172992706
1701713685179795200,1.846795166015625,-0.04110908508300781,0.16160249710083008,-0.3136278986930847
1701713685189389300,1.856389404296875,-0.28022146224975586,0.0766453742980957,-0.19706718623638153
1701713685198984400,1.865984375,-0.40925168991088867,-0.010319709777832031,-0.11762650310993195
1701713685208578600,1.87557861328125,-0.4987154006958008,0.056774139404296875,-0.2265779674053192
1701713685218172000,1.885171875,-0.5633053779602051,0.030422210693359375,-0.35878098011016846
1701713685227766000,1.89476611328125,-0.596041202545166,-0.045928001403808594,-0.4461972117424011
1701713685237361200,1.904361083984375,-0.4646754264831543,-0.01290273666381836,-0.6894675493240356
1701713685246955300,1.913955322265625,-0.2014446258544922,-0.10721683502197266,-0.7741888165473938
1701713685256548600,1.923548583984375,0.044846534729003906,-0.1883702278137207,-0.8808908462524414
1701713685266143000,1.93314306640625,0.3837881088256836,-0.37136173248291016,-0.6825809478759766
1701713685275737900,1.94273779296875,0.49446582794189453,-0.2673788070678711,-0.5099356174468994
1701713685285332200,1.952332275390625,0.460113525390625,-0.1062631607055664,-0.38409724831581116
1701713685294925600,1.961925537109375,0.11902809143066406,0.010324954986572266,-0.38322770595550537
1701713685304519700,1.971519775390625,-0.31825733184814453,0.039139747619628906,-0.3751738667488098
1701713685314114800,1.98111474609375,-0.7343883514404297,0.08391237258911133,-0.41828131675720215
1701713685323709000,1.990708984375,-0.5981335639953613,0.12396574020385742,-0.41997650265693665
1701713685333302300,2.00030224609375,-0.24700260162353516,0.06781721115112305,-0.2859308123588562
1701713685342896400,2.009896484375,-0.017063140869140625,-0.05999612808227539,-0.0037711113691329956
1701713685352491500,2.019491455078125,0.08254146575927734,-0.08041954040527344,0.16164156794548035
1701713685362085600,2.029085693359375,0.2376699447631836,0.021024227142333984,0.12398189306259155
1701713685371679000,2.038678955078125,0.28978824615478516,0.0772085189819336,0.08607204258441925
1701713685381273300,2.0482734375,0.1839885711669922,0.10790872573852539,0.04573003202676773
1701713685390868200,2.0578681640625,0.18888568878173828,-0.08176994323730469,0.040830716490745544
1701713685400462600,2.067462646484375,0.4002208709716797,-0.19813776016235352,0.24644306302070618
1701713685410056000,2.077055908203125,0.5450382232666016,-0.10582351684570312,0.25229668617248535
1701713685419650000,2.086650146484375,0.555938720703125,-0.05051565170288086,0.24199455976486206
1701713685429245200,2.0962451171875,0.43619441986083984,0.09084081649780273,0.03895369917154312
1701713685438839300,2.10583935546875,0.4384937286376953,0.31471729278564453,-0.6142483353614807
1701713685448432600,2.1154326171875,0.018247604370117188,0.016617774963378906,-0.39864087104797363
1701713685458026800,2.12502685546875,0.09628963470458984,0.1415252685546875,-0.5991329550743103
1701713685467622000,2.134621826171875,0.08228492736816406,0.18204832077026367,-0.5600411295890808
1701713685477216000,2.144216064453125,0.18969345092773438,0.17018747329711914,-0.45294857025146484
1701713685486809300,2.153809326171875,0.34218502044677734,0.14023733139038086,-0.43304166197776794
1701713685496403700,2.16340380859375,0.5941648483276367,0.11649894714355469,-0.3603062033653259
1701713685505998600,2.17299853515625,0.796630859375,0.09224462509155273,-0.08273310959339142
1701713685515592700,2.1825927734375,0.8095817565917969,0.08775615692138672,0.0013144463300704956
1701713685525186300,2.192186279296875,0.7077207565307617,0.05979728698730469,-0.02205578237771988
1701713685534780400,2.201780517578125,0.6812944412231445,0.00840616226196289,-0.01951378583908081
1701713685544375600,2.21137548828125,0.6966342926025391,0.00984048843383789,0.04478055238723755
1701713685553969700,2.2209697265625,0.5915718078613281,0.0016841888427734375,0.0810120552778244
1701713685563563000,2.23056298828125,0.5880603790283203,-0.0369715690612793,0.1356019675731659
1701713685573157000,2.2401572265625,0.47803211212158203,-0.0053844451904296875,0.1319466084241867
1701713685582752300,2.249752197265625,0.38094329833984375,-0.00594329833984375,0.14073187112808228
1701713685592346400,2.259346435546875,0.3562450408935547,-0.00016927719116210938,0.15793947875499725
1701713685601939700,2.268939697265625,0.2820138931274414,0.038234710693359375,0.14742080867290497
1701713685611534000,2.2785341796875,0.23490428924560547,0.003946781158447266,0.12810802459716797
1701713685621129000,2.28812890625,0.16463184356689453,-0.026237964630126953,0.1338217854499817
1701713685630723000,2.29772314453125,0.025575637817382812,-0.03721761703491211,0.17434918880462646
1701713685640316700,2.307316650390625,-0.04417896270751953,-0.06868648529052734,0.19659662246704102
1701713685649910800,2.316910888671875,-0.13813114166259766,-0.09153079986572266,0.19399075210094452
1701713685659506000,2.326505859375,-0.17776107788085938,-0.09821701049804688,0.15562385320663452
1701713685669100000,2.33610009765625,-0.11769866943359375,-0.14423847198486328,0.16978809237480164
1701713685678693400,2.345693359375,-0.08221817016601562,-0.11760377883911133,0.27923280000686646
1701713685688287500,2.35528759765625,-0.04468250274658203,-0.1431126594543457,0.4680994153022766
1701713685697882600,2.364882568359375,0.026258468627929688,-0.254518985748291,0.5701836943626404
1701713685707476700,2.374476806640625,-0.0026025772094726562,-0.35936403274536133,0.504159152507782
1701713685717070000,2.384070068359375,0.03106403350830078,-0.40465641021728516,0.38083693385124207
1701713685726664200,2.393664306640625,0.02976512908935547,-0.46418190002441406,0.3161883056163788
1701713685736259300,2.40325927734375,0.015415191650390625,-0.5776124000549316,0.29794126749038696
1701713685745853400,2.412853515625,-0.018964767456054688,-0.8420357704162598,0.2730640769004822
1701713685755446800,2.42244677734375,0.19376087188720703,-1.1823983192443848,-0.05890059471130371
1701713685765041200,2.432041259765625,0.5979766845703125,-1.4854896068572998,-0.691531240940094
1701713685774636000,2.441635986328125,1.168844223022461,-1.8716557025909424,-1.31482994556427
1701713685784230100,2.451230224609375,1.6833000183105469,-2.318927526473999,-1.8063253164291382
1701713685793823700,2.46082373046875,2.1322526931762695,-2.8858819007873535,-1.8077006340026855
1701713685803417900,2.47041796875,2.6094255447387695,-3.3549063205718994,-1.357489824295044
1701713685813013000,2.480012939453125,2.929234504699707,-3.7526557445526123,-1.3580795526504517
1701713685822607000,2.489607177734375,2.66556453704834,-4.185113906860352,-1.5794708728790283
1701713685832200400,2.499200439453125,2.3212223052978516,-4.415414333343506,-2.1885697841644287
1701713685841794300,2.508794189453125,1.3953371047973633,-4.567506790161133,-2.7371208667755127
1701713685851389400,2.518389404296875,-0.16615867614746094,-5.17404317855835,-1.7168595790863037
1701713685860983600,2.527983642578125,-1.5390195846557617,-5.20031213760376,-0.5557835102081299
1701713685870577000,2.537576904296875,-2.2640252113342285,-4.4276509284973145,-0.5217893123626709
1701713685880171300,2.547171142578125,-2.6671228408813477,-3.94172739982605,-1.10990309715271
1701713685889766100,2.55676611328125,-3.342710256576538,-4.2064924240112305,-1.1383390426635742
1701713685899360300,2.5663603515625,-3.7171757221221924,-4.247122287750244,-1.1652092933654785
1701713685908953600,2.57595361328125,-3.808475971221924,-3.8213934898376465,-1.4219775199890137
1701713685918548000,2.5855478515625,-3.692845106124878,-3.1495890617370605,-1.9027886390686035
1701713685928142800,2.595142822265625,-3.130016803741455,-2.5190017223358154,-2.39003586769104
1701713685937737200,2.6047373046875,-2.722720146179199,-2.9059181213378906,-2.134981155395508
1701713685947330600,2.61433056640625,-2.3745083808898926,-3.446598529815674,-1.9554705619812012
1701713685956924700,2.623924560546875,-1.9036898612976074,-3.7055070400238037,-1.660325527191162
1701713685966519800,2.633519775390625,-1.429399013519287,-3.702727794647217,-1.4259366989135742
1701713685976114000,2.643114013671875,-0.9026963710784912,-3.4560625553131104,-1.6711230278015137
1701713685985707300,2.652707275390625,-0.32219505310058594,-3.0886058807373047,-2.1028213500976562
1701713685995301400,2.66230126953125,0.05469465255737305,-2.7537853717803955,-2.374523639678955
1701713686004896500,2.671896484375,0.14963150024414062,-2.6714186668395996,-2.1365747451782227
1701713686014490600,2.68149072265625,0.2261362075805664,-2.758636713027954,-1.738065242767334
1701713686024084000,2.691083984375,0.4890117645263672,-2.682231903076172,-1.0597405433654785
1701713686033678300,2.70067822265625,0.7683522701263428,-2.3631591796875,-0.3464984893798828
1701713686043273200,2.710273193359375,0.8980765342712402,-2.173435926437378,0.26226043701171875
1701713686052867300,2.719867431640625,0.9308724403381348,-2.0363411903381348,0.9017152786254883
1701713686062460700,2.729460693359375,0.8190722465515137,-1.7071385383605957,1.3020515441894531
1701713686072055000,2.739054931640625,0.5234854221343994,-1.5352591276168823,1.9644241333007812
1701713686081650000,2.74864990234375,0.1964435577392578,-1.2500877380371094,2.941854476928711
1701713686091244300,2.758244384765625,-0.32816553115844727,-0.9779309630393982,3.739788055419922
1701713686100837600,2.767837646484375,-0.8927350044250488,-0.8368777632713318,4.161863327026367
1701713686110431700,2.777431640625,-6.104486465454102,-3.009181022644043,9.912947654724121
1701713686120027000,2.78702685546875,-1.4000529050827026,2.9537458419799805,0.3991060256958008
1701713686129621000,2.79662109375,-1.5420783758163452,0.9742802381515503,2.062135696411133
1701713686139214300,2.80621435546875,-6.460301399230957,0.11329889297485352,4.397890090942383
1701713686148808400,2.815808349609375,-14.798118591308594,1.8935476541519165,6.054228782653809
1701713686158403600,2.825403564453125,-16.46185302734375,3.723611354827881,6.147564888000488
1701713686167997700,2.834997802734375,-13.24433708190918,4.920671463012695,3.2119884490966797
1701713686177591000,2.844591064453125,-6.390079021453857,2.282904624938965,16.64737319946289
1701713686187185400,2.854185302734375,-3.727562665939331,3.7776613235473633,19.088958740234375
1701713686196780300,2.8637802734375,-1.5494706630706787,3.00929856300354,10.191749572753906
1701713686206374400,2.87337451171875,0.3089156150817871,0.5060572624206543,0.6675739288330078
1701713686215968000,2.882968017578125,0.7682567834854126,-0.2764291763305664,-0.661961555480957
1701713686225562000,2.89256201171875,1.6868842840194702,-0.9940223693847656,-0.9769554138183594
1701713686235157000,2.902156982421875,2.809121608734131,-0.2711143493652344,-3.299405097961426
1701713686244751400,2.91175146484375,3.7427940368652344,1.335737705230713,-5.054476737976074
1701713686254344700,2.9213447265625,3.3149256706237793,1.0630927085876465,-5.993186950683594
1701713686263938800,2.930938720703125,1.2678866386413574,1.8227386474609375,-6.6305718421936035
1701713686273534000,2.940533935546875,-0.912469744682312,2.106546640396118,-5.287403106689453
1701713686283128000,2.950128173828125,-1.3007744550704956,2.275869131088257,-2.4945521354675293
1701713686292721400,2.959721435546875,-2.2105553150177,1.444765329360962,1.9629707336425781
1701713686302315500,2.9693154296875,7.413849830627441,-1.819474220275879,4.9367523193359375
1701713686311910700,2.97891064453125,-2.2424213886260986,2.2234044075012207,0.44158935546875
1701713686321504800,2.9885048828125,-4.192843914031982,1.708242416381836,0.2115473747253418
1701713686331098000,2.99809814453125,-3.1397790908813477,0.531883716583252,1.4548048973083496
1701713686340692500,3.0076923828125,-4.701042652130127,3.815730333328247,1.8195514678955078
1701713686350287400,3.017287353515625,3.827225685119629,-4.138599872589111,1.758450984954834
1701713686359881500,3.026881591796875,2.5585808753967285,2.022043228149414,-5.653027534484863
1701713686369475000,3.03647509765625,-5.093057632446289,4.3765668869018555,-1.7732725143432617
1701713686379069200,3.046069091796875,-4.513902187347412,2.8536643981933594,3.356085777282715
1701713686388664000,3.0556640625,0.5696207880973816,-1.4959025382995605,-2.0918068885803223
1701713686398258200,3.065258056640625,-0.21644377708435059,-6.2546305656433105,-2.7023017406463623
1701713686407851800,3.074851806640625,1.6270852088928223,-1.5303945541381836,8.116086959838867
1701713686417446000,3.08444580078125,2.7091712951660156,-1.1560559272766113,1.7466888427734375
1701713686427041000,3.094041015625,-2.1506099700927734,-1.0647788047790527,1.4136357307434082
1701713686436635100,3.10363525390625,-3.9729533195495605,-1.463301181793213,3.108858585357666
1701713686446228500,3.113228515625,-2.7389402389526367,-3.7470827102661133,3.3809661865234375
1701713686455822600,3.122822509765625,0.9788733124732971,-9.010517120361328,2.431924819946289
1701713686465417700,3.132417724609375,0.6833114624023438,-9.322023391723633,-0.38005495071411133
1701713686475011800,3.14201171875,0.3569102883338928,-7.950371265411377,-0.9135456085205078
1701713686484605200,3.151605224609375,0.1698330044746399,-5.083622932434082,-1.9332032203674316
1701713686494199600,3.161199462890625,-0.7113367319107056,-1.4082069396972656,-0.20501136779785156
1701713686503794400,3.17079443359375,-0.6242812871932983,-0.5666437149047852,-0.01750040054321289
1701713686513388500,3.180388427734375,-1.3348907232284546,6.379970550537109,-3.9660580158233643
1701713686522982000,3.18998193359375,-0.422826886177063,2.019409656524658,-0.028875350952148438
1701713686532576300,3.199576171875,0.21720415353775024,2.0205249786376953,0.08005905151367188
1701713686542171100,3.209171142578125,0.644656240940094,2.0461339950561523,-0.5271062850952148
1701713686551765500,3.218765625,0.6671987175941467,2.0608692169189453,0.003109455108642578
1701713686561358800,3.22835888671875,0.9506097435951233,0.3544750213623047,0.12366104125976562
1701713686570953000,3.237952880859375,1.025220274925232,-0.5335016250610352,-0.35941410064697266
1701713686580548000,3.247548095703125,0.5658031105995178,-1.1136293411254883,-1.5977535247802734
1701713686590142200,3.25714208984375,1.3191944360733032,-0.8979473114013672,-2.3479726314544678
1701713686599735600,3.266735595703125,-0.6354055404663086,-0.15990734100341797,-1.8266019821166992
1701713686609329700,3.27632958984375,-1.1509469747543335,-0.26453590393066406,-2.0137205123901367
1701713686618924800,3.2859248046875,-0.9867929220199585,-0.6736812591552734,-0.7049636840820312
1701713686628519000,3.295518798828125,-1.7588388919830322,-3.410922050476074,-0.7455041408538818
1701713686638112300,3.3051123046875,-0.2526785731315613,-5.949409484863281,4.814527988433838
1701713686647706600,3.31470654296875,-0.5808952450752258,0.5884151458740234,6.477989673614502
1701713686657301500,3.324301513671875,-0.7983443140983582,0.5572843551635742,-0.639631986618042
1701713686666895600,3.3338955078125,-0.13362038135528564,0.011246681213378906,-0.762448787689209
1701713686676489000,3.343489013671875,0.38837331533432007,-0.22332286834716797,-0.5786361694335938
1701713686686083300,3.353083251953125,0.33719825744628906,-0.18523502349853516,-0.44978952407836914
1701713686695678200,3.36267822265625,0.26772165298461914,-0.17029094696044922,-0.06150341033935547
1701713686705272300,3.372272216796875,-1.4904974699020386,4.587202548980713,-1.6909239292144775
1701713686714866000,3.381865966796875,0.14893662929534912,8.471267700195312,-3.2558584213256836
1701713686724460000,3.3914599609375,1.3287436962127686,3.6353931427001953,0.39925050735473633
1701713686734055200,3.40105517578125,0.4696158170700073,3.9936108589172363,-0.36209583282470703
1701713686743649300,3.410649169921875,0.3913801312446594,4.795283794403076,-1.9218833446502686
1701713686753242600,3.42024267578125,0.39975863695144653,4.8543596267700195,-2.5852274894714355
1701713686762836700,3.429836669921875,-0.23646408319473267,5.230559349060059,-2.649792194366455
1701713686772432000,3.439431884765625,-0.22018301486968994,5.359997749328613,-2.0366573333740234
1701713686782026000,3.44902587890625,-1.1504392623901367,4.185693264007568,-0.7817554473876953
1701713686791619300,3.458619384765625,-1.6017485857009888,2.5597853660583496,-0.5165245532989502
1701713686801213400,3.46821337890625,-1.8597702980041504,2.2917895317077637,-1.7353850603103638
1701713686810808600,3.47780859375,-1.7795898914337158,1.6754536628723145,-3.163649559020996
1701713686820402700,3.487402587890625,-1.6309174299240112,1.071059226989746,-2.7725236415863037
1701713686829996000,3.49699609375,0.754167914390564,-0.2207164764404297,-1.3799657821655273
1701713686839590400,3.50659033203125,1.307036280632019,-0.45146751403808594,-0.8421306610107422
1701713686849185300,3.516185302734375,0.24708139896392822,-4.245920181274414,0.8233761787414551
1701713686858779400,3.525779296875,-2.2262868881225586,-10.745193481445312,1.9648139476776123
1701713686868373000,3.535373046875,0.469434916973114,-17.16096305847168,4.1072468757629395
1701713686877967000,3.544967041015625,1.9229295253753662,-17.194854736328125,7.202252388000488
1701713686887562000,3.55456201171875,1.7591856718063354,-9.371886253356934,3.9346377849578857
1701713686897156400,3.56415625,0.7315296530723572,-1.7464923858642578,-0.22341430187225342
1701713686906749700,3.573749755859375,0.010293841361999512,-0.33680248260498047,-0.7844716310501099
1701713686916343800,3.58334375,0.03522801399230957,-0.1386404037475586,-0.5897269248962402
1701713686925939000,3.59293896484375,-0.31421101093292236,0.0037059783935546875,-0.40223801136016846
1701713686935533000,3.602532958984375,-0.33358335494995117,-0.06273841857910156,-0.38283491134643555
1701713686945126400,3.61212646484375,-0.3607456684112549,-0.012586593627929688,-0.1583094596862793
1701713686954720500,3.621720458984375,-0.061161160469055176,-0.18485641479492188,-0.13719189167022705
1701713686964315600,3.631315673828125,0.05186867713928223,-0.22064876556396484,-0.19975042343139648
1701713686973909800,3.64090966796875,-0.035660743713378906,-0.3807973861694336,-0.22778987884521484
1701713686983503000,3.650503173828125,-0.06068158149719238,-0.48834991455078125,-0.36755692958831787
1701713686993097500,3.660097412109375,-0.14221787452697754,-0.7967348098754883,-0.249428391456604
1701713687002692400,3.6696923828125,-0.0386584997177124,-0.9042825698852539,-0.5280570983886719
1701713687012286500,3.679286376953125,0.06582415103912354,-0.9691925048828125,-0.6630901098251343
1701713687021879800,3.6888798828125,0.24631673097610474,-1.0227594375610352,-0.833989143371582
1701713687031474200,3.69847412109375,0.6257483959197998,-0.979426383972168,-1.3928258419036865
1701713687041069000,3.708069091796875,-0.03111433982849121,-1.0572032928466797,-0.9343844652175903
1701713687050663200,3.7176630859375,0.39969509840011597,-0.9751691818237305,-0.308538556098938
1701713687060256800,3.7272568359375,0.18231213092803955,-1.1344661712646484,-1.01456880569458
1701713687069851000,3.736850830078125,0.48888564109802246,-0.6671991348266602,-0.9843685626983643
1701713687079446000,3.746446044921875,-0.009228706359863281,0.16070175170898438,-1.2747163772583008
1701713687089040100,3.7560400390625,-0.8530265092849731,1.1137065887451172,-1.0790767669677734
1701713687098633500,3.765633544921875,-1.1134527921676636,1.1467304229736328,-0.6229829788208008
1701713687108227600,3.7752275390625,0.35195082426071167,0.48761749267578125,-0.878975510597229
1701713687117822700,3.78482275390625,0.19260263442993164,-0.17900848388671875,-0.688091516494751
1701713687127416800,3.794416748046875,0.1292630434036255,-0.3233060836791992,-0.609642505645752
1701713687137010200,3.80401025390625,0.14285385608673096,-0.22141265869140625,-0.6201823949813843
1701713687146604500,3.8136044921875,0.26411813497543335,-0.4206514358520508,-0.8453543782234192
1701713687156199400,3.823199462890625,0.2416333556175232,-0.4473724365234375,-0.8690087795257568
1701713687165793500,3.83279345703125,0.16853511333465576,-0.4190950393676758,-0.8212348818778992
1701713687175387000,3.842386962890625,0.020578861236572266,-0.35520076751708984,-0.7653990983963013
1701713687184981200,3.851981201171875,-0.0684136152267456,-0.29405689239501953,-0.7186859846115112
1701713687194576100,3.861576171875,-0.09311461448669434,-0.24274063110351562,-0.7899854183197021
1701713687204170200,3.871170166015625,-0.09850573539733887,-0.1844329833984375,-0.7585064172744751
1701713687213763800,3.880763916015625,-0.14941108226776123,-0.09047317504882812,-0.6842963695526123
1701713687223358000,3.89035791015625,-0.15545165538787842,-0.05394458770751953,-0.6458725929260254
1701713687232953000,3.899953125,-0.2004014253616333,-0.0007686614990234375,-0.5171463489532471
1701713687242547200,3.909547119140625,-0.21005260944366455,0.009334564208984375,-0.38891422748565674
1701713687252140500,3.919140625,-0.22518408298492432,0.026701927185058594,-0.20350384712219238
1701713687261734700,3.928734619140625,-0.21229064464569092,0.029886245727539062,-0.05384373664855957
1701713687271329800,3.938329833984375,-0.21440935134887695,0.05002307891845703,0.1106269359588623
1701713687280924000,3.947923828125,-0.21715247631072998,0.07992744445800781,0.23504066467285156
1701713687290517200,3.957517333984375,-0.2637706995010376,0.12921428680419922,0.3508176803588867
1701713687300111400,3.967111328125,-0.2273634672164917,0.11651325225830078,0.5195510387420654
1701713687309706500,3.97670654296875,-0.26834118366241455,0.12320709228515625,0.6575440168380737
1701713687319300600,3.986300537109375,-0.2551001310348511,0.10621070861816406,0.7766003608703613
1701713687328894000,3.99589404296875,-0.2739076614379883,0.13247299194335938,0.8934959173202515
1701713687338488300,4.00548828125,-0.28422117233276367,0.1827688217163086,1.0009068250656128
1701713687348083200,4.015083251953125,-0.3172379732131958,0.2379903793334961,1.0823484659194946
1701713687357677300,4.02467724609375,-0.3517199754714966,0.29573535919189453,1.1591650247573853
1701713687367271000,4.03427099609375,-0.3950716257095337,0.3656187057495117,1.205302119255066
1701713687376865000,4.043864990234375,-0.40428805351257324,0.3926715850830078,1.2781047821044922
1701713687386460000,4.0534599609375,-0.39363038539886475,0.42473316192626953,1.320168375968933
1701713687396054000,4.063053955078125,-0.327284574508667,0.4235849380493164,1.3937444686889648
1701713687405647600,4.072647705078125,-0.26967108249664307,0.41559886932373047,1.4560257196426392
1701713687415241700,4.08224169921875,-0.23284947872161865,0.4127769470214844,1.4809528589248657
1701713687424836900,4.0918369140625,-0.1879589557647705,0.3720541000366211,1.5257457494735718
1701713687434431000,4.101430908203125,-0.13029146194458008,0.2839393615722656,1.537638545036316
1701713687444024300,4.1110244140625,-0.11228954792022705,0.2798309326171875,1.466356873512268
1701713687453618400,4.120618408203125,-0.09797632694244385,0.3045654296875,1.36219322681427
1701713687463213600,4.130213623046875,-0.060768723487854004,0.3269462585449219,1.2465574741363525
1701713687472807700,4.1398076171875,-0.038779616355895996,0.30870723724365234,1.150330662727356
1701713687482401000,4.149401123046875,-0.017977237701416016,0.22359657287597656,1.0585169792175293
1701713687491995400,4.158995361328125,0.016195297241210938,0.17437267303466797,0.925406813621521
1701713687501590300,4.16859033203125,0.025573313236236572,0.08922576904296875,0.7961313724517822
1701713687511184400,4.178184326171875,0.017964661121368408,0.046967506408691406,0.6419341564178467
1701713687520777700,4.18777783203125,0.07496070861816406,-0.03848743438720703,0.5012353658676147
1701713687530372000,4.1973720703125,0.12008267641067505,-0.1192941665649414,0.36197733879089355
1701713687539967000,4.206967041015625,0.13242757320404053,-0.18356800079345703,0.18359696865081787
1701713687549561000,4.21656103515625,0.1957073211669922,-0.24083328247070312,0.04535651206970215
1701713687559154700,4.22615478515625,0.23354732990264893,-0.3125591278076172,-0.08601558208465576
1701713687568748800,4.235748779296875,0.2561335563659668,-0.37244415283203125,-0.23183941841125488
1701713687578344000,4.245343994140625,0.3231218457221985,-0.38703250885009766,-0.3488847017288208
1701713687587938000,4.25493798828125,0.39817923307418823,-0.41132068634033203,-0.44678544998168945
1701713687597531400,4.264531494140625,0.48773306608200073,-0.4452066421508789,-0.5135866403579712
1701713687607125500,4.27412548828125,0.5176256895065308,-0.43851470947265625,-0.5828255414962769
1701713687616720600,4.283720703125,0.5116874575614929,-0.43431949615478516,-0.6664581298828125
1701713687626314800,4.293314697265625,0.4749705195426941,-0.44936656951904297,-0.7359050512313843
1701713687635908000,4.302908203125,0.4533343017101288,-0.4573211669921875,-0.8005249500274658
1701713687645502200,4.312502197265625,0.4489245116710663,-0.47727203369140625,-0.841123104095459
1701713687655097300,4.322097412109375,0.4186219573020935,-0.4852752685546875,-0.8982551693916321
1701713687664691500,4.33169140625,0.39610645174980164,-0.4789390563964844,-0.9597053527832031
1701713687674284800,4.341284912109375,0.37646353244781494,-0.45348548889160156,-0.9990581274032593
1701713687683879200,4.350879150390625,0.3502610921859741,-0.4423961639404297,-1.0473859310150146
1701713687693474000,4.36047412109375,0.29831933975219727,-0.41696929931640625,-1.090344786643982
1701713687703068200,4.370068115234375,0.2753586173057556,-0.3939390182495117,-1.0873425006866455
1701713687712661500,4.37966162109375,0.2432522177696228,-0.3757314682006836,-1.0625689029693604
1701713687722256000,4.389255859375,0.22826415300369263,-0.36234569549560547,-1.0137593746185303
1701713687731850800,4.398850830078125,0.2116270661354065,-0.36335086822509766,-0.9577430486679077
1701713687741444900,4.40844482421875,0.19104844331741333,-0.41222572326660156,-0.9021156430244446
1701713687751038500,4.41803857421875,0.19046464562416077,-0.4276275634765625,-0.8491259813308716
1701713687760632600,4.427632568359375,0.20015493035316467,-0.3690023422241211,-0.7938375473022461
1701713687770227700,4.437227783203125,0.2314199060201645,-0.3415536880493164,-0.7122365236282349
1701713687779821800,4.44682177734375,0.20787516236305237,-0.3021726608276367,-0.6495075225830078
1701713687789415200,4.456415283203125,0.167953759431839,-0.2652139663696289,-0.5816951990127563
1701713687799009300,4.46600927734375,0.12595334649085999,-0.24977397918701172,-0.49446868896484375
1701713687808604400,4.4756044921875,0.12033721804618835,-0.24627017974853516,-0.43574321269989014
1701713687818198500,4.485198486328125,0.1273350715637207,-0.24271774291992188,-0.374264121055603
1701713687827792000,4.4947919921875,0.12080231308937073,-0.25347042083740234,-0.3411848545074463
1701713687837386000,4.504385986328125,0.1077299416065216,-0.2760887145996094,-0.34120237827301025
1701713687846981000,4.513981201171875,0.10723859071731567,-0.30576610565185547,-0.35751545429229736
1701713687856575200,4.5235751953125,0.109922856092453,-0.3329172134399414,-0.40667033195495605
1701713687866168600,4.53316845703125,0.08481976389884949,-0.3384437561035156,-0.45276594161987305
1701713687875763000,4.542762939453125,0.05351093411445618,-0.3247642517089844,-0.495688796043396
1701713687885357800,4.55235791015625,0.03727659583091736,-0.3038797378540039,-0.4997364282608032
1701713687894952000,4.561951904296875,0.00025704503059387207,-0.2997112274169922,-0.49616384506225586
1701713687904545500,4.571545654296875,-0.012327909469604492,-0.29318714141845703,-0.47349798679351807
1701713687914139600,4.5811396484375,-0.005471765995025635,-0.2771644592285156,-0.44862425327301025
1701713687923734500,4.590734619140625,-0.02466750144958496,-0.27560901641845703,-0.4194917678833008
1701713687933328600,4.60032861328125,-0.00512048602104187,-0.2813692092895508,-0.3934983015060425
1701713687942922200,4.609922119140625,0.012411296367645264,-0.28795433044433594,-0.3633537292480469
1701713687952516400,4.619516357421875,0.04663974046707153,-0.29698848724365234,-0.3370603322982788
1701713687962111500,4.629111572265625,0.05771726369857788,-0.30138397216796875,-0.3239717483520508
1701713687971705600,4.63870556640625,0.08369046449661255,-0.30589962005615234,-0.34256792068481445
1701713687981299000,4.648298828125,0.10321581363677979,-0.31282711029052734,-0.363736629486084
1701713687990893000,4.65789306640625,0.14460088312625885,-0.3103752136230469,-0.35928356647491455
1701713688000488200,4.66748828125,0.14397084712982178,-0.2751178741455078,-0.3647359609603882
1701713688010082300,4.677082275390625,0.14880402386188507,-0.2593860626220703,-0.37287986278533936
1701713688019675600,4.686675537109375,0.12585803866386414,-0.25578880310058594,-0.3860398530960083
1701713688029270000,4.69627001953125,0.12990877032279968,-0.25707054138183594,-0.40649688243865967
1701713688038865000,4.705864990234375,0.11289247870445251,-0.26785850524902344,-0.43425893783569336
1701713688048459000,4.715458984375,0.11314499378204346,-0.2761993408203125,-0.48075318336486816
1701713688058052400,4.72505224609375,0.10668352246284485,-0.2939004898071289,-0.5315508842468262
1701713688067646700,4.734646728515625,0.15232330560684204,-0.27840328216552734,-0.584123969078064
1701713688077241600,4.74424169921875,0.18512877821922302,-0.23255538940429688,-0.6123107671737671
1701713688086835700,4.753835693359375,0.2051723301410675,-0.16390323638916016,-0.5834802389144897
1701713688096429300,4.76342919921875,0.24345992505550385,-0.22589683532714844,-0.6612592935562134
1701713688106023400,4.7730234375,0.23835313320159912,-0.2303304672241211,-0.7259165048599243
1701713688115618600,4.78261865234375,0.17917633056640625,-0.20635223388671875,-0.7819474935531616
1701713688125212700,4.792212646484375,0.22650860249996185,-0.20384979248046875,-0.8341648578643799
1701713688134806000,4.801805908203125,0.20443812012672424,-0.16596698760986328,-0.8073093891143799
1701713688144400100,4.811400146484375,0.037106841802597046,-0.16627883911132812,-0.8202400803565979
1701713688153995300,4.820995361328125,-0.01624751091003418,-0.16883182525634766,-0.860442042350769
1701713688163589400,4.83058935546875,0.023723602294921875,-0.17597293853759766,-0.8663764595985413
1701713688173182700,4.8401826171875,0.018930643796920776,-0.21827220916748047,-0.8318126201629639
1701713688182776800,4.84977685546875,0.008046150207519531,-0.26215267181396484,-0.9266203045845032
1701713688192372000,4.8593720703125,0.10159075260162354,-0.2722616195678711,-0.9485182166099548
1701713688201966000,4.868966064453125,0.17266950011253357,-0.21854400634765625,-0.8798777461051941
1701713688211559400,4.878559326171875,0.23046517372131348,-0.1821002960205078,-0.7976745367050171
1701713688221153500,4.888153564453125,0.27760279178619385,-0.14148998260498047,-0.7282484173774719
1701713688230748700,4.897748779296875,0.3118148446083069,-0.07555007934570312,-0.6311012506484985
1701713688240342800,4.9073427734375,0.342784583568573,-0.010558128356933594,-0.558212161064148
1701713688249936400,4.916936279296875,0.36342185735702515,-0.010088920593261719,-0.45992040634155273
1701713688259530500,4.926530517578125,0.33171701431274414,-0.04482460021972656,-0.4143465757369995
1701713688269125400,4.93612548828125,0.24411892890930176,-0.09772872924804688,-0.44421064853668213
1701713688278719500,4.945719482421875,0.22635313868522644,-0.1590890884399414,-0.4870862364768982
1701713688288313000,4.95531298828125,0.19737133383750916,-0.1911487579345703,-0.5265349745750427
1701713688297907200,4.9649072265625,0.15028396248817444,-0.18022441864013672,-0.5599353909492493
1701713688307502000,4.974502197265625,0.14035719633102417,-0.1717853546142578,-0.547223687171936
1701713688317096400,4.984096435546875,-0.010862410068511963,-0.16581249237060547,-0.5335953235626221
1701713688326689800,4.993689697265625,-0.07949310541152954,-0.1858062744140625,-0.4953361749649048
1701713688336284000,5.003283935546875,0.01991027593612671,-0.21248912811279297,-0.4374673366546631
1701713688345879000,5.012879150390625,0.1873263120651245,-0.2221689224243164,-0.4261678457260132
1701713688355473200,5.02247314453125,0.3725149929523468,-0.3684225082397461,-0.28113770484924316
1701713688365066500,5.03206640625,0.5479885935783386,-0.2957324981689453,-0.3716154098510742
1701713688374660900,5.041660888671875,0.788379967212677,0.004412651062011719,-0.4850653409957886
1701713688384255700,5.051255859375,0.6983120441436768,0.4390125274658203,-0.6691442728042603
1701713688393849900,5.060849853515625,0.5679635405540466,0.31334972381591797,-0.5263400673866272
1701713688403443200,5.070443115234375,0.1975482702255249,0.1756582260131836,-0.4536152482032776
1701713688413037600,5.08003759765625,0.643429160118103,0.080291748046875,-0.3401913046836853
1701713688422632400,5.089632568359375,0.8191733360290527,0.09958362579345703,-0.22492122650146484
1701713688432226600,5.0992265625,0.9122204184532166,-0.046408653259277344,-0.047892093658447266
1701713688441820200,5.108820068359375,0.8474639654159546,0.11845588684082031,-0.18108606338500977
1701713688451414300,5.118414306640625,0.7673340439796448,0.28980350494384766,-0.05568122863769531
1701713688461009200,5.128009033203125,0.6555308103561401,0.2743797302246094,0.02987039089202881
1701713688470603500,5.137603515625,0.44833141565322876,0.687774658203125,-0.30913394689559937
1701713688480196900,5.14719677734375,0.5356335043907166,0.8119058609008789,-0.31900662183761597
1701713688489791000,5.156791015625,0.6061734557151794,0.8752098083496094,-0.3305380940437317
1701713688499386000,5.16638623046875,0.761568546295166,0.6431331634521484,-0.1212964653968811
1701713688508980200,5.175980224609375,0.7055374979972839,0.46433353424072266,0.022465944290161133
1701713688518573600,5.185573486328125,0.825057327747345,0.12826061248779297,0.333469033241272
1701713688528167700,5.195167724609375,0.8266223073005676,-0.17888545989990234,0.5491857528686523
1701713688537762800,5.2047626953125,0.8832281827926636,-0.5117597579956055,0.8073410987854004
1701713688547357000,5.21435693359375,0.8706294894218445,-0.4034576416015625,0.49375343322753906
1701713688556950300,5.2239501953125,0.8710545897483826,-0.181488037109375,0.4121708869934082
1701713688566544400,5.23354443359375,0.7581508159637451,-0.1397724151611328,0.4412146806716919
1701713688576139500,5.243139404296875,0.5692709684371948,-0.03746986389160156,0.30469024181365967
1701713688585733600,5.252733642578125,0.4720308184623718,0.15273571014404297,0.16382169723510742
1701713688595327000,5.262326904296875,0.4164755344390869,0.34462833404541016,-0.01670384407043457
1701713688604921300,5.27192138671875,0.3106045126914978,0.5475273132324219,-0.1475353240966797
1701713688614516200,5.28151611328125,0.2347886711359024,0.59869384765625,-0.20493483543395996
1701713688624110300,5.2911103515625,0.3624710440635681,0.7031106948852539,-0.280078649520874
1701713688633704000,5.300703857421875,0.5920599699020386,0.5866870880126953,-0.2328510880470276
1701713688643298000,5.310298095703125,0.5583174228668213,0.4272346496582031,-0.12277024984359741
1701713688652893000,5.319892822265625,0.5425203442573547,0.2818470001220703,0.15360873937606812
1701713688662487300,5.3294873046875,0.4848323166370392,-0.08316802978515625,0.5990417003631592
1701713688672080600,5.33908056640625,0.6464568376541138,-0.5820465087890625,1.1396158933639526
1701713688681674800,5.3486748046875,0.4498816728591919,-0.43778419494628906,1.101076602935791
1701713688691270000,5.358269775390625,0.4414253830909729,-0.2755270004272461,1.336747646331787
1701713688700864000,5.367864013671875,0.3674848973751068,-0.12620925903320312,1.4825327396392822
1701713688710457300,5.377457275390625,0.25038033723831177,0.06307411193847656,1.5105972290039062
1701713688720051500,5.387051513671875,0.08995303511619568,0.2297372817993164,1.4609366655349731
1701713688729646600,5.396646484375,0.18189741671085358,0.3739280700683594,1.351476788520813
1701713688739240700,5.40624072265625,0.18573111295700073,0.579463005065918,1.1265312433242798
1701713688748834000,5.415833984375,0.23629766702651978,0.8895044326782227,0.853136420249939
1701713688758428400,5.425428466796875,0.273551881313324,1.0340909957885742,0.6350131034851074
1701713688768023300,5.435023193359375,0.22037579119205475,1.0853185653686523,0.352634072303772
1701713688777617400,5.444617431640625,0.35790151357650757,1.1221790313720703,0.2516578435897827
1701713688787210800,5.454210693359375,0.3348906338214874,1.1326789855957031,0.15910875797271729
1701713688796805000,5.46380517578125,0.0648515596985817,1.1981744766235352,0.049268484115600586
1701713688806400000,5.47339990234375,-0.1331261843442917,1.1681585311889648,-0.12286794185638428
1701713688815994000,5.482994140625,-0.22252586483955383,1.1839313507080078,-0.3038288354873657
1701713688825587700,5.492587646484375,-0.3442361652851105,1.3219280242919922,-0.44286108016967773
1701713688835181800,5.502181884765625,-0.4291340708732605,1.1467838287353516,-0.32772672176361084
1701713688844777000,5.51177685546875,-0.567169189453125,0.642115592956543,-0.12406861782073975
1701713688854371000,5.52137109375,-0.6213663816452026,0.4464235305786133,-0.044309258460998535
1701713688863964400,5.53096435546875,-0.7664180397987366,0.20565223693847656,-0.051354408264160156
1701713688873558500,5.54055859375,-0.8040434718132019,-0.06557083129882812,-0.08422887325286865
1701713688883153700,5.550153564453125,-0.777540385723114,-0.14731121063232422,-0.09430825710296631
1701713688892747800,5.559747802734375,-0.5961872935295105,-0.19033241271972656,-0.08803164958953857
1701713688902341000,5.569341064453125,-0.5230411291122437,-0.020193099975585938,-0.2984582185745239
1701713688911935200,5.578935302734375,-0.6829419136047363,0.14556026458740234,-0.725967526435852
1701713688921530400,5.5885302734375,-0.7167037129402161,0.4124422073364258,-1.1244208812713623
1701713688931124500,5.59812451171875,-1.5292671918869019,1.287419319152832,-1.8498767614364624
1701713688940717800,5.6077177734375,-1.2283332347869873,2.284130573272705,-1.9225255250930786
1701713688950312200,5.617312255859375,-0.9044492244720459,2.5944433212280273,-1.7553706169128418
1701713688959907000,5.626906982421875,-2.279935121536255,2.0190134048461914,-2.060025215148926
1701713688969501200,5.636501220703125,-2.0546607971191406,0.8073492050170898,-1.5407472848892212
1701713688979094500,5.646094482421875,-2.2916932106018066,-0.12257194519042969,-1.2170560359954834
1701713688988689000,5.65568896484375,-1.658373236656189,-0.5809593200683594,-0.6921041011810303
1701713688998283800,5.66528369140625,-1.0719282627105713,-0.9842262268066406,-0.7440750598907471
1701713689007878000,5.6748779296875,-0.1671006679534912,-1.2248868942260742,-0.6488742828369141
1701713689017471500,5.684471435546875,-0.8048790693283081,-1.3280668258666992,0.04372227191925049
1701713689027065600,5.694065673828125,0.8885652422904968,-1.1523780822753906,0.08685171604156494
1701713689036660700,5.70366064453125,-0.47412896156311035,-0.03374195098876953,-0.2529916763305664
1701713689046254800,5.7132548828125,-0.45928794145584106,0.2178182601928711,0.17128479480743408
1701713689055848200,5.72284814453125,-0.8824295997619629,0.2108621597290039,0.3737754821777344
1701713689065442300,5.7324423828125,-0.600182831287384,1.9611725807189941,0.9536377191543579
1701713689075037400,5.742037353515625,-0.9321774840354919,2.455122947692871,1.3900468349456787
1701713689084631600,5.751631591796875,-1.3874517679214478,1.7876148223876953,2.0805461406707764
1701713689094225000,5.761224853515625,-1.2060081958770752,0.821925163269043,3.24605655670166
1701713689103819000,5.770819091796875,-1.2289621829986572,0.10736560821533203,3.233444929122925
1701713689113414100,5.7804140625,-0.8751081824302673,-0.20672225952148438,3.429447889328003
1701713689123008300,5.79000830078125,-0.3482964038848877,-0.34100914001464844,3.239335536956787
1701713689132601600,5.7996015625,-0.4539833068847656,1.207296371459961,2.8079326152801514
1701713689142196000,5.809196044921875,-0.7668242454528809,0.7116537094116211,2.3504323959350586
1701713689151790800,5.818790771484375,-0.9853322505950928,-1.0346202850341797,2.0955119132995605
1701713689161385000,5.828385009765625,-1.1383013725280762,-2.0153331756591797,2.1387178897857666
1701713689170978600,5.837978515625,-1.20704185962677,-2.8437442779541016,1.976212978363037
1701713689180572700,5.84757275390625,-1.156854271888733,-2.8127031326293945,1.730565071105957
1701713689190167600,5.85716748046875,-1.260232925415039,-2.776723861694336,1.5320827960968018
1701713689199761700,5.86676171875,-1.356298565864563,-2.387451171875,1.504479169845581
1701713689209355300,5.876355224609375,-1.379018783569336,-2.5014514923095703,1.6422951221466064
1701713689218949400,5.885949462890625,-1.243774175643921,-2.5082626342773438,1.7049293518066406
1701713689228544500,5.89554443359375,-0.9460494518280029,-2.254362106323242,1.8329792022705078
1701713689238138600,5.905138671875,-0.7631192207336426,-2.048060417175293,1.9489257335662842
1701713689247732000,5.91473193359375,-0.7296116352081299,-1.9971685409545898,2.070751905441284
1701713689257326000,5.924326171875,-0.7080914974212646,-1.6350831985473633,1.9573404788970947
1701713689266921200,5.933921142578125,-0.821143388748169,-1.4859552383422852,1.993715524673462
1701713689276515300,5.943515380859375,-1.0962674617767334,-1.4645299911499023,2.0952095985412598
1701713689286108700,5.953108642578125,-1.2725212574005127,-1.5021324157714844,2.1282060146331787
1701713689295703000,5.962703125,-1.3514366149902344,-1.4915037155151367,2.100693941116333
1701713689305298000,5.9722978515625,-1.3189475536346436,-1.4827919006347656,1.9588115215301514
1701713689314892000,5.98189208984375,-1.2178568840026855,-1.4114351272583008,1.744563341140747
1701713689324485400,5.9914853515625,-0.9951248168945312,-1.171661376953125,1.5282483100891113
1701713689334079700,6.001079833984375,-0.8837788105010986,-0.9711523056030273,1.350832223892212
1701713689343674600,6.010674560546875,-0.5915231704711914,-0.6608180999755859,1.0718035697937012
1701713689353268700,6.020268798828125,-0.4740409851074219,-0.3739805221557617,0.8749613761901855
1701713689362862300,6.0298623046875,-0.40375494956970215,0.0028257369995117188,0.6506452560424805
1701713689372456400,6.03945654296875,-0.1071929931640625,0.34914398193359375,0.3429718017578125
1701713689382051300,6.04905126953125,0.07782530784606934,0.48156070709228516,0.4484829902648926
1701713689391645700,6.058645751953125,0.2105846405029297,0.6304731369018555,0.4167346954345703
1701713689401239000,6.068239013671875,0.34377217292785645,0.9401164054870605,0.06735849380493164
1701713689410833200,6.077833251953125,0.5341293811798096,1.0966205596923828,-0.3920884132385254
1701713689420428300,6.08742822265625,0.49196505546569824,1.1509976387023926,-0.6135916709899902
1701713689430022400,6.0970224609375,0.5598053932189941,1.1450109481811523,-0.9907515048980713
1701713689439615700,6.10661572265625,0.16939163208007812,1.0840582847595215,-0.7770261764526367
1701713689449209900,6.1162099609375,0.034903526306152344,1.0774307250976562,-1.0942425727844238
1701713689458805000,6.125804931640625,0.028747081756591797,0.9363541603088379,-1.2276415824890137
1701713689468399000,6.135399169921875,-0.043181419372558594,0.7531986236572266,-1.1106154918670654
1701713689477992400,6.144992431640625,-0.14329099655151367,0.5938820838928223,-0.9634947776794434
1701713689487586600,6.154586669921875,-0.2759132385253906,0.4638538360595703,-0.6953864097595215
1701713689497181700,6.164181640625,-0.36434221267700195,0.2186594009399414,-0.3748598098754883
1701713689506775800,6.17377587890625,-0.35428905487060547,0.02796792984008789,-0.16749811172485352
1701713689516369200,6.183369140625,-0.25342845916748047,-0.05734825134277344,-0.17948055267333984
1701713689525963500,6.192963623046875,-0.09527969360351562,-0.16579246520996094,-0.21330690383911133
1701713689535558400,6.202558349609375,-0.0321497917175293,-0.19667625427246094,-0.3634066581726074
1701713689545152500,6.212152587890625,-0.044320106506347656,-0.21980810165405273,-0.5030856132507324
1701713689554746000,6.22174609375,-0.08428049087524414,-0.2548389434814453,-0.5666236877441406
1701713689564340200,6.23134033203125,0.05112266540527344,-0.2459239959716797,-0.5672340393066406
1701713689573935000,6.24093505859375,0.1002192497253418,-0.23104286193847656,-0.510286808013916
1701713689583529200,6.250529296875,0.04948282241821289,-0.22488164901733398,-0.3599538803100586
1701713689593122800,6.260122802734375,0.2250819206237793,-0.2193441390991211,-0.26462888717651367
1701713689602717000,6.269717041015625,0.34116601943969727,-0.14744138717651367,-0.3016214370727539
1701713689612312000,6.27931201171875,-0.6169562339782715,-1.342268466949463,-0.8586845397949219
1701713689621906200,6.28890625,1.5874133110046387,-0.14797306060791016,0.246124267578125
1701713689631499500,6.29849951171875,0.20844268798828125,0.4906940460205078,-0.020122051239013672
1701713689641093600,6.30809375,0.31331539154052734,0.4555034637451172,0.017504215240478516
1701713689650688800,6.317688720703125,0.29813051223754883,0.3427562713623047,0.2218332290649414
1701713689660283000,6.327282958984375,0.01783275604248047,0.04466438293457031,0.35083770751953125
1701713689669876200,6.336876220703125,0.14577293395996094,0.20288753509521484,0.49848079681396484
1701713689679470600,6.346470703125,-0.29290103912353516,0.14489221572875977,0.22533512115478516
1701713689689065500,6.3560654296875,-0.16799211502075195,0.20043373107910156,0.18787479400634766
1701713689698659600,6.36565966796875,-0.5969209671020508,0.029828548431396484,0.11390495300292969
1701713689708253000,6.3752529296875,-0.8850207328796387,-0.26758337020874023,-0.12900876998901367
1701713689717847300,6.384847412109375,-0.6717495918273926,-0.41649389266967773,-0.2794170379638672
1701713689727442200,6.394442138671875,-0.7163233757019043,-0.43889808654785156,-0.4198141098022461
1701713689737036300,6.404036376953125,-0.611384391784668,-0.5506210327148438,-0.40209197998046875
1701713689746630000,6.4136298828125,-0.5338840484619141,-0.5871710777282715,-0.3106980323791504
1701713689756224000,6.42322412109375,-0.3230280876159668,-0.04147529602050781,-0.2585334777832031
1701713689765819100,6.432819091796875,-0.2843289375305176,0.13149642944335938,-0.028401851654052734
1701713689775413200,6.442413330078125,-0.21285724639892578,-0.4138965606689453,0.13689088821411133
1701713689785006600,6.452006591796875,-0.20241975784301758,0.6104292869567871,-0.07738542556762695
1701713689794600700,6.4616005859375,-0.24156665802001953,0.846217155456543,0.08405923843383789
1701713689804195800,6.47119580078125,-0.28024721145629883,1.3114237785339355,0.09588766098022461
1701713689813790000,6.4807900390625,-0.24860000610351562,1.0451197624206543,0.19039154052734375
1701713689823383300,6.49038330078125,-0.1950545310974121,0.8099279403686523,0.1031184196472168
1701713689832977400,6.499977294921875,-0.28628015518188477,-1.043302059173584,0.2966437339782715
1701713689842572500,6.509572509765625,-0.14815187454223633,0.3551011085510254,-0.26362133026123047
1701713689852166700,6.519166748046875,0.0635232925415039,1.3162026405334473,0.15761995315551758
1701713689861760000,6.528760009765625,0.15701913833618164,1.1654753684997559,0.399289608001709
1701713689871354000,6.53835400390625,0.06545734405517578,0.8092832565307617,0.4933781623840332
1701713689880949200,6.54794921875,-0.1208028793334961,1.027517318725586,0.34723711013793945
1701713689890543400,6.55754345703125,-0.20535993576049805,1.3320260047912598,0.4015955924987793
1701713689900137000,6.567136962890625,-0.40433549880981445,1.305680274963379,0.5149164199829102
1701713689909731000,6.57673095703125,-0.6977028846740723,0.9664926528930664,0.5614566802978516
1701713689919326000,6.586325927734375,-0.8248281478881836,1.8944807052612305,0.5756387710571289
1701713689928920000,6.595920166015625,-0.9010529518127441,2.7142443656921387,0.6033797264099121
1701713689938513700,6.605513671875,-1.1505241394042969,1.6360697746276855,0.8373465538024902
1701713689948107800,6.615107666015625,-1.1900749206542969,1.1218466758728027,0.7545051574707031
1701713689957702700,6.62470263671875,-1.1279468536376953,0.892336368560791,0.5935935974121094
1701713689967297000,6.634297119140625,-1.0513238906860352,0.6895461082458496,0.3571009635925293
1701713689976890400,6.643890380859375,-1.1236224174499512,0.5514512062072754,0.12070178985595703
1701713689986484500,6.653484375,-0.7640295028686523,0.683807373046875,0.004578590393066406
1701713689996079600,6.66307958984375,-0.7460174560546875,0.9209437370300293,-0.20990324020385742
1701713690005673700,6.672673828125,-0.7268295288085938,1.196049690246582,-0.23015546798706055
1701713690015267000,6.68226708984375,-0.33568239212036133,1.3076114654541016,-0.13518905639648438
1701713690024861400,6.691861328125,-0.5136904716491699,0.5153894424438477,0.6221685409545898
1701713690034456300,6.701456298828125,0.43506383895874023,2.2994463443756104,-0.6025705337524414
1701713690044050400,6.711050537109375,0.28041505813598633,1.8119256496429443,-0.29859018325805664
1701713690053643800,6.720643798828125,0.04489755630493164,1.4866089820861816,0.022936344146728516
1701713690063238100,6.730238037109375,0.18589210510253906,1.375612735748291,0.1861734390258789
1701713690072833000,6.7398330078125,0.04461050033569336,1.2518463134765625,0.20009136199951172
1701713690082427100,6.74942724609375,0.002563953399658203,1.0486583709716797,0.19983816146850586
1701713690092020500,6.7590205078125,-0.03196859359741211,0.7688102722167969,0.2658653259277344
1701713690101614800,6.76861474609375,0.050028324127197266,0.46323299407958984,0.409454345703125
1701713690111209700,6.778209716796875,0.2250657081604004,0.22916889190673828,0.4675602912902832
1701713690120804000,6.78780419921875,0.3640251159667969,-0.012730598449707031,0.37039756774902344
1701713690130397400,6.7973974609375,0.4008827209472656,-0.029555320739746094,0.2753114700317383
1701713690139991600,6.806991455078125,0.3576235771179199,0.2319483757019043,0.3702521324157715
1701713690149586700,6.816586669921875,0.2104787826538086,0.6076974868774414,0.525266170501709
1701713690159180800,6.826180908203125,-0.07699394226074219,0.9905445575714111,0.6379456520080566
1701713690168774100,6.835774169921875,-0.29712915420532227,1.0933165550231934,0.7819056510925293
1701713690178368300,6.8453681640625,-0.4487943649291992,0.9133286476135254,0.7760653495788574
1701713690187963400,6.85496337890625,-0.4133944511413574,0.5525827407836914,0.6257472038269043
1701713690197557500,6.8645576171875,-0.26184844970703125,0.07364082336425781,0.3034200668334961
1701713690207150800,6.87415087890625,-0.1259160041809082,-0.3338899612426758,-0.17853593826293945
1701713690216745000,6.883744873046875,0.02888965606689453,-0.6203804016113281,-0.6092867851257324
1701713690226340000,6.893340087890625,0.12062501907348633,-0.7546887397766113,-0.9702396392822266
1701713690235934200,6.902934326171875,0.15111589431762695,-0.7520394325256348,-1.2269163131713867
1701713690245527600,6.912527587890625,0.12055826187133789,-0.6834650039672852,-1.2995285987854004
1701713690255122000,6.922121826171875,0.051306724548339844,-0.5989398956298828,-1.187138557434082
1701713690264716800,6.931716796875,-0.11038017272949219,-0.4766397476196289,-0.9552750587463379
1701713690274311000,6.941310791015625,-0.28183555603027344,-0.26297998428344727,-0.6661086082458496
1701713690283904500,6.950904541015625,-0.4273042678833008,-0.060976505279541016,-0.4107537269592285
1701713690293498600,6.96049853515625,-0.45678186416625977,0.09138679504394531,-0.19927978515625
1701713690303093500,6.970093505859375,-0.41182374954223633,0.2427353858947754,-0.024509429931640625
1701713690312687900,6.97968798828125,-0.35241222381591797,0.3437681198120117,0.0068264007568359375
1701713690322281200,6.98928125,-0.3684206008911133,0.3807358741760254,-0.012763023376464844
1701713690331875300,6.998875244140625,-0.33533191680908203,0.39282894134521484,-0.07507514953613281
1701713690341470500,7.008470458984375,-0.3105306625366211,0.37538862228393555,-0.10584449768066406
1701713690351064600,7.018064697265625,-0.29121971130371094,0.35686349868774414,-0.13123321533203125
1701713690360658000,7.027657958984375,-0.27701711654663086,0.32249927520751953,-0.13689708709716797
1701713690370252000,7.037251953125,-0.2485642433166504,0.2598452568054199,-0.11595439910888672
1701713690379847200,7.04684716796875,-0.1556377410888672,0.2449040412902832,-0.09507179260253906
1701713690389441300,7.056441162109375,-0.07700967788696289,0.28458452224731445,-0.04789447784423828
1701713690399034600,7.06603466796875,0.02310037612915039,0.3689889907836914,0.008510589599609375
1701713690408629000,7.07562890625,0.08757829666137695,0.42589569091796875,0.08588695526123047
1701713690418223900,7.085223876953125,0.13755464553833008,0.5054130554199219,0.17879629135131836
1701713690427818000,7.09481787109375,0.1993393898010254,0.5428829193115234,0.22736787796020508
1701713690437411300,7.104411376953125,0.21571731567382812,0.5386052131652832,0.1985912322998047
1701713690447005700,7.114005615234375,0.24172067642211914,0.46886205673217773,0.18583250045776367
1701713690456600600,7.1236005859375,0.2509951591491699,0.40580129623413086,0.12721490859985352
1701713690466194700,7.133194580078125,0.26275157928466797,0.3399772644042969,0.08751726150512695
1701713690475788300,7.142788330078125,0.25278520584106445,0.29331302642822266,0.0548090934753418
1701713690485382400,7.15238232421875,0.278012752532959,0.2757987976074219,0.03144407272338867
1701713690494977500,7.1619775390625,0.3070411682128906,0.24717950820922852,0.019918441772460938
1701713690504571600,7.171571533203125,0.292356014251709,0.2074756622314453,0.0013794898986816406
1701713690514165000,7.1811650390625,0.260650634765625,0.1331477165222168,-0.05215120315551758
1701713690523759000,7.190759033203125,0.1956920623779297,0.06724262237548828,-0.12102031707763672
1701713690533354200,7.200354248046875,0.10252094268798828,0.0024743080139160156,-0.17880916595458984
1701713690542948400,7.2099482421875,0.03135108947753906,-0.013288497924804688,-0.22543096542358398
1701713690552541700,7.219541748046875,0.006392955780029297,-0.06184244155883789,-0.22036457061767578
1701713690562135800,7.2291357421875,-0.039403438568115234,-0.07943439483642578,-0.17177724838256836
1701713690571731000,7.23873095703125,-0.1137247085571289,-0.09385824203491211,-0.05798673629760742
1701713690581325000,7.248324951171875,-0.36162710189819336,-0.9560041427612305,0.5505080223083496
1701713690590918400,7.25791845703125,-0.21454477310180664,0.6270942687988281,-0.49445343017578125
1701713690600512800,7.2675126953125,-0.16330718994140625,0.14343595504760742,-0.13911056518554688
1701713690610107600,7.277107666015625,-0.27658939361572266,-0.001415252685546875,0.08052968978881836
1701713690619701800,7.28670166015625,-0.3607211112976074,0.031291961669921875,0.1020965576171875
1701713690629295000,7.296295166015625,-0.3632330894470215,0.05298805236816406,0.04364299774169922
1701713690638889500,7.305889404296875,-0.33409595489501953,0.037644386291503906,-0.031917572021484375
1701713690648484400,7.315484375,-0.28592634201049805,0.016376972198486328,-0.05658102035522461
1701713690658078700,7.32507861328125,-0.25687360763549805,0.02558755874633789,-0.08076095581054688
1701713690667672000,7.334672119140625,-0.25158119201660156,0.06973028182983398,-0.09976768493652344
1701713690677266200,7.34426611328125,-0.24106693267822266,0.15271234512329102,-0.1370992660522461
1701713690686861300,7.353861328125,-0.20652294158935547,0.17507457733154297,-0.09814596176147461
1701713690696455400,7.363455322265625,-0.11278963088989258,0.16857290267944336,-0.1391458511352539
1701713690706048800,7.373048828125,-0.05992555618286133,0.20667648315429688,-0.16950559616088867
1701713690715643000,7.382642822265625,-0.026575088500976562,0.2086772918701172,-0.1498551368713379
1701713690725238000,7.392238037109375,0.044277191162109375,0.15386343002319336,-0.1680607795715332
1701713690734832000,7.40183203125,0.1048593521118164,0.13034915924072266,-0.18582725524902344
1701713690744425500,7.411425537109375,0.12035751342773438,0.06900405883789062,-0.20786666870117188
1701713690754019600,7.42101953125,0.13657093048095703,0.03388690948486328,-0.1915268898010254
1701713690763614700,7.43061474609375,0.17461347579956055,-0.006232261657714844,-0.12358903884887695
1701713690773208800,7.440208740234375,0.20294857025146484,-0.006714344024658203,-0.03868293762207031
1701713690782802200,7.44980224609375,0.22173309326171875,0.0034151077270507812,0.0039234161376953125
1701713690792396500,7.459396484375,0.23353958129882812,-0.015909194946289062,-0.004280567169189453
1701713690801991400,7.468991455078125,0.21741628646850586,-0.0593562126159668,-0.043343544006347656
1701713690811585500,7.47858544921875,0.2091360092163086,-0.10043525695800781,-0.10548686981201172
1701713690821179100,7.48817919921875,0.1712322235107422,-0.11834192276000977,-0.13147306442260742
1701713690830773200,7.497773193359375,0.11820602416992188,-0.10888910293579102,-0.12452936172485352
1701713690840368000,7.5073681640625,0.0718231201171875,-0.08928918838500977,-0.06865882873535156
1701713690849962200,7.516962158203125,0.00620269775390625,-0.055203914642333984,-0.02359628677368164
1701713690859555800,7.526555908203125,-0.05703592300415039,0.0028586387634277344,0.03720903396606445
1701713690869150000,7.53614990234375,-0.057056427001953125,0.0542302131652832,0.08053827285766602
1701713690878745000,7.5457451171875,-0.0684814453125,0.10210275650024414,0.11622762680053711
1701713690888339200,7.555339111328125,-0.08185148239135742,0.1634206771850586,0.13290691375732422
1701713690897932500,7.5649326171875,-0.07888174057006836,0.2149643898010254,0.13788461685180664
1701713690907526700,7.574526611328125,-0.06995534896850586,0.25718259811401367,0.15677118301391602
1701713690917121800,7.584121826171875,-0.06261682510375977,0.2505016326904297,0.17507457733154297
1701713690926716000,7.5937158203125,-0.07140064239501953,0.27109193801879883,0.18526315689086914
1701713690936309200,7.603309326171875,-0.08165216445922852,0.28776121139526367,0.15465021133422852
1701713690945903600,7.612903564453125,-0.09339427947998047,0.2840137481689453,0.08141279220581055
1701713690955498500,7.62249853515625,-0.08669137954711914,0.25257062911987305,-0.014278411865234375
1701713690965092600,7.632092529296875,-0.06846427917480469,0.2242751121520996,-0.08940649032592773
1701713690974686200,7.641686279296875,-0.031838417053222656,0.21071577072143555,-0.12090444564819336
1701713690984280300,7.6512802734375,-0.02197551727294922,0.19510459899902344,-0.16620635986328125
1701713690993875200,7.660875244140625,-0.007443428039550781,0.22187185287475586,-0.15908384323120117
1701713691003469600,7.670469482421875,0.11203956604003906,0.2782416343688965,-0.15349626541137695
1701713691013063000,7.68006298828125,0.22619247436523438,0.4475717544555664,-0.0023021697998046875
1701713691022657000,7.689656982421875,-0.003448486328125,0.4168882369995117,0.04976463317871094
1701713691032252200,7.699252197265625,-0.17369413375854492,0.33016300201416016,-0.08609199523925781
1701713691041846300,7.70884619140625,-0.12363100051879883,0.28943729400634766,-0.22143125534057617
1701713691051439600,7.718439697265625,0.015482902526855469,0.33797597885131836,-0.3809933662414551
1701713691061033700,7.72803369140625,0.07978677749633789,0.40128564834594727,-0.41602230072021484
1701713691070628900,7.73762890625,-0.13982677459716797,0.24161624908447266,-0.27251577377319336
1701713691080223000,7.747222900390625,-0.3853311538696289,-0.12286043167114258,-0.04577016830444336
1701713691089816300,7.75681640625,-0.48616552352905273,-0.42090463638305664,0.1499624252319336
1701713691099410400,7.766410400390625,-0.38924121856689453,-0.4223213195800781,0.22286748886108398
1701713691109005600,7.776005615234375,-0.2259225845336914,-0.1742687225341797,0.2141246795654297
1701713691118599700,7.785599609375,-0.017143726348876953,0.13579034805297852,0.14785051345825195
1701713691128193000,7.795193115234375,0.1584024429321289,0.3517446517944336,0.13333511352539062
1701713691137787400,7.804787353515625,0.24106836318969727,0.401885986328125,0.16583538055419922
1701713691147382300,7.81438232421875,0.20776700973510742,0.3495626449584961,0.24062776565551758
1701713691156976400,7.823976318359375,0.061254024505615234,0.21940994262695312,0.28666257858276367
1701713691166570000,7.833570068359375,-0.06455564498901367,0.08766365051269531,0.3277606964111328
1701713691176164000,7.8431640625,-0.048413753509521484,-0.0029692649841308594,0.3657565116882324
1701713691185759200,7.85275927734375,0.0571751594543457,-0.02213144302368164,0.3603487014770508
1701713691195353300,7.862353271484375,0.09743976593017578,0.012537002563476562,0.34967947006225586
1701713691204946700,7.87194677734375,0.09477949142456055,0.020304203033447266,0.2941608428955078
1701713691214540800,7.881540771484375,0.05238914489746094,0.011101245880126953,0.23241567611694336
1701713691224136000,7.891135986328125,0.041875362396240234,-0.005064487457275391,0.1228322982788086
1701713691233730000,7.90072998046875,0.036746978759765625,-0.037100791931152344,0.0018453598022460938
1701713691243323400,7.910323486328125,0.05091285705566406,-0.03760194778442383,-0.08806085586547852
1701713691252917500,7.91991748046875,0.05096864700317383,-0.044956207275390625,-0.12655019760131836
1701713691262512600,7.9295126953125,0.023215293884277344,-0.03106832504272461,-0.1498570442199707
1701713691272106800,7.939106689453125,-0.017696380615234375,0.0272369384765625,-0.16523981094360352
1701713691281700000,7.9487001953125,-0.02649688720703125,0.07479095458984375,-0.1468677520751953
1701713691291294500,7.95829443359375,-0.03661823272705078,0.1304020881652832,-0.12133073806762695
1701713691300889300,7.967889404296875,-0.031937599182128906,0.1586918830871582,-0.12676334381103516
1701713691310483500,7.9774833984375,-0.027017593383789062,0.16724014282226562,-0.1651468276977539
1701713691320077000,7.9870771484375,-0.014800548553466797,0.16573715209960938,-0.2289295196533203
1701713691329671200,7.996671142578125,-0.011952400207519531,0.13538742065429688,-0.2707977294921875
1701713691339266000,8.00626611328125,-0.025315284729003906,0.08105230331420898,-0.28196287155151367
1701713691348860400,8.0158603515625,-0.04730844497680664,0.005493640899658203,-0.31444311141967773
1701713691358453800,8.025453857421875,-0.047186851501464844,-0.0460057258605957,-0.3488454818725586
1701713691368047900,8.0350478515625,-0.037218570709228516,-0.10163116455078125,-0.3447866439819336
1701713691377643000,8.04464306640625,-0.015779495239257812,-0.1111302375793457,-0.3051414489746094
1701713691387237000,8.054237060546875,0.0069561004638671875,-0.09374523162841797,-0.24961090087890625
1701713691396830500,8.06383056640625,-0.033093929290771484,-0.026372909545898438,-0.14134550094604492
1701713691406424600,8.073424560546876,-0.10433626174926758,0.03358268737792969,-0.05199289321899414
1701713691416019700,8.083019775390625,-0.18251752853393555,0.08595800399780273,0.06812381744384766
1701713691425613800,8.09261376953125,-0.22972917556762695,0.11184310913085938,0.15015459060668945
1701713691435207200,8.102207275390626,-0.2653212547302246,0.12829065322875977,0.2137012481689453
1701713691444801500,8.111801513671875,-0.23255109786987305,0.12375020980834961,0.2290196418762207
1701713691454396400,8.121396484375,-0.20089149475097656,0.13630104064941406,0.2439894676208496
1701713691463990500,8.130990478515624,-0.16326236724853516,0.13243627548217773,0.23480892181396484
1701713691473583900,8.140583984375,-0.12434673309326172,0.13805913925170898,0.2252964973449707
1701713691483178200,8.15017822265625,-0.09581136703491211,0.13646793365478516,0.18493175506591797
1701713691492773000,8.159773193359374,-0.034859657287597656,0.14190196990966797,0.14510774612426758
1701713691502367200,8.1693671875,0.0015330314636230469,0.1355433464050293,0.09660196304321289
1701713691511960800,8.1789609375,0.0397953987121582,0.1481151580810547,0.03962373733520508
1701713691521555000,8.188554931640626,0.061190128326416016,0.1439828872680664,-0.020846843719482422
1701713691531150000,8.198150146484375,0.08260297775268555,0.11635446548461914,-0.06578493118286133
1701713691540744200,8.207744140625,0.0947418212890625,0.08438634872436523,-0.10244178771972656
1701713691550337500,8.217337646484374,0.09788846969604492,0.04815053939819336,-0.10256433486938477
1701713691559931600,8.226931640625,0.10396289825439453,0.02636241912841797,-0.07636642456054688
1701713691569526800,8.23652685546875,0.08479070663452148,0.02105855941772461,-0.054830074310302734
1701713691579121000,8.246120849609374,0.09035444259643555,0.015350818634033203,-0.033159732818603516
1701713691588714200,8.25571435546875,0.08957433700561523,0.03266286849975586,-0.02567768096923828
1701713691598308600,8.26530859375,0.09407520294189453,0.028019428253173828,-0.006392478942871094
1701713691607903500,8.274903564453124,0.09868621826171875,0.025413990020751953,0.010041236877441406
1701713691617497600,8.28449755859375,0.10092496871948242,0.020048141479492188,0.011705398559570312
1701713691627091000,8.294091064453125,0.07258033752441406,0.03557300567626953,0.015388011932373047
1701713691636685300,8.303685302734374,0.021473407745361328,0.02911520004272461,0.01648092269897461
1701713691646280200,8.3132802734375,-0.00034999847412109375,0.027132511138916016,0.012726783752441406
1701713691655874300,8.322874267578126,-0.0048980712890625,0.02496814727783203,0.002258777618408203
1701713691665468000,8.332468017578124,-0.016311168670654297,0.02067089080810547,-0.012413978576660156
1701713691675062000,8.34206201171875,-0.013532161712646484,0.01469278335571289,-0.021672725677490234
1701713691684657000,8.351656982421876,-0.013460636138916016,0.014328956604003906,-0.037387847900390625
1701713691694251300,8.361251220703124,-0.011469364166259766,0.00536346435546875,-0.01957225799560547
1701713691703844600,8.3708447265625,-0.021650314331054688,0.020835399627685547,-0.02292346954345703
1701713691713438700,8.380438720703125,-0.02490997314453125,0.04364585876464844,-0.021334171295166016
1701713691723033900,8.390033935546874,-0.025886058807373047,0.04985523223876953,-0.005531787872314453
1701713691732628000,8.3996279296875,-0.04803800582885742,0.06307744979858398,0.021831035614013672
1701713691742221300,8.40922119140625,-0.05334806442260742,0.07828187942504883,0.022690296173095703
1701713691751815400,8.4188154296875,-0.05832672119140625,0.07888507843017578,0.000055789947509765625
1701713691761410600,8.42841064453125,-0.07505941390991211,0.07717657089233398,-0.0010323524475097656
1701713691771004700,8.438004638671876,-0.10793542861938477,0.08018684387207031,0.007366180419921875
1701713691780598000,8.447597900390624,-0.12403488159179688,0.0951833724975586,0.020313739776611328
1701713691790192400,8.4571923828125,-0.13323736190795898,0.09850502014160156,0.05878925323486328
1701713691799787300,8.466787353515626,-0.12438201904296875,0.0952138900756836,0.07487630844116211
1701713691809381400,8.47638134765625,-0.1520366668701172,0.07137680053710938,0.07124090194702148
1701713691818975000,8.48597509765625,-0.16373491287231445,0.053241729736328125,0.07654285430908203
1701713691828569000,8.495569091796876,-0.1504526138305664,0.04783964157104492,0.07407188415527344
1701713691838164000,8.5051640625,-0.12877798080444336,0.04539012908935547,0.07122373580932617
1701713691847758000,8.514758056640625,-0.11272621154785156,0.057598114013671875,0.035311222076416016
1701713691857351700,8.5243515625,-0.09731483459472656,0.048754215240478516,0.0046138763427734375
1701713691866945800,8.53394580078125,-0.04474163055419922,0.04032707214355469,-0.02794790267944336
1701713691876541000,8.543541015625,-0.02365255355834961,-0.003220081329345703,-0.05756092071533203
1701713691886135000,8.553135009765626,0.004457950592041016,-0.02016162872314453,-0.0816349983215332
1701713691895728400,8.562728271484374,0.020637989044189453,-0.008533000946044922,-0.10962963104248047
1701713691905322500,8.572322509765625,0.020686626434326172,0.0002460479736328125,-0.12497806549072266
1701713691914917600,8.581917724609376,0.016513347625732422,-0.015044689178466797,-0.11163711547851562
1701713691924511700,8.59151171875,0.07405233383178711,-0.011469841003417969,-0.060576438903808594
1701713691934105000,8.60110498046875,0.060498714447021484,0.01261758804321289,-0.012760639190673828
1701713691943699500,8.610699462890626,0.04289054870605469,0.014500141143798828,0.02237558364868164
1701713691953294300,8.62029443359375,0.030652523040771484,0.00880575180053711,0.04039621353149414
1701713691962888400,8.629888427734375,0.018924713134765625,0.03575468063354492,0.04864788055419922
1701713691972481800,8.639481689453126,-0.0019044876098632812,0.03379011154174805,0.03785848617553711
1701713691982076200,8.649076171875,-0.006159305572509766,0.02944803237915039,0.01749563217163086
1701713691991671000,8.658671142578125,-0.010467052459716797,0.008770942687988281,-0.004952907562255859
1701713692001265200,8.66826513671875,-0.0033025741577148438,0.0027856826782226562,-0.015459537506103516
1701713692010858800,8.677858642578125,-0.010940074920654297,0.011382102966308594,-0.03784656524658203
1701713692020452900,8.687452880859375,-0.014482975006103516,-0.015232563018798828,-0.018085002899169922
1701713692030048000,8.697048095703124,-0.030481338500976562,-0.01049041748046875,-0.013316154479980469
1701713692039642000,8.70664208984375,-0.05383777618408203,-0.019927501678466797,-0.02100515365600586
1701713692049235500,8.7162353515625,-0.07954216003417969,-0.01757192611694336,-0.04089546203613281
1701713692058829600,8.72582958984375,-0.05792808532714844,-0.024806499481201172,-0.05138206481933594
1701713692068424700,8.7354248046875,-0.046222686767578125,-0.043700218200683594,-0.054782867431640625
1701713692078018800,8.745018798828125,-0.18571186065673828,-0.11423730850219727,-0.05865287780761719
1701713692087612200,8.754612060546876,0.16031789779663086,-0.015897750854492188,0.02348041534423828
1701713692097206300,8.764206298828125,0.08910322189331055,0.08316421508789062,0.0648050308227539
1701713692106801400,8.773801513671875,0.0029015541076660156,0.08389568328857422,0.06325864791870117
1701713692116395500,8.7833955078125,-0.017876625061035156,0.07489252090454102,0.11606884002685547
1701713692125988900,8.79298876953125,0.002200603485107422,0.06808805465698242,0.11410665512084961
1701713692135583000,8.8025830078125,0.001369476318359375,0.044548988342285156,0.12663650512695312
1701713692145178000,8.81217822265625,0.022175312042236328,0.05433940887451172,0.12294387817382812
1701713692154772200,8.821772216796875,0.05726432800292969,0.028583526611328125,0.10568380355834961
1701713692164365600,8.831365478515625,0.08273839950561523,0.01758718490600586,0.07756805419921875
1701713692173960000,8.8409599609375,0.09380197525024414,0.01653909683227539,0.04098987579345703
1701713692183554800,8.850554931640625,0.08585977554321289,0.048750877380371094,0.04061746597290039
1701713692193149000,8.86014892578125,0.07557106018066406,0.11332845687866211,0.05653810501098633
1701713692202742500,8.869742431640624,0.05349445343017578,0.15081262588500977,0.08834981918334961
1701713692212336600,8.879336669921875,0.07868003845214844,0.14275884628295898,0.1027669906616211
1701713692221931500,8.888931640625,0.08219718933105469,0.0969233512878418,0.09545421600341797
1701713692231526000,8.89852587890625,-0.018316268920898438,0.01614999771118164,0.04744291305541992
1701713692241119200,8.908119140625,0.22691106796264648,-0.027704238891601562,0.07385110855102539
1701713692250713300,8.91771337890625,0.1811213493347168,0.03771209716796875,-0.045594215393066406
1701713692260308500,8.92730859375,0.09180974960327148,0.03617715835571289,-0.12012815475463867
1701713692269902600,8.936902587890625,0.01160573959350586,0.020508766174316406,-0.15045881271362305
1701713692279496000,8.946495849609375,-0.0969533920288086,-0.014204025268554688,-0.12321805953979492
1701713692289090000,8.956090087890624,-0.18842077255249023,-0.05360603332519531,-0.0791940689086914
1701713692298685200,8.965685302734375,-0.2326645851135254,-0.08597135543823242,0.013968944549560547
1701713692308279300,8.975279296875,-0.2264394760131836,-0.08985757827758789,0.09385108947753906
1701713692317872600,8.98487255859375,-0.44770050048828125,-0.15568113327026367,0.0712423324584961
1701713692327467000,8.994467041015625,-0.20635986328125,-0.31882762908935547,0.2682175636291504
1701713692337062000,9.004061767578126,0.20457983016967773,0.1890120506286621,0.1265254020690918
1701713692346656000,9.013656005859374,0.07287263870239258,0.2002105712890625,-0.0035309791564941406
1701713692356249300,9.023249267578125,0.09033966064453125,0.14940214157104492,-0.06534337997436523
1701713692365843700,9.03284375,0.11595630645751953,0.1334519386291504,-0.05088472366333008
1701713692375438600,9.0424384765625,0.09139823913574219,0.11327171325683594,-0.013268470764160156
1701713692385032700,9.05203271484375,0.0768442153930664,0.11216592788696289,-0.0067729949951171875
1701713692394626300,9.061626220703126,0.03971719741821289,0.10813188552856445,0.006927967071533203
1701713692404220400,9.071220458984374,0.011180400848388672,0.07988214492797852,0.006588459014892578
1701713692413815600,9.080815673828125,-0.008848190307617188,0.055998802185058594,0.013629913330078125
1701713692423409700,9.09040966796875,-0.004773616790771484,0.06044816970825195,-0.024218082427978516
1701713692433003000,9.1000029296875,0.008766651153564453,0.039157867431640625,-0.056375980377197266
1701713692442597000,9.10959716796875,-0.061933040618896484,0.053408145904541016,-0.04256010055541992
1701713692452192300,9.119192138671876,-0.06752681732177734,0.03658485412597656,-0.028782367706298828
1701713692461786400,9.128786376953125,-0.09892654418945312,0.05998802185058594,-0.041201114654541016
1701713692471379700,9.138379638671875,-0.11834144592285156,0.038417816162109375,-0.03478193283081055
1701713692480973800,9.147973876953126,-0.1427626609802246,0.08569812774658203,-0.03131103515625
1701713692490569000,9.15756884765625,-0.14838933944702148,0.06607198715209961,-0.021527767181396484
1701713692500163000,9.1671630859375,-0.1680164337158203,0.04960441589355469,-0.027480602264404297
1701713692509756400,9.17675634765625,-0.13190317153930664,-0.0002899169921875,0.007421016693115234
1701713692519350500,9.1863505859375,-0.047594547271728516,-0.15335750579833984,-0.044551849365234375
1701713692528945700,9.195945556640625,-0.24253559112548828,-0.478945255279541,0.1690673828125
1701713692538539800,9.205539794921876,0.27243709564208984,0.18871021270751953,-0.0004405975341796875
1701713692548133000,9.215133056640624,0.09824943542480469,0.2304692268371582,-0.0358428955078125
1701713692557727500,9.2247275390625,0.16458749771118164,0.19791221618652344,-0.10952234268188477
1701713692567322400,9.234322265625,0.20247554779052734,0.18035268783569336,-0.08953619003295898
1701713692576916500,9.24391650390625,0.1614551544189453,0.1183633804321289,-0.08034467697143555
1701713692586510000,9.253510009765625,0.09417438507080078,0.039427757263183594,-0.010424137115478516
1701713692596104200,9.263104248046876,0.03592491149902344,-0.008875370025634766,0.08162879943847656
1701713692605699000,9.272698974609375,0.013813495635986328,0.002757549285888672,0.06436538696289062
1701713692615293200,9.282293212890625,-0.03595733642578125,-0.012652397155761719,0.005023002624511719
1701713692624886800,9.29188671875,0.02101278305053711,-0.09881925582885742,0.022265911102294922
1701713692634481000,9.30148095703125,0.1400895118713379,-0.1324920654296875,0.021759510040283203
1701713692644076000,9.311075927734375,0.14684057235717773,-0.17562150955200195,0.10107231140136719
1701713692653670100,9.320670166015624,0.11804437637329102,-0.11518096923828125,0.0793447494506836
1701713692663263500,9.330263427734375,0.11724519729614258,-0.08683156967163086,0.07787609100341797
1701713692672857600,9.339857666015625,0.09149789810180664,-0.023710250854492188,0.020621299743652344
1701713692682452700,9.34945263671875,0.04437875747680664,0.012590408325195312,-0.01741504669189453
1701713692692046800,9.359046875,0.019112586975097656,0.06522989273071289,-0.06627225875854492
1701713692701640200,9.36864013671875,-0.02908611297607422,0.08212137222290039,-0.06659078598022461
1701713692711234300,9.378234375,-0.03397798538208008,0.08301639556884766,-0.02128887176513672
1701713692720829400,9.387829345703125,-0.0318450927734375,0.06585073471069336,0.0521388053894043
1701713692730423600,9.397423583984375,-0.04832887649536133,0.0917959213256836,0.10858392715454102
1701713692740017000,9.407016845703126,-0.07122421264648438,0.09637212753295898,0.13180208206176758
1701713692749611300,9.416611328125,-0.04423189163208008,0.08237981796264648,0.0985407829284668
1701713692759206100,9.4262060546875,-0.0339818000793457,0.08993291854858398,0.06617212295532227
1701713692768800300,9.43580029296875,-0.04720020294189453,0.03142738342285156,0.04402637481689453
1701713692778393600,9.4453935546875,-0.04812192916870117,-0.038214683532714844,-0.001270294189453125
1701713692787988000,9.454988037109375,-0.039493560791015625,-0.0740056037902832,-0.024743080139160156
1701713692797582800,9.464582763671874,-0.04024457931518555,-0.08815431594848633,-0.03362417221069336
1701713692807177000,9.474177001953125,-0.03609800338745117,-0.07620620727539062,-0.028056621551513672
1701713692816770600,9.4837705078125,-0.022241592407226562,-0.038804054260253906,-0.041229248046875
1701713692826364700,9.49336474609375,0.013490676879882812,-0.005024433135986328,-0.04197883605957031
1701713692835959600,9.50295947265625,0.04502058029174805,0.0343928337097168,-0.09407377243041992
1701713692845554000,9.512553955078126,0.05804109573364258,0.07718515396118164,-0.13319873809814453
1701713692855147300,9.522147216796874,0.052426815032958984,0.09539222717285156,-0.15737056732177734
1701713692864741400,9.531741455078125,0.030353069305419922,0.08482551574707031,-0.15552568435668945
1701713692874336500,9.54133642578125,0.019670963287353516,0.06759166717529297,-0.15198898315429688
1701713692883930600,9.5509306640625,-0.006069660186767578,0.03214550018310547,-0.13062667846679688
1701713692893524000,9.56052392578125,-0.02319478988647461,0.00012493133544921875,-0.11998796463012695
1701713692903118000,9.5701181640625,-0.05743408203125,-0.02879190444946289,-0.10567426681518555
1701713692912713200,9.579713134765624,-0.07752752304077148,-0.04035663604736328,-0.12716436386108398
1701713692922307300,9.589307373046875,-0.09288549423217773,-0.039864540100097656,-0.12502002716064453
1701713692931900700,9.598900634765625,-0.09175443649291992,-0.02733135223388672,-0.14646244049072266
1701713692941494800,9.608494873046874,-0.08382558822631836,-0.0054454803466796875,-0.1370859146118164
1701713692951090000,9.61808984375,-0.054903507232666016,-0.014590740203857422,-0.10916471481323242
1701713692960684000,9.62768408203125,-0.057131290435791016,0.0046672821044921875,-0.14063501358032227
1701713692970277400,9.63727734375,-0.049785614013671875,0.018811702728271484,-0.12208175659179688
1701713692979871700,9.646871826171875,-0.054335594177246094,-0.012286663055419922,-0.09234333038330078
1701713692989466600,9.656466552734376,-0.05398130416870117,0.0037937164306640625,-0.06337738037109375
1701713692999060700,9.666060791015624,-0.04868316650390625,-0.0374298095703125,-0.01630258560180664
1701713693008654000,9.675654052734375,-0.03145885467529297,-0.00781393051147461,-0.017278671264648438
1701713693018248400,9.68524853515625,-0.024001121520996094,0.01397848129272461,0.014381885528564453
1701713693027843300,9.69484326171875,-0.023914337158203125,0.037627220153808594,0.04045581817626953
1701713693037437400,9.7044375,-0.005360603332519531,0.04220438003540039,0.042276859283447266
1701713693047031000,9.714031005859376,-0.008671283721923828,0.07753896713256836,0.006194591522216797
1701713693056625200,9.723625244140624,0.018191814422607422,0.08911657333374023,0.010529041290283203
1701713693066220300,9.73322021484375,-0.02740001678466797,0.08129644393920898,0.01087188720703125
1701713693075814400,9.742814453125,-0.06726408004760742,0.04366779327392578,0.059722900390625
1701713693085407700,9.75240771484375,-0.05514812469482422,0.01463937759399414,0.05913543701171875
1701713693095001900,9.762001953125,-0.00930929183959961,0.018356800079345703,0.021366596221923828
1701713693104597000,9.771596923828126,0.011550426483154297,0.006035804748535156,-0.018414974212646484
1701713693114191000,9.781191162109375,0.0462346076965332,0.007411956787109375,-0.058577537536621094
1701713693123784400,9.790784423828125,0.021596431732177734,0.02684783935546875,-0.0685572624206543
1701713693133378600,9.800378662109376,-0.00420379638671875,0.08967256546020508,-0.15190839767456055
1701713693142973700,9.8099736328125,-0.0068187713623046875,0.13825035095214844,-0.18916654586791992
1701713693152567800,9.81956787109375,0.006545543670654297,0.16062116622924805,-0.18594121932983398
1701713693162161200,9.8291611328125,0.011896133422851562,0.14074039459228516,-0.14547967910766602
1701713693171755300,9.83875537109375,0.01401662826538086,0.12391042709350586,-0.11098432540893555
1701713693181350400,9.848350341796875,-0.01722240447998047,0.05814027786254883,-0.08434486389160156
1701713693190944500,9.857944580078126,-0.05946922302246094,-0.020817279815673828,-0.06036996841430664
1701713693200537900,9.867537841796874,-0.11628198623657227,-0.12513160705566406,-0.03611564636230469
1701713693210132200,9.87713232421875,-0.13526153564453125,-0.1957559585571289,-0.023151874542236328
1701713693219727000,9.88672705078125,-0.10581207275390625,-0.20476055145263672,-0.00286865234375
1701713693229321200,9.8963212890625,-0.08820104598999023,-0.18575382232666016,0.010135650634765625
1701713693238914600,9.90591455078125,-0.07046031951904297,-0.13938665390014648,0.022862911224365234
1701713693248509000,9.915509033203126,-0.06604957580566406,-0.11127138137817383,0.023924827575683594
1701713693258103800,9.925103759765625,-0.03708028793334961,-0.05390119552612305,0.025408267974853516
1701713693267698000,9.934697998046875,-0.02344226837158203,0.057668209075927734,0.015729904174804688
1701713693277291500,9.94429150390625,0.0036673545837402344,0.06960344314575195,-0.011525630950927734
1701713693286885600,9.9538857421875,0.017157554626464844,0.12186288833618164,-0.029072284698486328
1701713693296480500,9.96348046875,0.01741933822631836,0.23468637466430664,-0.03475379943847656
1701713693306074600,9.97307470703125,0.12250471115112305,-0.20786237716674805,0.18830585479736328
1701713693315668200,9.982668212890625,0.05833625793457031,-0.06654691696166992,0.13097333908081055
1701713693325262300,9.992262451171875,-0.0017371177673339844,0.028914451599121094,0.09496545791625977
1701713693334857500,10.001857421875,0.055159568786621094,-0.08281803131103516,0.13668251037597656
1701713693344451600,10.01145166015625,0.006323814392089844,-0.0717315673828125,0.13710260391235352
1701713693354045000,10.021044921875,0.03225517272949219,0.059979915618896484,0.04239845275878906
1701713693363639000,10.03063916015625,0.04159688949584961,0.1423053741455078,-0.04680967330932617
1701713693373234200,10.040234130859375,0.09132719039916992,0.19565248489379883,-0.08360052108764648
1701713693382828300,10.049828369140625,-0.0110321044921875,0.255094051361084,-0.13808536529541016
1701713693392421600,10.059421630859376,-0.1338038444519043,0.13254022598266602,-0.017742633819580078
1701713693402015700,10.069015625,-0.15792131423950195,0.05585336685180664,0.1550126075744629
1701713693411611000,10.07861083984375,-0.0500640869140625,0.07245445251464844,0.08852910995483398
1701713693421205000,10.088205078125,0.03697347640991211,-0.0645456314086914,0.18894290924072266
1701713693430798300,10.09779833984375,0.1802654266357422,-0.0793461799621582,0.1341395378112793
1701713693440392400,10.107392333984375,0.2108316421508789,-0.05841636657714844,0.0596160888671875
1701713693449987600,10.116987548828124,0.20450496673583984,-0.029983997344970703,-0.005280494689941406
1701713693459581700,10.126581787109375,0.12453413009643555,-0.09687376022338867,0.09539985656738281
1701713693469175000,10.136175048828125,0.016021251678466797,-0.13896846771240234,0.14262104034423828
1701713693478769400,10.145769287109376,-0.058878421783447266,-0.08350944519042969,0.12208271026611328
1701713693488364300,10.1553642578125,-0.07748842239379883,-0.020602703094482422,0.10194683074951172
1701713693497958400,10.16495849609375,-0.01840353012084961,0.008960723876953125,0.03351163864135742
1701713693507551700,10.1745517578125,0.018512248992919922,0.015204429626464844,0.007453441619873047
1701713693517146000,10.18414599609375,0.013644695281982422,0.013278484344482422,0.01524972915649414
1701713693526741000,10.193740966796875,0.013323783874511719,0.018555641174316406,0.006251811981201172
1701713693536335000,10.203335205078124,-0.022547245025634766,0.03571128845214844,-0.04271650314331055
1701713693545928400,10.212928466796875,-0.04755544662475586,-0.006592273712158203,-0.054848670959472656
1701713693555522800,10.222522705078125,-0.08783817291259766,-0.01087808609008789,-0.09678363800048828
1701713693565117700,10.23211767578125,-0.10131072998046875,0.020110130310058594,-0.13077116012573242
1701713693574711800,10.2417119140625,-0.10097789764404297,0.09342241287231445,-0.14790678024291992
1701713693584305200,10.25130517578125,-0.0998697280883789,0.06772327423095703,-0.1396808624267578
1701713693593899500,10.2608994140625,-0.10258626937866211,0.0881962776184082,-0.15588045120239258
1701713693603494400,10.270494384765625,-0.1014566421508789,0.06413650512695312,-0.1441202163696289
1701713693613088500,10.280088623046876,-0.09835481643676758,0.040589332580566406,-0.1281747817993164
1701713693622682000,10.28968212890625,-0.10610771179199219,0.04496335983276367,-0.1049795150756836
1701713693632276200,10.299276123046875,-0.0839695930480957,0.060030460357666016,-0.07192420959472656
1701713693641871000,10.30887109375,-0.051937103271484375,0.03429460525512695,-0.06011152267456055
1701713693651465200,10.31846533203125,-0.017721176147460938,0.008788585662841797,-0.06944084167480469
1701713693661058800,10.328058837890625,0.0043354034423828125,-0.030384063720703125,-0.06894254684448242
1701713693670653000,10.33765283203125,-0.004097461700439453,-0.028850078582763672,-0.07018423080444336
1701713693680247800,10.347247802734374,0.011453628540039062,-0.07193899154663086,-0.05677938461303711
1701713693689842200,10.35684228515625,-0.013096809387207031,-0.010385990142822266,-0.09718132019042969
1701713693699435500,10.366435546875,-0.011766433715820312,0.024610042572021484,-0.09232616424560547
1701713693709029600,10.376029541015624,-0.004664897918701172,-0.07229328155517578,-0.032074928283691406
1701713693718624800,10.385624755859375,-0.04573249816894531,0.032691001892089844,-0.020923614501953125
1701713693728219000,10.395218994140626,-0.03305673599243164,-0.03798484802246094,-0.010981559753417969
1701713693737812200,10.404812255859374,-0.060796260833740234,0.012486457824707031,-0.008584022521972656
1701713693747406300,10.41440625,-0.023062705993652344,-0.25548696517944336,0.11765623092651367
1701713693757001500,10.42400146484375,-0.0627431869506836,0.07856512069702148,-0.04236888885498047
1701713693766595600,10.433595703125,0.00218963623046875,0.053499698638916016,0.05219602584838867
1701713693776189000,10.44318896484375,0.04624032974243164,-0.01531839370727539,0.09278202056884766
1701713693785783000,10.452782958984375,0.05327558517456055,-0.18180131912231445,0.19279241561889648
1701713693795378200,10.462378173828125,0.03332328796386719,-0.2624068260192871,0.22475719451904297
1701713693804972300,10.47197216796875,-0.052516937255859375,0.44226932525634766,-0.16742801666259766
1701713693814565600,10.481565673828126,0.035254478454589844,0.5332183837890625,-0.1555023193359375
1701713693824159700,10.49115966796875,0.17934226989746094,0.11796998977661133,0.10930347442626953
1701713693833755000,10.5007548828125,0.14260149002075195,-0.04956531524658203,0.2772979736328125
1701713693843349000,10.510348876953126,0.11812543869018555,-0.10078573226928711,0.33274126052856445
1701713693852942300,10.5199423828125,0.12031030654907227,-0.26047277450561523,0.41728782653808594
1701713693862536700,10.52953662109375,0.1567401885986328,-0.2928752899169922,0.4378223419189453
1701713693872131600,10.539131591796876,0.19128751754760742,-0.23943376541137695,0.3393120765686035
1701713693881725700,10.5487255859375,0.17219066619873047,-0.15092182159423828,0.23918962478637695
1701713693891319000,10.558319091796875,0.14260053634643555,-0.12199735641479492,0.17745113372802734
1701713693900913400,10.567913330078126,0.10390520095825195,-0.06299972534179688,0.11176633834838867
1701713693910508300,10.57750830078125,0.12977218627929688,-0.05181884765625,-0.008621692657470703
1701713693920102400,10.587102294921875,0.10581254959106445,-0.006964683532714844,-0.022433757781982422
1701713693929695700,10.59669580078125,-0.0034170150756835938,0.07552576065063477,0.07188940048217773
1701713693939290000,10.6062900390625,-0.03832817077636719,0.02204751968383789,0.10713958740234375
1701713693948885000,10.615885009765625,-0.06239175796508789,-0.0553441047668457,0.09920072555541992
1701713693958479000,10.62547900390625,-0.05695629119873047,-0.026724815368652344,0.018236637115478516
1701713693968072400,10.635072509765624,-0.023478984832763672,0.015537738800048828,-0.08505582809448242
1701713693977666800,10.644666748046875,-0.007520198822021484,0.03867197036743164,-0.16089391708374023
1701713693987261700,10.65426171875,-0.03792142868041992,0.0026488304138183594,-0.16174745559692383
1701713693996855800,10.663855712890625,-0.047673702239990234,-0.019576549530029297,-0.16484594345092773
1701713694006449400,10.673449462890625,-0.049282073974609375,-0.038382530212402344,-0.2084512710571289
1701713694016043500,10.68304345703125,-0.03647041320800781,-0.0606379508972168,-0.32478809356689453
1701713694025638400,10.692638427734375,-0.05976533889770508,-0.09908294677734375,-0.33105945587158203
1701713694035232500,10.702232421875,-0.10151910781860352,-0.049312591552734375,-0.20253610610961914
1701713694044826000,10.711826171875,-0.11410951614379883,0.0938425064086914,-0.16996383666992188
1701713694054420200,10.721420166015625,-0.1080317497253418,0.20891237258911133,-0.1593618392944336
1701713694064015000,10.73101513671875,-0.051695823669433594,0.1933455467224121,-0.1287674903869629
1701713694073609200,10.740609130859376,-0.02580547332763672,0.1645364761352539,-0.09727764129638672
1701713694083202800,10.750202880859375,0.019994258880615234,0.16971302032470703,-0.1374516487121582
1701713694092797000,10.759796875,0.04946565628051758,0.11487913131713867,-0.14923334121704102
1701713694102392000,10.76939208984375,0.029039382934570312,0.06258392333984375,-0.1268305778503418
1701713694111986200,10.778986083984375,-0.019548416137695312,-0.0039010047912597656,-0.08081817626953125
1701713694121579500,10.78857958984375,-0.08051824569702148,-0.021796703338623047,-0.04877042770385742
1701713694131173600,10.798173583984376,-0.12740468978881836,-0.027654647827148438,-0.02807331085205078
1701713694140768800,10.807768798828125,-0.0979924201965332,-0.006158351898193359,-0.0037932395935058594
1701713694150363000,10.81736279296875,-0.1319751739501953,-0.014568805694580078,0.01960277557373047
1701713694159956200,10.826956298828126,-0.10194063186645508,-0.014150619506835938,0.018181324005126953
1701713694169550300,10.83655029296875,-0.0832371711730957,0.00019979476928710938,0.05951404571533203
1701713694179145500,10.8461455078125,-0.049791812896728516,0.05462026596069336,0.04449605941772461
1701713694188739600,10.855739501953124,-0.06005859375,0.04246950149536133,0.04078531265258789
1701713694198333000,10.8653330078125,-0.0923004150390625,-0.11092424392700195,0.12991762161254883
1701713694207927000,10.874927001953125,-0.09666061401367188,-0.12532901763916016,0.17867469787597656
1701713694217522200,10.884522216796874,-0.09649896621704102,-0.07400655746459961,0.17176246643066406
1701713694227116300,10.8941162109375,-0.051335811614990234,-0.00960540771484375,0.08277559280395508
1701713694236709600,10.903709716796875,0.05268383026123047,-0.047009944915771484,-0.022068023681640625
1701713694246303700,10.9133037109375,0.04237079620361328,-0.043537139892578125,0.0498199462890625
1701713694255899000,10.92289892578125,0.02080249786376953,-0.06820011138916016,0.08112573623657227
1701713694265493000,10.932492919921875,0.035193443298339844,-0.08972835540771484,0.027913570404052734
1701713694275086300,10.94208642578125,0.040938377380371094,-0.040320396423339844,0.04509115219116211
1701713694284680400,10.951680419921875,-0.04221153259277344,-0.3992781639099121,0.41042423248291016
1701713694294275600,10.961275634765625,-0.07618141174316406,-0.2851419448852539,0.19841480255126953
1701713694303869700,10.97086962890625,-0.036385536193847656,0.1595621109008789,-0.16928768157958984
1701713694313463000,10.980463134765625,0.06878423690795898,0.21122169494628906,-0.27545690536499023
1701713694323057200,10.99005712890625,0.05045604705810547,0.22685956954956055,-0.3053779602050781
1701713694332652300,10.99965234375,0.07717275619506836,0.2635011672973633,-0.24709701538085938
1701713694342246400,11.009246337890625,0.05696678161621094,0.2219862937927246,-0.11357450485229492
1701713694351839700,11.01883984375,0.0747671127319336,0.16018199920654297,-0.04563188552856445
1701713694361433900,11.028433837890624,0.047722816467285156,0.13718318939208984,-0.016162872314453125
1701713694371029000,11.038029052734375,0.01702594757080078,0.05790567398071289,-0.003086566925048828
1701713694380623000,11.047623046875,-0.010020732879638672,-0.006173610687255859,-0.0036439895629882812
1701713694390216400,11.057216552734374,-0.007583141326904297,-0.03444814682006836,0.02914905548095703
1701713694399810800,11.066810791015625,0.005133628845214844,0.07835006713867188,-0.053503990173339844
1701713694409405700,11.07640576171875,0.042022705078125,0.09235095977783203,-0.08941316604614258
1701713694418999800,11.085999755859374,0.05976152420043945,0.18834257125854492,-0.12688446044921875
1701713694428593200,11.09559326171875,0.021186351776123047,0.23339176177978516,-0.12302875518798828
1701713694438187500,11.1051875,-0.008663177490234375,0.27251243591308594,-0.09255743026733398
1701713694447782400,11.114782470703124,-0.011222362518310547,0.23771286010742188,-0.031172752380371094
1701713694457376500,11.12437646484375,-0.01217508316040039,0.039175987243652344,-0.010802268981933594
1701713694466969900,11.133969970703125,0.004810333251953125,0.025539875030517578,-0.023992538452148438
1701713694476564200,11.143564208984374,-0.006625175476074219,0.01950359344482422,0.031775474548339844
1701713694486159000,11.1531591796875,0.033315181732177734,-0.06607770919799805,0.08863449096679688
1701713694495753200,11.162753173828126,0.0578007698059082,-0.1052560806274414,0.11809110641479492
1701713694505346600,11.1723466796875,0.06926488876342773,-0.10844755172729492,0.1413435935974121
1701713694514941000,11.18194091796875,0.016314029693603516,-0.1802382469177246,0.20775413513183594
1701713694524535800,11.191535888671876,0.020206928253173828,-0.2299184799194336,0.17560291290283203
1701713694534130000,11.2011298828125,0.007015705108642578,-0.23653364181518555,0.11493730545043945
1701713694543723500,11.2107236328125,-0.01844644546508789,-0.2809171676635742,0.06595468521118164
1701713694553317600,11.220317626953126,-0.01812887191772461,-0.2470536231994629,-0.0018939971923828125
1701713694562912500,11.22991259765625,-0.05319023132324219,-0.24683380126953125,-0.05703306198120117
1701713694572506600,11.239506591796875,-0.045111656188964844,-0.21361351013183594,-0.07567071914672852
1701713694582100200,11.249100341796876,-0.03657102584838867,-0.10108232498168945,-0.10520219802856445
1701713694591694300,11.2586943359375,-0.03970527648925781,-0.030538558959960938,-0.058696746826171875
1701713694601289200,11.268289306640625,-0.011826038360595703,0.001071929931640625,-0.04085540771484375
1701713694610883300,11.27788330078125,0.008584022521972656,0.015885353088378906,-0.046568870544433594
1701713694620477000,11.287476806640624,-0.030381202697753906,0.05664682388305664,-0.009735107421875
1701713694630071000,11.297071044921875,-0.04310035705566406,0.0899500846862793,0.0005006790161132812
1701713694639666000,11.306666015625,-0.022889137268066406,0.0802769660949707,0.0008077621459960938
1701713694649260000,11.316260009765625,-0.04569053649902344,0.17869949340820312,-0.04199504852294922
1701713694658853600,11.325853515625,0.017977237701416016,0.16254138946533203,0.004165172576904297
1701713694668447700,11.33544775390625,0.030252933502197266,0.14462757110595703,-0.03598737716674805
1701713694678042600,11.345042724609375,0.004120349884033203,0.08244800567626953,-0.014770984649658203
1701713694687636700,11.35463671875,0.008968353271484375,0.054189205169677734,-0.03407764434814453
1701713694697230300,11.364230224609376,-0.000213623046875,0.0543513298034668,-0.0578460693359375
1701713694706824400,11.373824462890624,-0.021193981170654297,0.080078125,-0.04645729064941406
1701713694716419300,11.38341943359375,-0.023647308349609375,0.07708024978637695,-0.0314173698425293
1701713694726013400,11.393013427734376,-0.021949291229248047,0.05754852294921875,-0.038666725158691406
1701713694735607000,11.40260693359375,-0.05583047866821289,0.033782958984375,-0.03181886672973633
1701713694745201200,11.412201171875,-0.07272815704345703,0.03155517578125,-0.0605168342590332
1701713694754796000,11.421796142578126,-0.08216381072998047,0.0009646415710449219,-0.0534214973449707
1701713694764390400,11.431390380859375,-0.05800962448120117,-0.010718822479248047,-0.06746625900268555
1701713694773983700,11.440983642578125,-0.055090904235839844,-0.0013794898986816406,-0.07412195205688477
1701713694783577900,11.450577880859376,-0.0404510498046875,-0.022861003875732422,-0.05012083053588867
1701713694793173000,11.460173095703125,-0.023762226104736328,0.012379646301269531,-0.003185749053955078
1701713694802767000,11.46976708984375,-0.01924419403076172,0.03761577606201172,0.0027971267700195312
1701713694812360400,11.4793603515625,-0.021986007690429688,-0.03923511505126953,0.045771121978759766
1701713694821954600,11.48895458984375,0.008869171142578125,-0.0611567497253418,0.015306949615478516
1701713694831549700,11.4985498046875,0.047519683837890625,-0.012477397918701172,-0.02759695053100586
1701713694841143800,11.508143798828126,0.06040191650390625,-0.061220645904541016,-0.033593177795410156
1701713694850737200,11.517737060546875,0.06853389739990234,-0.09979486465454102,0.010109424591064453
1701713694860331300,11.527331298828125,0.05515909194946289,-0.10242891311645508,0.04107236862182617
1701713694869926100,11.536926025390626,0.03947305679321289,-0.08146381378173828,0.057184696197509766
1701713694879520500,11.5465205078125,0.03558492660522461,-0.0840768814086914,0.03773355484008789
1701713694889113900,11.55611376953125,0.026938915252685547,-0.08169889450073242,0.016344070434570312
1701713694898708000,11.5657080078125,0.0016007423400878906,-0.05799436569213867,0.006816387176513672
1701713694908303000,11.57530322265625,0.014236927032470703,-0.05806398391723633,0.01629781723022461
1701713694917897200,11.584897216796875,-0.0015244483947753906,-0.046210289001464844,0.01407623291015625
1701713694927490600,11.594490478515626,-0.007664203643798828,-0.07448816299438477,0.0495758056640625
1701713694937084700,11.604084716796875,-0.027703285217285156,-0.04113197326660156,0.05163383483886719
1701713694946679800,11.6136796875,-0.03569507598876953,0.0599675178527832,0.015949726104736328
1701713694956274000,11.62327392578125,-0.050853729248046875,0.10297012329101562,0.01361227035522461
1701713694965867300,11.6328671875,-0.025560855865478516,0.12175941467285156,-0.03785562515258789
1701713694975461400,11.64246142578125,-0.033057212829589844,0.12813329696655273,-0.04567098617553711
1701713694985056500,11.652056396484374,-0.009116172790527344,0.07996892929077148,-0.008016109466552734
1701713694994650600,11.661650634765625,0.007947921752929688,0.01794147491455078,0.02922201156616211
1701713695004244000,11.671243896484375,0.027842998504638672,-0.029666900634765625,0.06373023986816406
1701713695013838000,11.680838134765626,0.034107208251953125,-0.07938003540039062,0.05344438552856445
1701713695023433200,11.69043310546875,0.04556608200073242,-0.09321022033691406,0.07913875579833984
1701713695033027300,11.70002734375,0.03617429733276367,-0.029622554779052734,0.06927967071533203
1701713695042620700,11.70962060546875,0.02051830291748047,-0.01018381118774414,0.0785512924194336
1701713695052214800,11.71921484375,0.017780780792236328,-0.017423629760742188,0.08129024505615234
1701713695061810000,11.728809814453125,0.0012545585632324219,-0.010393142700195312,0.05849313735961914
1701713695071404000,11.738404052734374,-0.017951011657714844,-0.017307758331298828,0.06623268127441406
1701713695080997400,11.747997314453125,-0.3167877197265625,-0.3149409294128418,0.32585716247558594
1701713695090591500,11.757591552734375,0.1625986099243164,0.004939556121826172,-0.1633472442626953
1701713695100186600,11.7671865234375,-0.03800201416015625,0.1875782012939453,-0.1649327278137207
1701713695109780700,11.77678076171875,0.04240226745605469,0.0805964469909668,-0.14720916748046875
1701713695119374000,11.7863740234375,0.005329608917236328,-0.019363880157470703,-0.08552312850952148
1701713695128968200,11.79596826171875,-0.012822151184082031,-0.025466442108154297,-0.0816659927368164
1701713695138563300,11.805563232421875,-0.0073490142822265625,-0.028641700744628906,-0.06357622146606445
1701713695148157400,11.815157470703125,0.004871845245361328,-0.009938240051269531,-0.11844301223754883
1701713695157750800,11.824750732421874,-0.05456829071044922,-0.05008220672607422,-0.062488555908203125
1701713695167345000,11.834344970703125,-0.056879520416259766,-0.01657724380493164,-0.07383918762207031
1701713695176940000,11.84393994140625,-0.023673057556152344,-0.038143157958984375,-0.11102914810180664
1701713695186534100,11.8535341796875,0.009389400482177734,-0.0382232666015625,-0.21070528030395508
1701713695196127500,11.86312744140625,-0.009672164916992188,-0.15894460678100586,-0.12300443649291992
1701713695205721600,11.8727216796875,-0.019073486328125,-0.18421411514282227,-0.10110759735107422
1701713695215316700,11.882316650390624,-0.007030963897705078,-0.22666597366333008,-0.07344388961791992
