time,seconds_elapsed,z,y,x
1701882048824053200,0.15305322265625,0.2736595869064331,-0.24510246515274048,0.12094775587320328
1701882048833645800,0.162645751953125,0.26877278089523315,-0.24998924136161804,0.14904673397541046
1701882048843239400,0.172239501953125,0.25655585527420044,-0.2683146595954895,0.18569757044315338
1701882048852832000,0.18183203125,0.2492256760597229,-0.2915268540382385,0.2235700935125351
1701882048862423800,0.191423828125,0.25533416867256165,-0.3245126008987427,0.258999228477478
1701882048872016600,0.2010166015625,0.2883199155330658,-0.36971530318260193,0.2895416021347046
1701882048881610000,0.21060986328125,0.34451785683631897,-0.4136963188648224,0.3176405727863312
1701882048891202600,0.22020263671875,0.4092676639556885,-0.439351886510849,0.3432961702346802
1701882048900794600,0.229794677734375,0.4605788290500641,-0.44668206572532654,0.3542914092540741
1701882048910387200,0.23938720703125,0.47890424728393555,-0.44668206572532654,0.34818294644355774
1701882048919980800,0.248980712890625,0.47768256068229675,-0.439351886510849,0.33230090141296387
1701882048929573400,0.258573486328125,0.4850127100944519,-0.4100312292575836,0.3054236173629761
1701882048939165200,0.268165283203125,0.5057815313339233,-0.36482852697372437,0.27121618390083313
1701882048948758000,0.277758056640625,0.5399889945983887,-0.3110739588737488,0.23823043704032898
1701882048958351400,0.287351318359375,0.5974085927009583,-0.26098448038101196,0.2211267054080963
1701882048967944200,0.296944091796875,0.6780404448509216,-0.21822518110275269,0.21501824259757996
1701882048977536000,0.306535888671875,0.7757760286331177,-0.21211670339107513,0.21746163070201874
1701882048987128800,0.31612890625,0.8857285380363464,-0.21822518110275269,0.21257483959197998
1701882048996722200,0.32572216796875,0.9797990322113037,-0.21089501678943634,0.18081079423427582
1701882049006314800,0.335314697265625,1.0213366746902466,-0.20722992718219757,0.11606097966432571
1701882049015906600,0.344906494140625,0.9797990322113037,-0.23166382312774658,0.04886778071522713
1701882049025499400,0.35449951171875,0.8600729703903198,-0.2658712565898895,0.021837789565324783
1701882049035093000,0.364093017578125,0.7049177289009094,-0.27564483880996704,0.03542914241552353
1701882049044685600,0.373685546875,0.5583143830299377,-0.2805316150188446,0.05986303091049194
1701882049054277400,0.38327734375,0.4434750974178314,-0.27564483880996704,0.07574506103992462
1701882049063870200,0.3928701171875,0.365286648273468,-0.2438807636499405,0.0794101431965828
1701882049073463600,0.402463623046875,0.31886225938796997,-0.19867807626724243,0.07330167293548584
1701882049083056000,0.41205615234375,0.2993151545524597,-0.1644706279039383,0.05619794875383377
1701882049092648200,0.421648193359375,0.2870981991291046,-0.1522536724805832,0.030542362481355667
1701882049102240800,0.43124072265625,0.2724378705024719,-0.14003673195838928,0.0035123717971146107
1701882049111834000,0.440834228515625,0.2516690790653229,-0.13026317954063416,-0.02092151902616024
1701882049121427000,0.450427001953125,0.23090025782585144,-0.13026317954063416,-0.03558185324072838
1701882049131018800,0.460018798828125,0.21501824259757996,-0.1510319858789444,-0.031916771084070206
1701882049140611300,0.469611328125,0.2101314514875412,-0.1779092699289322,-0.012369656935334206
1701882049150205000,0.479204833984375,0.21257483959197998,-0.2011214643716812,0.024433890357613564
1701882049159797500,0.488797607421875,0.21257483959197998,-0.21944688260555267,0.06719319522380829
1701882049169389600,0.4983896484375,0.20157960057258606,-0.22555534541606903,0.10995250940322876
1701882049178982100,0.507982177734375,0.1832541823387146,-0.2157817929983139,0.14904673397541046
1701882049188575700,0.51757568359375,0.17592400312423706,-0.17180079221725464,0.17958909273147583
1701882049198168300,0.527168212890625,0.18814095854759216,-0.09727742522954941,0.1966928243637085
1701882049207760100,0.536760009765625,0.21623992919921875,-0.020310672000050545,0.18691925704479218
1701882049217352700,0.546352783203125,0.25289076566696167,0.04199574887752533,0.1575985997915268
1701882049226946300,0.5559462890625,0.2919849753379822,0.10185877978801727,0.129499614238739
1701882049236539000,0.565538818359375,0.34451785683631897,0.15805672109127045,0.10873081535100937
1701882049246131000,0.575130859375,0.4080459773540497,0.20692451298236847,0.08918370306491852
1701882049255723500,0.5847236328125,0.4727957844734192,0.2545706033706665,0.0659715011715889
1701882049265317000,0.594317138671875,0.5338805317878723,0.2680092453956604,0.03298575058579445
1701882049274909700,0.60390966796875,0.577861487865448,0.2423536479473114,-0.016034740954637527
1701882049284501500,0.61350146484375,0.5937435626983643,0.2154763638973236,-0.07101099193096161
1701882049294094300,0.62309423828125,0.5864133834838867,0.15683503448963165,-0.1113269105553627
1701882049303687700,0.632687744140625,0.5705313682556152,0.1250709742307663,-0.1369825005531311
1701882049313280300,0.6422802734375,0.5668662786483765,0.11774080991744995,-0.1626380831003189
1701882049322872300,0.651872314453125,0.5766398310661316,0.1250709742307663,-0.19440214335918427
1701882049332465000,0.66146484375,0.6120689511299133,0.14583978056907654,-0.23838314414024353
1701882049342058500,0.67105859375,0.5705313682556152,0.15439164638519287,-0.3067980408668518
1701882049351651000,0.680651123046875,0.4569137394428253,0.16905197501182556,-0.37765631079673767
1701882049361243000,0.690242919921875,0.3384093940258026,0.1898207813501358,-0.41675055027008057
1701882049370835700,0.699835693359375,0.24678228795528412,0.18493400514125824,-0.42163732647895813
1701882049380429000,0.709428955078125,0.17470231652259827,0.1519482582807541,-0.40575528144836426
1701882049390022000,0.71902197265625,0.11239589750766754,0.12140589207410812,-0.3849864900112152
1701882049399613700,0.72861376953125,0.05741964280605316,0.111632339656353,-0.36788275837898254
1701882049409206300,0.738206298828125,0.014660334214568138,0.14706148207187653,-0.3617742955684662
1701882049418799900,0.7477998046875,-0.004886778071522713,0.2289150059223175,-0.3739912211894989
1701882049428392400,0.757392333984375,-0.0036650835536420345,0.28633466362953186,-0.39598172903060913
1701882049437984300,0.766984375,0.0036650835536420345,0.2582356929779053,-0.4155288338661194
1701882049447577000,0.7765771484375,0.023212196305394173,0.16538690030574799,-0.4155288338661194
1701882049457170700,0.786170654296875,0.05986303091049194,0.04077405482530594,-0.3972034156322479
1701882049466763300,0.79576318359375,0.10995250940322876,-0.08994726091623306,-0.36788275837898254
1701882049476355000,0.80535498046875,0.17348061501979828,-0.2438807636499405,-0.3336753249168396
1701882049485947600,0.81494775390625,0.2504473626613617,-0.44546034932136536,-0.28725093603134155
1701882049495541200,0.824541259765625,0.33596599102020264,-0.6568135023117065,-0.21883602440357208
1701882049505133800,0.8341337890625,0.42881476879119873,-0.8412894010543823,-0.12354385852813721
1701882049514726000,0.843725830078125,0.5326588153839111,-0.9976662993431091,-0.006261184345930815
1701882049524318500,0.853318359375,0.6572716236114502,-1.1381611824035645,0.12705622613430023
1701882049533912000,0.862912109375,0.8124268651008606,-1.2823210954666138,0.26632940769195557
1701882049543504600,0.872504638671875,1.007897973060608,-1.4777922630310059,0.390942245721817
1701882049553096400,0.882096435546875,1.249793529510498,-1.766264796257019,0.48989951610565186
1701882049562689300,0.891689208984375,1.534448266029358,-2.1620938777923584,0.5558710098266602
1701882049572282600,0.90128271484375,1.8362069129943848,-2.6275594234466553,0.6035171151161194
1701882049581875500,0.91087548828125,2.123305082321167,-3.1162374019622803,0.6511631608009338
1701882049591467300,0.92046728515625,2.3358798027038574,-3.5426087379455566,0.726908266544342
1701882049601059800,0.930059814453125,2.423841953277588,-3.7539618015289307,0.8478559851646423
1701882049610653400,0.9396533203125,2.4250636100769043,-3.769843816757202,1.0164498090744019
1701882049620246000,0.94924609375,2.3908562660217285,-3.670886516571045,1.220472812652588
1701882049629838000,0.958838134765625,2.3419883251190186,-3.457090139389038,1.4440429210662842
1701882049639430700,0.9684306640625,2.2784602642059326,-2.991624355316162,1.6578394174575806
1701882049649024300,0.978024169921875,2.2137105464935303,-2.317249059677124,1.8472020626068115
1701882049658616800,0.987616943359375,2.1538474559783936,-1.5695720911026,1.988918662071228
1701882049668208600,0.997208740234375,2.1330785751342773,-0.7875348329544067,2.074437379837036
1701882049677801500,1.006801513671875,2.18438982963562,-0.015423892997205257,2.1123099327087402
1701882049687394800,1.016394775390625,2.262578248977661,0.6516213417053223,2.080545663833618
1701882049696987400,1.0259873046875,2.30533766746521,1.2026054859161377,1.9620413780212402
1701882049706579500,1.035579345703125,2.2833471298217773,1.5813308954238892,1.7580183744430542
1701882049716172000,1.045172119140625,2.1856114864349365,1.7230473756790161,1.484358787536621
1701882049725765600,1.054765625,2.021904468536377,1.6582975387573242,1.1593880653381348
1701882049735358200,1.064358154296875,1.7885607481002808,1.520246148109436,0.8124268651008606
1701882049744950000,1.073949951171875,1.4501514434814453,1.3980766534805298,0.4752391576766968
1701882049754542800,1.08354296875,1.0433270931243896,1.2624685764312744,0.18936264514923096
1701882049764136200,1.09313623046875,0.6853706240653992,1.065775752067566,0.013285927474498749
1701882049773729000,1.10272900390625,0.4434750974178314,0.7970029711723328,-0.03680354729294777
1701882049783320800,1.11232080078125,0.3261924386024475,0.48791423439979553,0.01695101149380207
1701882049792913400,1.121913330078125,0.32130566239356995,0.1910424828529358,0.13560809195041656
1701882049802507000,1.131507080078125,0.4056025743484497,-0.04352286830544472,0.2748812735080719
1701882049812099600,1.141099609375,0.5632011890411377,-0.23532891273498535,0.4056025743484497
1701882049821691600,1.150691650390625,0.7879929542541504,-0.4161396920681,0.5253286361694336
1701882049831284200,1.1602841796875,1.0726478099822998,-0.5688515305519104,0.6450546979904175
1701882049840877800,1.1698779296875,1.4135005474090576,-0.7264500856399536,0.7721109390258789
1701882049850470400,1.179470458984375,1.7714570760726929,-1.0013313293457031,0.9003888368606567
1701882049860062200,1.189062255859375,2.0927627086639404,-1.450914978981018,1.0237799882888794
1701882049869655000,1.198655029296875,2.334658145904541,-2.0387027263641357,1.1593880653381348
1701882049879248400,1.208248291015625,2.4885916709899902,-2.644663095474243,1.3328686952590942
1701882049888841200,1.21784130859375,2.597322463989258,-3.1541097164154053,1.5674340724945068
1701882049898433000,1.22743310546875,2.7292654514312744,-3.4986276626586914,1.8398720026016235
1701882049908025600,1.237025634765625,2.907633066177368,-3.645231008529663,2.0903193950653076
1701882049917619200,1.246619140625,3.118986129760742,-3.639122486114502,2.282125473022461
1701882049927211800,1.256211669921875,3.3401129245758057,-3.549938917160034,2.392077922821045
1701882049936803800,1.265803955078125,3.514815092086792,-3.4534249305725098,2.4201767444610596
1701882049946396400,1.275396484375,3.6320977210998535,-3.3691279888153076,2.404294729232788
1701882049955990000,1.284989990234375,3.7310550212860107,-3.3141517639160156,2.351762056350708
1701882049965582600,1.29458251953125,3.801913261413574,-3.2909395694732666,2.2784602642059326
1701882049975174400,1.30417431640625,3.832455635070801,-3.248180389404297,2.195384979248047
1701882049984767200,1.313767333984375,3.8495593070983887,-3.182208776473999,2.1013145446777344
1701882049994360600,1.323360595703125,3.8422293663024902,-3.0930252075195312,1.9730366468429565
1701882050003953400,1.332953369140625,3.7506022453308105,-2.9671905040740967,1.8044427633285522
1701882050013545200,1.342545166015625,3.584451675415039,-2.7876014709472656,1.619966983795166
1701882050023138000,1.352137939453125,3.4085276126861572,-2.548149347305298,1.4415994882583618
1701882050032731400,1.3617314453125,3.2668111324310303,-2.270824670791626,1.2791141271591187
1701882050042324000,1.371323974609375,3.1861793994903564,-1.9898349046707153,1.132510781288147
1701882050051916000,1.380916015625,3.1605236530303955,-1.7613780498504639,0.9797990322113037
1701882050061508600,1.390508544921875,3.1202077865600586,-1.6514256000518799,0.763559103012085
1701882050071102200,1.400102294921875,2.899080991744995,-1.7393875122070312,0.35795649886131287
1701882050080694800,1.40969482421875,2.395742893218994,-1.9922783374786377,-0.2579302489757538
1701882050090286600,1.41928662109375,1.8264333009719849,-2.1853060722351074,-0.8284615874290466
1701882050099879400,1.42887939453125,1.4318259954452515,-2.325800895690918,-1.2438377141952515
1701882050109472800,1.43847265625,1.3585243225097656,-2.4345316886901855,-1.6408884525299072
1701882050119065600,1.448065673828125,1.4257174730300903,-2.10589599609375,-1.912104606628418
1701882050128657400,1.457657470703125,1.5185662508010864,-1.450914978981018,-2.0025100708007812
1701882050138250000,1.46725,1.637070655822754,-0.7911999225616455,-1.9279866218566895
1701882050147843600,1.476843505859375,1.8288767337799072,-0.30130040645599365,-1.714190125465393
1701882050157436200,1.486436279296875,2.100092887878418,0.0981936976313591,-1.3965495824813843
1701882050167028000,1.496028076171875,2.3884127140045166,0.4390464723110199,-1.0263761281967163
1701882050176620800,1.505620849609375,2.528907537460327,0.5270084738731384,-0.6305471062660217
1701882050186214400,1.51521435546875,2.5472331047058105,0.2716743052005768,-0.28969430923461914
1701882050195807000,1.524806884765625,2.5557849407196045,-0.2011214643716812,-0.0978882759809494
1701882050205398800,1.534398681640625,2.5582282543182373,-0.7850914597511292,-0.10888352245092392
1701882050214991600,1.54399169921875,2.5875489711761475,-1.2749909162521362,-0.2652604281902313
1701882050224585000,1.5535849609375,2.6425251960754395,-1.4313678741455078,-0.40697699785232544
1701882050234177800,1.563177734375,2.6865062713623047,-1.4386980533599854,-0.4497362971305847
1701882050243769600,1.57276953125,2.5154690742492676,-1.343405842781067,-0.4008685052394867
1701882050253362200,1.582362060546875,1.258345365524292,-0.4527905285358429,0.2883199155330658
1701882050262955800,1.591955810546875,-0.1319430023431778,0.4647020399570465,1.170383334159851
1701882050272548400,1.60154833984375,-0.3799470067024231,0.5099047422409058,0.836860716342926
1701882050282140200,1.61114013671875,0.2211267054080963,0.4109475016593933,-0.24449162185192108
1701882050291733000,1.62073291015625,0.8319739699363708,0.8800781965255737,-1.0117157697677612
1701882050301326600,1.63032666015625,1.2192511558532715,1.5972129106521606,-1.3586770296096802
1701882050310919200,1.639919189453125,1.461146593093872,1.7230473756790161,-1.394106149673462
1701882050320511000,1.649510986328125,1.5368916988372803,0.9374978542327881,-1.0447015762329102
1701882050330103800,1.659103759765625,1.429382562637329,0.43538138270378113,-0.8785510659217834
1701882050339697200,1.668697265625,1.2803359031677246,0.2545706033706665,-0.8455653190612793
1701882050349289700,1.678289794921875,1.225359559059143,0.037108972668647766,-0.774707019329071
1701882050358881800,1.6878818359375,1.2827792167663574,-0.10216420143842697,-0.7075138092041016
1701882050368474400,1.697474365234375,1.3939534425735474,-0.02641914412379265,-0.650094211101532
1701882050378068000,1.70706787109375,1.51734459400177,0.12262758612632751,-0.6000047326087952
1701882050387660500,1.71666064453125,1.595533013343811,0.23624517023563385,-0.5829010009765625
1701882050397252600,1.726252685546875,1.604084849357605,0.31443363428115845,-0.5719057321548462
1701882050406845200,1.73584521484375,1.5295615196228027,0.319320410490036,-0.5609105229377747
1701882050416438800,1.745438720703125,1.346307396888733,0.25212720036506653,-0.492495596408844
1701882050426031400,1.75503125,1.0836430788040161,0.11407572776079178,-0.3446705639362335
1701882050435623200,1.764623046875,0.8747332692146301,-0.10094250738620758,-0.17363333702087402
1701882050445216000,1.774216064453125,0.763559103012085,-0.31473904848098755,-0.00015271181473508477
1701882050454809300,1.783809326171875,0.6988092660903931,-0.3953709006309509,0.1453816443681717
1701882050464402000,1.79340185546875,0.6413896083831787,-0.358720064163208,0.24678228795528412
1701882050473994000,1.802993896484375,0.6096255779266357,-0.2707580327987671,0.32374903559684753
1701882050483586600,1.812586669921875,0.5986303091049194,-0.12171131372451782,0.37139514088630676
1701882050493180200,1.82218017578125,0.582748293876648,0.07498150318861008,0.365286648273468
1701882050502772700,1.831772705078125,0.5680879354476929,0.21791976690292358,0.3286358118057251
1701882050512364800,1.84136474609375,0.546097457408905,0.2912214398384094,0.29565006494522095
1701882050521957400,1.850957275390625,0.5082249045372009,0.2582356929779053,0.2883199155330658
1701882050531551000,1.860551025390625,0.4837910234928131,0.07375980913639069,0.3017585575580597
1701882050541143600,1.8701435546875,0.49112120270729065,-0.2829749882221222,0.2870981991291046
1701882050550735400,1.8797353515625,0.49234288930892944,-0.73255854845047,0.19913621246814728
1701882050560328200,1.889328125,0.5265503525733948,-1.0697462558746338,0.05375456064939499
1701882050569921500,1.898921630859375,0.5522059202194214,-1.1625950336456299,-0.0331384651362896
1701882050579514000,1.90851416015625,0.5522059202194214,-1.0037747621536255,0.004734066314995289
1701882050589106200,1.918106201171875,0.6022953987121582,-0.6311579346656799,0.12094775587320328
1701882050598698800,1.92769873046875,0.7391251921653748,-0.2927485406398773,0.22723518311977386
1701882050608292400,1.937292236328125,0.962695300579071,-0.1779092699289322,0.2993151545524597
1701882050617885000,1.946885009765625,1.2339115142822266,-0.24998924136161804,0.3530697226524353
1701882050627477000,1.95647705078125,1.5161229372024536,-0.30740886926651,0.3506263196468353
1701882050637069600,1.966069580078125,1.7042638063430786,-0.44790375232696533,0.3567348122596741
1701882050646663200,1.9756630859375,1.6932686567306519,-0.1766875684261322,0.37139514088630676
1701882050656255700,1.985255859375,1.5002409219741821,0.2423536479473114,0.2223484069108963
1701882050665847600,1.99484765625,1.2998830080032349,0.08108997344970703,0.06963659077882767
1701882050675440400,2.0044404296875,1.1606098413467407,-0.24510246515274048,0.05375456064939499
1701882050685033700,2.01403369140625,1.0836430788040161,-0.4931064546108246,0.129499614238739
1701882050694626300,2.023626220703125,1.0298885107040405,-0.5883986353874207,0.2235700935125351
1701882050704218400,2.03321826171875,0.9700254201889038,-0.6250494718551636,0.33474430441856384
1701882050713811000,2.04281103515625,0.8942803740501404,-0.6946860551834106,0.4556920528411865
1701882050723404500,2.052404541015625,0.781884491443634,-0.6934643387794495,0.6120689511299133
1701882050732997000,2.0619970703125,0.6255075931549072,-0.5957288146018982,0.8454126119613647
1701882050742589200,2.071589111328125,0.4715740978717804,-0.5749599933624268,1.0946383476257324
1701882050752181800,2.081181640625,0.41048935055732727,-0.649483323097229,0.9871291518211365
1701882050761775400,2.090775390625,0.4960079789161682,-0.5566345453262329,0.4556920528411865
1701882050771368000,2.100367919921875,0.6633801460266113,-0.3892624080181122,-0.30068957805633545
1701882050780959700,2.109959716796875,0.652384877204895,-0.3978142738342285,-1.1045645475387573
1701882050790552600,2.119552490234375,-0.012216945178806782,-0.1498102843761444,-1.5358227491378784
1701882050800146000,2.12914599609375,0.32008397579193115,0.3718532621860504,-1.5785820484161377
1701882050809738500,2.138738525390625,1.4782503843307495,0.8287670016288757,-1.0605835914611816
1701882050819330600,2.14833056640625,1.226581335067749,0.448820024728775,-0.3568875193595886
1701882050828923100,2.157923095703125,0.14049486815929413,-0.19623468816280365,0.130721315741539
1701882050838516700,2.167516845703125,-0.30664533376693726,-0.5163186192512512,0.21990501880645752
1701882050848109300,2.177109375,-0.26877278089523315,-0.20722992718219757,0.10873081535100937
1701882050857701400,2.186701416015625,-0.08674030750989914,0.05543438717722893,0.03298575058579445
1701882050867294000,2.1962939453125,-0.0525328628718853,-0.08994726091623306,0.01817270554602146
1701882050876887600,2.205887451171875,-0.03665083646774292,-0.14614520967006683,-0.02092151902616024
1701882050886480100,2.215480224609375,-0.045202698558568954,-0.0032069480512291193,-0.11010521650314331
1701882050896072000,2.225072021484375,-0.05131116881966591,0.06154286116361618,-0.1626380831003189
1701882050905664800,2.234664794921875,-0.043981000781059265,0.08842013776302338,-0.1650814712047577
1701882050915258000,2.244258056640625,-0.03665083646774292,0.10308047384023666,-0.14675605297088623
1701882050924850700,2.2538505859375,-0.03298575058579445,0.0847550556063652,-0.13453911244869232
1701882050934442800,2.26344287109375,-0.026877280324697495,0.0725381150841713,-0.14064757525920868
1701882050944035300,2.273035400390625,-0.029320668429136276,0.0590994730591774,-0.16141638159751892
1701882050953629000,2.28262890625,-0.025655584409832954,0.04077405482530594,-0.19318044185638428
1701882050963221500,2.292221435546875,-0.02076880633831024,0.051769305020570755,-0.22494450211524963
1701882050972813600,2.3018134765625,-0.01832541823387146,0.1250709742307663,-0.26281702518463135
1701882050982406100,2.31140625,-0.013438640162348747,0.24846212565898895,-0.3593308925628662
1701882050991999500,2.32099951171875,-0.026877280324697495,0.32665055990219116,-0.492495596408844
1701882051001592300,2.33059228515625,-0.026877280324697495,0.3828485310077667,-0.5352548956871033
1701882051011184000,2.34018408203125,0.0024433890357613564,0.4634803533554077,-0.4240806996822357
1701882051020777000,2.34977685546875,0.046424392610788345,0.5709894895553589,-0.23716144263744354
1701882051030370300,2.359370361328125,0.10873081535100937,0.5880932211875916,-0.029473381116986275
1701882051039963000,2.368962890625,0.1820324808359146,0.49646610021591187,0.12094775587320328
1701882051049555000,2.378554931640625,0.17592400312423706,0.7114843726158142,0.03542914241552353
1701882051059147500,2.3881474609375,0.07330167293548584,0.9497147798538208,-0.23593975603580475
1701882051068741000,2.3977412109375,-0.023212196305394173,0.3975088596343994,-0.3458922505378723
1701882051078333700,2.407333740234375,-0.021990500390529633,0.14706148207187653,-0.3067980408668518
1701882051087925500,2.416925537109375,-0.030542362481355667,0.26434415578842163,-0.2176143378019333
1701882051097518300,2.426518310546875,-0.06963659077882767,0.3987305462360382,-0.1516428291797638
1701882051107111700,2.436111572265625,-0.08796200156211853,0.4366030693054199,-0.14064757525920868
1701882051116704500,2.44570458984375,-0.08918370306491852,0.43415969610214233,-0.1638597846031189
1701882051126296300,2.45529638671875,-0.09040539711713791,0.44759833812713623,-0.18340688943862915
1701882051135889200,2.46488916015625,-0.0916270911693573,0.47203221917152405,-0.18707197904586792
1701882051145482500,2.474482421875,-0.08918370306491852,0.5001311898231506,-0.17974179983139038
1701882051155075000,2.484074951171875,-0.0794101431965828,0.5367820262908936,-0.17118994891643524
1701882051164667100,2.493667236328125,-0.0659715011715889,0.5734328627586365,-0.16752485930919647
1701882051174259700,2.503259765625,-0.046424392610788345,0.6027535200119019,-0.1650814712047577
1701882051183853300,2.512853271484375,-0.023212196305394173,0.6186355352401733,-0.1638597846031189
1701882051193446000,2.52244580078125,0,0.6296308040618896,-0.15408621728420258
1701882051203037700,2.53203759765625,0.02076880633831024,0.6369609832763672,-0.13576079905033112
1701882051212630500,2.541630615234375,0.03542914241552353,0.640626072883606,-0.1113269105553627
1701882051222224000,2.551223876953125,0.05008947476744652,0.6430694460868835,-0.09177979826927185
1701882051231816400,2.56081640625,0.0647498071193695,0.6332958936691284,-0.08322793990373611
1701882051241408500,2.570408447265625,0.08185353130102158,0.6186355352401733,-0.0844496339559555
1701882051251001300,2.58000146484375,0.1050657257437706,0.5795413255691528,-0.09055810421705246
1701882051260594700,2.5895947265625,0.130721315741539,0.5233433842658997,-0.09300149232149124
1701882051270187300,2.599187255859375,0.15149012207984924,0.45981526374816895,-0.08933641016483307
1701882051279779300,2.608779296875,0.16737215220928192,0.4011739492416382,-0.08078455179929733
1701882051289372000,2.618371826171875,0.17836740612983704,0.35108447074890137,-0.072232685983181
1701882051298965500,2.627965576171875,0.18936264514923096,0.3058817684650421,-0.06490252166986465
1701882051308558000,2.63755810546875,0.1966928243637085,0.2692309319972992,-0.0587940476834774
1701882051318150000,2.64714990234375,0.20035789906978607,0.24724042415618896,-0.047798797488212585
1701882051327742700,2.65674267578125,0.20035789906978607,0.2313583940267563,-0.03802524134516716
1701882051337336000,2.666336181640625,0.1966928243637085,0.21058958768844604,-0.027029991149902344
1701882051346928600,2.6759287109375,0.18691925704479218,0.18126893043518066,-0.014813045971095562
1701882051356520700,2.685520751953125,0.17348061501979828,0.14461809396743774,-0.00259610079228878
1701882051366113300,2.69511328125,0.1575985997915268,0.0981936976313591,0.01572931744158268
1701882051375707000,2.704706787109375,0.13805148005485535,0.04321744292974472,0.03298575058579445
1701882051385299500,2.714299560546875,0.11606097966432571,-0.019088976085186005,0.05131116881966591
1701882051394891300,2.723891357421875,0.09651386737823486,-0.0716218426823616,0.07452336698770523
1701882051404484000,2.733484130859375,0.0781884491443634,-0.12171131372451782,0.09773556143045425
1701882051414077400,2.743077392578125,0.062306419014930725,-0.17057909071445465,0.11239589750766754
1701882051423670300,2.752670166015625,0.05008947476744652,-0.20600824058055878,0.1172826737165451
1701882051433262000,2.762261962890625,0.045202698558568954,-0.23288552463054657,0.12216944992542267
1701882051442855000,2.77185498046875,0.045202698558568954,-0.2536543309688568,0.12705622613430023
1701882051452448300,2.7814482421875,0.05741964280605316,-0.2707580327987671,0.129499614238739
1701882051462040800,2.791040771484375,0.0794101431965828,-0.2829749882221222,0.130721315741539
1701882051471633000,2.8006328125,0.10628741979598999,-0.2829749882221222,0.130721315741539
1701882051481225500,2.8102255859375,0.1319430023431778,-0.2964136302471161,0.130721315741539
1701882051490819000,2.819819091796875,0.15271180868148804,-0.3196258246898651,0.14171656966209412
1701882051500411600,2.82941162109375,0.17714570462703705,-0.30985227227211,0.15149012207984924
1701882051510003500,2.83900341796875,0.20524467527866364,-0.2976353168487549,0.16004198789596558
1701882051519596300,2.84859619140625,0.2345653474330902,-0.28908345103263855,0.17225892841815948
1701882051529189600,2.858189697265625,0.2638860046863556,-0.2707580327987671,0.18936264514923096
1701882051538782500,2.867782470703125,0.27976804971694946,-0.2695363461971283,0.20768806338310242
1701882051548374300,2.877374267578125,0.2919849753379822,-0.28541839122772217,0.2211267054080963
1701882051557966800,2.886966796875,0.3005368411540985,-0.2793098986148834,0.23212195932865143
1701882051567560400,2.896560546875,0.2980934679508209,-0.2536543309688568,0.24067382514476776
1701882051577153000,2.906153076171875,0.2919849753379822,-0.22677704691886902,0.2504473626613617
1701882051586745000,2.9157451171875,0.28221142292022705,-0.19989976286888123,0.2602209448814392
1701882051596337700,2.925337646484375,0.26877278089523315,-0.16935740411281586,0.26632940769195557
1701882051605931300,2.93493115234375,0.25289076566696167,-0.13392825424671173,0.27121618390083313
1701882051615523800,2.94452392578125,0.2345653474330902,-0.10338589549064636,0.26999449729919434
1701882051625115600,2.95411572265625,0.21623992919921875,-0.07650861889123917,0.2651077210903168
1701882051634708500,2.96370849609375,0.1954711228609085,-0.06062658876180649,0.25533416867256165
1701882051644301800,2.9733017578125,0.17592400312423706,-0.055739812552928925,0.24067382514476776
1701882051653894700,2.982894775390625,0.1588202863931656,-0.06062658876180649,0.2235700935125351
1701882051663486500,2.992486572265625,0.1429382562637329,-0.07773031294345856,0.20280128717422485
1701882051673079300,3.002079345703125,0.130721315741539,-0.10827267915010452,0.17592400312423706
1701882051682672600,3.011672607421875,0.11972606182098389,-0.14248012006282806,0.15271180868148804
1701882051692265200,3.02126513671875,0.11239589750766754,-0.18768282234668732,0.129499614238739
1701882051701857000,3.03085693359375,0.10995250940322876,-0.23655059933662415,0.10750912129878998
1701882051711449900,3.040449951171875,0.11117420345544815,-0.27808821201324463,0.09284878522157669
1701882051721043500,3.05004345703125,0.11239589750766754,-0.3208475112915039,0.08429691940546036
1701882051730636000,3.059635986328125,0.1172826737165451,-0.3623851239681244,0.08185353130102158
1701882051740227800,3.069227783203125,0.12094775587320328,-0.4088095426559448,0.08307522535324097
1701882051749820400,3.0788203125,0.12705622613430023,-0.4540122151374817,0.08796200156211853
1701882051759414000,3.0884140625,0.1319430023431778,-0.4943281412124634,0.09529217332601547
1701882051769006600,3.098006591796875,0.13560809195041656,-0.5248705148696899,0.10384403169155121
1701882051778598700,3.1075986328125,0.14049486815929413,-0.5676298141479492,0.10873081535100937
1701882051788191200,3.117191162109375,0.14171656966209412,-0.6042806506156921,0.10873081535100937
1701882051797784800,3.126784912109375,0.14049486815929413,-0.6250494718551636,0.11117420345544815
1701882051807377400,3.13637744140625,0.130721315741539,-0.6372663974761963,0.1185043677687645
1701882051816969200,3.14596923828125,0.1185043677687645,-0.654370129108429,0.12216944992542267
1701882051826562000,3.15556201171875,0.10140064358711243,-0.6702521443367004,0.12339114397764206
1701882051836155400,3.1651552734375,0.08063183724880219,-0.677582323551178,0.1185043677687645
1701882051845748000,3.174748046875,0.05986303091049194,-0.6836907863616943,0.10750912129878998
1701882051855340000,3.184340087890625,0.03787253051996231,-0.6861341595649719,0.09773556143045425
1701882051864932600,3.1939326171875,0.01588202826678753,-0.6946860551834106,0.08307522535324097
1701882051874526200,3.203526123046875,-0.0024433890357613564,-0.6946860551834106,0.06841489672660828
1701882051884118800,3.213118896484375,-0.02076880633831024,-0.6824691295623779,0.061084724962711334
1701882051893710800,3.2227109375,-0.04153761267662048,-0.6665870547294617,0.05864133685827255
1701882051903303400,3.232303466796875,-0.06352811306715012,-0.6555918455123901,0.05741964280605316
1701882051912896800,3.241896728515625,-0.08551861345767975,-0.6653653979301453,0.061084724962711334
1701882051922489600,3.251489501953125,-0.09895725548267365,-0.6507050395011902,0.07085828483104706
1701882051932081400,3.261081298828125,-0.09895725548267365,-0.6592568755149841,0.08063183724880219
1701882051941674200,3.27067431640625,-0.09284878522157669,-0.6348230242729187,0.08796200156211853
1701882051951267600,3.280267578125,-0.08429691940546036,-0.5932853817939758,0.09407047927379608
1701882051960860200,3.289860107421875,-0.06352811306715012,-0.5529694557189941,0.09529217332601547
1701882051970452200,3.2994521484375,-0.04031591862440109,-0.5016583204269409,0.08429691940546036
1701882051980044800,3.309044921875,-0.023212196305394173,-0.4405735731124878,0.07207997888326645
1701882051989638400,3.318638427734375,-0.008551862090826035,-0.37948885560035706,0.05497625470161438
1701882051999231000,3.32823095703125,-0.0036650835536420345,-0.32573428750038147,0.03176405653357506
1701882052008822800,3.33782275390625,-0.0036650835536420345,-0.2793098986148834,-0.00015271181473508477
1701882052018415600,3.34741552734375,-0.01588202826678753,-0.22433365881443024,-0.025808297097682953
1701882052028009000,3.357009033203125,-0.04031591862440109,-0.19867807626724243,-0.04291202127933502
1701882052037601800,3.366601806640625,-0.06719319522380829,-0.20845162868499756,-0.05757235363125801
1701882052047193600,3.376193603515625,-0.08551861345767975,-0.20845162868499756,-0.07589777559041977
1701882052056786400,3.385786376953125,-0.10017894953489304,-0.2170034945011139,-0.09910997003316879
1701882052066379800,3.3953798828125,-0.10873081535100937,-0.2279987335205078,-0.12110047042369843
1701882052075972400,3.404972412109375,-0.10750912129878998,-0.25121092796325684,-0.13576079905033112
1701882052085564200,3.414564208984375,-0.09407047927379608,-0.27197974920272827,-0.125987246632576
1701882052095157000,3.424156982421875,-0.0781884491443634,-0.2707580327987671,-0.0978882759809494
1701882052104750600,3.43375048828125,-0.05864133685827255,-0.2414373755455017,-0.05635065957903862
1701882052114343200,3.44334326171875,-0.03787253051996231,-0.19745637476444244,-0.012369656935334206
1701882052123935000,3.45293505859375,-0.024433890357613564,-0.15714046359062195,0.025655584409832954
1701882052133527600,3.462527587890625,-0.023212196305394173,-0.12171131372451782,0.05864133685827255
1701882052143121200,3.47212109375,-0.03298575058579445,-0.09239064902067184,0.08063183724880219
1701882052152713700,3.481713623046875,-0.04031591862440109,-0.06795676052570343,0.08918370306491852
1701882052162305800,3.491305908203125,-0.045202698558568954,-0.05329642444849014,0.08796200156211853
1701882052171898400,3.5008984375,-0.05008947476744652,-0.04963133856654167,0.08063183724880219
1701882052181492000,3.510491943359375,-0.04031591862440109,-0.0459662564098835,0.0659715011715889
1701882052191084500,3.52008447265625,-0.03420744836330414,-0.04718795046210289,0.045202698558568954
1701882052200676400,3.52967626953125,-0.0390942245721817,-0.07040014863014221,0.020616095513105392
1701882052210269200,3.539269287109375,-0.03176405653357506,-0.08017370104789734,-0.008704573847353458
1701882052219862500,3.548862548828125,-0.024433890357613564,-0.08872556686401367,-0.028251685202121735
1701882052229455000,3.558455078125,-0.01832541823387146,-0.09605573117733002,-0.028251685202121735
1701882052239047200,3.568047119140625,-0.01588202826678753,-0.10094250738620758,-0.014813045971095562
1701882052248639700,3.5776396484375,-0.013438640162348747,-0.09483403712511063,0.010842538438737392
1701882052258233300,3.5872333984375,-0.013438640162348747,-0.08139539510011673,0.04031591862440109
1701882052267826000,3.596825927734375,-0.013438640162348747,-0.06429167091846466,0.06841489672660828
1701882052277417700,3.606417724609375,-0.009773556143045425,-0.04718795046210289,0.08551861345767975
1701882052287010600,3.616010498046875,-0.007330167107284069,-0.03497100621461868,0.08918370306491852
1701882052296604000,3.62560400390625,-0.0012216945178806782,-0.02886253222823143,0.08185353130102158
1701882052306196700,3.63519677734375,0.004886778071522713,-0.02641914412379265,0.07207997888326645
1701882052315788500,3.64478857421875,0.012216945178806782,-0.03008422814309597,0.062306419014930725
1701882052325381000,3.654381103515625,0.03298575058579445,-0.016645587980747223,0.05864133685827255
1701882052334974700,3.663974609375,0.01832541823387146,-0.03130592033267021,0.0647498071193695
1701882052344567300,3.6735673828125,0.008551862090826035,-0.04352286830544472,0.07085828483104706
1701882052354159000,3.6831591796875,0.0012216945178806782,-0.054518118500709534,0.07452336698770523
1701882052363752000,3.692751953125,0.0012216945178806782,-0.0594048947095871,0.0794101431965828
1701882052373345500,3.702345458984375,0.004886778071522713,-0.058183200657367706,0.07696675509214401
1701882052382938000,3.711938232421875,0.010995250195264816,-0.054518118500709534,0.06719319522380829
1701882052392530000,3.721530029296875,0.01832541823387146,-0.04840964451432228,0.05619794875383377
1701882052402122500,3.73112255859375,0.028098974376916885,-0.04230117425322533,0.043981000781059265
1701882052411716000,3.740716064453125,0.03665083646774292,-0.037414394319057465,0.026877280324697495
1701882052421308700,3.75030859375,0.046424392610788345,-0.0325276181101799,0.01572931744158268
1701882052430900700,3.759900634765625,0.05375456064939499,-0.02764083817601204,0.01572931744158268
1701882052440493300,3.769493408203125,0.05864133685827255,-0.021532366052269936,0.023212196305394173
1701882052450087000,3.7790869140625,0.06352811306715012,-0.017867282032966614,0.03298575058579445
1701882052459679500,3.788679443359375,0.06719319522380829,-0.014202198944985867,0.045202698558568954
1701882052469271300,3.798271240234375,0.06963659077882767,-0.009315420873463154,0.05375456064939499
1701882052478864100,3.807864013671875,0.07207997888326645,-0.0032069480512291193,0.061084724962711334
1701882052488457500,3.81745751953125,0.07330167293548584,0.004123218823224306,0.06841489672660828
1701882052498050000,3.827050048828125,0.07207997888326645,0.01511846948415041,0.07696675509214401
1701882052507642000,3.83664208984375,0.07207997888326645,0.0261137206107378,0.08429691940546036
1701882052517234700,3.846234619140625,0.06963659077882767,0.032222192734479904,0.08796200156211853
1701882052526828300,3.855828369140625,0.06963659077882767,0.033443886786699295,0.09040539711713791
1701882052536420900,3.8654208984375,0.06841489672660828,0.03588727489113808,0.08796200156211853
1701882052546012700,3.8750126953125,0.06719319522380829,0.04077405482530594,0.0794101431965828
1701882052555605500,3.88460546875,0.0659715011715889,0.0456608310341835,0.0647498071193695
1701882052565198800,3.89419873046875,0.06352811306715012,0.04932591691613197,0.05619794875383377
1701882052574791700,3.903791748046875,0.05986303091049194,0.05543438717722893,0.05375456064939499
1701882052584383500,3.913383544921875,0.05375456064939499,0.0713164210319519,0.05008947476744652
1701882052593976000,3.92297607421875,0.04886778071522713,0.10430216789245605,0.042759306728839874
1701882052603569700,3.932569580078125,0.043981000781059265,0.1250709742307663,0.04153761267662048
1701882052613162200,3.942162353515625,0.04031591862440109,0.12262758612632751,0.04886778071522713
1701882052622754300,3.95175439453125,0.04153761267662048,0.1104106456041336,0.05864133685827255
1701882052632347000,3.961346923828125,0.043981000781059265,0.0847550556063652,0.06963659077882767
1701882052641940500,3.9709404296875,0.046424392610788345,0.07009471952915192,0.08551861345767975
1701882052651533000,3.980532958984375,0.046424392610788345,0.07009471952915192,0.10140064358711243
1701882052661124900,3.990124755859375,0.043981000781059265,0.08842013776302338,0.11117420345544815
1701882052670717400,3.999717529296875,0.0390942245721817,0.111632339656353,0.1172826737165451
1701882052680311000,4.00931103515625,0.03665083646774292,0.13240113854408264,0.11972606182098389
1701882052689903600,4.018903564453125,0.03665083646774292,0.1507265567779541,0.12339114397764206
1701882052699495700,4.02849560546875,0.042759306728839874,0.16783028841018677,0.12216944992542267
1701882052709088300,4.038088134765625,0.05375456064939499,0.18615570664405823,0.12094775587320328
1701882052718681900,4.047681884765625,0.06963659077882767,0.20814619958400726,0.12094775587320328
1701882052728274400,4.0572744140625,0.09040539711713791,0.2289150059223175,0.1185043677687645
1701882052737866200,4.0668662109375,0.11239589750766754,0.25090551376342773,0.1185043677687645
1701882052747459000,4.076458984375,0.1319430023431778,0.27411770820617676,0.12216944992542267
1701882052757052400,4.086052490234375,0.15149012207984924,0.2973299026489258,0.1319430023431778
1701882052766645000,4.09564501953125,0.16370706260204315,0.31687700748443604,0.1441599577665329
1701882052776237000,4.105237060546875,0.17348061501979828,0.3364241421222687,0.1563768982887268
1701882052785829600,4.11482958984375,0.17958909273147583,0.35597124695777893,0.16737215220928192
1701882052795423200,4.12442333984375,0.1832541823387146,0.3694098889827728,0.17592400312423706
1701882052805015800,4.134015869140625,0.1844758689403534,0.3828485310077667,0.18814095854759216
1701882052814607600,4.143607666015625,0.18569757044315338,0.3962871730327606,0.1954711228609085
1701882052824200400,4.153200439453125,0.18814095854759216,0.40361732244491577,0.19913621246814728
1701882052833793800,4.162793701171875,0.19180603325366974,0.4158342778682709,0.20280128717422485
1701882052843386600,4.17238671875,0.19302773475646973,0.425607830286026,0.20280128717422485
1701882052852978400,4.181978515625,0.19302773475646973,0.4390464723110199,0.20524467527866364
1701882052862571000,4.191571044921875,0.19302773475646973,0.4622586667537689,0.20524467527866364
1701882052872164600,4.20116455078125,0.19424942135810852,0.48791423439979553,0.20646637678146362
1701882052881757200,4.210757080078125,0.1954711228609085,0.5111264586448669,0.2101314514875412
1701882052891349200,4.220349365234375,0.1979145109653473,0.5282301902770996,0.21257483959197998
1701882052900941800,4.22994189453125,0.20035789906978607,0.5404471158981323,0.21746163070201874
1701882052910535200,4.23953515625,0.20402298867702484,0.5465555787086487,0.22479179501533508
1701882052920128000,4.2491279296875,0.2089097648859024,0.5502206683158875,0.24067382514476776
1701882052929719800,4.2587197265625,0.21379654109477997,0.5551074743270874,0.25777754187583923
1701882052939312400,4.2683125,0.21868331730365753,0.5563291311264038,0.28098973631858826
1701882052948906000,4.277906005859375,0.22601348161697388,0.5514423847198486,0.30786702036857605
1701882052958498600,4.28749853515625,0.237008735537529,0.5380037426948547,0.3310792148113251
1701882052968090400,4.29709033203125,0.2516690790653229,0.5221216678619385,0.3518480062484741
1701882052977683200,4.30668310546875,0.26877278089523315,0.5123481154441833,0.367730051279068
1701882052987276800,4.31627685546875,0.2919849753379822,0.49646610021591187,0.3787252902984619
1701882052996869400,4.325869384765625,0.3139754831790924,0.48302745819091797,0.3897205591201782
1701882053006461200,4.335461181640625,0.3261924386024475,0.4769189953804016,0.39827242493629456
1701882053016053800,4.3450537109375,0.3298575282096863,0.4622586667537689,0.3970507085323334
1701882053025647400,4.3546474609375,0.3261924386024475,0.4512633979320526,0.3921639323234558
1701882053035240000,4.364239990234375,0.32130566239356995,0.4390464723110199,0.3823903799057007
1701882053044832000,4.37383203125,0.31031039357185364,0.4158342778682709,0.3665083646774292
1701882053054424600,4.383424560546875,0.28221142292022705,0.3877353072166443,0.3432961702346802
1701882053064018200,4.39301806640625,0.2345653474330902,0.35597124695777893,0.3176405727863312
1701882053073610800,4.40261083984375,0.1710372269153595,0.319320410490036,0.29320669174194336
1701882053083202600,4.41220263671875,0.10262233763933182,0.30099499225616455,0.2638860046863556
1701882053092795400,4.42179541015625,0.0647498071193695,0.2973299026489258,0.22479179501533508
1701882053102388700,4.431388671875,0.05375456064939499,0.21914145350456238,0.19058434665203094
1701882053111981300,4.440981201171875,0.05375456064939499,0.0859767496585846,0.17348061501979828
1701882053121573400,4.450573486328125,0.061084724962711334,-0.016645587980747223,0.16370706260204315
1701882053131166000,4.460166015625,0.08307522535324097,-0.07773031294345856,0.15515519678592682
1701882053140759600,4.469759521484375,0.11606097966432571,-0.13270656764507294,0.1441599577665329
1701882053150352100,4.47935205078125,0.1575985997915268,-0.19623468816280365,0.12216944992542267
1701882053159944000,4.48894384765625,0.21379654109477997,-0.25976279377937317,0.09895725548267365
1701882053169536800,4.498536865234375,0.261442631483078,-0.3452814221382141,0.0794101431965828
1701882053179130000,4.508130126953125,0.2858765125274658,-0.42957833409309387,0.05497625470161438
1701882053188722700,4.51772265625,0.2858765125274658,-0.49921491742134094,0.009620844386518002
1701882053198314800,4.527314697265625,0.24678228795528412,-0.5651864409446716,-0.06734590977430344
1701882053207907300,4.5369072265625,0.18569757044315338,-0.6128324866294861,-0.149199441075325
1701882053217501000,4.5465009765625,0.11117420345544815,-0.6299362182617188,-0.22372281551361084
1701882053227093500,4.556093505859375,-0.008551862090826035,-0.8425110578536987,-0.23838314414024353
1701882053236685300,4.565685302734375,-0.09651386737823486,-0.9940012097358704,-0.24693500995635986
1701882053246278100,4.575278076171875,-0.129499614238739,-1.0147700309753418,-0.2664821147918701
1701882053255871500,4.58487158203125,-0.1575985997915268,-0.9927794933319092,-0.2725905776023865
1701882053265464000,4.594464111328125,-0.16859383881092072,-0.8889354467391968,-0.21150586009025574
1701882053275056000,4.60405615234375,-0.1050657257437706,-0.6384881138801575,-0.07467607408761978
1701882053284648700,4.613648681640625,-0.061084724962711334,-0.5346440672874451,-0.024586603045463562
1701882053294242300,4.6232421875,-0.03665083646774292,-0.543195903301239,-0.0587940476834774
1701882053303835000,4.6328349609375,-0.026877280324697495,-0.5871769189834595,-0.15897299349308014
1701882053313426700,4.6424267578125,-0.025655584409832954,-0.5774033665657043,-0.23838314414024353
1701882053323019500,4.65201953125,0.043981000781059265,-0.5260922312736511,-0.22250111401081085
1701882053332612900,4.66161279296875,0.16492876410484314,-0.462564080953598,-0.15652960538864136
1701882053342205700,4.671205810546875,0.23334364593029022,-0.3831539452075958,-0.11254860460758209
1701882053351797500,4.680797607421875,0.25533416867256165,-0.3465031087398529,-0.1113269105553627
1701882053361390000,4.69039013671875,0.29565006494522095,-0.27442312240600586,-0.14797775447368622
1701882053370983700,4.699983642578125,0.3054236173629761,-0.3306210935115814,-0.16874656081199646
1701882053380576300,4.709576171875,0.21501824259757996,-0.5566345453262329,-0.12720894813537598
1701882053390168000,4.71916796875,0.12216944992542267,-0.5822901725769043,-0.06734590977430344
1701882053399761000,4.728760986328125,0.01954711228609085,-0.5505260825157166,0.0010689827613532543
1701882053409354200,4.738354248046875,-0.10140064358711243,-0.5920637249946594,0.07085828483104706
1701882053418946800,4.74794677734375,-0.20402298867702484,-0.5932853817939758,0.12583453953266144
1701882053428539000,4.757538818359375,-0.2724378705024719,-0.5737382769584656,0.1698155403137207
1701882053438131500,4.76713134765625,-0.30908870697021484,-0.5578562617301941,0.21623992919921875
1701882053447725000,4.77672509765625,-0.30908870697021484,-0.5810684561729431,0.25777754187583923
1701882053457317600,4.786317626953125,-0.29687178134918213,-0.5676298141479492,0.27121618390083313
1701882053466909400,4.795909423828125,-0.2724378705024719,-0.5260922312736511,0.237008735537529
1701882053476502300,4.805502197265625,-0.20524467527866364,-0.4955498278141022,0.17348061501979828
1701882053486095600,4.815095703125,-0.10995250940322876,-0.44301697611808777,0.09407047927379608
1701882053495688400,4.8246884765625,-0.03542914241552353,-0.38071054220199585,0.01572931744158268
1701882053505280300,4.8342802734375,0.03420744836330414,-0.2927485406398773,-0.06368082761764526
1701882053514873000,4.843873046875,0.0647498071193695,-0.1498102843761444,-0.1369825005531311
1701882053524466400,4.853466552734375,0.08918370306491852,0.032222192734479904,-0.18585027754306793
1701882053534059000,4.86305908203125,0.11361759155988693,0.1776038408279419,-0.19318044185638428
1701882053543651000,4.872651123046875,0.11239589750766754,0.2716743052005768,-0.19195875525474548
1701882053553243600,4.88224365234375,0.09040539711713791,0.3095468580722809,-0.20661908388137817
1701882053562837000,4.8918369140625,0.06352811306715012,0.3987305462360382,-0.2432699203491211
1701882053572429800,4.901429931640625,-0.01954711228609085,0.40606072545051575,-0.2848075330257416
1701882053582021600,4.911021728515625,-0.12216944992542267,0.399952232837677,-0.34222719073295593
1701882053591614200,4.9206142578125,-0.2101314514875412,0.3889569938182831,-0.40575528144836426
1701882053601207800,4.930207763671875,-0.26755109429359436,0.37918344140052795,-0.47294849157333374
1701882053610800400,4.93980029296875,-0.2993151545524597,0.3620797097682953,-0.5462501645088196
1701882053620392200,4.94939208984375,-0.36039987206459045,0.39140036702156067,-0.6000047326087952
1701882053629985000,4.958985107421875,-0.4202629029750824,0.3095468580722809,-0.6085565686225891
1701882053639578600,4.96857861328125,-0.4227063059806824,0.26190075278282166,-0.6415423154830933
1701882053649171200,4.978171142578125,-0.4227063059806824,0.2533488869667053,-0.6928535103797913
1701882053658763000,4.987762939453125,-0.4056025743484497,0.2154763638973236,-0.7710419297218323
1701882053668355600,4.99735546875,-0.3701734244823456,0.1898207813501358,-0.8773293495178223
1701882053677949200,5.00694921875,-0.3567348122596741,0.1910424828529358,-0.9970554113388062
1701882053687541800,5.016541748046875,-0.3701734244823456,0.1751604527235031,-1.0996778011322021
1701882053697133800,5.0261337890625,-0.390942245721817,0.15439164638519287,-1.1680927276611328
1701882053706726400,5.035726318359375,-0.41171106696128845,0.14095300436019897,-1.2206255197525024
1701882053716319700,5.04531982421875,-0.45447036623954773,0.14706148207187653,-1.2902621030807495
1701882053725912600,5.05491259765625,-0.5008947253227234,0.20936790108680725,-1.3794457912445068
1701882053735504400,5.06450439453125,-0.5473191738128662,0.2545706033706665,-1.4771814346313477
1701882053745097000,5.074096923828125,-0.5986303091049194,0.27411770820617676,-1.5712518692016602
1701882053754690600,5.083690673828125,-0.6488724946975708,0.24724042415618896,-1.634779930114746
1701882053764283100,5.093283203125,-0.7014053463935852,0.22036315500736237,-1.6726524829864502
1701882053773875000,5.102875,-0.7637118101119995,0.21914145350456238,-1.7044165134429932
1701882053783467800,5.1124677734375,-0.8162446618080139,0.22280654311180115,-1.7398457527160645
1701882053793061400,5.122061279296875,-0.8528954982757568,0.2423536479473114,-1.777718186378479
1701882053802654000,5.131654052734375,-0.880994439125061,0.2802261710166931,-1.8290294408798218
1701882053812245800,5.141245849609375,-0.9066500663757324,0.3474193811416626,-1.8864490985870361
1701882053821838600,5.150838623046875,-0.9371923804283142,0.4011739492416382,-1.9255433082580566
1701882053831432000,5.160431884765625,-0.964069664478302,0.39506545662879944,-1.9560856819152832
1701882053841024500,5.1700244140625,-0.987281858921051,0.35352784395217896,-1.981741189956665
1701882053850616600,5.179616455078125,-1.006829023361206,0.319320410490036,-1.9854062795639038
1701882053860209200,5.189209228515625,-1.023932695388794,0.3046600818634033,-1.973189353942871
1701882053869802500,5.198802490234375,-1.0361496210098267,0.28877803683280945,-1.9475337266921997
1701882053879395300,5.208395263671875,-1.0398147106170654,0.2557922899723053,-1.9072178602218628
1701882053888987100,5.217987060546875,-1.053253412246704,0.21791976690292358,-1.863236904144287
1701882053898579700,5.227579833984375,-1.085017442703247,0.19837264716625214,-1.824142575263977
1701882053908173300,5.23717333984375,-1.141215443611145,0.2020377367734909,-1.7887134552001953
1701882053917766000,5.246765869140625,-1.21818208694458,0.19715094566345215,-1.745954155921936
1701882053927357700,5.256357666015625,-1.291483759880066,0.18249061703681946,-1.667765736579895
1701882053936950500,5.265950439453125,-1.33912992477417,0.14339639246463776,-1.565143346786499
1701882053946544000,5.275544189453125,-1.3464601039886475,0.09208522737026215,-1.4661861658096313
1701882053956136700,5.28513671875,-1.3171393871307373,0.03955236077308655,-1.394106149673462
1701882053965728500,5.294728515625,-1.268271565437317,0.0016798300202935934,-1.3379082679748535
1701882053975321300,5.3043212890625,-1.2169604301452637,-0.010537114925682545,-1.2804886102676392
1701882053984914700,5.313914794921875,-1.1900831460952759,-0.0068720318377017975,-1.2267340421676636
1701882053994507300,5.32350732421875,-1.141215443611145,-0.06429167091846466,-1.1839747428894043
1701882054004099300,5.333099365234375,-1.0886825323104858,-0.09361234307289124,-1.1473238468170166
1701882054013692000,5.34269189453125,-1.032484531402588,-0.10460758954286575,-1.1155598163604736
1701882054023285200,5.35228515625,-0.9665130972862244,-0.09483403712511063,-1.0984560251235962
1701882054032878000,5.361878173828125,-0.9310839176177979,-0.09361234307289124,-1.1228899955749512
1701882054042470000,5.371469970703125,-0.8797727823257446,-0.17057909071445465,-1.11678147315979
1701882054052062500,5.3810625,-0.8394568562507629,-0.15591876208782196,-1.0972343683242798
1701882054061656000,5.390656005859375,-0.8003626465797424,-0.1498102843761444,-1.0825740098953247
1701882054071248600,5.40024853515625,-0.7576032876968384,-0.1388150453567505,-1.0666919946670532
1701882054080840700,5.4098408203125,-0.7148439884185791,-0.12171131372451782,-1.0459232330322266
1701882054090433300,5.419433349609375,-0.6806365847587585,-0.09605573117733002,-1.0214893817901611
1701882054100026600,5.429026611328125,-0.6562026739120483,-0.054518118500709534,-0.9946120381355286
1701882054109619500,5.438619384765625,-0.668419599533081,0.020005248486995697,-0.9579612016677856
1701882054119211300,5.448211181640625,-0.650094211101532,0.13117945194244385,-0.9127585291862488
1701882054128803800,5.457803955078125,-0.6293253898620605,0.11529742181301117,-0.8370134830474854
1701882054138397400,5.4673974609375,-0.5864133834838867,0.1519482582807541,-0.7722636461257935
1701882054147990000,5.476989990234375,-0.5192201733589172,0.18737739324569702,-0.7111788988113403
1701882054157581800,5.486581787109375,-0.49234288930892944,0.43538138270378113,-0.673306405544281
1701882054167174700,5.496174560546875,-0.4300364851951599,0.25212720036506653,-0.5938962697982788
1701882054176768300,5.505768310546875,-0.3054236173629761,0.19470755755901337,-0.575570821762085
1701882054186360800,5.51536083984375,-0.20768806338310242,0.21303297579288483,-0.5816792845726013
1701882054195952600,5.52495263671875,-0.12094775587320328,0.2166980654001236,-0.5975613594055176
1701882054205545200,5.534545166015625,-0.043981000781059265,0.21181128919124603,-0.6097782850265503
1701882054215138800,5.544138916015625,0.025655584409832954,0.2032594233751297,-0.6183301210403442
1701882054224731400,5.5537314453125,0.08307522535324097,0.19837264716625214,-0.621995210647583
1701882054234323500,5.563323486328125,0.1185043677687645,0.20570281147956848,-0.6171084642410278
1701882054243916000,5.572916015625,0.1441599577665329,0.27656111121177673,-0.6097782850265503
1701882054253509400,5.58250927734375,0.16492876410484314,0.552664041519165,-0.6232169270515442
1701882054263102200,5.592102294921875,0.15026842057704926,0.5025745630264282,-0.5804576277732849
1701882054272694000,5.601694091796875,0.1185043677687645,0.2154763638973236,-0.5132644176483154
1701882054282286600,5.61128662109375,0.0781884491443634,0.22524993121623993,-0.4802786707878113
1701882054291880200,5.620880126953125,0.04886778071522713,0.21791976690292358,-0.435075968503952
1701882054301472800,5.63047265625,0.021990500390529633,0.2154763638973236,-0.38009971380233765
1701882054311064600,5.640064697265625,-0.014660334214568138,0.2276933193206787,-0.31534990668296814
1701882054320657400,5.649657470703125,-0.0525328628718853,0.2289150059223175,-0.24571330845355988
1701882054330250800,5.659250732421875,-0.08429691940546036,0.22158484160900116,-0.1785201132297516
1701882054339843300,5.66884326171875,-0.10628741979598999,0.2154763638973236,-0.11865708231925964
1701882054349435400,5.678435302734375,-0.12461283802986145,0.20692451298236847,-0.05757235363125801
1701882054359028000,5.688028076171875,-0.14049486815929413,0.188599094748497,-0.0050394898280501366
1701882054368621600,5.69762158203125,-0.14904673397541046,0.17149536311626434,0.026877280324697495
1701882054378214100,5.707214111328125,-0.15271180868148804,0.15316994488239288,0.0390942245721817
1701882054387806000,5.716805908203125,-0.15515519678592682,0.1372879147529602,0.03542914241552353
1701882054397398800,5.726398681640625,-0.15515519678592682,0.1238492801785469,0.026877280324697495
1701882054406992100,5.7359921875,-0.15271180868148804,0.10918894410133362,0.019394399598240852
1701882054416585000,5.7455849609375,-0.1453816443681717,0.09086353331804276,0.01695101149380207
1701882054426176800,5.7551767578125,-0.13927318155765533,0.06642963737249374,0.009620844386518002
1701882054435769300,5.764769287109375,-0.1429382562637329,0.0456608310341835,0.0022906772792339325
1701882054445363000,5.774363037109375,-0.15026842057704926,0.03833066672086716,0.021837789565324783
1701882054454955500,5.78395556640625,-0.14904673397541046,0.032222192734479904,0.06963659077882767
1701882054464547300,5.79354736328125,-0.13560809195041656,0.02367033064365387,0.11606097966432571
1701882054474140200,5.80314013671875,-0.11117420345544815,0.013896775431931019,0.15393351018428802
1701882054483733500,5.8127333984375,-0.0794101431965828,-0.008093725889921188,0.1844758689403534
1701882054493326000,5.822326171875,-0.0390942245721817,-0.023975754156708717,0.2101314514875412
1701882054502918100,5.831918212890625,0.004886778071522713,-0.03374931216239929,0.23090025782585144
1701882054512510700,5.8415107421875,0.04886778071522713,-0.039857782423496246,0.237008735537529
1701882054522104300,5.851104248046875,0.07330167293548584,-0.04107947647571564,0.2211267054080963
1701882054531697000,5.86069677734375,0.06352811306715012,-0.038636088371276855,0.1966928243637085
1701882054541288700,5.870288818359375,0.03298575058579445,-0.03130592033267021,0.1820324808359146
1701882054550881500,5.879881591796875,0,-0.022754060104489326,0.20035789906978607
1701882054560475000,5.889474853515625,-0.028098974376916885,-0.021532366052269936,0.23945212364196777
1701882054570067500,5.8990673828125,-0.03665083646774292,-0.038636088371276855,0.2858765125274658
1701882054579659500,5.908659423828125,-0.030542362481355667,-0.06429167091846466,0.3432961702346802
1701882054589252000,5.918252197265625,-0.010995250195264816,-0.09361234307289124,0.40193748474121094
1701882054598845700,5.927845703125,0.01954711228609085,-0.12293300777673721,0.4459185004234314
1701882054608438300,5.937438232421875,0.0525328628718853,-0.15591876208782196,0.474017471075058
1701882054618030000,5.947030029296875,0.0794101431965828,-0.18646112084388733,0.47646087408065796
1701882054627623000,5.956622802734375,0.09284878522157669,-0.18401773273944855,0.4471401870250702
1701882054637216300,5.96621630859375,0.08674030750989914,-0.14248012006282806,0.41171106696128845
1701882054646808800,5.975808837890625,0.08063183724880219,-0.12048961967229843,0.3799470067024231
1701882054656401000,5.98540087890625,0.07696675509214401,-0.08872556686401367,0.34573954343795776
1701882054665993500,5.994993408203125,0.07452336698770523,-0.06429167091846466,0.3286358118057251
1701882054675587000,6.004587158203125,0.08674030750989914,-0.04963133856654167,0.33718767762184143
1701882054685179600,6.0141796875,0.12216944992542267,-0.056961506605148315,0.3701734244823456
1701882054694771500,6.023771484375,0.17470231652259827,-0.08139539510011673,0.41537612676620483
1701882054704364300,6.0333642578125,0.2357870489358902,-0.12048961967229843,0.474017471075058
1701882054713957600,6.04295751953125,0.284654825925827,-0.14858859777450562,0.5436540842056274
1701882054723550200,6.05255029296875,0.3139754831790924,-0.14736689627170563,0.6206207871437073
1701882054733142300,6.062142333984375,0.3310792148113251,-0.11682453751564026,0.6914790868759155
1701882054742734800,6.07173486328125,0.34573954343795776,-0.1119377613067627,0.758672297000885
1701882054752328400,6.081328369140625,0.3555130958557129,-0.08872556686401367,0.8026533126831055
1701882054761921000,6.090921142578125,0.367730051279068,-0.06062658876180649,0.8197570443153381
1701882054771512800,6.100512939453125,0.38727715611457825,-0.04474456235766411,0.8209787011146545
1701882054781105400,6.11010546875,0.416597843170166,-0.0459662564098835,0.8087617754936218
1701882054790699000,6.119698974609375,0.4569137394428253,-0.04963133856654167,0.790436327457428
1701882054800291600,6.12929150390625,0.499673068523407,-0.05207473039627075,0.7733326554298401
1701882054809883600,6.138883544921875,0.5387672781944275,-0.04718795046210289,0.7550072073936462
1701882054819476200,6.148476318359375,0.5729747414588928,-0.03374931216239929,0.7464553713798523
1701882054829069800,6.15806982421875,0.5974085927009583,-0.022754060104489326,0.7476770281791687
1701882054838662400,6.167662353515625,0.6108472347259521,-0.004428642801940441,0.7513421177864075
1701882054848254200,6.177254150390625,0.6145123243331909,0.018783552572131157,0.7550072073936462
1701882054857846800,6.1868466796875,0.605960488319397,0.04810422286391258,0.7525638341903687
1701882054867440400,6.1964404296875,0.5913001298904419,0.07620319724082947,0.7391251921653748
1701882054877033000,6.206032958984375,0.577861487865448,0.09697200357913971,0.7134696245193481
1701882054886625000,6.215625,0.5668662786483765,0.10430216789245605,0.6804838180541992
1701882054896217600,6.225217529296875,0.5558710098266602,0.10918894410133362,0.6389462351799011
1701882054905811000,6.23481103515625,0.5448757410049438,0.10918894410133362,0.5937435626983643
1701882054915403800,6.24440380859375,0.5351021885871887,0.09575030952692032,0.5509842038154602
1701882054924995600,6.25399560546875,0.5265503525733948,0.07620319724082947,0.5118899941444397
1701882054934588200,6.263588134765625,0.5192201733589172,0.07375980913639069,0.47646087408065796
1701882054944181800,6.273181640625,0.5131117105484009,0.09452861547470093,0.44958359003067017
1701882054953774300,6.2827744140625,0.499673068523407,0.07498150318861008,0.43981003761291504
1701882054963366100,6.2923662109375,0.47646087408065796,0.06887302547693253,0.42759308218955994
1701882054972959000,6.301958984375,0.4471401870250702,0.0713164210319519,0.41171106696128845
1701882054982552300,6.31155224609375,0.41537612676620483,0.07986827939748764,0.3970507085323334
1701882054992145200,6.321145263671875,0.3836120665073395,0.08842013776302338,0.3787252902984619
1701882055001737000,6.330737060546875,0.3555130958557129,0.09330692142248154,0.35917818546295166
1701882055011329500,6.34032958984375,0.3286358118057251,0.09086353331804276,0.3384093940258026
1701882055020923100,6.349923095703125,0.3042019307613373,0.07742489129304886,0.32130566239356995
1701882055030515700,6.359515625,0.284654825925827,0.05543438717722893,0.30908870697021484
1701882055040107500,6.369107421875,0.2651077210903168,0.034665580838918686,0.3029802441596985
1701882055049700400,6.378700439453125,0.25655585527420044,0.012675080448389053,0.3042019307613373
1701882055059293700,6.388293701171875,0.25411245226860046,-0.010537114925682545,0.3127537965774536
1701882055068886500,6.397886474609375,0.25655585527420044,-0.03130592033267021,0.32374903559684753
1701882055078478300,6.407478271484375,0.26755109429359436,-0.039857782423496246,0.33230090141296387
1701882055088071200,6.4170712890625,0.27854636311531067,-0.04474456235766411,0.3384093940258026
1701882055097664500,6.42666455078125,0.2883199155330658,-0.04718795046210289,0.3298575282096863
1701882055107257000,6.436257080078125,0.30664533376693726,-0.008093725889921188,0.3115321099758148
1701882055116849000,6.445848876953125,0.37506023049354553,0.05665608495473862,0.3054236173629761
1701882055126441700,6.455441650390625,0.38849884271621704,0.01511846948415041,0.2907632887363434
1701882055136035000,6.46503515625,0.36039987206459045,0.004123218823224306,0.25655585527420044
1701882055145627600,6.474627685546875,0.3261924386024475,-0.008093725889921188,0.2223484069108963
1701882055155219700,6.4842197265625,0.2870981991291046,-0.019088976085186005,0.1832541823387146
1701882055164812300,6.493812255859375,0.25289076566696167,-0.03008422814309597,0.1453816443681717
1701882055174406000,6.503406005859375,0.2223484069108963,-0.036192700266838074,0.11117420345544815
1701882055183998500,6.51299853515625,0.1954711228609085,-0.04352286830544472,0.08063183724880219
1701882055193590300,6.52259033203125,0.16615045070648193,-0.04352286830544472,0.05741964280605316
1701882055203183000,6.53218310546875,0.13682979345321655,-0.04352286830544472,0.042759306728839874
1701882055212776400,6.5417763671875,0.10995250940322876,-0.04107947647571564,0.03542914241552353
1701882055222369300,6.551369384765625,0.08674030750989914,-0.036192700266838074,0.03787253051996231
1701882055231961000,6.560961181640625,0.0647498071193695,-0.03374931216239929,0.043981000781059265
1701882055241553700,6.5705537109375,0.043981000781059265,-0.0325276181101799,0.047646086663007736
1701882055251147300,6.580147216796875,0.024433890357613564,-0.03008422814309597,0.046424392610788345
1701882055260739800,6.58973974609375,0.008551862090826035,-0.03008422814309597,0.03787253051996231
1701882055270331600,6.59933154296875,-0.004886778071522713,-0.02764083817601204,0.023212196305394173
1701882055279924500,6.608924560546875,-0.013438640162348747,-0.023975754156708717,0.0035123717971146107
1701882055289517800,6.618517822265625,-0.01710372418165207,-0.019088976085186005,-0.01847812905907631
1701882055299110700,6.628110595703125,-0.01954711228609085,-0.014202198944985867,-0.03802524134516716
1701882055308702500,6.637702392578125,-0.021990500390529633,-0.008093725889921188,-0.05268557742238045
1701882055318295000,6.647294921875,-0.024433890357613564,-0.004428642801940441,-0.06368082761764526
1701882055327888600,6.656888671875,-0.024433890357613564,-0.001985253533348441,-0.06734590977430344
1701882055337481200,6.666481201171875,-0.025655584409832954,-0.001985253533348441,-0.06734590977430344
1701882055347073000,6.676072998046875,-0.029320668429136276,-0.004428642801940441,-0.06490252166986465
1701882055356665900,6.685665771484375,-0.03665083646774292,-0.004428642801940441,-0.06123743951320648
1701882055366259200,6.69525927734375,-0.042759306728839874,-0.0032069480512291193,-0.06123743951320648
1701882055375852000,6.70485205078125,-0.05008947476744652,-0.0007635590736754239,-0.06245913356542587
1701882055385443800,6.71444384765625,-0.05375456064939499,0.0004581354442052543,-0.06368082761764526
1701882055395036400,6.724036376953125,-0.05864133685827255,0.0016798300202935934,-0.06123743951320648
1701882055404630000,6.733630126953125,-0.06352811306715012,0.0004581354442052543,-0.05512896552681923
1701882055414222600,6.74322265625,-0.06841489672660828,0.0004581354442052543,-0.04413371533155441
1701882055423814400,6.752814453125,-0.07452336698770523,-0.0007635590736754239,-0.030695075169205666
1701882055433407200,6.7624072265625,-0.08185353130102158,-0.005650337319821119,-0.01969982497394085
1701882055443000600,6.77200048828125,-0.08918370306491852,-0.012980503961443901,-0.00992626789957285
1701882055452593400,6.781593505859375,-0.09284878522157669,-0.021532366052269936,-0.0050394898280501366
1701882055462185200,6.791185302734375,-0.0916270911693573,-0.02641914412379265,-0.0050394898280501366
1701882055471778000,6.800778076171875,-0.08307522535324097,-0.02886253222823143,-0.008704573847353458
1701882055481371400,6.810371337890625,-0.07207997888326645,-0.02764083817601204,-0.014813045971095562
1701882055490964000,6.8199638671875,-0.05741964280605316,-0.023975754156708717,-0.01969982497394085
1701882055500555800,6.8295556640625,-0.045202698558568954,-0.020310672000050545,-0.028251685202121735
1701882055510148600,6.839148681640625,-0.03542914241552353,-0.017867282032966614,-0.03802524134516716
1701882055519742000,6.848741943359375,-0.026877280324697495,-0.014202198944985867,-0.049020491540431976
1701882055529334800,6.858334716796875,-0.021990500390529633,-0.009315420873463154,-0.05390727147459984
1701882055538926600,6.867926513671875,-0.01832541823387146,-0.004428642801940441,-0.05635065957903862
1701882055548519200,6.877519287109375,-0.01588202826678753,0.0029015245381742716,-0.05757235363125801
1701882055558112800,6.88711279296875,-0.014660334214568138,0.007788302376866341,-0.0587940476834774
1701882055567705300,6.896705322265625,-0.014660334214568138,0.010231691412627697,-0.0587940476834774
1701882055577297200,6.906297119140625,-0.013438640162348747,0.011453386396169662,-0.06001574173569679
1701882055586890000,6.915889892578125,-0.010995250195264816,0.011453386396169662,-0.0587940476834774
1701882055596483300,6.9254833984375,-0.009773556143045425,0.009009997360408306,-0.0587940476834774
1701882055606076200,6.935076171875,-0.007330167107284069,0.004123218823224306,-0.0587940476834774
1701882055615668000,6.94466796875,-0.0036650835536420345,0.0016798300202935934,-0.0587940476834774
1701882055625260800,6.9542607421875,-0.0012216945178806782,-0.0007635590736754239,-0.06123743951320648
1701882055634854100,6.963854248046875,0.0024433890357613564,-0.001985253533348441,-0.06245913356542587
1701882055644446700,6.97344677734375,0.004886778071522713,-0.0032069480512291193,-0.06245913356542587
1701882055654038500,6.98303857421875,0.004886778071522713,-0.004428642801940441,-0.06123743951320648
1701882055663631400,6.99263134765625,0.0036650835536420345,-0.004428642801940441,-0.05635065957903862
1701882055673224700,7.002224609375,0,-0.0068720318377017975,-0.05024218559265137
1701882055682817500,7.011817626953125,-0.006108472589403391,-0.0068720318377017975,-0.04169032722711563
1701882055692409300,7.021409423828125,-0.012216945178806782,-0.0068720318377017975,-0.031916771084070206
1701882055702002000,7.031001953125,-0.01588202826678753,-0.0068720318377017975,-0.02092151902616024
1701882055711595500,7.040595458984375,-0.01954711228609085,-0.004428642801940441,-0.011147962883114815
1701882055721188000,7.05018798828125,-0.023212196305394173,-0.005650337319821119,-0.00259610079228878
1701882055730780000,7.05977978515625,-0.023212196305394173,-0.004428642801940441,0.007177455350756645
1701882055740372700,7.069372802734375,-0.025655584409832954,-0.0032069480512291193,0.01695101149380207
1701882055749966000,7.078966064453125,-0.025655584409832954,0.0004581354442052543,0.025655584409832954
1701882055759559000,7.088558837890625,-0.025655584409832954,0.005344913341104984,0.03298575058579445
1701882055769150700,7.098150634765625,-0.023212196305394173,0.010231691412627697,0.03665083646774292
1701882055778743600,7.10774365234375,-0.01954711228609085,0.013896775431931019,0.03787253051996231
1701882055788337000,7.1173369140625,-0.013438640162348747,0.017561858519911766,0.03542914241552353
1701882055797929500,7.126929443359375,-0.007330167107284069,0.017561858519911766,0.029320668429136276
1701882055807521500,7.136521484375,0.0012216945178806782,0.021226942539215088,0.023212196305394173
1701882055817114000,7.146114013671875,0.008551862090826035,0.02244863659143448,0.01817270554602146
1701882055826707500,7.15570751953125,0.012216945178806782,0.02489202655851841,0.01572931744158268
1701882055836300300,7.16530029296875,0.013438640162348747,0.02733541466295719,0.013285927474498749
1701882055845892000,7.17489208984375,0.014660334214568138,0.032222192734479904,0.010842538438737392
1701882055855484700,7.184484619140625,0.012216945178806782,0.032222192734479904,0.009620844386518002
1701882055865078300,7.194078369140625,0.007330167107284069,0.028557108715176582,0.007177455350756645
1701882055874670800,7.2036708984375,0.004886778071522713,0.02367033064365387,0.008399149402976036
1701882055884262700,7.2132626953125,0.0024433890357613564,0.018783552572131157,0.010842538438737392
1701882055893855500,7.22285546875,0.0024433890357613564,0.012675080448389053,0.012064233422279358
1701882055903449000,7.232448974609375,0.0012216945178806782,0.010231691412627697,0.013285927474498749
1701882055913041700,7.242041748046875,0,0.010231691412627697,0.012064233422279358
1701882055922633500,7.251633544921875,-0.0012216945178806782,0.007788302376866341,0.010842538438737392
1701882055932226300,7.261226318359375,-0.0024433890357613564,0.0065666078589856625,0.009620844386518002
1701882055941819600,7.270819580078125,-0.004886778071522713,0.0065666078589856625,0.004734066314995289
1701882055951412200,7.280412109375,-0.007330167107284069,0.005344913341104984,0.0010689827613532543
1701882055961004300,7.29000439453125,-0.008551862090826035,0.0065666078589856625,-0.006261184345930815
1701882055970596900,7.299596923828125,-0.012216945178806782,0.005344913341104984,-0.013591351918876171
1701882055980190200,7.309190185546875,-0.01588202826678753,0.0029015245381742716,-0.02092151902616024
1701882055989783000,7.318782958984375,-0.01954711228609085,0.0029015245381742716,-0.028251685202121735
1701882055999374800,7.328374755859375,-0.024433890357613564,0.0004581354442052543,-0.03436015918850899
1701882056008967400,7.337967529296875,-0.028098974376916885,-0.0007635590736754239,-0.03680354729294777
1701882056018561000,7.34756103515625,-0.03542914241552353,-0.004428642801940441,-0.03802524134516716
1701882056028153600,7.357153564453125,-0.042759306728839874,-0.005650337319821119,-0.03802524134516716
1701882056037745400,7.366745361328125,-0.04886778071522713,-0.004428642801940441,-0.03558185324072838
1701882056047338200,7.376338134765625,-0.05497625470161438,-0.004428642801940441,-0.0331384651362896
1701882056056931800,7.385931884765625,-0.05741964280605316,-0.001985253533348441,-0.029473381116986275
1701882056066524400,7.3955244140625,-0.05864133685827255,-0.0007635590736754239,-0.023364907130599022
1701882056076116200,7.4051162109375,-0.05619794875383377,-0.0007635590736754239,-0.01969982497394085
1701882056085709000,7.414708984375,-0.0525328628718853,-0.0007635590736754239,-0.013591351918876171
1701882056095302400,7.424302490234375,-0.04886778071522713,-0.0032069480512291193,-0.007482878863811493
1701882056104895000,7.43389501953125,-0.04153761267662048,-0.0032069480512291193,-0.00259610079228878
1701882056114487000,7.443487060546875,-0.03542914241552353,-0.004428642801940441,0.0010689827613532543
1701882056124079600,7.45307958984375,-0.029320668429136276,-0.0032069480512291193,0.0010689827613532543
1701882056133673000,7.4626728515625,-0.025655584409832954,0.0016798300202935934,0.0022906772792339325
1701882056143265800,7.472265869140625,-0.023212196305394173,0.0029015245381742716,-0.00015271181473508477
1701882056152857600,7.481857666015625,-0.021990500390529633,0.005344913341104984,-0.001374406274408102
1701882056162450200,7.4914501953125,-0.01954711228609085,0.007788302376866341,-0.00259610079228878
1701882056172043800,7.501043701171875,-0.01710372418165207,0.009009997360408306,-0.0038177953101694584
1701882056181636400,7.51063623046875,-0.01588202826678753,0.009009997360408306,-0.0038177953101694584
1701882056191228400,7.520228515625,-0.013438640162348747,0.007788302376866341,-0.00259610079228878
1701882056200821000,7.529821044921875,-0.012216945178806782,0.007788302376866341,-0.001374406274408102
1701882056210414600,7.53941455078125,-0.010995250195264816,0.009009997360408306,0.0010689827613532543
1701882056220007200,7.549007080078125,-0.009773556143045425,0.011453386396169662,0.0022906772792339325
1701882056229599000,7.558598876953125,-0.008551862090826035,0.013896775431931019,0.0035123717971146107
1701882056239191800,7.56819189453125,-0.008551862090826035,0.01511846948415041,0.0035123717971146107
1701882056248785200,7.57778515625,-0.008551862090826035,0.013896775431931019,0.0010689827613532543
1701882056258377700,7.587377685546875,-0.006108472589403391,0.012675080448389053,-0.001374406274408102
1701882056267969800,7.5969697265625,-0.0036650835536420345,0.010231691412627697,-0.0038177953101694584
1701882056277562400,7.606562255859375,-0.0036650835536420345,0.005344913341104984,-0.008704573847353458
1701882056287156000,7.616156005859375,-0.0036650835536420345,0.0029015245381742716,-0.012369656935334206
1701882056296748500,7.62574853515625,-0.0036650835536420345,0.0004581354442052543,-0.014813045971095562
1701882056306340400,7.63534033203125,-0.0036650835536420345,0.0016798300202935934,-0.016034740954637527
1701882056315933000,7.644932861328125,-0.004886778071522713,0.0004581354442052543,-0.014813045971095562
1701882056325526500,7.654526611328125,-0.0036650835536420345,0.0016798300202935934,-0.013591351918876171
1701882056335119000,7.664119140625,-0.004886778071522713,0.0004581354442052543,-0.012369656935334206
1701882056344711200,7.673711181640625,-0.0036650835536420345,-0.0007635590736754239,-0.011147962883114815
1701882056354303700,7.6833037109375,-0.0012216945178806782,0.0016798300202935934,-0.011147962883114815
1701882056363897300,7.6928974609375,0.0012216945178806782,0.0016798300202935934,-0.011147962883114815
1701882056373490000,7.702489990234375,0.0036650835536420345,0.0016798300202935934,-0.012369656935334206
1701882056383081700,7.712081787109375,0.008551862090826035,0.0065666078589856625,-0.013591351918876171
1701882056392674600,7.721674560546875,0.010995250195264816,0.009009997360408306,-0.01725643500685692
1701882056402268000,7.731267822265625,0.013438640162348747,0.010231691412627697,-0.01847812905907631
1701882056411860500,7.740860595703125,0.01588202826678753,0.012675080448389053,-0.01969982497394085
1701882056421452500,7.75045263671875,0.01588202826678753,0.011453386396169662,-0.02214321307837963
1701882056431045000,7.760045166015625,0.01710372418165207,0.012675080448389053,-0.02214321307837963
1701882056440638700,7.769638671875,0.013438640162348747,0.011453386396169662,-0.02214321307837963
1701882056450231300,7.779231201171875,0.010995250195264816,0.010231691412627697,-0.01847812905907631
1701882056459823000,7.788822998046875,0.007330167107284069,0.007788302376866341,-0.014813045971095562
1701882056469415700,7.798415771484375,0.004886778071522713,0.0065666078589856625,-0.011147962883114815
1701882056479009300,7.80800927734375,0,0.0016798300202935934,-0.007482878863811493
1701882056488601900,7.817601806640625,-0.0024433890357613564,0.0016798300202935934,-0.007482878863811493
1701882056498194000,7.82719384765625,-0.004886778071522713,0.0016798300202935934,-0.007482878863811493
1701882056507786500,7.836786376953125,-0.007330167107284069,0.0029015245381742716,-0.00992626789957285
1701882056517380000,7.846380126953125,-0.009773556143045425,-0.0007635590736754239,-0.012369656935334206
1701882056526972700,7.85597265625,-0.010995250195264816,0.0004581354442052543,-0.014813045971095562
1701882056536564500,7.865564453125,-0.012216945178806782,0.0004581354442052543,-0.01725643500685692
1701882056546157300,7.8751572265625,-0.012216945178806782,-0.001985253533348441,-0.01725643500685692
1701882056555750700,7.884750732421875,-0.012216945178806782,-0.004428642801940441,-0.01725643500685692
1701882056565343200,7.89434326171875,-0.012216945178806782,-0.008093725889921188,-0.01725643500685692
1701882056574935300,7.903935302734375,-0.013438640162348747,-0.009315420873463154,-0.01847812905907631
1701882056584528000,7.91352783203125,-0.012216945178806782,-0.008093725889921188,-0.01969982497394085
1701882056594121500,7.92312158203125,-0.012216945178806782,-0.0068720318377017975,-0.02214321307837963
1701882056603714000,7.932714111328125,-0.012216945178806782,-0.004428642801940441,-0.02214321307837963
1701882056613305900,7.942305908203125,-0.012216945178806782,-0.0032069480512291193,-0.02214321307837963
1701882056622898700,7.951898681640625,-0.008551862090826035,-0.0007635590736754239,-0.02214321307837963
1701882056632492000,7.961491943359375,-0.007330167107284069,0.0016798300202935934,-0.02214321307837963
1701882056642084600,7.971084716796875,-0.006108472589403391,0.0029015245381742716,-0.023364907130599022
1701882056651676700,7.9806767578125,-0.0036650835536420345,0.004123218823224306,-0.02214321307837963
1701882056661269200,7.990269287109375,-0.0012216945178806782,0.004123218823224306,-0.023364907130599022
1701882056670862800,7.99986279296875,0,0.0065666078589856625,-0.02214321307837963
1701882056680455400,8.009455322265625,0,0.007788302376866341,-0.01969982497394085
1701882056690047200,8.019047119140625,0,0.009009997360408306,-0.01847812905907631
1701882056699640000,8.02864013671875,0.0012216945178806782,0.010231691412627697,-0.01725643500685692
1701882056709233400,8.0382333984375,0,0.011453386396169662,-0.014813045971095562
1701882056718826000,8.047825927734374,0,0.012675080448389053,-0.012369656935334206
1701882056728418000,8.05741796875,-0.0012216945178806782,0.012675080448389053,-0.012369656935334206
1701882056738010600,8.0670107421875,-0.0024433890357613564,0.012675080448389053,-0.011147962883114815
1701882056747604200,8.076604248046875,-0.0024433890357613564,0.012675080448389053,-0.011147962883114815
1701882056757196800,8.08619677734375,-0.0036650835536420345,0.011453386396169662,-0.014813045971095562
1701882056766788600,8.09578857421875,-0.004886778071522713,0.010231691412627697,-0.01725643500685692
1701882056776381400,8.10538134765625,-0.006108472589403391,0.010231691412627697,-0.02214321307837963
1701882056785974800,8.114974853515625,-0.007330167107284069,0.010231691412627697,-0.024586603045463562
1701882056795567600,8.124567626953125,-0.007330167107284069,0.011453386396169662,-0.025808297097682953
1701882056805159400,8.134159423828125,-0.007330167107284069,0.009009997360408306,-0.029473381116986275
1701882056814752300,8.143752197265625,-0.007330167107284069,0.0065666078589856625,-0.030695075169205666
1701882056824345600,8.153345703125,-0.008551862090826035,0.005344913341104984,-0.030695075169205666
1701882056833938200,8.162938232421874,-0.008551862090826035,0.0029015245381742716,-0.030695075169205666
1701882056843530200,8.1725302734375,-0.009773556143045425,0.0016798300202935934,-0.028251685202121735
1701882056853122800,8.182122802734375,-0.010995250195264816,0.0004581354442052543,-0.028251685202121735
1701882056862716200,8.191716064453125,-0.014660334214568138,-0.001985253533348441,-0.030695075169205666
1701882056872309000,8.20130908203125,-0.01588202826678753,-0.001985253533348441,-0.0331384651362896
1701882056881900800,8.21090087890625,-0.01710372418165207,0.0004581354442052543,-0.03558185324072838
1701882056891493600,8.22049365234375,-0.01954711228609085,0.0004581354442052543,-0.03802524134516716
1701882056901087000,8.2300869140625,-0.021990500390529633,-0.0007635590736754239,-0.03680354729294777
1701882056910679600,8.239679443359375,-0.024433890357613564,-0.0007635590736754239,-0.03802524134516716
1701882056920271600,8.249271728515625,-0.023212196305394173,-0.0007635590736754239,-0.03680354729294777
1701882056929864200,8.2588642578125,-0.023212196305394173,-0.0032069480512291193,-0.03680354729294777
1701882056939457800,8.268457763671876,-0.021990500390529633,-0.0032069480512291193,-0.03680354729294777
1701882056949050400,8.27805029296875,-0.021990500390529633,-0.005650337319821119,-0.03802524134516716
1701882056958642200,8.28764208984375,-0.021990500390529633,-0.004428642801940441,-0.03924693539738655
1701882056968234800,8.29723486328125,-0.023212196305394173,-0.001985253533348441,-0.03802524134516716
1701882056977828400,8.306828369140625,-0.026877280324697495,-0.001985253533348441,-0.03558185324072838
1701882056987421000,8.3164208984375,-0.029320668429136276,0.0004581354442052543,-0.031916771084070206
1701882056997013000,8.326012939453125,-0.03420744836330414,-0.0007635590736754239,-0.024586603045463562
1701882057006605600,8.33560546875,-0.03665083646774292,-0.0007635590736754239,-0.014813045971095562
1701882057016199200,8.34519921875,-0.0390942245721817,0.0004581354442052543,-0.00259610079228878
1701882057025791700,8.354791748046875,-0.045202698558568954,-0.001985253533348441,0.005955760832875967
1701882057035383600,8.364383544921875,-0.05008947476744652,-0.001985253533348441,0.013285927474498749
1701882057044976400,8.373976318359375,-0.05497625470161438,0.0004581354442052543,0.014507622458040714
1701882057054569700,8.38356982421875,-0.061084724962711334,0.0029015245381742716,0.010842538438737392
1701882057064162300,8.393162353515624,-0.06719319522380829,0.005344913341104984,0.004734066314995289
1701882057073754400,8.40275439453125,-0.07330167293548584,0.007788302376866341,-0.0038177953101694584
1701882057083347000,8.412346923828125,-0.08063183724880219,0.013896775431931019,-0.013591351918876171
1701882057092940500,8.4219404296875,-0.08918370306491852,0.021226942539215088,-0.023364907130599022
1701882057102533000,8.431533203125,-0.09651386737823486,0.02733541466295719,-0.03680354729294777
1701882057112125000,8.441125,-0.10628741979598999,0.034665580838918686,-0.049020491540431976
1701882057121717800,8.4507177734375,-0.11483928561210632,0.04199574887752533,-0.06001574173569679
1701882057131311000,8.46031103515625,-0.12216944992542267,0.0456608310341835,-0.06978929787874222
1701882057140904000,8.469904052734375,-0.12339114397764206,0.04443913698196411,-0.08200624585151672
1701882057150495700,8.479495849609375,-0.1185043677687645,0.04077405482530594,-0.09300149232149124
1701882057160088300,8.48908837890625,-0.10873081535100937,0.032222192734479904,-0.10033166408538818
1701882057169682000,8.498681884765626,-0.09407047927379608,0.0261137206107378,-0.10888352245092392
1701882057179274500,8.5082744140625,-0.07574506103992462,0.02244863659143448,-0.11865708231925964
1701882057188866300,8.5178662109375,-0.061084724962711334,0.02244863659143448,-0.12720894813537598
1701882057198459100,8.527459228515625,-0.04886778071522713,0.0261137206107378,-0.13942588865756989
1701882057208052500,8.537052490234375,-0.04031591862440109,0.031000498682260513,-0.14797775447368622
1701882057217645300,8.546645263671875,-0.03420744836330414,0.034665580838918686,-0.15408621728420258
1701882057227237000,8.556237060546875,-0.030542362481355667,0.03955236077308655,-0.15652960538864136
1701882057236830000,8.565829833984376,-0.029320668429136276,0.04199574887752533,-0.15530791878700256
1701882057246423300,8.57542333984375,-0.03176405653357506,0.03955236077308655,-0.15286453068256378
1701882057256016000,8.585015869140625,-0.03420744836330414,0.037108972668647766,-0.1516428291797638
1701882057265608000,8.59460791015625,-0.03298575058579445,0.032222192734479904,-0.150421142578125
1701882057275200500,8.604200439453125,-0.03298575058579445,0.02489202655851841,-0.14186927676200867
1701882057284793900,8.6137939453125,-0.03176405653357506,0.020005248486995697,-0.13209572434425354
1701882057294386700,8.62338671875,-0.03542914241552353,0.016340164467692375,-0.11743538826704025
1701882057303978500,8.632978515625,-0.0390942245721817,0.016340164467692375,-0.10155335813760757
1701882057313571300,8.6425712890625,-0.043981000781059265,0.018783552572131157,-0.0844496339559555
1701882057323164700,8.65216455078125,-0.046424392610788345,0.0261137206107378,-0.06368082761764526
1701882057332757200,8.66175732421875,-0.05131116881966591,0.031000498682260513,-0.046577103435993195
1701882057342349300,8.671349365234375,-0.0525328628718853,0.037108972668647766,-0.029473381116986275
1701882057351942000,8.68094189453125,-0.05497625470161438,0.04199574887752533,-0.011147962883114815
1701882057361535500,8.690535400390624,-0.05497625470161438,0.0456608310341835,0.0010689827613532543
1701882057371128000,8.700128173828125,-0.05375456064939499,0.04688252881169319,0.009620844386518002
1701882057380719900,8.709719970703125,-0.05131116881966591,0.04321744292974472,0.012064233422279358
1701882057390312400,8.7193125,-0.046424392610788345,0.03588727489113808,0.007177455350756645
1701882057399906000,8.728906005859375,-0.03787253051996231,0.02489202655851841,-0.0038177953101694584
1701882057409498600,8.73849853515625,-0.029320668429136276,0.012675080448389053,-0.01847812905907631
1701882057419090700,8.748090576171874,-0.02076880633831024,0.0016798300202935934,-0.03558185324072838
1701882057428683300,8.757683349609374,-0.010995250195264816,-0.0068720318377017975,-0.05390727147459984
1701882057438276900,8.76727685546875,-0.0036650835536420345,-0.012980503961443901,-0.072232685983181
1701882057447869400,8.776869384765625,0.0012216945178806782,-0.015423892997205257,-0.0856713280081749
1701882057457461200,8.786461181640625,0.0012216945178806782,-0.014202198944985867,-0.09177979826927185
1701882057467054000,8.79605419921875,-0.0024433890357613564,-0.009315420873463154,-0.08811471611261368
1701882057476647400,8.8056474609375,-0.0036650835536420345,-0.005650337319821119,-0.08200624585151672
1701882057486240000,8.815239990234375,-0.0036650835536420345,-0.005650337319821119,-0.07711946964263916
1701882057495832000,8.82483203125,-0.0012216945178806782,-0.01175880990922451,-0.07101099193096161
1701882057505424600,8.834424560546875,0.0012216945178806782,-0.016645587980747223,-0.06368082761764526
1701882057515018200,8.844018310546875,0.007330167107284069,-0.025197450071573257,-0.05757235363125801
1701882057524610800,8.85361083984375,0.01832541823387146,-0.0325276181101799,-0.05268557742238045
1701882057534202600,8.86320263671875,0.03176405653357506,-0.036192700266838074,-0.046577103435993195
1701882057543795500,8.87279541015625,0.042759306728839874,-0.03374931216239929,-0.03924693539738655
1701882057553388800,8.882388916015625,0.05131116881966591,-0.02764083817601204,-0.027029991149902344
1701882057562981600,8.891981689453125,0.05741964280605316,-0.019088976085186005,-0.011147962883114815
1701882057572573400,8.901573486328125,0.07085828483104706,-0.009315420873463154,0.0035123717971146107
1701882057582166300,8.911166259765626,0.0794101431965828,0.0004581354442052543,0.020616095513105392
1701882057591759600,8.920759521484374,0.07696675509214401,0.005344913341104984,0.04031591862440109
1701882057601352200,8.930352294921875,0.08307522535324097,0.009009997360408306,0.05986303091049194
1701882057610944000,8.939944091796875,0.08185353130102158,0.007788302376866341,0.07330167293548584
1701882057620536800,8.949536865234375,0.0781884491443634,0.010231691412627697,0.08551861345767975
1701882057630130200,8.959130126953125,0.0781884491443634,0.010231691412627697,0.0916270911693573
1701882057639723000,8.968722900390626,0.07696675509214401,0.005344913341104984,0.09040539711713791
1701882057649314800,8.978314697265626,0.07452336698770523,0.0029015245381742716,0.08307522535324097
1701882057658907400,8.987907470703124,0.07207997888326645,-0.0007635590736754239,0.06841489672660828
1701882057668501000,8.9975009765625,0.0647498071193695,-0.004428642801940441,0.05008947476744652
1701882057678093600,9.007093505859375,0.06352811306715012,-0.0068720318377017975,0.028098974376916885
1701882057687685400,9.016685302734375,0.05375456064939499,-0.008093725889921188,0.0035123717971146107
1701882057697278200,9.0262783203125,0.0390942245721817,-0.0068720318377017975,-0.02092151902616024
1701882057706871600,9.03587158203125,0.026877280324697495,-0.009315420873463154,-0.04169032722711563
1701882057716464400,9.04546435546875,0.01710372418165207,-0.01175880990922451,-0.05635065957903862
1701882057726056200,9.05505615234375,0.008551862090826035,-0.009315420873463154,-0.06734590977430344
1701882057735648800,9.064648681640625,0,-0.008093725889921188,-0.07467607408761978
1701882057745242400,9.074242431640625,-0.010995250195264816,-0.005650337319821119,-0.07711946964263916
1701882057754835000,9.0838349609375,-0.01832541823387146,-0.004428642801940441,-0.07589777559041977
1701882057764427000,9.093427001953126,-0.023212196305394173,-0.005650337319821119,-0.07589777559041977
1701882057774019600,9.10301953125,-0.024433890357613564,-0.005650337319821119,-0.07711946964263916
1701882057783613200,9.11261328125,-0.028098974376916885,-0.008093725889921188,-0.07711946964263916
1701882057793205800,9.122205810546875,-0.029320668429136276,-0.005650337319821119,-0.07711946964263916
1701882057802797600,9.131797607421875,-0.03420744836330414,-0.0032069480512291193,-0.07589777559041977
1701882057812390100,9.14139013671875,-0.0390942245721817,0.0016798300202935934,-0.07345438003540039
1701882057821983700,9.150983642578124,-0.042759306728839874,0.005344913341104984,-0.06856760382652283
1701882057831576300,9.160576416015624,-0.046424392610788345,0.011453386396169662,-0.06245913356542587
1701882057841168400,9.17016845703125,-0.04886778071522713,0.017561858519911766,-0.05757235363125801
1701882057850761000,9.179760986328125,-0.05131116881966591,0.020005248486995697,-0.05635065957903862
1701882057860354600,9.1893544921875,-0.05008947476744652,0.018783552572131157,-0.05635065957903862
1701882057869947100,9.198947021484376,-0.046424392610788345,0.016340164467692375,-0.05635065957903862
1701882057879539000,9.2085390625,-0.043981000781059265,0.010231691412627697,-0.05390727147459984
1701882057889131800,9.2181318359375,-0.0390942245721817,0.005344913341104984,-0.047798797488212585
1701882057898725000,9.22772509765625,-0.03420744836330414,0.0029015245381742716,-0.03802524134516716
1701882057908317700,9.237317626953125,-0.029320668429136276,0.0004581354442052543,-0.025808297097682953
1701882057917909800,9.24690966796875,-0.023212196305394173,0.0016798300202935934,-0.008704573847353458
1701882057927502300,9.25650244140625,-0.01832541823387146,0.0029015245381742716,0.009620844386518002
1701882057937096000,9.266095947265624,-0.010995250195264816,0.004123218823224306,0.024433890357613564
1701882057946688500,9.2756884765625,-0.006108472589403391,0.004123218823224306,0.03420744836330414
1701882057956280300,9.2852802734375,-0.0012216945178806782,0.004123218823224306,0.0390942245721817
1701882057965873200,9.294873046875,0.0036650835536420345,0.004123218823224306,0.03787253051996231
1701882057975466500,9.304466552734375,0.007330167107284069,-0.0007635590736754239,0.030542362481355667
1701882057985059000,9.31405908203125,0.010995250195264816,0.0016798300202935934,0.01817270554602146
1701882057994651100,9.323651123046876,0.014660334214568138,0.016340164467692375,-0.0038177953101694584
1701882058004243700,9.33324365234375,0.01588202826678753,0.007788302376866341,-0.0331384651362896
1701882058013837300,9.34283740234375,0.01710372418165207,-0.0032069480512291193,-0.049020491540431976
1701882058023430000,9.352429931640625,0.014660334214568138,-0.004428642801940441,-0.049020491540431976
1701882058033021700,9.362021728515625,0.012216945178806782,0.004123218823224306,-0.04291202127933502
1701882058042614500,9.371614501953125,0.014660334214568138,0.011453386396169662,-0.0331384651362896
1701882058052207900,9.381207763671876,0.021990500390529633,0.012675080448389053,-0.02092151902616024
1701882058061800700,9.39080078125,0.028098974376916885,0.007788302376866341,-0.013591351918876171
1701882058071392500,9.400392578125,0.03542914241552353,0.0029015245381742716,-0.00992626789957285
1701882058080985000,9.409985107421875,0.042759306728839874,-0.001985253533348441,-0.008704573847353458
1701882058090578700,9.41957861328125,0.04886778071522713,-0.0032069480512291193,-0.006261184345930815
1701882058100171300,9.429171142578125,0.05131116881966591,-0.001985253533348441,-0.007482878863811493
1701882058109763000,9.43876318359375,0.05131116881966591,0.0016798300202935934,-0.00992626789957285
1701882058119356000,9.44835595703125,0.05375456064939499,0.0029015245381742716,-0.014813045971095562
1701882058128949200,9.45794921875,0.0647498071193695,0.005344913341104984,-0.02214321307837963
1701882058138541800,9.467541748046875,0.06352811306715012,0.0016798300202935934,-0.030695075169205666
1701882058148134000,9.4771337890625,0.05864133685827255,0.0004581354442052543,-0.03436015918850899
1701882058157726500,9.4867265625,0.05741964280605316,-0.004428642801940441,-0.03680354729294777
1701882058167320000,9.496320068359376,0.05986303091049194,-0.012980503961443901,-0.04046862944960594
1701882058176912600,9.50591259765625,0.0659715011715889,-0.02641914412379265,-0.045355409383773804
1701882058186504400,9.51550439453125,0.07452336698770523,-0.039857782423496246,-0.047798797488212585
1701882058196097300,9.52509716796875,0.08551861345767975,-0.04352286830544472,-0.045355409383773804
1701882058205690600,9.534690673828125,0.09284878522157669,-0.036192700266838074,-0.0331384651362896
1701882058215283500,9.544283447265625,0.09529217332601547,-0.04107947647571564,-0.01969982497394085
1701882058224875300,9.553875244140626,0.09040539711713791,-0.05085303261876106,0.0022906772792339325
1701882058234468000,9.563468017578124,0.07696675509214401,-0.04107947647571564,0.030542362481355667
1701882058244061400,9.5730615234375,0.0647498071193695,-0.03497100621461868,0.0525328628718853
1701882058253654000,9.582654052734375,0.05864133685827255,-0.038636088371276855,0.061084724962711334
1701882058263245800,9.592245849609375,0.04886778071522713,-0.037414394319057465,0.05986303091049194
1701882058272838700,9.601838623046875,0.045202698558568954,-0.02886253222823143,0.04886778071522713
1701882058282432000,9.611431884765626,0.045202698558568954,-0.025197450071573257,0.030542362481355667
1701882058292024800,9.62102490234375,0.047646086663007736,-0.022754060104489326,0.005955760832875967
1701882058301616600,9.63061669921875,0.05131116881966591,-0.023975754156708717,-0.014813045971095562
1701882058311209200,9.640209228515625,0.05741964280605316,-0.021532366052269936,-0.024586603045463562
1701882058320802800,9.649802734375,0.05864133685827255,-0.016645587980747223,-0.03558185324072838
1701882058330395400,9.6593955078125,0.05497625470161438,-0.0068720318377017975,-0.03680354729294777
1701882058339987200,9.6689873046875,0.046424392610788345,-0.008093725889921188,-0.031916771084070206
1701882058349580000,9.678580078125,0.03665083646774292,-0.004428642801940441,-0.024586603045463562
1701882058359173400,9.68817333984375,0.023212196305394173,0.0065666078589856625,-0.01969982497394085
1701882058368766200,9.69776611328125,0.01588202826678753,0.007788302376866341,-0.02092151902616024
1701882058378358000,9.70735791015625,0.013438640162348747,-0.001985253533348441,-0.030695075169205666
1701882058387950800,9.716950927734375,0.014660334214568138,-0.005650337319821119,-0.04413371533155441
1701882058397544200,9.726544189453126,0.01710372418165207,0.0016798300202935934,-0.051463883370161057
1701882058407136800,9.73613671875,0.01588202826678753,0.004123218823224306,-0.05757235363125801
1701882058416728800,9.745728759765624,0.013438640162348747,0.0004581354442052543,-0.06612421572208405
1701882058426321400,9.7553212890625,0.008551862090826035,0.0029015245381742716,-0.072232685983181
1701882058435914800,9.764914794921875,0.004886778071522713,0.011453386396169662,-0.07101099193096161
1701882058445507600,9.774507568359375,-0.0012216945178806782,0.011453386396169662,-0.06612421572208405
1701882058455099400,9.784099365234376,0,0.009009997360408306,-0.0587940476834774
1701882058464692000,9.79369189453125,0.007330167107284069,0.007788302376866341,-0.05268557742238045
1701882058474285600,9.80328564453125,0.0024433890357613564,0.0029015245381742716,-0.047798797488212585
1701882058483878100,9.812878173828125,-0.0036650835536420345,0.0004581354442052543,-0.046577103435993195
1701882058493470000,9.822469970703125,-0.0036650835536420345,-0.0007635590736754239,-0.045355409383773804
1701882058503062800,9.832062744140625,-0.0036650835536420345,-0.005650337319821119,-0.04169032722711563
1701882058512656400,9.841656494140626,-0.004886778071522713,-0.005650337319821119,-0.0331384651362896
1701882058522249000,9.8512490234375,-0.008551862090826035,-0.004428642801940441,-0.027029991149902344
1701882058531840800,9.8608408203125,-0.006108472589403391,-0.005650337319821119,-0.030695075169205666
1701882058541433300,9.870433349609375,-0.0012216945178806782,-0.015423892997205257,-0.04291202127933502
1701882058551027000,9.88002685546875,0.004886778071522713,-0.02886253222823143,-0.06368082761764526
1701882058560619500,9.88961962890625,0.009773556143045425,-0.03497100621461868,-0.08811471611261368
1701882058570211600,9.899211669921876,0.012216945178806782,-0.02886253222823143,-0.10888352245092392
1701882058579804200,9.90880419921875,0.012216945178806782,-0.025197450071573257,-0.1247655525803566
1701882058589397500,9.9183974609375,0.0024433890357613564,-0.016645587980747223,-0.12110047042369843
1701882058598990300,9.927990234375,-0.007330167107284069,-0.0068720318377017975,-0.10521844029426575
1701882058608582100,9.93758203125,-0.014660334214568138,0.004123218823224306,-0.0856713280081749
1701882058618174700,9.9471748046875,-0.01954711228609085,0.018783552572131157,-0.06368082761764526
1701882058627768300,9.956768310546876,-0.01954711228609085,0.02733541466295719,-0.04046862944960594
1701882058637361000,9.96636083984375,-0.012216945178806782,0.02244863659143448,-0.01725643500685692
1701882058646952700,9.97595263671875,-0.007330167107284069,0.010231691412627697,0.010842538438737392
1701882058656545500,9.985545654296875,0.0036650835536420345,0.021226942539215088,0.03176405653357506
1701882058666139100,9.99513916015625,0.014660334214568138,0.02244863659143448,0.029320668429136276
1701882058675731700,10.004731689453125,0.024433890357613564,-0.008093725889921188,0.01817270554602146
1701882058685323500,10.014323486328125,0.03420744836330414,-0.008093725889921188,0.023212196305394173
1701882058694916400,10.023916259765626,0.03298575058579445,0.010231691412627697,0.03420744836330414
1701882058704509700,10.033509765625,0.026877280324697495,0.021226942539215088,0.03298575058579445
1701882058714102300,10.043102294921875,0.01954711228609085,0.032222192734479904,0.023212196305394173
1701882058723694300,10.0526943359375,0.013438640162348747,0.04688252881169319,0.007177455350756645
1701882058733287000,10.062286865234375,0.008551862090826035,0.051769305020570755,-0.00992626789957285
1701882058742880300,10.07188037109375,0.006108472589403391,0.0456608310341835,-0.01847812905907631
1701882058752473000,10.08147314453125,0.0024433890357613564,0.03588727489113808,-0.013591351918876171
1701882058762065000,10.09106494140625,-0.0012216945178806782,0.028557108715176582,-0.007482878863811493
1701882058771657500,10.100657470703124,-0.006108472589403391,0.021226942539215088,-0.001374406274408102
1701882058781251000,10.1102509765625,-0.007330167107284069,0.017561858519911766,-0.00015271181473508477
1701882058790843600,10.11984375,-0.008551862090826035,0.011453386396169662,-0.001374406274408102
1701882058800435500,10.129435546875,-0.008551862090826035,0.007788302376866341,-0.006261184345930815
1701882058810028300,10.1390283203125,-0.009773556143045425,0.011453386396169662,-0.012369656935334206
1701882058819622000,10.148621826171874,-0.008551862090826035,0.01511846948415041,-0.01969982497394085
1701882058829214500,10.15821435546875,-0.010995250195264816,0.032222192734479904,-0.025808297097682953
1701882058838806300,10.16780615234375,-0.010995250195264816,0.04688252881169319,-0.031916771084070206
1701882058848399000,10.177399169921875,-0.010995250195264816,0.052990999072790146,-0.03436015918850899
1701882058857992400,10.186992431640626,-0.010995250195264816,0.05665608495473862,-0.03802524134516716
1701882058867585000,10.1965849609375,-0.010995250195264816,0.0590994730591774,-0.047798797488212585
1701882058877176800,10.2061767578125,-0.009773556143045425,0.0590994730591774,-0.0587940476834774
1701882058886769700,10.215769775390624,-0.010995250195264816,0.0590994730591774,-0.07101099193096161
1701882058896363000,10.225363037109375,-0.013438640162348747,0.06154286116361618,-0.07834116369485855
1701882058905955800,10.234955810546875,-0.013438640162348747,0.05665608495473862,-0.07834116369485855
1701882058915547600,10.244547607421875,-0.010995250195264816,0.04443913698196411,-0.07711946964263916
1701882058925140200,10.25414013671875,-0.008551862090826035,0.033443886786699295,-0.07711946964263916
1701882058934733800,10.26373388671875,-0.009773556143045425,0.031000498682260513,-0.07467607408761978
1701882058944326400,10.273326416015625,-0.012216945178806782,0.03955236077308655,-0.06612421572208405
1701882058953918500,10.28291845703125,-0.01588202826678753,0.05543438717722893,-0.05268557742238045
1701882058963511000,10.292510986328125,-0.01832541823387146,0.07375980913639069,-0.03802524134516716
1701882058973104400,10.3021044921875,-0.01954711228609085,0.08231166750192642,-0.024586603045463562
1701882058982697200,10.311697265625,-0.01588202826678753,0.07375980913639069,-0.016034740954637527
1701882058992289000,10.3212890625,-0.009773556143045425,0.052990999072790146,-0.012369656935334206
1701882059001881600,10.330881591796874,-0.0036650835536420345,0.02733541466295719,-0.006261184345930815
1701882059011475200,10.34047509765625,-0.004886778071522713,0.016340164467692375,-0.0050394898280501366
1701882059021067800,10.35006787109375,-0.009773556143045425,0.021226942539215088,-0.011147962883114815
1701882059030659600,10.35965966796875,-0.01710372418165207,0.031000498682260513,-0.01969982497394085
1701882059040252400,10.36925244140625,-0.01954711228609085,0.04321744292974472,-0.023364907130599022
1701882059049845800,10.378845703125,-0.01954711228609085,0.05543438717722893,-0.02092151902616024
1701882059059438600,10.3884384765625,-0.01588202826678753,0.06642963737249374,-0.016034740954637527
1701882059069030400,10.398030517578125,-0.004886778071522713,0.07009471952915192,-0.00992626789957285
1701882059078623000,10.407623046875,0.006108472589403391,0.06398624926805496,-0.00015271181473508477
1701882059088216600,10.417216552734375,0.013438640162348747,0.05787777900695801,0.007177455350756645
1701882059097809200,10.42680908203125,0.01710372418165207,0.05421269312500954,0.010842538438737392
1701882059107401000,10.43640087890625,0.01710372418165207,0.051769305020570755,0.009620844386518002
1701882059116993800,10.445993896484374,0.014660334214568138,0.05421269312500954,0.004734066314995289
1701882059126587100,10.455587158203125,0.013438640162348747,0.052990999072790146,-0.0038177953101694584
1701882059136180000,10.465179931640625,0.010995250195264816,0.04932591691613197,-0.014813045971095562
1701882059145771800,10.474771728515625,0.012216945178806782,0.03833066672086716,-0.023364907130599022
1701882059155364600,10.484364501953126,0.01588202826678753,0.017561858519911766,-0.030695075169205666
1701882059164958000,10.4939580078125,0.01954711228609085,0.0004581354442052543,-0.03924693539738655
1701882059174550500,10.503550537109374,0.01954711228609085,-0.008093725889921188,-0.04413371533155441
1701882059184142300,10.513142333984375,0.01588202826678753,-0.01175880990922451,-0.049020491540431976
1701882059193735200,10.522735107421875,0.009773556143045425,-0.012980503961443901,-0.05024218559265137
1701882059203328500,10.53232861328125,0.004886778071522713,-0.016645587980747223,-0.05024218559265137
1701882059212921000,10.541921142578126,0.0012216945178806782,-0.015423892997205257,-0.046577103435993195
1701882059222513200,10.55151318359375,-0.0012216945178806782,-0.022754060104489326,-0.04291202127933502
1701882059232105700,10.561105712890624,0,-0.023975754156708717,-0.04046862944960594
1701882059241699300,10.57069921875,0.0036650835536420345,-0.023975754156708717,-0.04413371533155441
1701882059251292000,10.5802919921875,0.008551862090826035,-0.03008422814309597,-0.049020491540431976
1701882059260883700,10.5898837890625,0.014660334214568138,-0.025197450071573257,-0.051463883370161057
1701882059270476500,10.5994765625,0.01588202826678753,-0.020310672000050545,-0.05390727147459984
1701882059280070000,10.60906982421875,0.014660334214568138,-0.01175880990922451,-0.05512896552681923
1701882059289662700,10.618662841796874,0.010995250195264816,0.0004581354442052543,-0.05512896552681923
1701882059299254500,10.628254638671875,0.006108472589403391,0.01511846948415041,-0.0587940476834774
1701882059308847000,10.63784716796875,0.0024433890357613564,0.03588727489113808,-0.06123743951320648
1701882059318440700,10.647440673828125,-0.0012216945178806782,0.04810422286391258,-0.05757235363125801
1701882059328033300,10.657033203125,-0.0036650835536420345,0.04810422286391258,-0.051463883370161057
1701882059337625000,10.666625,-0.004886778071522713,0.0456608310341835,-0.05024218559265137
1701882059347218000,10.676218017578124,-0.006108472589403391,0.034665580838918686,-0.05512896552681923
1701882059356811300,10.685811279296875,-0.007330167107284069,0.017561858519911766,-0.06368082761764526
1701882059366403800,10.69540380859375,-0.006108472589403391,-0.010537114925682545,-0.07101099193096161
1701882059375996000,10.704995849609375,0,-0.036192700266838074,-0.07711946964263916
1701882059385588500,10.71458837890625,0.0012216945178806782,-0.04352286830544472,-0.08689302206039429
1701882059395182000,10.72418212890625,-0.0024433890357613564,-0.03497100621461868,-0.0978882759809494
1701882059404774700,10.733774658203124,-0.007330167107284069,-0.017867282032966614,-0.10399674624204636
1701882059414366500,10.743366455078124,-0.013438640162348747,0.0004581354442052543,-0.10399674624204636
1701882059423959300,10.752959228515625,-0.01954711228609085,0.018783552572131157,-0.0978882759809494
1701882059433552600,10.762552734375,-0.025655584409832954,0.033443886786699295,-0.08811471611261368
1701882059443145500,10.7721455078125,-0.030542362481355667,0.037108972668647766,-0.07956285774707794
1701882059452737300,10.7817373046875,-0.03298575058579445,0.033443886786699295,-0.06368082761764526
1701882059462329900,10.791329833984374,-0.03665083646774292,0.02733541466295719,-0.04413371533155441
1701882059471923500,10.80092333984375,-0.03420744836330414,0.01511846948415041,-0.025808297097682953
1701882059481516000,10.81051611328125,-0.028098974376916885,-0.008093725889921188,-0.007482878863811493
1701882059491108000,10.820108154296875,-0.021990500390529633,-0.022754060104489326,0.0010689827613532543
1701882059500700700,10.82970068359375,-0.013438640162348747,-0.03130592033267021,0.0010689827613532543
1701882059510294000,10.8392939453125,-0.004886778071522713,-0.036192700266838074,-0.011147962883114815
1701882059519886800,10.848886962890624,0.0024433890357613564,-0.0325276181101799,-0.029473381116986275
1701882059529478700,10.858478759765624,0.009773556143045425,-0.02886253222823143,-0.047798797488212585
1701882059539071200,10.8680712890625,0.01710372418165207,-0.02764083817601204,-0.06734590977430344
1701882059548664800,10.877664794921875,0.03298575058579445,-0.0325276181101799,-0.08933641016483307
1701882059558257400,10.88725732421875,0.03298575058579445,-0.037414394319057465,-0.10399674624204636
1701882059567849200,10.89684912109375,0.028098974376916885,-0.036192700266838074,-0.10766182839870453
1701882059577442000,10.906442138671874,0.021990500390529633,-0.03130592033267021,-0.10033166408538818
1701882059587035600,10.91603564453125,0.01588202826678753,-0.023975754156708717,-0.0856713280081749
1701882059596628200,10.925628173828125,0.008551862090826035,-0.015423892997205257,-0.07101099193096161
1701882059606220000,10.935219970703125,0,-0.01175880990922451,-0.06001574173569679
1701882059615812600,10.9448125,-0.006108472589403391,-0.008093725889921188,-0.05390727147459984
1701882059625406200,10.95440625,-0.008551862090826035,-0.012980503961443901,-0.051463883370161057
1701882059634998800,10.963998779296874,-0.007330167107284069,-0.022754060104489326,-0.06001574173569679
1701882059644590800,10.9735908203125,-0.007330167107284069,-0.03130592033267021,-0.06490252166986465
1701882059654183400,10.983183349609375,-0.0012216945178806782,-0.0325276181101799,-0.06856760382652283
1701882059663777000,10.992777099609375,0.0024433890357613564,-0.025197450071573257,-0.06612421572208405
1701882059673369600,11.00236962890625,-0.007330167107284069,-0.012980503961443901,-0.05512896552681923
1701882059682961400,11.01196142578125,-0.01710372418165207,-0.008093725889921188,-0.047798797488212585
1701882059692554200,11.02155419921875,-0.021990500390529633,-0.017867282032966614,-0.05024218559265137
1701882059702147600,11.031147705078125,-0.02076880633831024,-0.02641914412379265,-0.05757235363125801
1701882059711740200,11.040740234375,-0.01588202826678753,-0.038636088371276855,-0.07101099193096161
1701882059721332200,11.050332275390625,-0.012216945178806782,-0.04474456235766411,-0.07101099193096161
1701882059730924800,11.0599248046875,-0.010995250195264816,-0.0459662564098835,-0.06490252166986465
1701882059740518400,11.069518310546876,-0.010995250195264816,-0.04230117425322533,-0.05024218559265137
1701882059750111000,11.079111083984374,-0.013438640162348747,-0.03497100621461868,-0.028251685202121735
1701882059759702800,11.088702880859374,-0.01954711228609085,-0.03130592033267021,0.007177455350756645
1701882059769295600,11.098295654296875,-0.023212196305394173,-0.037414394319057465,0.04153761267662048
1701882059778889000,11.107888916015625,-0.02076880633831024,-0.0594048947095871,0.05375456064939499
1701882059788481800,11.117481689453125,-0.01588202826678753,-0.06062658876180649,0.05131116881966591
1701882059798073600,11.127073486328126,-0.0036650835536420345,-0.06795676052570343,0.061084724962711334
1701882059807666400,11.13666650390625,0.008551862090826035,-0.08017370104789734,0.08429691940546036
1701882059817259800,11.146259765625,0.01588202826678753,-0.09605573117733002,0.11117420345544815
1701882059826852400,11.155852294921875,0.01588202826678753,-0.10705098509788513,0.14660334587097168
1701882059836444200,11.165444091796875,0.0024433890357613564,-0.0984991192817688,0.17470231652259827
1701882059846037000,11.175037109375,-0.024433890357613564,-0.07650861889123917,0.18936264514923096
1701882059855630600,11.184630615234376,-0.05008947476744652,-0.054518118500709534,0.20035789906978607
1701882059865223200,11.19422314453125,-0.08674030750989914,-0.03497100621461868,0.22723518311977386
1701882059874815000,11.20381494140625,-0.13316470384597778,-0.0068720318377017975,0.2480039894580841
1701882059884407600,11.213407470703125,-0.17470231652259827,-0.019088976085186005,0.26632940769195557
1701882059894001200,11.223001220703125,-0.18936264514923096,-0.05207473039627075,0.2883199155330658
1701882059903593700,11.23259375,-0.16859383881092072,-0.08017370104789734,0.29687178134918213
1701882059913185800,11.242185791015626,-0.12827792763710022,-0.10582929104566574,0.2492256760597229
1701882059922778400,11.2517783203125,-0.12461283802986145,-0.14248012006282806,0.18691925704479218
1701882059932372000,11.2613720703125,-0.09651386737823486,-0.11560284346342087,0.14660334587097168
1701882059941964500,11.270964599609375,-0.06352811306715012,-0.08628217875957489,0.14171656966209412
1701882059951556400,11.280556396484375,-0.06719319522380829,-0.037414394319057465,0.18691925704479218
1701882059961149200,11.290149169921875,-0.10262233763933182,-0.021532366052269936,0.2516690790653229
1701882059970742500,11.299742431640626,-0.13805148005485535,-0.055739812552928925,0.26632940769195557
1701882059980335400,11.30933544921875,-0.15149012207984924,-0.10949437320232391,0.2345653474330902
1701882059989927200,11.31892724609375,-0.1563768982887268,-0.15469707548618317,0.1979145109653473
1701882059999519700,11.328519775390625,-0.14782503247261047,-0.14736689627170563,0.1698155403137207
1701882060009113300,11.33811328125,-0.1453816443681717,-0.10827267915010452,0.16004198789596558
1701882060018706000,11.347705810546875,-0.1820324808359146,-0.06062658876180649,0.17225892841815948
1701882060028298000,11.357298095703126,-0.19302773475646973,-0.05207473039627075,0.19913621246814728
1701882060037890600,11.366890625,-0.18691925704479218,-0.058183200657367706,0.20157960057258606
1701882060047484200,11.376484130859374,-0.21379654109477997,-0.10460758954286575,0.19424942135810852
1701882060057076700,11.38607666015625,-0.20157960057258606,-0.1522536724805832,0.16126367449760437
1701882060066668500,11.39566845703125,-0.17348061501979828,-0.12171131372451782,0.09651386737823486
1701882060076261400,11.405261474609375,-0.16615045070648193,-0.09727742522954941,0.03665083646774292
1701882060085854700,11.414854736328126,-0.15026842057704926,-0.008093725889921188,-0.006261184345930815
1701882060095447300,11.424447265625,-0.16126367449760437,0.050547610968351364,-0.011147962883114815
1701882060105039400,11.434039306640624,-0.17714570462703705,0.06765133142471313,0.04031591862440109
1701882060114632000,11.4436318359375,-0.23945212364196777,0.051769305020570755,0.15393351018428802
1701882060124225500,11.4532255859375,-0.29565006494522095,0.0029015245381742716,0.25533416867256165
1701882060133818000,11.462818115234375,-0.4605788290500641,-0.09727742522954941,0.32008397579193115
1701882060143410200,11.47241015625,-0.5143333673477173,-0.1766875684261322,0.3530697226524353
1701882060153002800,11.482002685546876,-0.4422534108161926,-0.056961506605148315,0.34940463304519653
1701882060162596400,11.491596435546874,-0.22479179501533508,0.10674555599689484,0.32130566239356995
1701882060172189000,11.50118896484375,-0.15026842057704926,0.08231166750192642,0.3787252902984619
1701882060181780700,11.51078076171875,-0.22601348161697388,0.39140036702156067,0.624285876750946
1701882060191373600,11.52037353515625,-0.27976804971694946,0.4146125912666321,0.8502993583679199
1701882060200967000,11.529966796875,-0.3249707520008087,0.3755183517932892,0.9639169573783875
1701882060210559500,11.5395595703125,-0.4190412163734436,0.3083251416683197,0.9223793745040894
1701882060220151600,11.549151611328124,-0.5351021885871887,0.2276933193206787,0.8270871639251709
1701882060229744400,11.558744384765625,-0.5998520255088806,0.23746687173843384,0.7256865501403809
1701882060239337700,11.568337646484375,-0.673306405544281,0.3364241421222687,0.6499415040016174
1701882060248930300,11.577930419921875,-0.7722636461257935,0.425607830286026,0.6132906675338745
1701882060258522400,11.5875224609375,-0.8223531246185303,0.45615020394325256,0.675597071647644
1701882060268115000,11.597114990234376,-0.8223531246185303,0.44637662172317505,0.8380824327468872
1701882060277708500,11.60670849609375,-0.8370134830474854,0.3694098889827728,1.0469921827316284
1701882060287301000,11.616301025390625,-0.8980981707572937,0.19715094566345215,1.2595670223236084
1701882060296893000,11.625892822265625,-0.9604045748710632,0.2790044844150543,1.5759859085083008
1701882060306485800,11.63548583984375,-0.8968765139579773,0.34375429153442383,1.794669270515442
1701882060316079000,11.6450791015625,-0.7930324673652649,0.4756973087787628,1.767791986465454
1701882060325672000,11.654671875,-0.7551599144935608,0.695602297782898,1.7494665384292603
1701882060335263700,11.664263671875,-0.7685985565185547,0.8079982399940491,1.7030421495437622
1701882060344856300,11.673856201171875,-0.8651124238967896,0.8263236284255981,1.6871601343154907
1701882060354450000,11.683449951171875,-0.9115368127822876,0.8434273600578308,1.761683464050293
1701882060364042500,11.69304248046875,-0.8699992299079895,0.950936496257782,1.9180604219436646
1701882060373634600,11.702634521484375,-0.7685985565185547,0.9607100486755371,2.0671072006225586
1701882060383227100,11.71222705078125,-0.7038487792015076,0.8605310916900635,2.0793240070343018
1701882060392820700,11.72182080078125,-0.719730794429779,0.8922951221466064,2.085432529449463
1701882060402413300,11.731413330078125,-0.7905890941619873,0.9448279738426208,2.114753246307373
1701882060412005000,11.741005126953125,-0.9017632603645325,0.9350544214248657,2.1184182167053223
1701882060421598000,11.750597900390625,-1.0031639337539673,0.9203941226005554,2.1049797534942627
1701882060431191300,11.76019140625,-1.0251544713974,1.0279031991958618,2.108644723892212
1701882060440784100,11.7697841796875,-0.9958337545394897,1.167176365852356,2.1575124263763428
1701882060450376000,11.7793759765625,-0.987281858921051,1.223374366760254,2.199050188064575
1701882060459968800,11.78896875,-1.0630269050598145,1.1830583810806274,2.195384979248047
1701882060469562000,11.79856201171875,-1.1314418315887451,1.0584455728530884,2.2283709049224854
1701882060479154700,11.80815478515625,-1.2169604301452637,1.3198882341384888,2.1123099327087402
1701882060488746800,11.817746826171875,-1.172979474067688,1.9624994993209839,1.7592401504516602
1701882060498339600,11.827339599609376,-0.9261971712112427,2.838454484939575,1.4342693090438843
1701882060507933000,11.836932861328124,-0.7221741676330566,3.3479011058807373,1.3072131872177124
1701882060517525500,11.846525390625,-0.6537593007087708,3.3540096282958984,1.2607887983322144
