time,seconds_elapsed,z,y,x
1697664261913226000,0.10422607421875,8.728001594543457,4.450080871582031,0.43494558334350586
1697664261922818800,0.11381884765625,8.843389511108398,4.222058296203613,0.37292349338531494
1697664261932410600,0.12341064453125,8.955497741699219,3.9810707569122314,0.3471425175666809
1697664261942003500,0.13300341796875,9.050797462463379,3.76057767868042,0.33392247557640076
1697664261951597000,0.14259716796875,9.126906394958496,3.5725760459899902,0.326591432094574
1697664261961190000,0.15218994140625,9.181998252868652,3.428628921508789,0.325274795293808
1697664261970782000,0.161781982421875,9.212204933166504,3.342871904373169,0.36177366971969604
1697664261980374800,0.171374755859375,9.222036361694336,3.3043549060821533,0.45351940393447876
1697664261989968400,0.180968505859375,9.211764335632324,3.3134970664978027,0.5783851742744446
1697664261999561000,0.19056103515625,9.183605194091797,3.365065574645996,0.7128333449363708
1697664262009153000,0.200153076171875,9.140091896057129,3.4505574703216553,0.850155770778656
1697664262018745900,0.209745849609375,9.080324172973633,3.568761110305786,0.9909744262695312
1697664262028339500,0.21933935546875,9.005786895751953,3.7119181156158447,1.134831190109253
1697664262037932300,0.228932373046875,8.920757293701172,3.865976095199585,1.2824552059173584
1697664262047524000,0.238524169921875,8.833120346069336,4.015011787414551,1.423399567604065
1697664262057117000,0.248116943359375,8.75212574005127,4.149181365966797,1.5345914363861084
1697664262066710500,0.25771044921875,8.688477516174316,4.256234645843506,1.6016275882720947
1697664262076303000,0.26730322265625,8.651887893676758,4.322541236877441,1.6219948530197144
1697664262085895200,0.276895263671875,8.644815444946289,4.34517765045166,1.599056363105774
1697664262095488000,0.286488037109375,8.662755012512207,4.330453395843506,1.5408586263656616
1697664262105081600,0.29608154296875,8.695490837097168,4.290812015533447,1.4655215740203857
1697664262114674400,0.30567431640625,8.731623649597168,4.2431721687316895,1.387312412261963
1697664262124266200,0.315266357421875,8.762341499328613,4.204071044921875,1.3105511665344238
1697664262133859300,0.324859375,8.782188415527344,4.18289041519165,1.2437719106674194
1697664262143452700,0.33445263671875,8.788615226745605,4.183172702789307,1.1965354681015015
1697664262153045500,0.34404541015625,8.782906532287598,4.203618049621582,1.1664202213287354
1697664262162637600,0.353637451171875,8.762907981872559,4.248992443084717,1.152347445487976
1697664262172230400,0.36323046875,8.729162216186523,4.31882381439209,1.1488622426986694
1697664262181824000,0.372823974609375,8.688596725463867,4.397580146789551,1.1575692892074585
1697664262191416600,0.38241650390625,8.644516944885254,4.479607105255127,1.1729545593261719
1697664262201008600,0.392008544921875,8.59618854522705,4.567138671875,1.1904455423355103
1697664262210601500,0.4016015625,8.545469284057617,4.655938148498535,1.2114366292953491
1697664262220195000,0.411195068359375,8.493561744689941,4.744278907775879,1.2335397005081177
1697664262229787600,0.42078759765625,8.443389892578125,4.826886177062988,1.2572699785232544
1697664262239379700,0.430379638671875,8.395553588867188,4.89826774597168,1.300781011581421
1697664262248972500,0.43997265625,8.369487762451172,4.9347405433654785,1.3305706977844238
1697664262258566100,0.449566162109375,8.356034278869629,4.9550065994262695,1.3397682905197144
1697664262268158700,0.45915869140625,8.343689918518066,4.978392601013184,1.3299717903137207
1697664262277750800,0.468750732421875,8.331522941589355,5.004912376403809,1.3065098524093628
1697664262287343600,0.478343505859375,8.322132110595703,5.0271711349487305,1.2806459665298462
1697664262296937200,0.487937255859375,8.313136100769043,5.046614646911621,1.2624696493148804
1697664262306530000,0.497530029296875,8.30239486694336,5.066751956939697,1.252460241317749
1697664262316121900,0.507121826171875,8.287174224853516,5.0948710441589355,1.2391144037246704
1697664262325714700,0.516714599609375,8.269050598144531,5.129119873046875,1.2187339067459106
1697664262335308300,0.526308349609375,8.250609397888184,5.16487455368042,1.1924315690994263
1697664262344901000,0.535901123046875,8.233187675476074,5.198526382446289,1.1663317680358887
1697664262354493000,0.545492919921875,8.216710090637207,5.22798490524292,1.1507529020309448
1697664262364086000,0.5550859375,8.199078559875488,5.257115364074707,1.1437785625457764
1697664262373679400,0.564679443359375,8.179156303405762,5.289679527282715,1.1362570524215698
1697664262383272200,0.574272216796875,8.155906677246094,5.325408935546875,1.1364834308624268
1697664262392864300,0.5838642578125,8.131178855895996,5.359766960144043,1.1520525217056274
1697664262402457000,0.59345703125,8.102375030517578,5.398134231567383,1.1756047010421753
1697664262412050400,0.603050537109375,8.07105827331543,5.442027568817139,1.1885861158370972
1697664262421643300,0.612643310546875,8.044239044189453,5.480281829833984,1.194620132446289
1697664262431235300,0.6222353515625,8.027342796325684,5.502857685089111,1.2044568061828613
1697664262440828200,0.631828125,8.021378517150879,5.5095086097717285,1.2137480974197388
1697664262450421800,0.641421875,8.028356552124023,5.499481201171875,1.2130895853042603
1697664262460014300,0.651014404296875,8.050801277160645,5.470303058624268,1.1961504220962524
1697664262469606400,0.6606064453125,8.086432456970215,5.4247565269470215,1.1627635955810547
1697664262479199200,0.67019921875,8.127371788024902,5.371763229370117,1.122662901878357
1697664262488792800,0.679792724609375,8.166213035583496,5.320556640625,1.083985447883606
1697664262498385400,0.689385498046875,8.19933032989502,5.276400566101074,1.0492736101150513
1697664262507977500,0.6989775390625,8.225668907165527,5.24039888381958,1.0232257843017578
1697664262517570300,0.7085703125,8.24609088897705,5.209170818328857,1.0182809829711914
1697664262527164000,0.718163818359375,8.2640380859375,5.179391860961914,1.0246758460998535
1697664262536756700,0.7277568359375,8.270025253295898,5.172289848327637,1.0121797323226929
1697664262546348500,0.7373486328125,8.260357856750488,5.195672988891602,0.9704982042312622
1697664262555941400,0.74694140625,8.240680694580078,5.235838890075684,0.9206241965293884
1697664262565535000,0.756534912109375,8.219768524169922,5.272961139678955,0.8953624367713928
1697664262575127800,0.7661279296875,8.203800201416016,5.298199653625488,0.892829418182373
1697664262584719600,0.7757197265625,8.194799423217773,5.3134965896606445,0.8845300078392029
1697664262594312700,0.785312744140625,8.19470500946045,5.317672252655029,0.8599729537963867
1697664262603906000,0.794906005859375,8.204756736755371,5.307526588439941,0.8261441588401794
1697664262613499000,0.804498779296875,8.223894119262695,5.283674716949463,0.7878743410110474
1697664262623091000,0.814091064453125,8.249349594116211,5.250002861022949,0.7457197904586792
1697664262632683800,0.823683837890625,8.277795791625977,5.210810661315918,0.7042302489280701
1697664262642277000,0.833277099609375,8.306035041809082,5.170004844665527,0.6717243194580078
1697664262651870000,0.842869873046875,8.329745292663574,5.134510040283203,0.6500325202941895
1697664262661462000,0.8524619140625,8.345720291137695,5.1099042892456055,0.6389163732528687
1697664262671054800,0.862054931640625,8.352381706237793,5.098949432373047,0.6393950581550598
1697664262680648200,0.871648193359375,8.349156379699707,5.102870464324951,0.6501421332359314
1697664262690241000,0.881240966796875,8.33659839630127,5.1210761070251465,0.6679102182388306
1697664262699833000,0.8908330078125,8.316925048828125,5.149913311004639,0.6910459399223328
1697664262709426000,0.900426025390625,8.29280948638916,5.185277462005615,0.7159543037414551
1697664262719019500,0.91001953125,8.26579475402832,5.225178241729736,0.7379350066184998
1697664262728612000,0.919612060546875,8.238346099853516,5.265025615692139,0.7612725496292114
1697664262738204200,0.9292041015625,8.21225357055664,5.301916122436523,0.7867442965507507
1697664262747797000,0.938796875,8.189018249511719,5.333670139312744,0.8138465285301208
1697664262757390600,0.948390625,8.169153213500977,5.359915256500244,0.8406213521957397
1697664262766983200,0.957983154296875,8.152234077453613,5.382351398468018,0.8612557649612427
1697664262776575200,0.9675751953125,8.137534141540527,5.402980327606201,0.8710505962371826
1697664262786168000,0.97716796875,8.124154090881348,5.423270225524902,0.8698624968528748
1697664262795761700,0.98676171875,8.111340522766113,5.443921089172363,0.8603790998458862
1697664262805354200,0.996354248046875,8.098989486694336,5.464235305786133,0.8478702306747437
1697664262814946300,1.0059462890625,8.08752727508545,5.482963562011719,0.8363046646118164
1697664262824539100,1.0155390625,8.07726001739502,5.499402046203613,0.8275507688522339
1697664262834132700,1.0251328125,8.067970275878906,5.513973236083984,0.8211789727210999
1697664262843725600,1.0347255859375,8.058177947998047,5.52919864654541,0.8149351477622986
1697664262853317400,1.0443173828125,8.04699993133545,5.546445369720459,0.8081615567207336
1697664262862910200,1.05391015625,8.032916069030762,5.5681471824646,0.798987090587616
1697664262872503800,1.06350390625,8.013813018798828,5.597395420074463,0.7863539457321167
1697664262882096600,1.0730966796875,7.9913434982299805,5.630720138549805,0.7770580053329468
1697664262891688400,1.0826884765625,7.969144344329834,5.661710739135742,0.7798426747322083
1697664262901281300,1.09228125,7.9512786865234375,5.6840949058532715,0.7991390228271484
1697664262910875000,1.101875,7.939915180206299,5.694684028625488,0.8358843326568604
1697664262920467700,1.1114677734375,7.936404705047607,5.691653728485107,0.8882219791412354
1697664262930059800,1.121059814453125,7.941941261291504,5.674323081970215,0.9476317167282104
1697664262939652600,1.130652587890625,7.957534313201904,5.642500400543213,1.0050987005233765
1697664262949246000,1.140245849609375,7.983073711395264,5.597681045532227,1.0520868301391602
1697664262958838800,1.1498388671875,8.015826225280762,5.545254707336426,1.0803064107894897
1697664262968430800,1.159430908203125,8.050482749938965,5.493265628814697,1.0881859064102173
1697664262978023700,1.169023681640625,8.082276344299316,5.449600696563721,1.07194185256958
1697664262987617000,1.178616943359375,8.107194900512695,5.419834136962891,1.0340129137039185
1697664262997209900,1.1882099609375,8.122304916381836,5.405125617980957,0.9915472269058228
1697664263006802000,1.197802001953125,8.127031326293945,5.404413223266602,0.9560653567314148
1697664263016394800,1.207394775390625,8.121845245361328,5.415631294250488,0.9364588260650635
1697664263025988000,1.216988037109375,8.108194351196289,5.435450077056885,0.9399207830429077
1697664263035581000,1.226580810546875,8.087738990783691,5.461525917053223,0.9646750688552856
1697664263045173000,1.236173095703125,8.063432693481445,5.490668296813965,1.0020002126693726
1697664263054765800,1.245765869140625,8.039231300354004,5.518279075622559,1.0439103841781616
1697664263064359400,1.255359375,8.01880931854248,5.54011869430542,1.0845171213150024
1697664263073952000,1.264951904296875,8.005484580993652,5.553050518035889,1.116346001625061
1697664263083544000,1.2745439453125,8.002123832702637,5.554989337921143,1.1307086944580078
1697664263093137000,1.284136962890625,8.009817123413086,5.544229507446289,1.1290405988693237
1697664263102730500,1.29373046875,8.028264999389648,5.52062463760376,1.113572359085083
1697664263112323000,1.303322998046875,8.055723190307617,5.48553991317749,1.088370442390442
1697664263121915100,1.3129150390625,8.088492393493652,5.443253040313721,1.0572025775909424
1697664263131508000,1.322508056640625,8.122079849243164,5.3999810218811035,1.020982027053833
1697664263141101600,1.3321015625,8.151636123657227,5.3619232177734375,0.9853965044021606
1697664263150694100,1.341694091796875,8.175275802612305,5.332921028137207,0.9461581110954285
1697664263160286200,1.3512861328125,8.192472457885742,5.313669681549072,0.9048186540603638
1697664263169879000,1.360879150390625,8.20318603515625,5.303817272186279,0.8646618723869324
1697664263179472600,1.37047265625,8.20756721496582,5.302839756011963,0.8283231854438782
1697664263189065200,1.380065185546875,8.206120491027832,5.3096466064453125,0.7985202670097351
1697664263198657300,1.3896572265625,8.199426651000977,5.323274612426758,0.7762396931648254
1697664263208250000,1.39925,8.188519477844238,5.342299938201904,0.7604948282241821
1697664263217843700,1.40884375,8.174715042114258,5.365093231201172,0.7484655976295471
1697664263227436500,1.4184365234375,8.159427642822266,5.389711380004883,0.7383410930633545
1697664263237028400,1.4280283203125,8.143654823303223,5.414536476135254,0.7308041453361511
1697664263246621200,1.43762109375,8.128823280334473,5.4368743896484375,0.7300787568092346
1697664263256214800,1.44721484375,8.11669921875,5.453689098358154,0.7394959926605225
1697664263265807400,1.456807373046875,8.108920097351074,5.462455749511719,0.7598479390144348
1697664263275399400,1.4663994140625,8.10560417175293,5.463380336761475,0.7880569696426392
1697664263284992300,1.4759921875,8.105653762817383,5.458366394042969,0.8215770721435547
1697664263294585900,1.4855859375,8.107311248779297,5.451086521148682,0.8529605269432068
1697664263304178400,1.495178466796875,8.109272003173828,5.444443702697754,0.876434862613678
1697664263313770500,1.5047705078125,8.111310958862305,5.4392170906066895,0.8899180889129639
1697664263323363300,1.51436328125,8.113783836364746,5.4345903396606445,0.8956117033958435
1697664263332957000,1.52395703125,8.116742134094238,5.4300971031188965,0.896060585975647
1697664263342549500,1.533549560546875,8.12031364440918,5.425362586975098,0.8923806548118591
1697664263352141600,1.5431416015625,8.125271797180176,5.418753147125244,0.8873919248580933
1697664263361734400,1.552734375,8.132579803466797,5.408393859863281,0.8836344480514526
1697664263371328000,1.562327880859375,8.141878128051758,5.394927501678467,0.8803195953369141
1697664263380920800,1.5719208984375,8.151619911193848,5.380996227264404,0.8754239678382874
1697664263390512600,1.5815126953125,8.161005973815918,5.367490768432617,0.8708633184432983
1697664263400105500,1.59110546875,8.171525001525879,5.351433277130127,0.8710564970970154
1697664263409699000,1.600698974609375,8.185209274291992,5.329580307006836,0.8765400052070618
1697664263419291600,1.610291748046875,8.20350456237793,5.299543380737305,0.8875440359115601
1697664263428883700,1.6198837890625,8.228692054748535,5.2569475173950195,0.9074816703796387
1697664263438476500,1.6294765625,8.262582778930664,5.1978278160095215,0.9395250082015991
1697664263448070100,1.639070068359375,8.304905891418457,5.121362209320068,0.9851807355880737
1697664263457662700,1.648662841796875,8.352567672729492,5.03241491317749,1.0391350984573364
1697664263467254800,1.6582548828125,8.402425765991211,4.93745756149292,1.0913971662521362
1697664263476847600,1.66784765625,8.450984001159668,4.845667362213135,1.1272865533828735
1697664263486441200,1.677441162109375,8.494427680969238,4.767798900604248,1.132776141166687
1697664263496034000,1.687033935546875,8.528244972229004,4.713011264801025,1.1076815128326416
1697664263505625900,1.6966259765625,8.546961784362793,4.688950061798096,1.0646978616714478
1697664263515218700,1.70621875,8.548266410827637,4.696824550628662,1.0185108184814453
1697664263524812300,1.715812255859375,8.53514575958252,4.729238033294678,0.9777456521987915
1697664263534404900,1.72540478515625,8.51301383972168,4.775595664978027,0.9448076486587524
1697664263543997000,1.734996826171875,8.487025260925293,4.82626485824585,0.9208462238311768
1697664263553589800,1.74458984375,8.461030006408691,4.874099254608154,0.9080209136009216
1697664263563183400,1.754183349609375,8.437663078308105,4.9145684242248535,0.907332181930542
1697664263572776200,1.763776123046875,8.418679237365723,4.945321083068848,0.9165216684341431
1697664263582368000,1.773367919921875,8.405328750610352,4.965200901031494,0.9314594268798828
1697664263591960800,1.7829609375,8.397466659545898,4.975492477416992,0.9473187923431396
1697664263601554400,1.792554443359375,8.393816947937012,4.979245662689209,0.9598555564880371
1697664263611147000,1.80214697265625,8.392608642578125,4.980208873748779,0.9654169082641602
1697664263620739000,1.811739013671875,8.392821311950684,4.980409145355225,0.9625269174575806
1697664263630332000,1.821331787109375,8.394152641296387,4.98020601272583,0.9519093036651611
1697664263639925500,1.830925537109375,8.396401405334473,4.979360580444336,0.9363779425621033
1697664263649518300,1.840518310546875,8.399759292602539,4.976800918579102,0.9197141528129578
1697664263659110100,1.850110107421875,8.404316902160645,4.971766471862793,0.9052030444145203
1697664263668703000,1.859702880859375,8.410418510437012,4.963057518005371,0.8962729573249817
1697664263678296600,1.869296630859375,8.418122291564941,4.950442790985107,0.893706202507019
1697664263687889400,1.878889404296875,8.425607681274414,4.936190605163574,0.9019667506217957
1697664263697481200,1.888481201171875,8.430930137634277,4.923905849456787,0.9192153215408325
1697664263707074000,1.898073974609375,8.432934761047363,4.916400909423828,0.9407482147216797
1697664263716667600,1.907667724609375,8.430235862731934,4.916800498962402,0.9625898003578186
1697664263726260200,1.91726025390625,8.422073364257812,4.927155017852783,0.9809250831604004
1697664263735852300,1.926852294921875,8.408506393432617,4.947495460510254,0.9948275685310364
1697664263745445000,1.936445068359375,8.390151023864746,4.97596549987793,1.0077342987060547
1697664263755038700,1.946038818359375,8.368061065673828,5.010009288787842,1.0226179361343384
1697664263764631300,1.95563134765625,8.343832015991211,5.0468926429748535,1.0390980243682861
1697664263774223400,1.965223388671875,8.318940162658691,5.084229469299316,1.05652916431427
1697664263783816200,1.974816162109375,8.295641899108887,5.118618965148926,1.073521375656128
1697664263793409800,1.984409912109375,8.275914192199707,5.1474151611328125,1.0879967212677002
1697664263803002400,1.99400244140625,8.26104736328125,5.169175624847412,1.0977680683135986
1697664263812594400,2.003594482421875,8.251565933227539,5.183565139770508,1.1012239456176758
1697664263822187300,2.013187255859375,8.247699737548828,5.189968109130859,1.1000323295593262
1697664263831780900,2.02278076171875,8.249337196350098,5.187788963317871,1.0980250835418701
1697664263841373400,2.03237353515625,8.25551700592041,5.178400993347168,1.0958956480026245
1697664263850965500,2.041965576171875,8.264912605285645,5.163870811462402,1.093636393547058
1697664263860558300,2.051558349609375,8.275751113891602,5.147014617919922,1.091135859489441
1697664263870152000,2.06115185546875,8.28520679473877,5.132186412811279,1.0892162322998047
1697664263879744500,2.07074462890625,8.291122436523438,5.122632026672363,1.0891846418380737
1697664263889336600,2.080336669921875,8.29257869720459,5.120498180389404,1.0881233215332031
1697664263898929400,2.089929443359375,8.291252136230469,5.1235761642456055,1.0837405920028687
1697664263908523000,2.09952294921875,8.290151596069336,5.12583589553833,1.0814731121063232
1697664263918115600,2.109115478515625,8.29190731048584,5.12113094329834,1.0902636051177979
1697664263927707600,2.118707763671875,8.297740936279297,5.106678485870361,1.1134206056594849
1697664263937300500,2.128300537109375,8.307587623596191,5.082672119140625,1.1492666006088257
1697664263946894000,2.13789404296875,8.320286750793457,5.0516743659973145,1.1932294368743896
1697664263956486700,2.147486572265625,8.334738731384277,5.016424179077148,1.2401660680770874
1697664263966078700,2.15707861328125,8.349654197692871,4.981654167175293,1.2793699502944946
1697664263975671600,2.166671630859375,8.363134384155273,4.953264236450195,1.301367998123169
1697664263985265200,2.17626513671875,8.372364044189453,4.93706750869751,1.3035582304000854
1697664263994857700,2.185857666015625,8.374078750610352,4.937556266784668,1.2906261682510376
1697664264004449800,2.19544970703125,8.365628242492676,4.956382751464844,1.2731568813323975
1697664264014042600,2.205042724609375,8.34598445892334,4.992310047149658,1.2616549730300903
1697664264023636200,2.21463623046875,8.315857887268066,5.042142868041992,1.262414813041687
1697664264033228800,2.224228759765625,8.27804183959961,5.100586891174316,1.2760965824127197
1697664264042820900,2.23382080078125,8.236444473266602,5.161961078643799,1.2982749938964844
1697664264052413700,2.24341357421875,8.194806098937988,5.221958160400391,1.3216220140457153
1697664264062007300,2.25300732421875,8.156579971313477,5.276808738708496,1.3401015996932983
1697664264071599900,2.262599853515625,8.124731063842773,5.323234558105469,1.3499270677566528
1697664264081192000,2.27219189453125,8.101473808288574,5.358750820159912,1.3491812944412231
1697664264090784800,2.28178466796875,8.0885648727417,5.3812689781188965,1.3369569778442383
1697664264100378000,2.291378173828125,8.086301803588867,5.390104293823242,1.3148763179779053
1697664264109971000,2.300970947265625,8.093339920043945,5.386544704437256,1.2858388423919678
1697664264119563000,2.31056298828125,8.107845306396484,5.372356414794922,1.2534037828445435
1697664264129155600,2.320155517578125,8.127713203430176,5.35009241104126,1.2194983959197998
1697664264138749200,2.329749267578125,8.150583267211914,5.322823524475098,1.1857243776321411
1697664264148342000,2.339342041015625,8.174371719360352,5.293368816375732,1.1533797979354858
1697664264157934000,2.34893408203125,8.197258949279785,5.264523983001709,1.122546911239624
1697664264167527000,2.35852685546875,8.217927932739258,5.238375186920166,1.0933783054351807
1697664264177120300,2.368120361328125,8.234865188598633,5.217040061950684,1.0676525831222534
1697664264186713000,2.377713134765625,8.246609687805176,5.202645778656006,1.0470342636108398
1697664264196305200,2.38730517578125,8.252127647399902,5.197237014770508,1.0302971601486206
1697664264205897700,2.396897705078125,8.251025199890137,5.201572895050049,1.0171599388122559
1697664264215491300,2.4064912109375,8.24378776550293,5.214666366577148,1.0087652206420898
1697664264225084200,2.416084228515625,8.231660842895508,5.234644412994385,1.004310965538025
1697664264234676000,2.425676025390625,8.216343879699707,5.259021759033203,1.0023785829544067
1697664264244268800,2.435268798828125,8.199740409851074,5.285089015960693,1.0012366771697998
1697664264253862400,2.4448623046875,8.183923721313477,5.310059547424316,0.9985174536705017
1697664264263455200,2.454455322265625,8.17083740234375,5.331332206726074,0.9923209547996521
1697664264273047000,2.464047119140625,8.162287712097168,5.346278667449951,0.9822067618370056
1697664264282640000,2.473639892578125,8.15938949584961,5.353321075439453,0.967842161655426
1697664264292233500,2.4832333984375,8.162256240844727,5.3521199226379395,0.9501440525054932
1697664264301826300,2.492826416015625,8.170924186706543,5.342398166656494,0.9301394820213318
1697664264311418000,2.502418212890625,8.184083938598633,5.32614803314209,0.9073579907417297
1697664264321011000,2.512010986328125,8.199174880981445,5.307346343994141,0.8809053897857666
1697664264330604500,2.5216044921875,8.213168144226074,5.290756702423096,0.8497911095619202
1697664264340197000,2.531197021484375,8.223308563232422,5.280364990234375,0.8156750202178955
1697664264349789200,2.5407890625,8.227727890014648,5.278681755065918,0.7812815308570862
1697664264359382000,2.550382080078125,8.225912094116211,5.285986423492432,0.7504090666770935
1697664264368975600,2.5599755859375,8.218317985534668,5.3011369705200195,0.7263450026512146
1697664264378568200,2.569568115234375,8.206341743469238,5.321563720703125,0.7122450470924377
1697664264388160300,2.57916015625,8.192174911499023,5.343854904174805,0.7084396481513977
1697664264397753000,2.588753173828125,8.178272247314453,5.364660739898682,0.7117995023727417
1697664264407346700,2.5983466796875,8.166443824768066,5.381955623626709,0.7170283794403076
1697664264416939300,2.607939208984375,8.15697956085205,5.3962531089782715,0.7173143029212952
1697664264426531300,2.61753125,8.149554252624512,5.408278465270996,0.7111096382141113
1697664264436124200,2.627124267578125,8.144576072692871,5.417038440704346,0.7014104723930359
1697664264445717800,2.6367177734375,8.142261505126953,5.422287940979004,0.6875718832015991
1697664264455310300,2.646310302734375,8.142365455627441,5.424298286437988,0.6702682375907898
1697664264464902400,2.65590234375,8.14620304107666,5.419966220855713,0.658575177192688
1697664264474495200,2.6654951171875,8.156950950622559,5.403283596038818,0.6626313328742981
1697664264484088600,2.675088623046875,8.176484107971191,5.371208667755127,0.682363748550415
1697664264493681400,2.684681396484375,8.204449653625488,5.324879169464111,0.709259033203125
1697664264503273500,2.6942734375,8.238153457641602,5.269379615783691,0.732698380947113
1697664264512866300,2.7038662109375,8.273289680480957,5.212615966796875,0.7427679300308228
1697664264522459600,2.713459716796875,8.304472923278809,5.164392471313477,0.7315406799316406
1697664264532052500,2.723052490234375,8.327482223510742,5.131994247436523,0.6971935033798218
1697664264541644300,2.732644287109375,8.3400239944458,5.118349075317383,0.6456666588783264
1697664264551237000,2.742237060546875,8.34251880645752,5.12104606628418,0.5896350145339966
1697664264560830700,2.751830810546875,8.336889266967773,5.135912895202637,0.5376410484313965
1697664264570423600,2.761423583984375,8.325237274169922,5.159265041351318,0.4927463233470917
1697664264580015400,2.771015380859375,8.309647560119629,5.187587738037109,0.4572490453720093
1697664264589608200,2.780608154296875,8.29190444946289,5.218064785003662,0.43188729882240295
1697664264599201800,2.790201904296875,8.273346900939941,5.248655796051025,0.4168225824832916
1697664264608794400,2.79979443359375,8.255611419677734,5.276922225952148,0.41154199838638306
1697664264618386400,2.809386474609375,8.24056339263916,5.300190448760986,0.4141162633895874
1697664264627979300,2.818979248046875,8.229827880859375,5.316370487213135,0.4201480448246002
1697664264637572900,2.82857275390625,8.224347114562988,5.324611186981201,0.42310822010040283
1697664264647165400,2.83816552734375,8.224799156188965,5.324183464050293,0.4196836054325104
1697664264656757500,2.847757568359375,8.23139762878418,5.3146562576293945,0.41096925735473633
1697664264666350300,2.857350341796875,8.24360179901123,5.296621322631836,0.3990374505519867
1697664264675944000,2.86694384765625,8.26039981842041,5.27126932144165,0.3871631622314453
1697664264685536500,2.87653662109375,8.279899597167969,5.241141319274902,0.3795740008354187
1697664264695128600,2.886128662109375,8.30012035369873,5.209142684936523,0.37843942642211914
1697664264704721400,2.895721435546875,8.319750785827637,5.177224636077881,0.385314404964447
1697664264714314800,2.905314697265625,8.337503433227539,5.147372245788574,0.4012066721916199
1697664264723907600,2.914907470703125,8.351391792297363,5.122969150543213,0.42404958605766296
1697664264733499600,2.924499755859375,8.359844207763672,5.106825828552246,0.45137161016464233
1697664264743092500,2.934092529296875,8.362197875976562,5.100257873535156,0.48105162382125854
1697664264752685800,2.943685791015625,8.359148025512695,5.102203845977783,0.5124004483222961
1697664264762278700,2.953278564453125,8.351685523986816,5.110939025878906,0.5459403991699219
1697664264771870700,2.96287060546875,8.341249465942383,5.124006271362305,0.5818186402320862
1697664264781463300,2.97246337890625,8.329283714294434,5.138909816741943,0.6205080151557922
1697664264791057000,2.982056884765625,8.317342758178711,5.153291702270508,0.6601355671882629
1697664264800649700,2.991649658203125,8.306831359863281,5.165429592132568,0.6966156363487244
1697664264810241500,3.001241455078125,8.298345565795898,5.174446105957031,0.730040431022644
1697664264819834400,3.01083447265625,8.290766716003418,5.182261943817139,0.7600957155227661
1697664264829428000,3.020427978515625,8.285322189331055,5.1891255378723145,0.7725346684455872
1697664264839020500,3.0300205078125,8.283947944641113,5.192002773284912,0.7679138779640198
1697664264848612600,3.039612548828125,8.287394523620605,5.188483238220215,0.7543997764587402
1697664264858205400,3.049205322265625,8.295646667480469,5.1777024269104,0.7375941872596741
1697664264867799000,3.058799072265625,8.307374000549316,5.161540508270264,0.7186228632926941
1697664264877391600,3.0683916015625,8.320600509643555,5.142518520355225,0.7017776966094971
1697664264886983700,3.077983642578125,8.333125114440918,5.123778820037842,0.6901494860649109
1697664264896576500,3.087576416015625,8.342243194580078,5.109867572784424,0.6831055879592896
1697664264906169900,3.097169921875,8.345355987548828,5.104936122894287,0.6819465756416321
1697664264915762700,3.1067626953125,8.340306282043457,5.112499237060547,0.6870376467704773
1697664264925354800,3.116354736328125,8.326881408691406,5.13244104385376,0.7010455131530762
1697664264934947600,3.125947509765625,8.307490348815918,5.159095764160156,0.7346575856208801
1697664264944541000,3.135541015625,8.28580093383789,5.185377597808838,0.7923049330711365
1697664264954133800,3.1451337890625,8.265396118164062,5.205817222595215,0.8678041100502014
1697664264963725800,3.154725830078125,8.24840259552002,5.218347072601318,0.9503116607666016
1697664264973318400,3.164318359375,8.236003875732422,5.22281551361084,1.029966950416565
1697664264982912000,3.173912109375,8.228763580322266,5.219736099243164,1.1009962558746338
1697664264992504800,3.1835048828125,8.226323127746582,5.209935665130615,1.163859486579895
1697664265002096600,3.1930966796875,8.227267265319824,5.195926189422607,1.2185266017913818
1697664265011689500,3.202689453125,8.229255676269531,5.181801795959473,1.264383316040039
1697664265021283000,3.212282958984375,8.229911804199219,5.170931816101074,1.30399751663208
1697664265030875600,3.221875732421875,8.228290557861328,5.1648478507995605,1.3378968238830566
1697664265040467700,3.2314677734375,8.224431991577148,5.163923263549805,1.3649237155914307
1697664265050060500,3.241060546875,8.218600273132324,5.167372703552246,1.386814832687378
1697664265059654100,3.250654052734375,8.210840225219727,5.175153732299805,1.4036688804626465
1697664265069246700,3.260246826171875,8.201775550842285,5.187323570251465,1.4117133617401123
1697664265078838800,3.2698388671875,8.192980766296387,5.202721118927002,1.4061105251312256
1697664265088431600,3.279431640625,8.186944007873535,5.216865539550781,1.3887557983398438
1697664265098025000,3.28902490234375,8.185479164123535,5.225272178649902,1.3655977249145508
1697664265107617800,3.29861767578125,8.189996719360352,5.225033760070801,1.3391664028167725
1697664265117209900,3.3082099609375,8.201726913452148,5.21414041519165,1.3095057010650635
1697664265126802700,3.317802734375,8.221348762512207,5.1911444664001465,1.2774299383163452
1697664265136396000,3.32739599609375,8.248781204223633,5.1547346115112305,1.2476824522018433
1697664265145988900,3.33698876953125,8.28348445892334,5.105125904083252,1.2214616537094116
1697664265155580700,3.34658056640625,8.323394775390625,5.0452423095703125,1.1987552642822266
1697664265165173500,3.356173583984375,8.36435604095459,4.981973648071289,1.1780803203582764
1697664265174767000,3.36576708984375,8.401741981506348,4.924208641052246,1.1546796560287476
1697664265184360000,3.37535986328125,8.431879997253418,4.878873825073242,1.1271190643310547
1697664265193951700,3.38495166015625,8.45253849029541,4.849603176116943,1.0983415842056274
1697664265203544600,3.394544677734375,8.463109016418457,4.836639881134033,1.073813796043396
1697664265213138200,3.40413818359375,8.464056015014648,4.838839054107666,1.0563087463378906
1697664265222730800,3.413730712890625,8.456931114196777,4.854044437408447,1.043530821800232
1697664265232322800,3.42332275390625,8.444684028625488,4.877092361450195,1.035219669342041
1697664265241915600,3.43291552734375,8.430367469787598,4.902589797973633,1.0314611196517944
1697664265251509200,3.44250927734375,8.417160034179688,4.925967693328857,1.0279382467269897
1697664265261101800,3.452101806640625,8.407949447631836,4.9438557624816895,1.0173792839050293
1697664265270694000,3.46169384765625,8.404635429382324,4.953989505767822,0.9952249526977539
1697664265280286500,3.471286376953125,8.407757759094238,4.955240726470947,0.9620662331581116
1697664265289880000,3.480880126953125,8.415902137756348,4.949224472045898,0.9209535717964172
1697664265299473000,3.490472900390625,8.42698860168457,4.938715934753418,0.8748283982276917
1697664265309064700,3.500064697265625,8.439067840576172,4.926411151885986,0.8264392018318176
1697664265318657500,3.509657470703125,8.450624465942383,4.914420127868652,0.7783365845680237
1697664265328251100,3.519251220703125,8.460147857666016,4.904813766479492,0.7342280149459839
1697664265337843700,3.52884375,8.466208457946777,4.90000581741333,0.6954455971717834
1697664265347435800,3.538435791015625,8.46726131439209,4.902780055999756,0.66229647397995
1697664265357028600,3.548028564453125,8.46242618560791,4.914228916168213,0.6388063430786133
1697664265366622200,3.557622314453125,8.451323509216309,4.934640407562256,0.6283554434776306
1697664265376214800,3.56721484375,8.43452262878418,4.963502883911133,0.6267805099487305
1697664265385806800,3.576806884765625,8.412735939025879,4.999792575836182,0.6311338543891907
1697664265395399700,3.586399658203125,8.388204574584961,5.039434909820557,0.6422682404518127
1697664265404993300,3.5959931640625,8.363020896911621,5.079300880432129,0.6564728617668152
1697664265414585900,3.6055859375,8.33935832977295,5.11676025390625,0.6665138006210327
1697664265424178000,3.615177978515625,8.319232940673828,5.14958381652832,0.6652274131774902
1697664265433770500,3.6247705078125,8.304015159606934,5.175861835479736,0.6512845158576965
1697664265443364000,3.634364013671875,8.2943754196167,5.193672180175781,0.6320496797561646
1697664265452957000,3.64395703125,8.291396141052246,5.200197696685791,0.6173180937767029
1697664265462548700,3.653548828125,8.295169830322266,5.194763660430908,0.6123519539833069
1697664265472141600,3.6631416015625,8.305318832397461,5.177393436431885,0.6218224763870239
1697664265481735200,3.672735107421875,8.321372985839844,5.14786434173584,0.651634156703949
1697664265491327700,3.68232763671875,8.342435836791992,5.106806755065918,0.7033357620239258
1697664265500919800,3.691919921875,8.366949081420898,5.056240081787109,0.7739413380622864
1697664265510512600,3.7015126953125,8.393121719360352,4.99929141998291,0.8561475872993469
1697664265520106200,3.711106201171875,8.41981029510498,4.938316822052002,0.943506121635437
1697664265529698800,3.72069873046875,8.445998191833496,4.876542568206787,1.027048945426941
1697664265539291000,3.730290771484375,8.47070026397705,4.818187236785889,1.0966764688491821
1697664265548883700,3.7398837890625,8.492229461669922,4.767014503479004,1.1523834466934204
1697664265558477000,3.74947705078125,8.507155418395996,4.726985931396484,1.20594322681427
1697664265568070000,3.75906982421875,8.51043701171875,4.7028117179870605,1.275315523147583
1697664265577661700,3.76866162109375,8.49719524383545,4.698010444641113,1.3772311210632324
1697664265587254500,3.778254638671875,8.461750984191895,4.718445777893066,1.518362283706665
1697664265596848000,3.78784814453125,8.398917198181152,4.766953468322754,1.7043285369873047
1697664265606440700,3.797440673828125,8.306388854980469,4.840198516845703,1.9356575012207031
1697664265616032800,3.80703271484375,8.192855834960938,4.93216609954834,2.172839641571045
1697664265625625600,3.81662548828125,8.076300621032715,5.028837203979492,2.3779313564300537
1697664265635219200,3.82621923828125,7.963235378265381,5.121004104614258,2.555891752243042
1697664265644811800,3.835811767578125,7.862907886505127,5.196120738983154,2.710238456726074
1697664265654403800,3.84540380859375,7.788192272186279,5.237421035766602,2.8432133197784424
1697664265663996700,3.85499658203125,7.742013931274414,5.236378192901611,2.9684934616088867
1697664265673590000,3.864590087890625,7.7173542976379395,5.196077823638916,3.100579261779785
1697664265683182800,3.874182861328125,7.6998610496521,5.126749515533447,3.2556042671203613
1697664265692774700,3.883774658203125,7.679543495178223,5.035364627838135,3.440946340560913
1697664265702367500,3.893367431640625,7.647912979125977,4.924851417541504,3.6641030311584473
1697664265711961000,3.902961181640625,7.576807975769043,4.794931411743164,3.971271514892578
1697664265721554000,3.912553955078125,7.4273600578308105,4.642994403839111,4.409910202026367
1697664265731145500,3.9221455078125,7.189024925231934,4.47446346282959,4.9464616775512695
1697664265740738300,3.93173828125,6.874456405639648,4.293309211730957,5.520845413208008
1697664265750332000,3.941331787109375,6.493954181671143,4.107142925262451,6.093465805053711
1697664265759924500,3.950924560546875,6.054224014282227,3.9272501468658447,6.640291213989258
1697664265769516500,3.9605166015625,5.562815189361572,3.759941816329956,7.147609710693359
1697664265779109400,3.970109375,5.099843978881836,3.630891799926758,7.548416614532471
1697664265788703000,3.979702880859375,4.823690891265869,3.53623366355896,7.771579742431641
1697664265798295600,3.989295654296875,4.722684383392334,3.4389655590057373,7.876557350158691
1697664265807887600,3.9988876953125,4.6545515060424805,3.3436214923858643,7.957746505737305
1697664265817480400,4.00848046875,4.539945125579834,3.2366490364074707,8.067427635192871
1697664265827073800,4.01807373046875,4.387223720550537,3.120358943939209,8.196707725524902
1697664265836666600,4.02766650390625,4.219264984130859,3.010690689086914,8.324898719787598
1697664265846258400,4.037258544921875,4.042311668395996,2.912618398666382,8.446701049804688
1697664265855851300,4.046851318359375,3.880599021911621,2.8276329040527344,8.550779342651367
1697664265865444900,4.05644482421875,3.7416088581085205,2.7501449584960938,8.637560844421387
1697664265875037400,4.066037353515625,3.6173079013824463,2.681610584259033,8.71174144744873
1697664265884629500,4.07562939453125,3.488605499267578,2.629757881164551,8.77977180480957
1697664265894222300,4.085222412109375,3.3538994789123535,2.58862042427063,8.84425163269043
1697664265903815700,4.094815673828125,3.236217737197876,2.551257610321045,8.898784637451172
1697664265913408500,4.104408447265625,3.1307194232940674,2.5176079273223877,8.945984840393066
1697664265923000600,4.11400048828125,3.0199601650238037,2.4925317764282227,8.990968704223633
1697664265932593400,4.123593505859375,2.8906188011169434,2.4768807888031006,9.037686347961426
1697664265942186800,4.133186767578125,2.7430226802825928,2.4684228897094727,9.085874557495117
1697664265951779600,4.142779541015625,2.5823450088500977,2.4633278846740723,9.134215354919434
1697664265961371400,4.152371337890625,2.405808687210083,2.449395179748535,9.186017990112305
1697664265970964200,4.161964111328125,2.2100765705108643,2.4266722202301025,9.24106216430664
1697664265980557800,4.171557861328125,2.0061166286468506,2.4025399684906006,9.293744087219238
1697664265990150400,4.181150390625,1.8225692510604858,2.373202323913574,9.338979721069336
1697664265999742500,4.190742431640625,1.6754862070083618,2.3103082180023193,9.382196426391602
1697664266009335300,4.200335205078125,1.5656898021697998,2.1884684562683105,9.430249214172363
1697664266018928600,4.2099287109375,1.4892445802688599,1.9970026016235352,9.484962463378906
1697664266028521500,4.219521484375,1.413429617881775,1.729615569114685,9.54887580871582
1697664266038113300,4.22911328125,1.3339357376098633,1.3950145244598389,9.614830017089844
1697664266047706000,4.2387060546875,1.2445449829101562,1.0091006755828857,9.674875259399414
1697664266057299700,4.2482998046875,1.1369177103042603,0.5973588824272156,9.722188949584961
1697664266066892300,4.257892333984375,1.0040268898010254,0.1908370554447174,9.753251075744629
1697664266076484400,4.267484375,0.843573272228241,-0.18896983563899994,9.768472671508789
1697664266086077200,4.2770771484375,0.6609897613525391,-0.5287455320358276,9.770051956176758
1697664266095670800,4.2866708984375,0.45638519525527954,-0.8175997138023376,9.761844635009766
1697664266105263400,4.296263427734375,0.24215851724147797,-1.0587363243103027,9.74632453918457
1697664266114855400,4.30585546875,0.04657663032412529,-1.2547070980072021,9.72594165802002
1697664266124448000,4.315447998046875,-0.11537070572376251,-1.4170598983764648,9.703042030334473
1697664266134041600,4.32504150390625,-0.24597978591918945,-1.5716863870620728,9.67676067352295
1697664266143634400,4.334634521484375,-0.35683342814445496,-1.744862675666809,9.643573760986328
1697664266153226200,4.344226318359375,-0.45680031180381775,-1.9513579607009888,9.59968376159668
1697664266162819000,4.353819091796875,-0.5401816368103027,-2.195533514022827,9.54244327545166
1697664266172412700,4.36341259765625,-0.6013765335083008,-2.462000846862793,9.473504066467285
1697664266182005200,4.373005126953125,-0.6304179430007935,-2.751174211502075,9.391698837280273
1697664266191597300,4.382597412109375,-0.6655013561248779,-3.0550432205200195,9.294848442077637
1697664266201190000,4.39218994140625,-0.7258706092834473,-3.349787950515747,9.188166618347168
1697664266210783500,4.401783447265625,-0.8108264803886414,-3.6074349880218506,9.082915306091309
1697664266220376300,4.411376220703125,-0.9316383004188538,-3.809831380844116,8.988192558288574
1697664266229968400,4.420968505859375,-1.0973433256149292,-3.9578139781951904,8.905162811279297
1697664266239561000,4.43056103515625,-1.298469066619873,-4.061929702758789,8.830916404724121
1697664266249154600,4.440154541015625,-1.5174596309661865,-4.136236190795898,8.761235237121582
1697664266258747100,4.4497470703125,-1.742904543876648,-4.191849231719971,8.692586898803711
1697664266268339200,4.459339111328125,-1.97263503074646,-4.235555171966553,8.622017860412598
1697664266277932000,4.46893212890625,-2.1981074810028076,-4.272963523864746,8.548713684082031
1697664266287525600,4.478525634765625,-2.4252099990844727,-4.310624122619629,8.468013763427734
1697664266297118200,4.4881181640625,-2.6522951126098633,-4.35133695602417,8.37863826751709
1697664266306710300,4.497710205078125,-2.873225688934326,-4.396255016326904,8.281782150268555
1697664266316303400,4.507303466796875,-3.0794126987457275,-4.443727493286133,8.181740760803223
1697664266325897000,4.51689697265625,-3.242042303085327,-4.488183498382568,8.0941801071167
1697664266335489500,4.526489501953125,-3.3578553199768066,-4.52816104888916,8.024396896362305
1697664266345081600,4.53608154296875,-3.4273533821105957,-4.581175327301025,7.9647016525268555
1697664266354674400,4.54567431640625,-3.4960556030273438,-4.656163215637207,7.891015529632568
1697664266364267800,4.555267822265625,-3.566486358642578,-4.736642837524414,7.811196327209473
1697664266373860600,4.564860595703125,-3.6024491786956787,-4.814446926116943,7.746860027313232
1697664266383452400,4.574452392578125,-3.620513916015625,-4.896169662475586,7.686988353729248
1697664266393045200,4.584045166015625,-3.6257736682891846,-4.990127086639404,7.623829364776611
1697664266402638800,4.593638916015625,-3.6189775466918945,-5.105968952178955,7.549997806549072
1697664266412231400,4.6032314453125,-3.602869987487793,-5.251689910888672,7.457176208496094
1697664266421823500,4.612823486328125,-3.56528377532959,-5.421724319458008,7.352825164794922
1697664266431416300,4.622416259765625,-3.490494728088379,-5.600971698760986,7.253684997558594
1697664266441010000,4.632010009765625,-3.3794798851013184,-5.771907806396484,7.171790599822998
1697664266450602500,4.6416025390625,-3.2544748783111572,-5.922859191894531,7.106230735778809
1697664266460194600,4.651194580078125,-3.1361169815063477,-6.051311492919922,7.051013946533203
1697664266469787100,4.660787109375,-3.0427463054656982,-6.153857231140137,7.0030083656311035
1697664266479380700,4.670380615234375,-2.978701591491699,-6.22429895401001,6.968201637268066
1697664266488973600,4.6799736328125,-2.960512638092041,-6.249081134796143,6.953756332397461
1697664266498565400,4.6895654296875,-3.022963285446167,-6.2299275398254395,6.944067478179932
1697664266508158200,4.699158203125,-3.156426429748535,-6.169806003570557,6.938361167907715
1697664266517751800,4.708751708984375,-3.3280582427978516,-6.062319755554199,6.952890872955322
1697664266527344400,4.718344482421875,-3.518791437149048,-5.910346984863281,6.98972749710083
1697664266536936400,4.7279365234375,-3.712898015975952,-5.729835510253906,7.039443016052246
1697664266546529000,4.737529052734375,-3.9014739990234375,-5.539653301239014,7.089508533477783
1697664266556122600,4.74712255859375,-4.077148914337158,-5.355316638946533,7.132168769836426
1697664266565715500,4.756715576171875,-4.211571216583252,-5.2087531089782715,7.162538051605225
1697664266575307300,4.766307373046875,-4.318467617034912,-5.116212368011475,7.165584564208984
1697664266584900000,4.775900146484375,-4.4153971672058105,-5.069758415222168,7.139482021331787
1697664266594493700,4.78549365234375,-4.500482559204102,-5.073976516723633,7.083134651184082
1697664266604086300,4.795086181640625,-4.558510780334473,-5.126901626586914,7.007513999938965
1697664266613678300,4.80467822265625,-4.585550785064697,-5.229006290435791,6.913797855377197
1697664266623271000,4.81427099609375,-4.587985992431641,-5.368675708770752,6.8042707443237305
1697664266632864500,4.823864501953125,-4.577167510986328,-5.528860092163086,6.682186603546143
1697664266642457300,4.833457275390625,-4.554088592529297,-5.686094760894775,6.564981937408447
1697664266652049200,4.843049072265625,-4.536215782165527,-5.841859817504883,6.439393997192383
1697664266661642000,4.85264208984375,-4.515295028686523,-5.994437217712402,6.312623977661133
1697664266671235600,4.862235595703125,-4.508657455444336,-6.16273307800293,6.153301239013672
1697664266680828200,4.871828125,-4.50140905380249,-6.348755836486816,5.9666571617126465
1697664266690421000,4.8814208984375,-4.465073585510254,-6.533933639526367,5.791478157043457
1697664266700013000,4.891012939453125,-4.396830081939697,-6.712713718414307,5.637174606323242
1697664266709606400,4.9006064453125,-4.296562671661377,-6.891874313354492,5.496545314788818
1697664266719199200,4.91019921875,-4.174010276794434,-7.064247131347656,5.370702266693115
1697664266728791000,4.919791015625,-4.053938388824463,-7.217622756958008,5.257555961608887
1697664266738384000,4.9293837890625,-3.950737237930298,-7.343916416168213,5.160325527191162
1697664266747977500,4.9389775390625,-3.8666348457336426,-7.4426984786987305,5.081905364990234
1697664266757570000,4.948570068359375,-3.808171510696411,-7.517535209655762,5.015464782714844
1697664266767162000,4.958162109375,-3.7613229751586914,-7.584977149963379,4.94883394241333
1697664266776755000,4.9677548828125,-3.7111873626708984,-7.658257484436035,4.873251438140869
1697664266786348500,4.9773486328125,-3.6456596851348877,-7.736603260040283,4.79838752746582
1697664266795941000,4.986941162109375,-3.5650622844696045,-7.823052883148193,4.718111991882324
1697664266805533200,4.996533203125,-3.4904167652130127,-7.910933494567871,4.626499652862549
1697664266815125800,5.006125732421875,-3.4410500526428223,-7.990283966064453,4.526026725769043
1697664266824719400,5.01571923828125,-3.4328901767730713,-8.04751968383789,4.429794788360596
1697664266834312000,5.02531201171875,-3.469101905822754,-8.08352279663086,4.335018157958984
1697664266843904000,5.034904052734375,-3.527092456817627,-8.112013816833496,4.233821868896484
1697664266853496800,5.044496826171875,-3.5850627422332764,-8.141337394714355,4.127511501312256
1697664266863090400,5.05409033203125,-3.6260011196136475,-8.176651954650879,4.020554065704346
1697664266872683000,5.06368310546875,-3.648703098297119,-8.215727806091309,3.919076919555664
1697664266882275000,5.073275146484375,-3.6558241844177246,-8.25427532196045,3.830439567565918
1697664266891867600,5.08286767578125,-3.647735357284546,-8.284455299377441,3.7725603580474854
1697664266901461200,5.092461181640625,-3.65134596824646,-8.29033088684082,3.75612473487854
1697664266911054000,5.10205419921875,-3.6616742610931396,-8.285962104797363,3.7557101249694824
1697664266920646000,5.11164599609375,-3.674041748046875,-8.272350311279297,3.773594379425049
1697664266930238700,5.12123876953125,-3.6690831184387207,-8.257152557373047,3.811514139175415
1697664266939832300,5.130832275390625,-3.647139549255371,-8.257994651794434,3.830702304840088
1697664266949425000,5.1404248046875,-3.6135308742523193,-8.2678804397583,3.841214656829834
1697664266959017000,5.150016845703125,-3.5672619342803955,-8.286916732788086,3.8434407711029053
1697664266968609800,5.15960986328125,-3.5189902782440186,-8.318297386169434,3.820082664489746
1697664266978203100,5.169203125,-3.450892210006714,-8.364154815673828,3.7818827629089355
1697664266987796000,5.1787958984375,-3.38063383102417,-8.410920143127441,3.7414073944091797
1697664266997387800,5.1883876953125,-3.3232805728912354,-8.457557678222656,3.6872644424438477
1697664267006980600,5.197980712890625,-3.237614154815674,-8.516365051269531,3.6276392936706543
1697664267016574200,5.20757421875,-3.1458699703216553,-8.571242332458496,3.578784704208374
1697664267026166800,5.217166748046875,-3.031790018081665,-8.648494720458984,3.4902968406677246
1697664267035758800,5.2267587890625,-2.851815700531006,-8.749914169311523,3.387704610824585
1697664267045351400,5.236351318359375,-2.6432204246520996,-8.864633560180664,3.256078004837036
1697664267054945000,5.245945068359375,-2.445770502090454,-8.9707670211792,3.116718053817749
1697664267064537900,5.255537841796875,-2.2564165592193604,-9.060697555541992,2.997119188308716
1697664267074129700,5.265129638671875,-2.049576997756958,-9.142505645751953,2.8955466747283936
1697664267083722500,5.274722412109375,-1.8794878721237183,-9.218127250671387,2.768399477005005
1697664267093316000,5.284316162109375,-1.7331782579421997,-9.298667907714844,2.5886778831481934
1697664267102908700,5.29390869140625,-1.6011791229248047,-9.371725082397461,2.4036166667938232
1697664267112500700,5.303500732421875,-1.4494991302490234,-9.43502140045166,2.247157335281372
1697664267122093600,5.313093505859375,-1.346144199371338,-9.486104011535645,2.0909621715545654
1697664267131687000,5.32268701171875,-1.2848843336105347,-9.5318021774292,1.9142124652862549
1697664267141279700,5.33227978515625,-1.2257373332977295,-9.577852249145508,1.7125095129013062
1697664267150871600,5.34187158203125,-1.1578518152236938,-9.622522354125977,1.4956002235412598
1697664267160464400,5.35146435546875,-1.055986762046814,-9.669268608093262,1.249202847480774
1697664267170058000,5.36105810546875,-0.9310470819473267,-9.713129997253418,0.9791093468666077
1697664267179650600,5.370650634765625,-0.7725510001182556,-9.753043174743652,0.6720728278160095
1697664267189242600,5.38024267578125,-0.5864068865776062,-9.783628463745117,0.3273228108882904
1697664267198835200,5.389835205078125,-0.3966998755931854,-9.798615455627441,-0.012085475027561188
1697664267208428800,5.3994287109375,-0.19945333898067474,-9.800159454345703,-0.29580020904541016
1697664267218021600,5.409021728515625,-0.05290701612830162,-9.794512748718262,-0.4848734140396118
1697664267227613400,5.418613525390625,0.07654936611652374,-9.78789234161377,-0.6014268398284912
1697664267237206300,5.428206298828125,0.25420835614204407,-9.771291732788086,-0.7922312617301941
1697664267246800000,5.4377998046875,0.4373932182788849,-9.741012573242188,-1.0448716878890991
1697664267256392400,5.447392333984375,0.6389139890670776,-9.694097518920898,-1.3366533517837524
1697664267265984500,5.456984619140625,0.8703734874725342,-9.617722511291504,-1.7065317630767822
1697664267275577000,5.4665771484375,1.1375367641448975,-9.504733085632324,-2.1298882961273193
1697664267285170700,5.476170654296875,1.3985178470611572,-9.367196083068848,-2.543653964996338
1697664267294763500,5.485763427734375,1.6176447868347168,-9.223339080810547,-2.9126665592193604
1697664267304355300,5.495355224609375,1.8142471313476562,-9.094364166259766,-3.189269542694092
1697664267313948200,5.5049482421875,1.9604592323303223,-8.995946884155273,-3.376377820968628
1697664267323541800,5.514541748046875,2.0625362396240234,-8.922032356262207,-3.5090830326080322
1697664267333134300,5.52413427734375,2.1190688610076904,-8.870467185974121,-3.6048226356506348
1697664267342726400,5.533726318359375,2.132704496383667,-8.83626937866211,-3.679983377456665
1697664267352319200,5.5433193359375,2.131173610687256,-8.808761596679688,-3.7462270259857178
1697664267361912600,5.55291259765625,2.18320631980896,-8.742944717407227,-3.8684513568878174
1697664267371505400,5.56250537109375,2.3385872840881348,-8.631113052368164,-4.025578022003174
1697664267381097200,5.57209716796875,2.618459463119507,-8.455509185791016,-4.22118616104126
1697664267390690000,5.58168994140625,2.7860708236694336,-8.321734428405762,-4.376861095428467
1697664267400283600,5.59128369140625,2.892472982406616,-8.243622779846191,-4.454959869384766
1697664267409876200,5.600876220703125,2.9687352180480957,-8.18832015991211,-4.506485462188721
1697664267419468300,5.61046826171875,3.039788246154785,-8.1217679977417,-4.578970432281494
1697664267429061000,5.62006103515625,3.0866148471832275,-8.060312271118164,-4.655594825744629
1697664267438654500,5.629654541015625,3.0953474044799805,-8.034380912780762,-4.694455623626709
1697664267448247300,5.639247314453125,3.0757288932800293,-8.047557830810547,-4.684771537780762
1697664267457839000,5.648839111328125,3.043271780014038,-8.0820951461792,-4.646355628967285
1697664267467432000,5.658431884765625,2.978457450866699,-8.149796485900879,-4.569462299346924
1697664267477025500,5.668025634765625,2.8740246295928955,-8.248991966247559,-4.4569597244262695
1697664267486618000,5.6776181640625,2.72318959236145,-8.37192153930664,-4.3203654289245605
1697664267496210200,5.687210205078125,2.5556530952453613,-8.514167785644531,-4.14100980758667
1697664267505802800,5.696802734375,2.3740100860595703,-8.677290916442871,-3.9037258625030518
1697664267515396400,5.706396240234375,2.1514904499053955,-8.856955528259277,-3.6188130378723145
1697664267524989200,5.7159892578125,1.923805594444275,-9.021778106689453,-3.328197479248047
1697664267534581000,5.7255810546875,1.6950860023498535,-9.16061782836914,-3.0627007484436035
1697664267544173800,5.735173828125,1.4300132989883423,-9.3077392578125,-2.737049102783203
1697664267553767400,5.744767333984375,1.1561609506607056,-9.453336715698242,-2.3383984565734863
1697664267563360000,5.754360107421875,0.887096107006073,-9.554716110229492,-2.022585868835449
1697664267572952000,5.7639521484375,0.6645404696464539,-9.609594345092773,-1.8396968841552734
1697664267582544600,5.773544677734375,0.504106879234314,-9.631363868713379,-1.7756929397583008
1697664267592138200,5.78313818359375,0.41904833912849426,-9.642473220825195,-1.737093448638916
1697664267601731000,5.79273095703125,0.40563493967056274,-9.648173332214355,-1.7083938121795654
1697664267611323000,5.802322998046875,0.4239794611930847,-9.64847469329834,-1.7022223472595215
1697664267620915700,5.811915771484375,0.4460879862308502,-9.650504112243652,-1.6849852800369263
1697664267630509300,5.82150927734375,0.444019079208374,-9.656779289245605,-1.649196743965149
1697664267640102000,5.831101806640625,0.39908790588378906,-9.668272018432617,-1.5923690795898438
1697664267649694000,5.84069384765625,0.31281399726867676,-9.687798500061035,-1.4896618127822876
1697664267659286500,5.85028662109375,0.20789015293121338,-9.707245826721191,-1.3771556615829468
1697664267668880100,5.859880126953125,0.05924534425139427,-9.737114906311035,-1.1642569303512573
1697664267678473000,5.869472900390625,-0.1301441192626953,-9.77055549621582,-0.8304865956306458
1697664267688064800,5.879064697265625,-0.3209044635295868,-9.792177200317383,-0.42506280541419983
1697664267697657600,5.88865771484375,-0.5168702006340027,-9.793018341064453,-0.004538519773632288
1697664267707251200,5.898251220703125,-0.726510763168335,-9.77118968963623,0.40795788168907166
1697664267716843800,5.90784375,-0.9316472411155701,-9.72930908203125,0.8018501400947571
1697664267726435800,5.917435791015625,-1.1107193231582642,-9.674254417419434,1.1599476337432861
1697664267736028400,5.9270283203125,-1.26813805103302,-9.6168212890625,1.4418585300445557
1697664267745622000,5.9366220703125,-1.4056131839752197,-9.574525833129883,1.5884244441986084
1697664267755214800,5.94621484375,-1.5202311277389526,-9.5465087890625,1.6502877473831177
1697664267764806700,5.955806640625,-1.610212802886963,-9.528373718261719,1.6696419715881348
1697664267774399500,5.9653994140625,-1.7060900926589966,-9.52448558807373,1.5949366092681885
1697664267783993000,5.9749931640625,-1.7910958528518677,-9.52197551727295,1.5147119760513306
1697664267793585700,5.984585693359375,-1.845689296722412,-9.520844459533691,1.4551080465316772
1697664267803177700,5.994177734375,-1.8751708269119263,-9.528397560119629,1.3651891946792603
1697664267812770300,6.003770263671875,-1.890054702758789,-9.538374900817871,1.2718019485473633
1697664267822364000,6.013364013671875,-1.8821781873703003,-9.55147933959961,1.1819597482681274
1697664267831956700,6.022956787109375,-1.870444416999817,-9.564403533935547,1.092698574066162
1697664267841548500,6.032548583984375,-1.8875633478164673,-9.571086883544922,1.0008875131607056
1697664267851141400,6.042141357421875,-1.9836920499801636,-9.559060096740723,0.927220344543457
1697664267860735000,6.05173486328125,-2.0874555110931396,-9.546080589294434,0.8278139233589172
1697664267870327600,6.06132763671875,-2.050266742706299,-9.570976257324219,0.6026710271835327
1697664267879919600,6.070919677734375,-2.0036942958831787,-9.592804908752441,0.3656225800514221
1697664267889512200,6.08051220703125,-2.002436876296997,-9.597570419311523,0.21746370196342468
1697664267899105800,6.090105712890625,-2.0068604946136475,-9.597609519958496,0.16966214776039124
1697664267908698600,6.09969873046875,-1.9832710027694702,-9.601967811584473,0.19808271527290344
1697664267918290400,6.10929052734375,-1.948417067527771,-9.607958793640137,0.2473224401473999
1697664267927883300,6.11888330078125,-1.9302231073379517,-9.610626220703125,0.28373244404792786
1697664267937476900,6.128476806640625,-1.9419524669647217,-9.60779857635498,0.29903608560562134
1697664267947069400,6.1380693359375,-1.9732178449630737,-9.601612091064453,0.29298660159111023
1697664267956661500,6.14766162109375,-2.0138449668884277,-9.594283103942871,0.254060834646225
1697664267966254000,6.157254150390625,-2.0691676139831543,-9.584355354309082,0.17045100033283234
1697664267975847700,6.16684765625,-2.1204164028167725,-9.574541091918945,0.04892325401306152
1697664267985440300,6.176440185546875,-2.1544530391693115,-9.566679000854492,-0.08583720773458481
1697664267995032300,6.1860322265625,-2.1696741580963135,-9.56119155883789,-0.2157171219587326
1697664268004625200,6.195625244140625,-2.1567471027374268,-9.560399055480957,-0.3429259955883026
1697664268014218800,6.20521875,-2.1180579662323,-9.565176010131836,-0.4377577006816864
1697664268023811300,6.214811279296875,-2.0654258728027344,-9.57446002960205,-0.48386678099632263
1697664268033403400,6.2244033203125,-2.006850481033325,-9.58540153503418,-0.5128621459007263
1697664268042996000,6.233995849609375,-1.9592905044555664,-9.594123840332031,-0.533237636089325
1697664268052589600,6.243589599609375,-1.9278650283813477,-9.599451065063477,-0.5515972375869751
1697664268062182100,6.25318212890625,-1.899309754371643,-9.602046012878418,-0.6030914187431335
1697664268071774200,6.262774169921875,-1.8717280626296997,-9.600532531738281,-0.7048321962356567
1697664268081367000,6.272366943359375,-1.8168461322784424,-9.60135269165039,-0.8267307877540588
1697664268090960400,6.28196044921875,-1.7389711141586304,-9.607864379882812,-0.9139516949653625
1697664268100553200,6.29155322265625,-1.6446442604064941,-9.61922836303711,-0.9674669504165649
1697664268110145000,6.30114501953125,-1.5566614866256714,-9.630215644836426,-1.003066062927246
1697664268119737900,6.31073779296875,-1.486478567123413,-9.638952255249023,-1.0253618955612183
1697664268129331500,6.32033154296875,-1.4345945119857788,-9.643633842468262,-1.054815411567688
1697664268138924000,6.329924072265625,-1.4031164646148682,-9.645233154296875,-1.0821822881698608
1697664268148516000,6.33951611328125,-1.3826366662979126,-9.64433479309082,-1.1160228252410889
1697664268158109000,6.34910888671875,-1.3659440279006958,-9.641351699829102,-1.1614353656768799
1697664268167702300,6.358702392578125,-1.350139856338501,-9.637861251831055,-1.2079424858093262
1697664268177295000,6.368295166015625,-1.3238930702209473,-9.63643741607666,-1.2477089166641235
1697664268186887000,6.377886962890625,-1.289477825164795,-9.639617919921875,-1.2591283321380615
1697664268196479700,6.387479736328125,-1.2768446207046509,-9.638565063476562,-1.2798945903778076
1697664268206073300,6.3970732421875,-1.2791059017181396,-9.63289737701416,-1.3196829557418823
1697664268215666000,6.406666015625,-1.2915359735488892,-9.624495506286621,-1.3679918050765991
1697664268225258000,6.416258056640625,-1.308848261833191,-9.61458683013916,-1.4202237129211426
1697664268234850800,6.425850830078125,-1.3053288459777832,-9.60700511932373,-1.473757028579712
1697664268244444200,6.435444091796875,-1.270870327949524,-9.603862762451172,-1.5235164165496826
1697664268254037000,6.445037109375,-1.2179571390151978,-9.605995178222656,-1.5530110597610474
1697664268263628800,6.45462890625,-1.1565706729888916,-9.611438751220703,-1.5661990642547607
1697664268273221600,6.4642216796875,-1.0853818655014038,-9.622872352600098,-1.5468240976333618
1697664268282815200,6.473815185546875,-1.0235174894332886,-9.641064643859863,-1.4740004539489746
1697664268292407800,6.48340771484375,-0.9463655948638916,-9.669309616088867,-1.3338836431503296
1697664268301999900,6.492999755859375,-0.8314904570579529,-9.705245971679688,-1.1345524787902832
1697664268311592700,6.5025927734375,-0.6939921379089355,-9.73989200592041,-0.9073391556739807
1697664268321186000,6.51218603515625,-0.5493026375770569,-9.767827033996582,-0.6769077181816101
1697664268330779000,6.52177880859375,-0.4307411313056946,-9.786439895629883,-0.45872369408607483
1697664268340370700,6.53137060546875,-0.36956337094306946,-9.796233177185059,-0.2600422501564026
1697664268349963500,6.540963623046875,-0.3627822995185852,-9.799670219421387,-0.07240696251392365
1697664268359557000,6.55055712890625,-0.3953969180583954,-9.798199653625488,0.09666875004768372
1697664268369149700,6.560149658203125,-0.4922451972961426,-9.792282104492188,0.19821998476982117
1697664268378741800,6.56974169921875,-0.6643757820129395,-9.782461166381836,0.1801372766494751
1697664268388334600,6.57933447265625,-0.8738205432891846,-9.767163276672363,0.09671374410390854
1697664268397928000,6.588927978515625,-1.0669293403625488,-9.748434066772461,0.008988849818706512
1697664268407520800,6.598520751953125,-1.2092430591583252,-9.731538772583008,-0.07278324663639069
1697664268417112600,6.608112548828125,-1.2938834428787231,-9.71983528137207,-0.1450403481721878
1697664268426705400,6.617705322265625,-1.3368160724639893,-9.713027000427246,-0.20099984109401703
1697664268436299000,6.627299072265625,-1.3428794145584106,-9.711181640625,-0.24501052498817444
1697664268445891600,6.6368916015625,-1.3171467781066895,-9.714224815368652,-0.2633325755596161
1697664268455483600,6.646483642578125,-1.286609411239624,-9.718751907348633,-0.24674247205257416
1697664268465076500,6.656076416015625,-1.2516039609909058,-9.724332809448242,-0.20306432247161865
1697664268474669800,6.665669921875,-1.20440673828125,-9.73143482208252,-0.1377614289522171
1697664268484262700,6.6752626953125,-1.1441396474838257,-9.739526748657227,-0.05438229441642761
1697664268493854500,6.6848544921875,-1.0613692998886108,-9.74893569946289,0.04615132510662079
1697664268503447300,6.694447265625,-0.967998206615448,-9.757698059082031,0.14393781125545502
1697664268513041000,6.704041015625,-0.8728840947151184,-9.765347480773926,0.2155197560787201
1697664268522633500,6.713633544921875,-0.8203184008598328,-9.769759178161621,0.22196677327156067
1697664268532225500,6.7232255859375,-0.7652485966682434,-9.773842811584473,0.2382933795452118
1697664268541818400,6.732818359375,-0.7241565585136414,-9.776835441589355,0.24387143552303314
1697664268551411700,6.74241162109375,-0.7109587788581848,-9.777714729309082,0.2474198192358017
1697664268561004500,6.752004638671875,-0.7250090837478638,-9.776537895202637,0.25308161973953247
1697664268570596400,6.761596435546875,-0.761802077293396,-9.77360725402832,0.2581740915775299
1697664268580189200,6.771189208984375,-0.8603902459144592,-9.765331268310547,0.2615993022918701
1697664268589782800,6.78078271484375,-0.9671356678009033,-9.754925727844238,0.2765074670314789
1697664268599375400,6.790375244140625,-1.0928409099578857,-9.74113941192627,0.2937478721141815
1697664268608967400,6.799967529296875,-1.2246947288513184,-9.72500991821289,0.30772560834884644
1697664268618560000,6.80956005859375,-1.3759186267852783,-9.704877853393555,0.3042847216129303
1697664268628153600,6.819153564453125,-1.5247474908828735,-9.682401657104492,0.31086090207099915
1697664268637746400,6.828746337890625,-1.6476614475250244,-9.661893844604492,0.32154470682144165
1697664268647338200,6.838338134765625,-1.7332103252410889,-9.646568298339844,0.3318064212799072
1697664268656931000,6.84793115234375,-1.765184760093689,-9.64015007019043,0.34932181239128113
1697664268666524700,6.857524658203125,-1.6940979957580566,-9.651296615600586,0.3910139501094818
1697664268676117200,6.8671171875,-1.6261165142059326,-9.660865783691406,0.4402141571044922
1697664268685709000,6.876708984375,-1.7146214246749878,-9.646716117858887,0.4139072895050049
1697664268695302000,6.886302001953125,-1.8247207403182983,-9.62865161895752,0.36032605171203613
1697664268704895500,6.8958955078125,-1.9233007431030273,-9.612617492675781,0.26248475909233093
1697664268714488000,6.905488037109375,-2.020433187484741,-9.595280647277832,0.13725130259990692
1697664268724080000,6.915080078125,-2.1263766288757324,-9.573339462280273,-0.009009936824440956
1697664268733673000,6.9246728515625,-2.234642744064331,-9.54709529876709,-0.17243890464305878
1697664268743266300,6.934266357421875,-2.3275225162506104,-9.520805358886719,-0.32757097482681274
1697664268752859100,6.943859130859375,-2.387619733810425,-9.499725341796875,-0.4742097854614258
1697664268762451000,6.953450927734375,-2.413785457611084,-9.484966278076172,-0.6159809827804565
1697664268772043800,6.963043701171875,-2.4166297912597656,-9.474162101745605,-0.7553455233573914
1697664268781637400,6.972637451171875,-2.4088058471679688,-9.464217185974121,-0.8925474882125854
1697664268791230000,6.98222998046875,-2.401724338531494,-9.452963829040527,-1.0215613842010498
1697664268800822000,6.991822021484375,-2.395334482192993,-9.44091796875,-1.1409709453582764
1697664268810414800,7.001414794921875,-2.398308753967285,-9.425336837768555,-1.2575865983963013
1697664268820008200,7.01100830078125,-2.415776252746582,-9.4060697555542,-1.3639122247695923
1697664268829601000,7.02060107421875,-2.4427199363708496,-9.387126922607422,-1.4440789222717285
1697664268839193000,7.030193115234375,-2.4862897396087646,-9.365266799926758,-1.510141372680664
1697664268848785700,7.03978564453125,-2.549858331680298,-9.338685989379883,-1.5676624774932861
1697664268858379300,7.049379150390625,-2.632894515991211,-9.306962013244629,-1.6182423830032349
1697664268867971800,7.058971923828125,-2.727543592453003,-9.270807266235352,-1.6682403087615967
1697664268877564000,7.06856396484375,-2.8320775032043457,-9.232126235961914,-1.70809006690979
1697664268887156700,7.07815673828125,-2.9355881214141846,-9.191486358642578,-1.751938819885254
1697664268896750300,7.087750244140625,-3.030237913131714,-9.152152061462402,-1.7961474657058716
1697664268906343000,7.097343017578125,-3.1081738471984863,-9.118529319763184,-1.8335943222045898
1697664268915935000,7.10693505859375,-3.158329725265503,-9.095916748046875,-1.860011339187622
1697664268925527600,7.116527587890625,-3.180734395980835,-9.083160400390625,-1.8840137720108032
1697664268935121200,7.12612109375,-3.1881415843963623,-9.076934814453125,-1.9014164209365845
1697664268944713700,7.135713623046875,-3.1878652572631836,-9.076765060424805,-1.902693510055542
1697664268954305800,7.145305908203125,-3.178466320037842,-9.081635475158691,-1.895155906677246
1697664268963898600,7.154898681640625,-3.164734125137329,-9.088517189025879,-1.8851265907287598
1697664268973492200,7.1644921875,-3.153748035430908,-9.094076156616211,-1.8767104148864746
1697664268983084800,7.174084716796875,-3.1480119228363037,-9.097150802612305,-1.871427297592163
1697664268992676600,7.183676513671875,-3.142549991607666,-9.097381591796875,-1.879473090171814
1697664269002269400,7.19326953125,-3.139399290084839,-9.093260765075684,-1.9045158624649048
1697664269011863000,7.202863037109375,-3.1355714797973633,-9.086068153381348,-1.9447214603424072
1697664269021455600,7.21245556640625,-3.122135639190674,-9.080520629882812,-1.991682529449463
1697664269031047700,7.222047607421875,-3.093985080718994,-9.080831527709961,-2.0337541103363037
1697664269040640500,7.231640625,-3.0513672828674316,-9.089068412780762,-2.0611588954925537
1697664269050233900,7.24123388671875,-2.999762535095215,-9.105000495910645,-2.066586494445801
1697664269059826700,7.25082666015625,-2.942444324493408,-9.128376960754395,-2.045764684677124
1697664269069418800,7.260418701171875,-2.8730762004852295,-9.159438133239746,-2.005122661590576
1697664269079011300,7.27001123046875,-2.7834713459014893,-9.19858169555664,-1.9516043663024902
1697664269088605000,7.27960498046875,-2.660916805267334,-9.246938705444336,-1.8931561708450317
1697664269098197500,7.289197509765625,-2.4931552410125732,-9.303677558898926,-1.8428623676300049
1697664269107789600,7.29878955078125,-2.274764060974121,-9.365592956542969,-1.8114932775497437
1697664269117382400,7.30838232421875,-2.0099942684173584,-9.428046226501465,-1.8006236553192139
1697664269126976000,7.31797607421875,-1.7152453660964966,-9.485915184020996,-1.8015916347503662
1697664269136568600,7.327568603515625,-1.4085813760757446,-9.536067008972168,-1.8027033805847168
1697664269146160600,7.33716064453125,-1.1062535047531128,-9.576794624328613,-1.7976659536361694
1697664269155753500,7.34675341796875,-0.8300821185112,-9.607718467712402,-1.78132164478302
1697664269165346800,7.356346923828125,-0.601071298122406,-9.628546714782715,-1.7607390880584717
1697664269174939600,7.365939697265625,-0.4342050552368164,-9.640869140625,-1.7422640323638916
1697664269184531500,7.375531494140625,-0.3367864787578583,-9.64769458770752,-1.7259669303894043
1697664269194124300,7.385124267578125,-0.29819175601005554,-9.653254508972168,-1.7018086910247803
1697664269203718000,7.3947177734375,-0.2767006754875183,-9.661542892456055,-1.6578388214111328
1697664269213310500,7.404310546875,-0.23227927088737488,-9.674571990966797,-1.5871673822402954
1697664269222902500,7.413902587890625,-0.15744352340698242,-9.692073822021484,-1.4863734245300293
1697664269232495000,7.4234951171875,-0.045298319309949875,-9.71187973022461,-1.3593074083328247
1697664269242088700,7.433088623046875,0.08069479465484619,-9.732707977294922,-1.1992895603179932
1697664269251681500,7.442681640625,0.19826431572437286,-9.752622604370117,-1.0086737871170044
1697664269261273300,7.4522734375,0.2938721776008606,-9.769604682922363,-0.7992805242538452
1697664269270866200,7.4618662109375,0.35623276233673096,-9.782768249511719,-0.5838991403579712
1697664269280459800,7.471459716796875,0.3879447877407074,-9.791665077209473,-0.37837356328964233
1697664269290052400,7.48105224609375,0.3998960554599762,-9.796689987182617,-0.1879889965057373
1697664269299644400,7.49064453125,0.3977641463279724,-9.798565864562988,-0.016743449494242668
1697664269309237200,7.5002373046875,0.38304269313812256,-9.79828929901123,0.13107377290725708
1697664269318830600,7.50983056640625,0.3545220196247101,-9.796838760375977,0.2581705152988434
1697664269328423400,7.51942333984375,0.3186934292316437,-9.794792175292969,0.361762136220932
1697664269338015200,7.52901513671875,0.27248427271842957,-9.793229103088379,0.4345172643661499
1697664269347608000,7.538608154296875,0.20884846150875092,-9.793042182922363,0.4723092019557953
1697664269357201700,7.54820166015625,0.13003294169902802,-9.794255256652832,0.4754246175289154
1697664269366794200,7.557794189453125,0.04702455550432205,-9.79648208618164,0.44397658109664917
1697664269376386300,7.56738623046875,-0.029306169599294662,-9.799507141113281,0.3730838894844055
1697664269385979000,7.576978759765625,-0.0954887792468071,-9.802729606628418,0.2603260278701782
1697664269395572500,7.586572509765625,-0.15671098232269287,-9.804649353027344,0.12108957022428513
1697664269405165300,7.596165283203125,-0.22176188230514526,-9.804109573364258,-0.025204893201589584
1697664269414757000,7.605757080078125,-0.295499324798584,-9.800724029541016,-0.16989174485206604
1697664269424350000,7.615349853515625,-0.37925076484680176,-9.794820785522461,-0.2966945171356201
1697664269433943600,7.624943603515625,-0.4554640054702759,-9.78833293914795,-0.38920703530311584
1697664269443536100,7.6345361328125,-0.5071210861206055,-9.783778190612793,-0.43691760301589966
1697664269453128200,7.644128173828125,-0.527486264705658,-9.782639503479004,-0.4382968544960022
1697664269462721000,7.653720947265625,-0.5184933543205261,-9.78442668914795,-0.408097505569458
1697664269472314400,7.663314453125,-0.48413705825805664,-9.78801155090332,-0.36171239614486694
1697664269481907200,7.6729072265625,-0.4098690450191498,-9.793432235717773,-0.3017978072166443
1697664269491499000,7.6824990234375,-0.3126428425312042,-9.798883438110352,-0.23350217938423157
1697664269501091800,7.692091796875,-0.22326697409152985,-9.802752494812012,-0.1630784124135971
1697664269510685400,7.701685546875,-0.1676703244447708,-9.80478572845459,-0.09196454286575317
1697664269520278000,7.711278076171875,-0.14716081321239471,-9.805511474609375,-0.026126697659492493
1697664269529870000,7.7208701171875,-0.13210058212280273,-9.80568790435791,0.0378812812268734
1697664269539463000,7.730462890625,-0.13065402209758759,-9.805153846740723,0.1107887402176857
1697664269549056300,7.74005615234375,-0.14099004864692688,-9.803704261779785,0.19464804232120514
1697664269558649000,7.749649169921875,-0.1524183750152588,-9.801628112792969,0.27430853247642517
1697664269568241000,7.759240966796875,-0.1743624061346054,-9.798818588256836,0.35090380907058716
1697664269577833700,7.768833740234375,-0.2138071060180664,-9.795121192932129,0.4245792329311371
1697664269587427300,7.77842724609375,-0.2625766098499298,-9.790492057800293,0.4977234899997711
1697664269597020000,7.78802001953125,-0.3459324836730957,-9.784757614135742,0.556095540523529
1697664269606612000,7.797612060546875,-0.48458412289619446,-9.776342391967773,0.5989100337028503
1697664269616204800,7.807204833984375,-0.6309933066368103,-9.766173362731934,0.6277686953544617
1697664269625798400,7.81679833984375,-0.7450302243232727,-9.757869720458984,0.6319015622138977
1697664269635391000,7.826390869140625,-0.5651621222496033,-9.779790878295898,0.45460814237594604
1697664269644983000,7.835983154296875,-0.29853466153144836,-9.79621696472168,0.3397137224674225
1697664269654575600,7.84557568359375,-0.024683499708771706,-9.803692817687988,0.23954878747463226
1697664269664169200,7.855169189453125,0.16130349040031433,-9.804947853088379,0.08591717481613159
1697664269673762000,7.864761962890625,0.21048089861869812,-9.804081916809082,-0.07787317037582397
1697664269683353900,7.874353759765625,0.09660966694355011,-9.803155899047852,-0.24329514801502228
1697664269692946700,7.88394677734375,-0.17501766979694366,-9.796616554260254,-0.40750986337661743
1697664269702540300,7.893540283203125,-0.5668780207633972,-9.77536678314209,-0.5396670699119568
1697664269712132900,7.9031328125,-1.0088163614273071,-9.73473834991455,-0.6225276589393616
1697664269721725000,7.912724853515625,-1.4327728748321533,-9.679129600524902,-0.6572743654251099
1697664269731317200,7.922317138671875,-1.6946769952774048,-9.63447093963623,-0.6895055770874023
1697664269740910800,7.931910888671875,-1.734724521636963,-9.621493339538574,-0.7668048143386841
1697664269750503700,7.941503662109375,-1.640273928642273,-9.630599021911621,-0.8552449345588684
1697664269760095500,7.951095458984375,-1.5172052383422852,-9.643528938293457,-0.9331838488578796
1697664269769688300,7.960688232421875,-1.4257004261016846,-9.649850845336914,-1.0090278387069702
1697664269779281700,7.97028173828125,-1.4057236909866333,-9.6430082321167,-1.0985037088394165
1697664269788874500,7.97987451171875,-1.452837586402893,-9.622969627380371,-1.2075225114822388
1697664269798466600,7.989466552734375,-1.5475249290466309,-9.591967582702637,-1.3303097486495972
1697664269808059100,7.99905908203125,-1.6589528322219849,-9.554316520690918,-1.4605820178985596
1697664269817652700,8.00865283203125,-1.768276572227478,-9.513504028320312,-1.5927455425262451
1697664269827245600,8.01824560546875,-1.8750815391540527,-9.471246719360352,-1.7175389528274536
1697664269836837400,8.02783740234375,-1.9664533138275146,-9.430038452148438,-1.8378819227218628
1697664269846430200,8.03743017578125,-2.038313627243042,-9.394004821777344,-1.9412145614624023
1697664269856023800,8.04702392578125,-2.082286834716797,-9.368775367736816,-2.0150740146636963
1697664269865616400,8.056616455078125,-2.0979480743408203,-9.355774879455566,-2.0587494373321533
1697664269875208400,8.06620849609375,-2.1024677753448486,-9.352592468261719,-2.0685832500457764
1697664269884801000,8.075801025390625,-2.100060224533081,-9.357020378112793,-2.0509259700775146
1697664269894394600,8.08539453125,-2.0946667194366455,-9.365083694458008,-2.019394636154175
1697664269903987500,8.094987548828126,-2.099228858947754,-9.372790336608887,-1.9784927368164062
1697664269913579300,8.104579345703126,-2.1193456649780273,-9.378631591796875,-1.9287357330322266
1697664269923172000,8.114172119140624,-2.155245780944824,-9.38233757019043,-1.8700357675552368
1697664269932765700,8.123765625,-2.1969258785247803,-9.384206771850586,-1.811237096786499
1697664269942358300,8.133358154296875,-2.2326550483703613,-9.384891510009766,-1.7633625268936157
1697664269951950300,8.142950439453125,-2.2541191577911377,-9.38484001159668,-1.7361212968826294
1697664269961543000,8.15254296875,-2.2572898864746094,-9.384245872497559,-1.7352083921432495
1697664269971136500,8.162136474609374,-2.2430505752563477,-9.383589744567871,-1.7570918798446655
1697664269980729300,8.171729248046875,-2.215937852859497,-9.383803367614746,-1.790039300918579
1697664269990321200,8.181321044921875,-2.183359384536743,-9.384056091308594,-1.828340768814087
1697664269999914000,8.1909140625,-2.1458680629730225,-9.385464668273926,-1.865126132965088
1697664270009507600,8.200507568359376,-2.092042922973633,-9.39330005645752,-1.8867053985595703
1697664270019100200,8.21010009765625,-2.013617515563965,-9.411491394042969,-1.881373643875122
1697664270028692200,8.219692138671874,-1.911647915840149,-9.438878059387207,-1.8502827882766724
1697664270038285000,8.22928515625,-1.7790312767028809,-9.474430084228516,-1.800173044204712
1697664270047878700,8.238878662109375,-1.6117188930511475,-9.515138626098633,-1.742093801498413
1697664270057471200,8.24847119140625,-1.4186114072799683,-9.555780410766602,-1.6867163181304932
1697664270067063300,8.258063232421875,-1.217896819114685,-9.59192943572998,-1.6376819610595703
1697664270076656000,8.26765625,-1.0292104482650757,-9.622077941894531,-1.5895683765411377
1697664270086249500,8.27724951171875,-0.8699849247932434,-9.64707088470459,-1.5321673154830933
1697664270095842300,8.28684228515625,-0.7412320971488953,-9.667924880981445,-1.4670379161834717
1697664270105434000,8.29643408203125,-0.6423154473304749,-9.68563175201416,-1.3951144218444824
1697664270115027000,8.30602685546875,-0.5749711394309998,-9.699612617492676,-1.3256337642669678
1697664270124620500,8.31562060546875,-0.5267636179924011,-9.709376335144043,-1.2731562852859497
1697664270134213000,8.325213134765624,-0.4750685393810272,-9.716852188110352,-1.2359085083007812
1697664270143805200,8.33480517578125,-0.38953977823257446,-9.725226402282715,-1.199426293373108
1697664270153398000,8.34439794921875,-0.2640881836414337,-9.734158515930176,-1.1605126857757568
1697664270162991400,8.353991455078125,-0.12113553285598755,-9.743227005004883,-1.1069025993347168
1697664270172584200,8.363584228515625,0.007117768749594688,-9.751129150390625,-1.0420198440551758
1697664270182176000,8.373176025390626,0.09127587825059891,-9.75784969329834,-0.9728333950042725
1697664270191768800,8.382768798828126,0.11534427106380463,-9.765819549560547,-0.8864823579788208
1697664270201362400,8.392362548828125,0.0830867812037468,-9.77507209777832,-0.7819567918777466
1697664270210955000,8.401955078125,0.012672167271375656,-9.783531188964844,-0.6728683114051819
1697664270220547000,8.411547119140625,-0.07200697809457779,-9.790300369262695,-0.5614530444145203
1697664270230140000,8.421139892578125,-0.16155241429805756,-9.79507827758789,-0.44801953434944153
1697664270239733500,8.4307333984375,-0.24326637387275696,-9.797675132751465,-0.3417215645313263
1697664270249326000,8.440326171875,-0.30471375584602356,-9.798620223999023,-0.2541351020336151
1697664270258918100,8.449918212890625,-0.3464677333831787,-9.798722267150879,-0.1881120502948761
1697664270268510700,8.4595107421875,-0.3695218563079834,-9.798602104187012,-0.14572016894817352
1697664270278104300,8.469104248046875,-0.3734377324581146,-9.798725128173828,-0.12618260085582733
1697664270287697200,8.478697265625,-0.3663811683654785,-9.799034118652344,-0.1228083074092865
1697664270297289000,8.4882890625,-0.35670948028564453,-9.799321174621582,-0.12830018997192383
1697664270306881800,8.4978818359375,-0.3505156934261322,-9.799418449401855,-0.13757291436195374
1697664270316475400,8.507475341796875,-0.35546720027923584,-9.799034118652344,-0.15151943266391754
1697664270326068000,8.51706787109375,-0.3737983703613281,-9.797978401184082,-0.1740535944700241
1697664270335660000,8.526659912109375,-0.40007662773132324,-9.796220779418945,-0.21068483591079712
1697664270345252900,8.5362529296875,-0.4314265251159668,-9.793593406677246,-0.264183908700943
1697664270354846200,8.54584619140625,-0.4678870737552643,-9.78984546661377,-0.3322664797306061
1697664270364439000,8.55543896484375,-0.5069705247879028,-9.785212516784668,-0.40370675921440125
1697664270374030800,8.56503076171875,-0.5518316030502319,-9.779871940612793,-0.4689943790435791
1697664270383623700,8.574623779296875,-0.5999624729156494,-9.774188041687012,-0.5250412821769714
1697664270393217300,8.58421728515625,-0.636120617389679,-9.769725799560547,-0.5640867352485657
1697664270402809900,8.593809814453126,-0.6429054141044617,-9.768170356750488,-0.5830141305923462
1697664270412402000,8.60340185546875,-0.620976448059082,-9.769585609436035,-0.5830708742141724
1697664270421994800,8.612994873046874,-0.5902196764945984,-9.772525787353516,-0.5654847621917725
1697664270431588400,8.62258837890625,-0.5378851890563965,-9.776814460754395,-0.5431224703788757
1697664270441181000,8.632180908203125,-0.4583105444908142,-9.782633781433105,-0.5103148818016052
1697664270450773000,8.64177294921875,-0.35312700271606445,-9.78915023803711,-0.46715378761291504
1697664270460365600,8.651365478515626,-0.23415924608707428,-9.795076370239258,-0.4147721230983734
1697664270469959200,8.660959228515624,-0.11995849758386612,-9.79962158203125,-0.3512922525405884
1697664270479552000,8.670552001953125,-0.030972370877861977,-9.803228378295898,-0.25719353556632996
1697664270489143800,8.680143798828125,0.01766684651374817,-9.805577278137207,-0.143930584192276
1697664270498736600,8.689736572265625,0.014775604009628296,-9.806574821472168,-0.035429392009973526
1697664270508330200,8.699330322265626,-0.026191040873527527,-9.806328773498535,0.07501161843538284
1697664270517922800,8.7089228515625,-0.08029467612504959,-9.805033683776855,0.1589561253786087
1697664270527515000,8.718514892578124,-0.11991439014673233,-9.803346633911133,0.22455675899982452
1697664270537107700,8.728107666015624,-0.1513146609067917,-9.801111221313477,0.29276272654533386
1697664270546701000,8.737701171875,-0.17376726865768433,-9.798201560974121,0.3680069148540497
1697664270556294000,8.7472939453125,-0.18857727944850922,-9.79560661315918,0.4253496825695038
1697664270565885700,8.7568857421875,-0.19548648595809937,-9.795616149902344,0.42200180888175964
1697664270575478500,8.766478515625,-0.21568335592746735,-9.796698570251465,0.38545578718185425
1697664270585072000,8.776072021484374,-0.27435731887817383,-9.796223640441895,0.3593330979347229
1697664270594664700,8.785664794921875,-0.3585126996040344,-9.794925689697266,0.31829649209976196
1697664270604256800,8.7952568359375,-0.4674701392650604,-9.791977882385254,0.26275041699409485
1697664270613849600,8.804849609375,-0.6003172397613525,-9.78643798828125,0.18874353170394897
1697664270623443200,8.814443115234376,-0.7584365606307983,-9.776867866516113,0.08946993947029114
1697664270633035800,8.824035888671874,-0.9368646144866943,-9.76174545288086,-0.031873464584350586
1697664270642627800,8.8336279296875,-1.1175782680511475,-9.741372108459473,-0.1645391583442688
1697664270652220400,8.843220458984375,-1.2746332883834839,-9.719039916992188,-0.2931760847568512
1697664270661814000,8.85281396484375,-1.3948296308517456,-9.698238372802734,-0.4111194312572479
1697664270671406800,8.86240673828125,-1.4806184768676758,-9.680278778076172,-0.5199441313743591
1697664270680998700,8.87199853515625,-1.5343846082687378,-9.665342330932617,-0.6302482485771179
1697664270690591500,8.881591552734376,-1.5628163814544678,-9.653465270996094,-0.7339072227478027
1697664270700185000,8.89118505859375,-1.5753744840621948,-9.644009590148926,-0.8256241083145142
1697664270709777700,8.900777587890625,-1.5762840509414673,-9.636526107788086,-0.907239556312561
1697664270719369700,8.91036962890625,-1.576014757156372,-9.629487991333008,-0.979556143283844
1697664270728962300,8.91996240234375,-1.5884016752243042,-9.620781898498535,-1.0430322885513306
1697664270738556000,8.929555908203126,-1.6265779733657837,-9.60807991027832,-1.0997380018234253
1697664270748148700,8.939148681640624,-1.697922706604004,-9.590165138244629,-1.1472444534301758
1697664270757740500,8.948740478515624,-1.8045954704284668,-9.565266609191895,-1.191428780555725
1697664270767333400,8.95833349609375,-1.9392831325531006,-9.532188415527344,-1.2437561750411987
1697664270776927000,8.967927001953125,-2.082155227661133,-9.492615699768066,-1.3134886026382446
1697664270786519600,8.97751953125,-2.212824583053589,-9.450803756713867,-1.398611307144165
1697664270796111600,8.987111572265626,-2.320880651473999,-9.410886764526367,-1.48966646194458
1697664270805704400,8.996704345703124,-2.3997771739959717,-9.377004623413086,-1.5758284330368042
1697664270815298000,9.006298095703125,-2.445410966873169,-9.352680206298828,-1.6485514640808105
1697664270824890600,9.015890625,-2.4588494300842285,-9.339743614196777,-1.7010668516159058
1697664270834482700,9.025482666015625,-2.4484152793884277,-9.337523460388184,-1.7280936241149902
1697664270844075300,9.0350751953125,-2.4262866973876953,-9.342609405517578,-1.7318098545074463
1697664270853668900,9.0446689453125,-2.4017443656921387,-9.351577758789062,-1.7175583839416504
1697664270863261700,9.05426171875,-2.3844504356384277,-9.360737800598145,-1.6915584802627563
1697664270872853500,9.063853515625,-2.377601146697998,-9.366926193237305,-1.6667605638504028
1697664270882446300,9.0734462890625,-2.379301071166992,-9.368959426879883,-1.6528480052947998
1697664270892040000,9.0830400390625,-2.3844504356384277,-9.368241310119629,-1.6494975090026855
1697664270901632500,9.092632568359376,-2.386465311050415,-9.367310523986816,-1.6518629789352417
1697664270911224600,9.102224609375,-2.380215644836426,-9.36816120147705,-1.6560531854629517
1697664270920817400,9.1118173828125,-2.3655316829681396,-9.371615409851074,-1.6575465202331543
1697664270930410800,9.12141064453125,-2.345099925994873,-9.378138542175293,-1.6496697664260864
1697664270940003600,9.131003662109375,-2.32108736038208,-9.387788772583008,-1.6286003589630127
1697664270949595600,9.140595703125,-2.2937235832214355,-9.39925479888916,-1.601011037826538
1697664270959188200,9.150188232421876,-2.262813091278076,-9.41135025024414,-1.5737038850784302
1697664270968781800,9.15978173828125,-2.2180111408233643,-9.425808906555176,-1.5507899522781372
1697664270978374700,9.169374755859375,-2.141993284225464,-9.4464693069458,-1.531821846961975
1697664270987966500,9.178966552734375,-2.036699056625366,-9.473047256469727,-1.5111684799194336
1697664270997559300,9.188559326171875,-1.9047213792800903,-9.503257751464844,-1.493491768836975
1697664271007153000,9.19815283203125,-1.7466882467269897,-9.535730361938477,-1.4796347618103027
1697664271016745500,9.207745361328126,-1.5698063373565674,-9.567766189575195,-1.4710406064987183
1697664271026337500,9.217337646484374,-1.3661093711853027,-9.598628997802734,-1.4732476472854614
1697664271035930400,9.226930419921874,-1.1563341617584229,-9.626081466674805,-1.4737166166305542
1697664271045523700,9.236523681640625,-0.9476413726806641,-9.649362564086914,-1.4704363346099854
1697664271055116500,9.246116455078125,-0.7339428067207336,-9.669690132141113,-1.4590401649475098
1697664271064708400,9.255708251953125,-0.5124186873435974,-9.688362121582031,-1.4294919967651367
1697664271074301200,9.26530126953125,-0.3079959750175476,-9.704469680786133,-1.3779606819152832
1697664271083894800,9.274894775390624,-0.15287546813488007,-9.714829444885254,-1.3300690650939941
1697664271093487400,9.2844873046875,-0.04338955134153366,-9.720099449157715,-1.2992998361587524
1697664271103079400,9.294079345703125,0.03814839944243431,-9.72289752960205,-1.2783552408218384
1697664271112672300,9.30367236328125,0.10309788584709167,-9.725607872009277,-1.2539186477661133
1697664271122265900,9.313265869140626,0.15401767194271088,-9.730720520019531,-1.2081950902938843
1697664271131858400,9.3228583984375,0.18306714296340942,-9.73876667022705,-1.137221336364746
1697664271141450500,9.332450439453124,0.19291532039642334,-9.748477935791016,-1.0489767789840698
1697664271151043000,9.34204296875,0.19709686934947968,-9.75916576385498,-0.9435131549835205
1697664271160636700,9.35163671875,0.1990835815668106,-9.770439147949219,-0.818094789981842
1697664271170229500,9.3612294921875,0.18970106542110443,-9.781471252441406,-0.676183819770813
1697664271179821300,9.3708212890625,0.1813250184059143,-9.79111385345459,-0.5211495161056519
1697664271189414100,9.3804140625,0.17987564206123352,-9.79849624633789,-0.35707607865333557
1697664271199007700,9.3900078125,0.18105879426002502,-9.802855491638184,-0.20404723286628723
1697664271208600300,9.399600341796875,0.1867673099040985,-9.804582595825195,-0.07523486018180847
1697664271218192400,9.4091923828125,0.2062816321849823,-9.804424285888672,0.033191610127687454
1697664271227785000,9.418784912109375,0.23304162919521332,-9.803121566772461,0.1219540387392044
1697664271237378600,9.428378662109376,0.2568551003932953,-9.801413536071777,0.19160130620002747
1697664271246971400,9.437971435546874,0.2751076817512512,-9.799715995788574,0.24549128115177155
1697664271256563200,9.447563232421874,0.28452184796333313,-9.798388481140137,0.2846297025680542
1697664271266156000,9.457156005859375,0.2836454212665558,-9.797680854797363,0.3088347911834717
1697664271275749600,9.46674951171875,0.27254176139831543,-9.797688484191895,0.3184237778186798
1697664271285342200,9.47634228515625,0.2520328462123871,-9.798382759094238,0.31394875049591064
1697664271294934300,9.485934326171876,0.22026334702968597,-9.799553871154785,0.3010312616825104
1697664271304527000,9.495527099609374,0.17288054525852203,-9.801179885864258,0.27817198634147644
1697664271314120700,9.50512060546875,0.10934892296791077,-9.802922248840332,0.24728111922740936
1697664271323713300,9.51471337890625,0.0312560498714447,-9.804211616516113,0.2164594531059265
1697664271333305300,9.524305419921875,-0.05375961586833,-9.804624557495117,0.1919204443693161
1697664271342898000,9.53389794921875,-0.13503636419773102,-9.804176330566406,0.1740119606256485
1697664271352491500,9.543491455078126,-0.2045477032661438,-9.803153991699219,0.1634799838066101
1697664271362084400,9.55308447265625,-0.2573683559894562,-9.801937103271484,0.16176748275756836
1697664271371676200,9.56267626953125,-0.2914876937866211,-9.800824165344238,0.1710534542798996
1697664271381269000,9.57226904296875,-0.3073977530002594,-9.799951553344727,0.19190603494644165
1697664271390862600,9.581862548828125,-0.305281400680542,-9.79940414428711,0.22106514871120453
1697664271400455200,9.591455078125,-0.27917444705963135,-9.79927921295166,0.258048951625824
1697664271410047200,9.601047119140626,-0.22894899547100067,-9.79955768585205,0.2943386137485504
1697664271419640000,9.61064013671875,-0.1614677906036377,-9.799905776977539,0.325823038816452
1697664271429233400,9.6202333984375,-0.10471964627504349,-9.799606323242188,0.35654550790786743
1697664271438826200,9.629826171875,-0.0994066596031189,-9.798141479492188,0.3961537778377533
1697664271448418300,9.639418212890625,-0.1419927179813385,-9.796441078186035,0.42424100637435913
1697664271458011000,9.649010986328125,-0.2248430699110031,-9.794812202453613,0.4260275959968567
1697664271467604500,9.6586044921875,-0.3315184712409973,-9.79271125793457,0.40409591794013977
1697664271477197300,9.668197265625,-0.43314215540885925,-9.789278030395508,0.39087724685668945
1697664271486789000,9.6777890625,-0.47623971104621887,-9.788004875183105,0.37221676111221313
1697664271496382000,9.6873818359375,-0.4005429446697235,-9.792669296264648,0.33702149987220764
1697664271505975600,9.6969755859375,-0.3584449291229248,-9.793864250183105,0.3494853377342224
1697664271515568000,9.706568115234376,-0.34853649139404297,-9.792908668518066,0.3845139443874359
1697664271525160200,9.71616015625,-0.3818563222885132,-9.789701461791992,0.4316532611846924
1697664271534752800,9.725752685546874,-0.45868444442749023,-9.78458309173584,0.4711025059223175
1697664271544346400,9.735346435546875,-0.570466160774231,-9.777647972106934,0.4925052523612976
1697664271553939200,9.744939208984375,-0.7014654874801636,-9.769030570983887,0.49433454871177673
1697664271563531000,9.754531005859375,-0.8301506638526917,-9.759773254394531,0.4775690734386444
1697664271573123800,9.764123779296876,-0.9425933361053467,-9.751483917236328,0.43643680214881897
1697664271582717400,9.773717529296874,-1.037071943283081,-9.744951248168945,0.361667275428772
1697664271592310000,9.78331005859375,-1.12443208694458,-9.738828659057617,0.2475096881389618
1697664271601902000,9.792902099609375,-1.2195782661437988,-9.72999095916748,0.10145533829927444
1697664271611495000,9.802494873046875,-1.3234350681304932,-9.71677303314209,-0.0568171963095665
1697664271621088300,9.812088134765625,-1.4235990047454834,-9.70063304901123,-0.20367978513240814
1697664271630681000,9.82168115234375,-1.5120337009429932,-9.68372917175293,-0.33095109462738037
1697664271640273200,9.831273193359374,-1.586212396621704,-9.6675386428833,-0.43931955099105835
1697664271649865700,9.84086572265625,-1.6426719427108765,-9.653424263000488,-0.5323759317398071
1697664271659459300,9.850459228515625,-1.6848037242889404,-9.641403198242188,-0.6125192642211914
1697664271669052200,9.86005224609375,-1.715636968612671,-9.631242752075195,-0.6827426552772522
1697664271678644000,9.86964404296875,-1.7371810674667358,-9.622730255126953,-0.7454227805137634
1697664271688236800,9.87923681640625,-1.7529008388519287,-9.615145683288574,-0.8041774034500122
1697664271697830400,9.888830322265624,-1.7696311473846436,-9.606900215148926,-0.863867998123169
1697664271707423000,9.898423095703125,-1.7972962856292725,-9.595987319946289,-0.9258199334144592
1697664271717015000,9.90801513671875,-1.8427250385284424,-9.581037521362305,-0.989173948764801
1697664271726608000,9.91760791015625,-1.9063758850097656,-9.561870574951172,-1.0520267486572266
1697664271736201200,9.927201171875,-1.986021637916565,-9.538286209106445,-1.1167781352996826
1697664271745794000,9.9367939453125,-2.073490619659424,-9.510998725891113,-1.1882506608963013
1697664271755385900,9.9463857421875,-2.1566014289855957,-9.482274055480957,-1.2672475576400757
1697664271764978700,9.955978759765625,-2.223158121109009,-9.45561408996582,-1.3488174676895142
1697664271774572300,9.965572265625,-2.2707879543304443,-9.43295669555664,-1.4259227514266968
1697664271784164900,9.975164794921875,-2.3026580810546875,-9.414759635925293,-1.4934680461883545
1697664271793757000,9.9847568359375,-2.322403907775879,-9.401358604431152,-1.5463733673095703
1697664271803349800,9.994349853515626,-2.332448720932007,-9.393463134765625,-1.5788992643356323
1697664271812943000,10.003943115234375,-2.3337857723236084,-9.391282081604004,-1.5898584127426147
1697664271822536000,10.013535888671875,-2.329951524734497,-9.393681526184082,-1.5812867879867554
1697664271832128000,10.0231279296875,-2.324558734893799,-9.398895263671875,-1.5580660104751587
1697664271841720600,10.032720458984375,-2.3214166164398193,-9.405533790588379,-1.522286295890808
1697664271851314200,10.042314208984376,-2.323377847671509,-9.411979675292969,-1.478826642036438
1697664271860907000,10.051906982421874,-2.324392557144165,-9.416825294494629,-1.4460277557373047
1697664271870498800,10.061498779296874,-2.334075689315796,-9.41849422454834,-1.419308066368103
1697664271880091600,10.071091552734375,-2.3548426628112793,-9.415393829345703,-1.4055135250091553
1697664271889685200,10.080685302734375,-2.380232572555542,-9.409567832946777,-1.4017542600631714
1697664271899277800,10.09027783203125,-2.3972344398498535,-9.404942512512207,-1.4038236141204834
1697664271908870000,10.099869873046876,-2.398486852645874,-9.404378890991211,-1.4054532051086426
1697664271918462700,10.109462646484374,-2.3868675231933594,-9.408547401428223,-1.3973078727722168
1697664271928056000,10.11905615234375,-2.372762441635132,-9.415724754333496,-1.3727761507034302
1697664271937649000,10.12864892578125,-2.363260507583618,-9.424556732177734,-1.3278212547302246
1697664271947240700,10.13824072265625,-2.356760263442993,-9.434126853942871,-1.2701677083969116
1697664271956833500,10.14783349609375,-2.3488173484802246,-9.444429397583008,-1.2067352533340454
1697664271966427100,10.15742724609375,-2.332899808883667,-9.457521438598633,-1.1328096389770508
1697664271976019700,10.167019775390624,-2.307523250579834,-9.47348403930664,-1.0482407808303833
1697664271985611800,10.17661181640625,-2.2723488807678223,-9.490921020507812,-0.9639663100242615
1697664271995204600,10.18620458984375,-2.2207422256469727,-9.510295867919922,-0.8904752731323242
1697664272004798000,10.1957978515625,-2.1491634845733643,-9.531864166259766,-0.8336976170539856
1697664272014390800,10.205390869140626,-2.060288190841675,-9.555042266845703,-0.7916787266731262
1697664272023982600,10.214982666015626,-1.9547313451766968,-9.579679489135742,-0.7610282301902771
1697664272033575400,10.224575439453124,-1.8241066932678223,-9.607078552246094,-0.7396413087844849
1697664272043169000,10.2341689453125,-1.652059555053711,-9.638951301574707,-0.7291924357414246
1697664272052761900,10.243761962890625,-1.4275786876678467,-9.674798965454102,-0.7284720540046692
1697664272062353700,10.253353759765625,-1.161569356918335,-9.709996223449707,-0.7328768372535706
1697664272071946500,10.262946533203126,-0.8835232853889465,-9.738901138305664,-0.7372822761535645
1697664272081539800,10.272539794921874,-0.6335039734840393,-9.75758171081543,-0.7474412322044373
1697664272091132700,10.282132568359375,-0.43422195315361023,-9.768050193786621,-0.7530249953269958
1697664272100724700,10.291724853515625,-0.2954632639884949,-9.77420711517334,-0.7402434945106506
1697664272110317300,10.3013173828125,-0.21792861819267273,-9.778548240661621,-0.7091460824012756
1697664272119911000,10.310910888671875,-0.19142265617847443,-9.781603813171387,-0.6737743616104126
1697664272129503700,10.320503662109376,-0.20519547164440155,-9.78398323059082,-0.6339971423149109
1697664272139095600,10.330095458984376,-0.2429058700799942,-9.786373138427734,-0.5816029906272888
1697664272148688400,10.3396884765625,-0.28352612257003784,-9.789942741394043,-0.4970206916332245
1697664272158282000,10.349281982421875,-0.3151157796382904,-9.794200897216797,-0.3804309070110321
1697664272167874600,10.35887451171875,-0.3400917947292328,-9.797616004943848,-0.24785885214805603
1697664272177466600,10.368466552734375,-0.36155956983566284,-9.79932689666748,-0.11340424418449402
1697664272187059200,10.37805908203125,-0.37486711144447327,-9.799471855163574,0.014749688096344471
1697664272196652800,10.38765283203125,-0.37484896183013916,-9.798608779907227,0.1309012621641159
1697664272206245600,10.39724560546875,-0.3626255989074707,-9.797245025634766,0.22996503114700317
1697664272215837400,10.40683740234375,-0.340671181678772,-9.795884132385254,0.3081740140914917
1697664272225430300,10.41643017578125,-0.3119719326496124,-9.794851303100586,0.36598673462867737
1697664272235024000,10.42602392578125,-0.2808118760585785,-9.794472694396973,0.3997838795185089
1697664272244616400,10.435616455078126,-0.25199776887893677,-9.794830322265625,0.41009700298309326
1697664272254208500,10.44520849609375,-0.2326311618089676,-9.795620918273926,0.40257197618484497
1697664272263801000,10.454801025390625,-0.22783303260803223,-9.796628952026367,0.38018015027046204
1697664272273394700,10.464394775390625,-0.24048572778701782,-9.797650337219238,0.3443785309791565
1697664272282987500,10.473987548828125,-0.27227383852005005,-9.798385620117188,0.29648181796073914
1697664272292579300,10.483579345703125,-0.3224218189716339,-9.798474311828613,0.23733513057231903
1697664272302172200,10.493172119140626,-0.38611656427383423,-9.79754638671875,0.1714266687631607
1697664272311765800,10.502765869140624,-0.4552095830440521,-9.795494079589844,0.10698530077934265
1697664272321358300,10.5123583984375,-0.5184617042541504,-9.792799949645996,0.05145099386572838
1697664272330950400,10.521950439453125,-0.5652201175689697,-9.79034423828125,0.008887921459972858
1697664272340543200,10.531543212890625,-0.5926761627197266,-9.78870964050293,-0.01689283922314644
1697664272350136800,10.54113671875,-0.6015441417694092,-9.788135528564453,-0.030279239639639854
1697664272359729400,10.5507294921875,-0.5910468101501465,-9.788756370544434,-0.035906460136175156
1697664272369321500,10.560321533203124,-0.559481680393219,-9.79062271118164,-0.03282385319471359
1697664272378914300,10.569914306640625,-0.5050907731056213,-9.793611526489258,-0.02089023031294346
1697664272388507600,10.579507568359375,-0.42423737049102783,-9.797468185424805,0.004030867479741573
1697664272398100500,10.5891005859375,-0.3206407129764557,-9.801323890686035,0.040579259395599365
1697664272407692300,10.5986923828125,-0.20349860191345215,-9.804169654846191,0.0850522369146347
1697664272417285000,10.60828515625,-0.09413155913352966,-9.805242538452148,0.13697834312915802
1697664272426878700,10.617878662109375,-0.018974732607603073,-9.80451488494873,0.20376385748386383
1697664272436471300,10.62747119140625,0.016254737973213196,-9.802563667297363,0.2825717031955719
1697664272446063400,10.6370634765625,0.011295253410935402,-9.799774169921875,0.3669922947883606
1697664272455656200,10.64665625,-0.024909378960728645,-9.79582691192627,0.45994240045547485
1697664272465249500,10.65624951171875,-0.10143397748470306,-9.791281700134277,0.5393482446670532
1697664272474842400,10.66584228515625,-0.19381073117256165,-9.786218643188477,0.6022940874099731
1697664272484434200,10.67543408203125,-0.22921326756477356,-9.783845901489258,0.6278615593910217
1697664272494027000,10.685027099609375,-0.20361122488975525,-9.783458709716797,0.6425487399101257
1697664272503620600,10.69462060546875,-0.2077646255493164,-9.78016471862793,0.6896302103996277
1697664272513213200,10.704213134765626,-0.23547354340553284,-9.777142524719238,0.7227861881256104
1697664272522805200,10.71380517578125,-0.3052574098110199,-9.773771286010742,0.7420198917388916
1697664272532397800,10.723397705078124,-0.4102296233177185,-9.76972770690918,0.7446558475494385
1697664272541991400,10.732991455078125,-0.5352985858917236,-9.764544486999512,0.733159601688385
1697664272551584300,10.742584228515625,-0.6643797159194946,-9.758506774902344,0.7074835896492004
1697664272561176000,10.752176025390625,-0.7885352373123169,-9.752752304077148,0.6575838327407837
1697664272570769000,10.761768798828125,-0.9121505618095398,-9.747588157653809,0.5682279467582703
1697664272580362500,10.771362548828124,-1.041464924812317,-9.741504669189453,0.43455544114112854
1697664272589955000,10.780955078125,-1.1684116125106812,-9.733076095581055,0.269119530916214
1697664272599547100,10.790547119140625,-1.2767006158828735,-9.722696304321289,0.09787962585687637
1697664272609140000,10.800139892578125,-1.3622691631317139,-9.711409568786621,-0.056158117949962616
1697664272618733600,10.809733642578125,-1.4217631816864014,-9.701092720031738,-0.19435420632362366
1697664272628326100,10.819326171875,-1.4551664590835571,-9.693042755126953,-0.31273019313812256
1697664272637918200,10.828918212890626,-1.474651575088501,-9.686447143554688,-0.41050663590431213
1697664272647510800,10.8385107421875,-1.4903637170791626,-9.68021011352539,-0.492676317691803
1697664272657104400,10.8481044921875,-1.5125514268875122,-9.6730375289917,-0.5611757636070251
1697664272666697000,10.857697021484375,-1.5481959581375122,-9.663867950439453,-0.6189630627632141
1697664272676289000,10.8672890625,-1.6012293100357056,-9.651829719543457,-0.6697931885719299
1697664272685881900,10.8768818359375,-1.6761835813522339,-9.635969161987305,-0.7133647203445435
1697664272695475200,10.88647509765625,-1.7711044549942017,-9.615936279296875,-0.7532225847244263
1697664272705068000,10.896068115234375,-1.8890211582183838,-9.590888023376465,-0.785399854183197
1697664272714660000,10.90566015625,-2.027303457260132,-9.559769630432129,-0.8192895650863647
1697664272724252700,10.915252685546875,-2.1714396476745605,-9.524069786071777,-0.8644825220108032
1697664272733846300,10.92484619140625,-2.3075311183929443,-9.486398696899414,-0.9240763187408447
1697664272743438800,10.93443896484375,-2.426694631576538,-9.449535369873047,-0.9938789010047913
1697664272753031000,10.944031005859374,-2.5232505798339844,-9.415999412536621,-1.0689058303833008
1697664272762623700,10.953623779296874,-2.592986583709717,-9.388097763061523,-1.1447374820709229
1697664272772217300,10.96321728515625,-2.6353039741516113,-9.36782169342041,-1.2122154235839844
1697664272781810000,10.972809814453125,-2.648850440979004,-9.357487678527832,-1.2615067958831787
1697664272791402000,10.982402099609375,-2.639453172683716,-9.357368469238281,-1.281921625137329
1697664272800994800,10.991994873046876,-2.614619016647339,-9.364326477050781,-1.282008409500122
1697664272810588200,11.001588134765624,-2.5886788368225098,-9.373793601989746,-1.2653523683547974
1697664272820181000,11.011180908203125,-2.56691837310791,-9.382996559143066,-1.2412502765655518
1697664272829772800,11.020772705078125,-2.551816701889038,-9.389524459838867,-1.2228840589523315
1697664272839365600,11.03036572265625,-2.544473886489868,-9.392382621765137,-1.216222882270813
1697664272848959200,11.039959228515626,-2.548787832260132,-9.390207290649414,-1.223963737487793
1697664272858551800,11.0495517578125,-2.563810110092163,-9.383193016052246,-1.2461766004562378
1697664272868143900,11.059143798828124,-2.5813214778900146,-9.374018669128418,-1.2786476612091064
1697664272877736400,11.068736328125,-2.592345952987671,-9.366331100463867,-1.3122389316558838
1697664272887330000,11.078330078125,-2.5922484397888184,-9.363065719604492,-1.3355339765548706
1697664272896923000,11.0879228515625,-2.579174757003784,-9.365694999694824,-1.342384696006775
1697664272906514700,11.0975146484375,-2.5570693016052246,-9.372976303100586,-1.3338261842727661
1697664272916107500,11.107107421875,-2.5273489952087402,-9.384007453918457,-1.3127431869506836
1697664272925701000,11.116701171875,-2.4866437911987305,-9.39928913116455,-1.2807681560516357
1697664272935293700,11.126293701171875,-2.4355850219726562,-9.41823959350586,-1.2389806509017944
1697664272944885800,11.1358857421875,-2.376748561859131,-9.439644813537598,-1.1893519163131714
1697664272954478600,11.145478515625,-2.3071632385253906,-9.46358871459961,-1.1348416805267334
1697664272964072000,11.155072021484376,-2.2207491397857666,-9.490704536437988,-1.079433560371399
1697664272973664800,11.164664794921874,-2.11601185798645,-9.520309448242188,-1.0279065370559692
1697664272983256600,11.174256591796874,-1.9952285289764404,-9.55138111114502,-0.9800799489021301
1697664272992849400,11.183849365234375,-1.8623747825622559,-9.582423210144043,-0.9376131892204285
1697664273002443000,11.193443115234375,-1.7213466167449951,-9.612250328063965,-0.9011086225509644
1697664273012035600,11.20303564453125,-1.5757243633270264,-9.639816284179688,-0.8725974559783936
1697664273021627600,11.212627685546876,-1.4256353378295898,-9.664678573608398,-0.8555309772491455
1697664273031220200,11.22222021484375,-1.2668672800064087,-9.68667221069336,-0.8566305637359619
1697664273040813800,11.231813720703125,-1.0971378087997437,-9.706058502197266,-0.8712783455848694
1697664273050406700,11.24140673828125,-0.9169804453849792,-9.722416877746582,-0.8967417478561401
1697664273059998500,11.25099853515625,-0.7323911190032959,-9.735121726989746,-0.9281180500984192
1697664273069591300,11.26059130859375,-0.561185896396637,-9.743711471557617,-0.9568456411361694
1697664273079185000,11.270184814453126,-0.41971492767333984,-9.749165534973145,-0.9736568927764893
1697664273088777500,11.279777587890624,-0.3181588649749756,-9.752930641174316,-0.9744166731834412
1697664273098369500,11.28936962890625,-0.26410964131355286,-9.755558967590332,-0.9642199277877808
1697664273107962400,11.29896240234375,-0.2599465548992157,-9.757169723510742,-0.9489194750785828
1697664273117555700,11.3085556640625,-0.2917417883872986,-9.75890827178955,-0.9214105010032654
1697664273127148500,11.3181484375,-0.33322954177856445,-9.762097358703613,-0.8722445368766785
1697664273136740400,11.327740234375,-0.37233126163482666,-9.767282485961914,-0.7949534058570862
1697664273146333200,11.337333251953124,-0.40766122937202454,-9.773748397827148,-0.6913964748382568
1697664273155926800,11.3469267578125,-0.4353615343570709,-9.780510902404785,-0.5678367614746094
1697664273165519400,11.356519287109375,-0.4585022032260895,-9.78632926940918,-0.4334940016269684
1697664273175111400,11.366111328125,-0.4763216972351074,-9.790608406066895,-0.2957998216152191
1697664273184704000,11.3757041015625,-0.4844381511211395,-9.793365478515625,-0.16029678285121918
1697664273194297600,11.385297607421874,-0.4824892282485962,-9.794707298278809,-0.03618991747498512
1697664273203890400,11.394890380859374,-0.4701644778251648,-9.795126914978027,0.06954021006822586
1697664273213482200,11.404482177734375,-0.44893696904182434,-9.795172691345215,0.1531543731689453
1697664273223075000,11.414074951171875,-0.42274293303489685,-9.795225143432617,0.21267181634902954
1697664273232668700,11.423668701171875,-0.39406275749206543,-9.795613288879395,0.24711430072784424
1697664273242261200,11.43326123046875,-0.36417025327682495,-9.796529769897461,0.2564639449119568
1697664273251853300,11.442853271484376,-0.3329525589942932,-9.798002243041992,0.2422829270362854
1697664273261446100,11.452446044921874,-0.3044901192188263,-9.799727439880371,0.20736591517925262
1697664273271039500,11.46203955078125,-0.28806477785110474,-9.801094055175781,0.1611510068178177
1697664273280632300,11.47163232421875,-0.2940041124820709,-9.80167007446289,0.10590347647666931
1697664273290224000,11.48122412109375,-0.32272329926490784,-9.801254272460938,0.040719352662563324
1697664273299817000,11.49081689453125,-0.36859560012817383,-9.799674987792969,-0.02979397028684616
1697664273309410600,11.50041064453125,-0.42444583773612976,-9.796976089477539,-0.09748148173093796
1697664273319003100,11.510003173828125,-0.481376588344574,-9.793645858764648,-0.15225651860237122
1697664273328595200,11.51959521484375,-0.531874418258667,-9.790372848510742,-0.18999159336090088
1697664273338188000,11.52918798828125,-0.5711548924446106,-9.78781795501709,-0.20686118304729462
1697664273347781400,11.538781494140625,-0.5984872579574585,-9.78618049621582,-0.2070544809103012
1697664273357374200,11.548374267578126,-0.6045646071434021,-9.786100387573242,-0.19265571236610413
1697664273366966300,11.55796630859375,-0.579925000667572,-9.787986755371094,-0.17145708203315735
1697664273376558800,11.567558837890624,-0.5271008014678955,-9.791360855102539,-0.14762961864471436
1697664273386152400,11.57715234375,-0.4498205780982971,-9.795550346374512,-0.12351592630147934
1697664273395745000,11.5867451171875,-0.3525528013706207,-9.799793243408203,-0.10078922659158707
1697664273405337000,11.596337158203125,-0.2524518370628357,-9.803037643432617,-0.08428506553173065
1697664273414930000,11.605929931640626,-0.16769206523895264,-9.80500316619873,-0.06471581757068634
1697664273424523500,11.6155234375,-0.11276277899742126,-9.805962562561035,-0.027981409803032875
1697664273434116000,11.6251162109375,-0.09377606213092804,-9.806192398071289,0.0132233165204525
1697664273443708000,11.6347080078125,-0.11426632851362228,-9.805801391601562,0.05986452475190163
1697664273453300700,11.64430078125,-0.157692551612854,-9.804673194885254,0.11795052140951157
1697664273462894300,11.653894287109376,-0.2123999148607254,-9.802906036376953,0.16821597516536713
1697664273472487000,11.66348681640625,-0.2545914649963379,-9.801159858703613,0.2069627195596695
1697664273482079000,11.673078857421874,-0.26782068610191345,-9.799911499023438,0.24575690925121307
1697664273491671600,11.682671630859375,-0.2790696620941162,-9.798413276672363,0.2891516089439392
1697664273501265200,11.69226513671875,-0.32625433802604675,-9.795479774475098,0.3354625403881073
1697664273510858000,11.70185791015625,-0.4098840355873108,-9.791025161743164,0.3717784583568573
1697664273520449800,11.71144970703125,-0.5124685764312744,-9.7855863571167,0.38736921548843384
1697664273530042600,11.721042724609376,-0.6232885122299194,-9.779420852661133,0.3805699646472931
1697664273539636200,11.73063623046875,-0.7344945669174194,-9.772686958312988,0.3542541265487671
1697664273549228800,11.740228759765625,-0.8446126580238342,-9.765257835388184,0.3110489249229431
1697664273558820900,11.74982080078125,-0.959976077079773,-9.75644588470459,0.246132954955101
1697664273568413700,11.75941357421875,-1.084263801574707,-9.74537181854248,0.1499401479959488
1697664273578007000,11.769007080078126,-1.2125778198242188,-9.731371879577637,0.021359965205192566
1697664273587600000,11.778599853515624,-1.3304063081741333,-9.715276718139648,-0.11746971309185028
1697664273597191700,11.788191650390624,-1.4305288791656494,-9.698620796203613,-0.24642907083034515
1697664273606784500,11.797784423828125,-1.5118623971939087,-9.682393074035645,-0.36868196725845337
1697664273616378000,11.807378173828125,-1.5702661275863647,-9.667915344238281,-0.485879510641098
1697664273625970700,11.816970703125,-1.6089506149291992,-9.655696868896484,-0.5909218192100525
1697664273635562800,11.826562744140626,-1.6360803842544556,-9.645063400268555,-0.6829185485839844
1697664273645155600,11.836155517578124,-1.6555153131484985,-9.635847091674805,-0.7616486549377441
1697664273654749000,11.8457490234375,-1.6742603778839111,-9.627191543579102,-0.8273001313209534
1697664273664341800,11.855341796875,-1.6983692646026611,-9.617789268493652,-0.8854822516441345
1697664273673933600,11.86493359375,-1.733945369720459,-9.60650634765625,-0.9374688863754272
1697664273683526400,11.8745263671875,-1.7852740287780762,-9.592305183410645,-0.985327959060669
1697664273693120000,11.8841201171875,-1.854493260383606,-9.574603080749512,-1.028692603111267
1697664273702712600,11.893712646484374,-1.942582368850708,-9.553049087524414,-1.0658361911773682
1697664273712304600,11.9033046875,-2.044373035430908,-9.527497291564941,-1.1035112142562866
1697664273721897500,11.9128974609375,-2.1512067317962646,-9.498885154724121,-1.1462469100952148
1697664273731490800,11.92249072265625,-2.253915548324585,-9.468924522399902,-1.1957087516784668
1697664273741083600,11.932083740234376,-2.34511661529541,-9.440128326416016,-1.2469145059585571
1697664273750675500,11.941675537109376,-2.4210262298583984,-9.41468334197998,-1.2933489084243774
1697664273760268300,11.951268310546874,-2.4825587272644043,-9.393853187561035,-1.3277084827423096
1697664273769862000,11.96086181640625,-2.528141498565674,-9.379128456115723,-1.3456729650497437
1697664273779454500,11.970454345703125,-2.556004285812378,-9.3717679977417,-1.3443188667297363
1697664273789046500,11.980046630859375,-2.5696892738342285,-9.37081527709961,-1.3247277736663818
1697664273798639400,11.989639404296875,-2.5773403644561768,-9.373164176940918,-1.2928638458251953
1697664273808232700,11.999232666015626,-2.589437246322632,-9.374739646911621,-1.2567687034606934
1697664273817825500,12.008825439453124,-2.61177396774292,-9.372682571411133,-1.2254966497421265
1697664273827417300,12.018417236328125,-2.6414127349853516,-9.36703109741211,-1.2050113677978516
1697664273837010200,12.02801025390625,-2.6729044914245605,-9.35875415802002,-1.1998711824417114
1697664273846603800,12.037603759765625,-2.7037293910980225,-9.348299980163574,-1.2122368812561035
1697664273856196400,12.0471962890625,-2.7300190925598145,-9.33707046508789,-1.2395539283752441
1697664273865788400,12.056788330078126,-2.743866205215454,-9.3286714553833,-1.2717994451522827
1697664273875381200,12.06638134765625,-2.7370715141296387,-9.327239990234375,-1.2966912984848022
1697664273884974600,12.075974609375,-2.70902419090271,-9.334148406982422,-1.3058501482009888
1697664273894567400,12.0855673828125,-2.6690962314605713,-9.346726417541504,-1.2980903387069702
1697664273904159200,12.0951591796875,-2.627723455429077,-9.361414909362793,-1.2764694690704346
1697664273913752000,12.104751953125,-2.583348512649536,-9.378389358520508,-1.2419811487197876
1697664273923345700,12.114345703125,-2.5313425064086914,-9.398775100708008,-1.1940333843231201
1697664273932938200,12.123938232421875,-2.471508026123047,-9.422270774841309,-1.1326298713684082
1697664273942530300,12.1335302734375,-2.400740385055542,-9.449110984802246,-1.0588339567184448
1697664273952123100,12.143123046875,-2.3114664554595947,-9.480096817016602,-0.9773762226104736
1697664273961716500,12.152716552734375,-2.199995994567871,-9.514632225036621,-0.8956414461135864
1697664273971309300,12.162309326171876,-2.0710065364837646,-9.550516128540039,-0.817898690700531
1697664273980901000,12.171901123046876,-1.9316436052322388,-9.585472106933594,-0.7469015717506409
1697664273990494000,12.181493896484374,-1.7831178903579712,-9.61853313446045,-0.6889877915382385
1697664274000087600,12.191087646484375,-1.6278318166732788,-9.649216651916504,-0.642788290977478
1697664274009680100,12.20068017578125,-1.4579888582229614,-9.678000450134277,-0.6172250509262085
1697664274019272200,12.210272216796875,-1.2635146379470825,-9.705399513244629,-0.6157353520393372
1697664274028865000,12.219864990234376,-1.0428065061569214,-9.730006217956543,-0.6402549147605896
1697664274038458400,12.229458251953124,-0.807399570941925,-9.749748229980469,-0.6789105534553528
1697664274048051200,12.23905126953125,-0.5825375318527222,-9.762429237365723,-0.725274384021759
1697664274057643000,12.24864306640625,-0.39304354786872864,-9.769024848937988,-0.7629205584526062
1697664274067235800,12.25823583984375,-0.25654762983322144,-9.771855354309082,-0.7844855785369873
1697664274076829400,12.267829345703126,-0.18196338415145874,-9.773731231689453,-0.7819659113883972
1697664274086422000,12.277422119140626,-0.1702122837305069,-9.775760650634766,-0.7589011788368225
1697664274096014000,12.28701416015625,-0.2110106348991394,-9.777122497558594,-0.7305756211280823
1697664274105606700,12.296606689453125,-0.27476733922958374,-9.778939247131348,-0.6835466623306274
1697664274115200300,12.3062001953125,-0.3326756954193115,-9.782232284545898,-0.6063376069068909
1697664274124793000,12.31579296875,-0.37802329659461975,-9.786572456359863,-0.5004889369010925
