time,seconds_elapsed,z,y,x
1697039557370607900,0.07460791015625,9.500460624694824,1.131626009941101,2.1519899368286133
1697039557389442600,0.093442626953125,9.579869270324707,1.1404180526733398,1.7595269680023193
1697039557408277000,0.112277099609375,9.64725112915039,1.1426780223846436,1.3398590087890625
1697039557427111400,0.131111328125,9.629039764404297,1.1927289962768555,1.4245660305023193
1697039557445946400,0.1499462890625,9.621909141540527,1.2527339458465576,1.4212349653244019
1697039557464780500,0.168780517578125,9.609781265258789,1.3263959884643555,1.4363720417022705
1697039557483615200,0.187615234375,9.597067832946777,1.393880009651184,1.4573149681091309
1697039557502449700,0.20644970703125,9.587722778320312,1.4376300573349,1.4762029647827148
1697039557521284000,0.2252841796875,9.582022666931152,1.460610032081604,1.4905860424041748
1697039557540118800,0.244118896484375,9.578275680541992,1.4732099771499634,1.5022239685058594
1697039557558953200,0.262953125,9.572978973388672,1.4921679496765137,1.517199993133545
1697039557577787600,0.28178759765625,9.561079025268555,1.5295929908752441,1.5545079708099365
1697039557596622000,0.3006220703125,9.543815612792969,1.5739409923553467,1.615144968032837
1697039557615456800,0.319456787109375,9.525540351867676,1.6188559532165527,1.6774280071258545
1697039557634291200,0.338291259765625,9.507048606872559,1.6500459909439087,1.7503550052642822
1697039557653126000,0.3571259765625,9.489211082458496,1.6560829877853394,1.8391929864883423
1697039557671960300,0.375960205078125,9.47471809387207,1.6427459716796875,1.9239230155944824
1697039557690794800,0.394794677734375,9.462762832641602,1.6370710134506226,1.9865779876708984
1697039557709629200,0.413629150390625,9.44470500946045,1.6500389575958252,2.060415029525757
1697039557728464000,0.4324638671875,9.415986061096191,1.6562119722366333,2.1832449436187744
1697039557747298300,0.45129833984375,9.38208293914795,1.631322979927063,2.3421568870544434
1697039557766133000,0.470133056640625,9.357621192932129,1.5855180025100708,2.4680869579315186
1697039557784967200,0.48896728515625,9.345941543579102,1.5096379518508911,2.5582680702209473
1697039557803801900,0.5078017578125,9.335799217224121,1.372756004333496,2.6699750423431396
1697039557822636300,0.52663623046875,9.328205108642578,1.162835955619812,2.7933509349823
1697039557841470700,0.545470703125,9.321610450744629,0.9134119749069214,2.9057939052581787
1697039557860305200,0.56430517578125,9.312320709228516,0.6659070253372192,3.0012741088867188
1697039557879139800,0.583139892578125,9.277191162109375,0.4366439878940582,3.148564100265503
1697039557897974300,0.601974365234375,9.318544387817383,-1.5096290111541748,2.6563351154327393
1697039557916808700,0.62080859375,9.235834121704102,-1.6754150390625,2.8394980430603027
1697039557935643400,0.639643310546875,9.102117538452148,-1.847283959388733,3.147913932800293
1697039557954477800,0.658477783203125,8.98017406463623,-2.010050058364868,3.38918399810791
1697039557973312300,0.677312255859375,8.851290702819824,-2.235150098800659,3.581779956817627
1697039557992146700,0.696146728515625,8.718367576599121,-2.4470009803771973,3.7646560668945312
1697039558010981400,0.7149814453125,8.630634307861328,-2.6205239295959473,3.84907603263855
1697039558029816000,0.733816162109375,8.540376663208008,-2.773085117340088,3.942378044128418
1697039558048650200,0.752650146484375,8.416916847229004,-2.9296679496765137,4.091814994812012
1697039558067485000,0.77148486328125,8.282967567443848,-3.1274681091308594,4.216842174530029
1697039558086319000,0.790319091796875,8.14016342163086,-3.4144580364227295,4.271957874298096
1697039558105153800,0.80915380859375,8.054335594177246,-3.7412118911743164,4.1594929695129395
1697039558123988200,0.82798828125,8.034050941467285,-4.022747993469238,3.9296178817749023
1697039558142823000,0.846822998046875,8.088196754455566,-4.181669235229492,3.6421279907226562
1697039558161657300,0.8656572265625,8.236774444580078,-4.145753860473633,3.3374640941619873
1697039558180491800,0.88449169921875,8.425629615783691,-3.9132609367370605,3.1409459114074707
1697039558199326200,0.903326171875,8.555241584777832,-3.632930040359497,3.127305030822754
1697039558218161000,0.922160888671875,8.536551475524902,-3.5204379558563232,3.3021490573883057
1697039558236995300,0.940995361328125,8.43423080444336,-3.626600980758667,3.4470160007476807
1697039558255829800,0.959829833984375,8.345236778259277,-3.8349759578704834,3.4380760192871094
1697039558274664200,0.978664306640625,8.304062843322754,-3.9934279918670654,3.3564069271087646
1697039558293499000,0.997498779296875,8.271957397460938,-4.0416579246521,3.3778860569000244
1697039558312333300,1.016333251953125,8.20230770111084,-3.9803779125213623,3.6123549938201904
1697039558331167700,1.035167724609375,8.112144470214844,-3.8604280948638916,3.931994915008545
1697039558350002200,1.054002197265625,8.037574768066406,-3.769779920578003,4.166116237640381
1697039558368836600,1.072836669921875,8.018410682678223,-3.7781460285186768,4.1953630447387695
1697039558387671300,1.09167138671875,8.042741775512695,-3.8994810581207275,4.034689903259277
1697039558406505700,1.110505615234375,8.053050994873047,-4.11054801940918,3.7976489067077637
1697039558425340400,1.12934033203125,8.002753257751465,-4.256166934967041,3.7431750297546387
1697039558444175000,1.148175048828125,7.984011173248291,-4.329850196838379,3.698425054550171
1697039558463009300,1.16700927734375,8.00948715209961,-4.504035949707031,3.4252231121063232
1697039558481843700,1.18584375,8.072611808776855,-4.757019996643066,2.893799066543579
1697039558500678400,1.204678466796875,8.178051948547363,-4.938929080963135,2.212881088256836
1697039558519512800,1.223512939453125,8.287858963012695,-5.04355001449585,1.4298150539398193
1697039558538347300,1.24234716796875,8.375528335571289,-5.050067901611328,0.7195339798927307
1697039558557182000,1.261181884765625,8.502455711364746,-4.886129856109619,0.06611999869346619
1697039558576016400,1.280016357421875,8.5369291305542,-4.761992931365967,-0.7839900255203247
1697039558594850800,1.298850830078125,8.421202659606934,-4.665831089019775,-1.8664849996566772
1697039558613685200,1.317685302734375,8.179740905761719,-4.563337802886963,-2.9048550128936768
1697039558632520000,1.33652001953125,7.853812217712402,-4.452128887176514,-3.8296959400177
1697039558651354400,1.355354248046875,7.4499311447143555,-4.449071884155273,-4.568880081176758
1697039558670188800,1.374188720703125,6.871119022369385,-4.598176956176758,-5.273980140686035
1697039558689023500,1.3930234375,5.970639228820801,-4.84953498840332,-6.083079814910889
1697039558707858000,1.41185791015625,4.772149085998535,-5.106411933898926,-6.879065990447998
1697039558726692400,1.4306923828125,3.4270570278167725,-5.350329875946045,-7.469916820526123
1697039558745527000,1.449527099609375,1.8171579837799072,-5.659596920013428,-7.799826145172119
1697039558764361500,1.468361572265625,0.04216599836945534,-6.0809550285339355,-7.693543910980225
1697039558783196000,1.48719580078125,-1.065654993057251,-6.364282131195068,-7.384490966796875
1697039558802030300,1.5060302734375,-1.1750869750976562,-6.599608898162842,-7.157843112945557
1697039558820864800,1.52486474609375,-0.944104015827179,-6.930960178375244,-6.873198986053467
1697039558839699200,1.54369921875,-0.6185879707336426,-7.368319034576416,-6.441709041595459
1697039558858534000,1.562533935546875,-0.2264620065689087,-7.824999809265137,-5.9066481590271
1697039558877368300,1.581368408203125,0.03229700028896332,-8.190695762634277,-5.392759799957275
1697039558896202800,1.60020263671875,0.3036249876022339,-8.485610961914062,-4.9063849449157715
1697039558915037200,1.619037109375,0.5369439721107483,-8.730656623840332,-4.433703899383545
1697039558933871900,1.637871826171875,0.6124039888381958,-8.901925086975098,-4.068305969238281
1697039558952706300,1.656706298828125,0.4360480010509491,-8.888789176940918,-4.11942720413208
1697039558971541000,1.675541015625,0.23468899726867676,-8.726522445678711,-4.468010902404785
1697039558990375400,1.69437548828125,0.26316899061203003,-8.624258995056152,-4.660826206207275
1697039559009209900,1.7132099609375,0.26316601037979126,-8.816779136657715,-4.285505771636963
1697039559028044500,1.73204443359375,0.02644900046288967,-8.974246978759766,-3.9538090229034424
1697039559046879000,1.75087890625,-0.3018980026245117,-9.09744930267334,-3.649064064025879
1697039559065713400,1.76971337890625,-0.44824498891830444,-9.195149421691895,-3.379157066345215
1697039559084548000,1.788548095703125,-0.4667060077190399,-9.29170036315918,-3.101106882095337
1697039559103382500,1.807382568359375,-0.559112012386322,-9.385420799255371,-2.7877700328826904
1697039559122217000,1.826217041015625,-0.7483900189399719,-9.523994445800781,-2.2144598960876465
1697039559141051400,1.845051513671875,-0.893805980682373,-9.628385543823242,-1.6326919794082642
1697039559159886000,1.863885986328125,-1.083598017692566,-9.679736137390137,-1.1397089958190918
1697039559178720500,1.882720458984375,-1.2916630506515503,-9.698166847229004,-0.6690269708633423
1697039559197555000,1.901554931640625,-1.3825459480285645,-9.703776359558105,-0.30935201048851013
1697039559216389600,1.9203896484375,-1.3040529489517212,-9.719183921813965,-0.08569400012493134
1697039559235224000,1.93922412109375,-1.2088810205459595,-9.731722831726074,-0.05077999830245972
1697039559254058500,1.95805859375,-1.2061580419540405,-9.731258392333984,-0.13502100110054016
1697039559272893000,1.976892822265625,-1.2643519639968872,-9.723014831542969,-0.1865680068731308
1697039559291727600,1.9957275390625,-1.3213119506835938,-9.715723991394043,-0.17100800573825836
1697039559310562000,2.01456201171875,-1.359112024307251,-9.71147346496582,-0.10248000174760818
1697039559329396700,2.033396728515625,-1.3526300191879272,-9.712841033935547,-0.03891700133681297
1697039559348231200,2.052231201171875,-1.3074560165405273,-9.718998908996582,0.04525500163435936
1697039559367065600,2.071065673828125,-1.2636890411376953,-9.723670959472656,0.15400800108909607
1697039559385900300,2.089900390625,-1.2458479404449463,-9.724980354309082,0.20743900537490845
1697039559404734500,2.108734375,-1.260043978691101,-9.723387718200684,0.19608399271965027
1697039559423569000,2.12756884765625,-1.2654130458831787,-9.72326374053955,0.16513800621032715
1697039559442403600,2.146403564453125,-1.194885015487671,-9.728416442871094,0.31711798906326294
1697039559461238000,2.165238037109375,-1.154731035232544,-9.726495742797852,0.4819439947605133
1697039559480072700,2.18407275390625,-1.1159650087356567,-9.722823143005371,0.6259059906005859
1697039559498907100,2.2029072265625,-1.070531964302063,-9.719712257385254,0.7426570057868958
1697039559517741600,2.221741455078125,-1.0296859741210938,-9.71547794342041,0.8483099937438965
1697039559536576000,2.240575927734375,-0.978227972984314,-9.711677551269531,0.9469969868659973
1697039559555410700,2.25941064453125,-0.9166960120201111,-9.709115982055664,1.0310859680175781
1697039559574245400,2.278245361328125,-0.8395479917526245,-9.708842277526855,1.0972429513931274
1697039559593079600,2.29707958984375,-0.7428579926490784,-9.711746215820312,1.1404199600219727
1697039559611914200,2.315914306640625,-0.6472139954566956,-9.715910911560059,1.1630170345306396
1697039559630748700,2.334748779296875,-0.5602650046348572,-9.719921112060547,1.1745779514312744
1697039559649583000,2.3535830078125,-0.4743170142173767,-9.724424362182617,1.1751600503921509
1697039559668417500,2.37241748046875,-0.39520999789237976,-9.727238655090332,1.1811219453811646
1697039559687252200,2.391252197265625,-0.3322550058364868,-9.728572845458984,1.1894769668579102
1697039559706086700,2.410086669921875,-0.2835310101509094,-9.727482795715332,1.210832953453064
1697039559724921000,2.428921142578125,-0.23875899612903595,-9.72327709197998,1.2535040378570557
1697039559743755800,2.447755859375,-0.1897130012512207,-9.716690063476562,1.3116129636764526
1697039559762590200,2.466590087890625,-0.1327739953994751,-9.711028099060059,1.3596669435501099
1697039559781424600,2.485424560546875,-0.08178099989891052,-9.707456588745117,1.388877034187317
1697039559800259000,2.504259033203125,-0.0406159982085228,-9.703763961791992,1.416229009628296
1697039559819093500,2.523093505859375,-0.000048999998398358,-9.700995445251465,1.4356440305709839
1697039559837928200,2.54192822265625,0.042580001056194305,-9.7004976272583,1.4383840560913086
1697039559856762600,2.5607626953125,0.06980100274085999,-9.701530456542969,1.4303280115127563
1697039559875597600,2.57959765625,0.08562000095844269,-9.700284004211426,1.4378999471664429
1697039559894432000,2.598431884765625,0.10666000097990036,-9.69636344909668,1.4627209901809692
1697039559913266200,2.61726611328125,0.11907099932432175,-9.693205833435059,1.482558012008667
1697039559932100900,2.636100830078125,0.12291699647903442,-9.69257926940918,1.4863380193710327
1697039559950935300,2.654935302734375,0.12479700148105621,-9.691652297973633,1.4922120571136475
1697039559969769700,2.673769775390625,0.14214499294757843,-9.68777847290039,1.5156430006027222
1697039559988604400,2.6926044921875,0.18067899346351624,-9.682411193847656,1.5455260276794434
1697039560007438800,2.71143896484375,0.23683500289916992,-9.677908897399902,1.5660170316696167
1697039560026273500,2.7302734375,0.28088000416755676,-9.676816940307617,1.5654770135879517
1697039560045107700,2.749107666015625,0.29965800046920776,-9.676770210266113,1.5622769594192505
1697039560063942400,2.7679423828125,0.31360098719596863,-9.677359580993652,1.55587899684906
1697039560082776800,2.78677685546875,0.338018000125885,-9.678801536560059,1.541725993156433
1697039560101611300,2.805611328125,0.38502201437950134,-9.679265975952148,1.5277279615402222
1697039560120445700,2.82444580078125,0.4243049919605255,-9.679025650024414,1.51882004737854
1697039560139280600,2.84328076171875,0.44162100553512573,-9.675387382507324,1.5369659662246704
1697039560158115000,2.862114990234375,0.450778990983963,-9.671772956848145,1.5569250583648682
1697039560176949500,2.880949462890625,0.46529799699783325,-9.668381690979004,1.5736279487609863
1697039560195784000,2.899783935546875,0.504364013671875,-9.662629127502441,1.5967530012130737
1697039560214618400,2.918618408203125,0.5802209973335266,-9.65298080444336,1.6290169954299927
1697039560233453000,2.937453125,0.6751739978790283,-9.64419937133789,1.6443769931793213
1697039560252287500,2.95628759765625,0.7521820068359375,-9.640660285949707,1.6316499710083008
1697039560271122200,2.9751220703125,0.7903749942779541,-9.642148971557617,1.604580044746399
1697039560289956600,2.99395654296875,0.8068410158157349,-9.64730167388916,1.5649319887161255
1697039560308791000,3.012791015625,0.8178849816322327,-9.652121543884277,1.529049038887024
1697039560327625500,3.03162548828125,0.8766499757766724,-9.650775909423828,1.504796028137207
1697039560346460200,3.050460205078125,0.9409139752388,-9.647706985473633,1.4855509996414185
1697039560365294600,3.069294677734375,1.0208220481872559,-9.6427001953125,1.4651440382003784
1697039560384129300,3.08812939453125,1.1059420108795166,-9.63869857788086,1.4292579889297485
1697039560402963700,3.106963623046875,1.1594129800796509,-9.638752937316895,1.3858530521392822
1697039560421798100,3.125798095703125,1.2357640266418457,-9.634427070617676,1.3494789600372314
1697039560440632600,3.144632568359375,1.3835660219192505,-9.622483253479004,1.2899459600448608
1697039560459467000,3.163467041015625,1.513375997543335,-9.614595413208008,1.1998519897460938
1697039560478301700,3.1823017578125,1.6029510498046875,-9.613316535949707,1.088629961013794
1697039560497136000,3.20113623046875,1.7254999876022339,-9.60646915435791,0.9533079862594604
1697039560515970800,3.219970703125,1.8496439456939697,-9.594862937927246,0.8293520212173462
1697039560534805200,3.23880517578125,1.8922990560531616,-9.595738410949707,0.7151349782943726
1697039560553639700,3.2576396484375,1.9010299444198608,-9.602106094360352,0.5966989994049072
1697039560572474000,3.27647412109375,1.9801989793777466,-9.592157363891602,0.4896309971809387
1697039560591308500,3.29530859375,2.1249070167541504,-9.566885948181152,0.3603630065917969
1697039560610143200,3.314143310546875,2.2611351013183594,-9.540122985839844,0.20911599695682526
1697039560628977700,3.332977783203125,2.435784101486206,-9.499258041381836,0.03813600167632103
1697039560647812000,3.35181201171875,2.555025100708008,-9.46682357788086,-0.14670200645923615
1697039560666646800,3.370646728515625,2.6272571086883545,-9.44139289855957,-0.3577750027179718
1697039560685481200,3.389481201171875,2.6992011070251465,-9.410150527954102,-0.5777220129966736
1697039560704316000,3.40831591796875,2.7998769283294678,-9.367445945739746,-0.7629140019416809
1697039560723150000,3.427150146484375,2.872680902481079,-9.334062576293945,-0.8907210230827332
1697039560741984500,3.445984619140625,2.962467908859253,-9.296030044555664,-0.9889460206031799
1697039560760819500,3.4648193359375,3.085491895675659,-9.236955642700195,-1.152732014656067
1697039560779654000,3.48365380859375,3.218803882598877,-9.163352966308594,-1.3574490547180176
1697039560798488300,3.50248828125,3.217602014541626,-9.1250581741333,-1.5971039533615112
1697039560817323000,3.521322998046875,3.274765968322754,-9.06653881072998,-1.8011560440063477
1697039560836157700,3.54015771484375,3.355168104171753,-8.997182846069336,-1.9909679889678955
1697039560854992000,3.558991943359375,3.504098892211914,-8.891557693481445,-2.1981570720672607
1697039560873826600,3.57782666015625,3.5372869968414307,-8.814289093017578,-2.442605972290039
1697039560892661000,3.596660888671875,3.5618889331817627,-8.719831466674805,-2.72908091545105
1697039560911495400,3.615495361328125,3.6215569972991943,-8.595037460327148,-3.0298619270324707
1697039560930330000,3.634330078125,3.6717491149902344,-8.442692756652832,-3.377810001373291
1697039560949164500,3.65316455078125,3.67331600189209,-8.273639678955078,-3.7714691162109375
1697039560967999200,3.671999267578125,3.775131940841675,-8.066726684570312,-4.104471206665039
1697039560986833700,3.690833740234375,3.893048048019409,-7.8552632331848145,-4.394248962402344
1697039561005668000,3.709668212890625,3.872281074523926,-7.692056179046631,-4.691279888153076
1697039561024502500,3.72850244140625,3.9150359630584717,-7.495693206787109,-4.965625762939453
1697039561043337000,3.7473369140625,4.083423137664795,-7.312100887298584,-5.1018829345703125
1697039561062171600,3.766171630859375,4.26568078994751,-6.975822925567627,-5.414078235626221
1697039561081006300,3.78500634765625,4.530860900878906,-6.5866241455078125,-5.679616928100586
1697039561099840800,3.8038408203125,4.959345817565918,-6.340689182281494,-5.60097599029541
1697039561118675200,3.82267529296875,5.364174842834473,-5.833212852478027,-5.776647090911865
1697039561137509600,3.841509521484375,5.817050933837891,-5.265124797821045,-5.883092880249023
1697039561156344300,3.86034423828125,6.1083598136901855,-4.707083225250244,-6.058191776275635
1697039561175178800,3.8791787109375,6.240559101104736,-4.177824020385742,-6.306471824645996
1697039561194013400,3.898013427734375,6.476937770843506,-3.5428640842437744,-6.455057144165039
1697039561212847900,3.916847900390625,6.777872085571289,-2.8021559715270996,-6.509897232055664
1697039561231682600,3.9356826171875,7.11306619644165,-2.0982298851013184,-6.416549205780029
1697039561250516700,3.954516845703125,7.38332986831665,-1.4887239933013916,-6.280168056488037
1697039561269351200,3.97335107421875,7.438877105712891,-1.0153230428695679,-6.30893087387085
1697039561288185900,3.992185791015625,7.274681091308594,-0.6847869753837585,-6.540678024291992
1697039561307020300,4.011020263671875,7.04894495010376,-0.4357230067253113,-6.803890228271484
1697039561325855000,4.02985498046875,6.8100080490112305,-0.19494900107383728,-7.053804874420166
1697039561344689400,4.048689453125,6.501690864562988,0.0008140000281855464,-7.341551780700684
1697039561363523800,4.06752392578125,6.132775783538818,0.3820880055427551,-7.642868995666504
1697039561382358500,4.086358642578125,6.001032829284668,1.5209230184555054,-7.605575084686279
1697039561401193000,4.10519287109375,5.962242126464844,1.8511090278625488,-7.562767028808594
1697039561420027600,4.124027587890625,5.577579975128174,1.8167450428009033,-7.8587799072265625
1697039561438862000,4.142862060546875,5.415825843811035,1.7124700546264648,-7.994163990020752
1697039561457696500,4.161696533203125,5.0958170890808105,1.6652120351791382,-8.211584091186523
1697039561476531000,4.180531005859375,4.834414958953857,1.559067964553833,-8.388570785522461
1697039561495365600,4.19936572265625,4.715641975402832,1.3160330057144165,-8.497127532958984
1697039561514200000,4.218199951171875,4.639270782470703,0.9788320064544678,-8.584256172180176
1697039561533034500,4.237034423828125,4.663643836975098,0.6284459829330444,-8.603829383850098
1697039561551869000,4.255868896484375,4.733870983123779,0.3224189877510071,-8.58236026763916
1697039561570703400,4.274703369140625,4.876067161560059,0.07091700285673141,-8.508191108703613
1697039561589538000,4.2935380859375,5.003442764282227,-0.07816100120544434,-8.43385124206543
1697039561608372500,4.31237255859375,5.22213077545166,-0.04340500012040138,-8.3004732131958
1697039561627207200,4.331207275390625,5.32818078994751,-0.02517700009047985,-8.23287582397461
1697039561646041900,4.350041748046875,5.371171951293945,0.05364599823951721,-8.204755783081055
1697039561664876000,4.3688759765625,5.470815181732178,0.1866620033979416,-8.136690139770508
1697039561683710700,4.387710693359375,5.547530174255371,0.3177120089530945,-8.080492973327637
1697039561702545200,4.406545166015625,5.609896183013916,0.4163169860839844,-8.032815933227539
1697039561721379600,4.425379638671875,5.702077865600586,0.4401029944419861,-7.966366767883301
1697039561740214300,4.44421435546875,5.831242084503174,0.42329901456832886,-7.87323522567749
1697039561759048700,4.463048583984375,5.995575904846191,0.4395560026168823,-7.747919082641602
1697039561777883100,4.481883056640625,6.171419143676758,0.4790540039539337,-7.606213092803955
1697039561796717800,4.5007177734375,6.335428237915039,0.5082849860191345,-7.468225955963135
1697039561815552500,4.519552490234375,6.440118789672852,0.509630024433136,-7.378043174743652
1697039561834387000,4.538386962890625,6.524744987487793,0.4878470003604889,-7.3047990798950195
1697039561853221400,4.557221435546875,6.622743129730225,0.4806379973888397,-7.216554164886475
1697039561872056000,4.57605615234375,6.711883068084717,0.5430799722671509,-7.129240989685059
1697039561890890500,4.594890380859375,6.773726940155029,0.6287609934806824,-7.063403129577637
1697039561909725000,4.613724853515625,6.785124778747559,0.6612340211868286,-7.049483776092529
1697039561928559400,4.632559326171875,6.785303115844727,0.6624619960784912,-7.049198150634766
1697039561947393800,4.651393798828125,6.779040813446045,0.65836501121521,-7.055604934692383
1697039561966228200,4.670228271484375,6.785050868988037,0.6509429812431335,-7.050512790679932
1697039561985063000,4.68906298828125,6.790938854217529,0.637037992477417,-7.046113967895508
1697039562003897300,4.7078974609375,6.8056721687316895,0.6177930235862732,-7.033602237701416
1697039562022731800,4.726731689453125,6.818447113037109,0.5886300206184387,-7.023722171783447
1697039562041566500,4.74556640625,6.783019065856934,0.6170099973678589,-7.055519104003906
1697039562060401200,4.764401123046875,6.684933185577393,0.6313570141792297,-7.147268772125244
1697039562079235600,4.783235595703125,6.53518009185791,0.6499019861221313,-7.282817840576172
1697039562098070000,4.802070068359375,6.418130874633789,0.7005289793014526,-7.381547927856445
1697039562116904400,4.820904541015625,6.362267971038818,0.7173020243644714,-7.428150177001953
1697039562135739400,4.839739501953125,6.30736780166626,0.6927980184555054,-7.477132797241211
1697039562154573800,4.85857373046875,6.286005973815918,0.7071539759635925,-7.49376106262207
1697039562173408300,4.877408203125,6.253471851348877,0.7053880095481873,-7.521097183227539
1697039562192242700,4.89624267578125,6.208737850189209,0.698993980884552,-7.558661937713623
1697039562211077000,4.9150771484375,6.159864902496338,0.723924994468689,-7.596208095550537
1697039562229911800,4.933911865234375,6.1406049728393555,0.7602919936180115,-7.608240127563477
1697039562248746200,4.952746337890625,6.1479811668396,0.7652320265769958,-7.6017842292785645
1697039562267581000,4.971580810546875,6.150627136230469,0.7677839994430542,-7.599387168884277
1697039562286415400,4.990415283203125,6.115094184875488,0.7862870097160339,-7.626122951507568
1697039562305249800,5.009249755859375,6.080321788787842,0.8242530226707458,-7.649880886077881
1697039562324084500,5.02808447265625,6.052000045776367,0.8531309962272644,-7.669147968292236
1697039562342919000,5.0469189453125,6.014380931854248,0.8583059906959534,-7.6981120109558105
1697039562361753600,5.065753662109375,6.020116806030273,0.8475990295410156,-7.694814205169678
1697039562380588000,5.084588134765625,6.007772922515869,0.8365769982337952,-7.705659866333008
1697039562399422500,5.10342236328125,5.987692832946777,0.8472790122032166,-7.720107078552246
1697039562418257200,5.122257080078125,5.9463911056518555,0.8684999942779541,-7.7496137619018555
1697039562437091300,5.14109130859375,5.896697998046875,0.8846120238304138,-7.785679817199707
1697039562455926300,5.15992626953125,5.913133144378662,0.8955169916152954,-7.771955966949463
1697039562474760700,5.1787607421875,5.918139934539795,0.8873370289802551,-7.769082069396973
1697039562493595100,5.19759521484375,5.910256862640381,0.8887069821357727,-7.774925231933594
1697039562512429600,5.2164296875,5.915629863739014,0.8892099857330322,-7.770779132843018
1697039562531264000,5.235263916015625,5.910921096801758,0.9061040282249451,-7.772411823272705
1697039562550098700,5.2540986328125,5.938780784606934,0.9231770038604736,-7.749129772186279
1697039562568933000,5.27293310546875,5.959065914154053,0.9218419790267944,-7.733701229095459
1697039562587767800,5.291767822265625,5.968710899353027,0.914903998374939,-7.727083206176758
1697039562606602200,5.310602294921875,5.979609966278076,0.9213200211524963,-7.717889785766602
1697039562625437000,5.32943701171875,5.979376792907715,0.9388779997825623,-7.715953826904297
1697039562644271400,5.348271240234375,5.967628002166748,0.9656360149383545,-7.721745014190674
1697039562663105800,5.367105712890625,5.948935031890869,0.9778310060501099,-7.734623908996582
1697039562681940200,5.385940185546875,5.92538595199585,0.9889019727706909,-7.751275062561035
1697039562700775000,5.40477490234375,5.937005996704102,0.9951990246772766,-7.741570949554443
1697039562719609300,5.423609375,5.921672821044922,0.9782029986381531,-7.755468845367432
1697039562738444000,5.442444091796875,5.902181148529053,0.9681749939918518,-7.771568775177002
1697039562757278500,5.461278564453125,5.865077018737793,0.9581680297851562,-7.800842761993408
1697039562776113200,5.480113037109375,5.812868118286133,0.9589729905128479,-7.839727878570557
1697039562794947600,5.498947509765625,5.790513038635254,0.9649789929389954,-7.855518817901611
1697039562813782000,5.517781982421875,5.791186809539795,0.9775599837303162,-7.8534650802612305
1697039562832617000,5.536616943359375,5.821560859680176,0.9812610149383545,-7.830513954162598
1697039562851451100,5.555451171875,5.849384784698486,0.9800959825515747,-7.809895992279053
1697039562870285800,5.574285888671875,5.878650188446045,0.9902390241622925,-7.786609172821045
1697039562889120300,5.593120361328125,5.899506092071533,0.9992250204086304,-7.769670009613037
1697039562907954700,5.61195458984375,5.911870956420898,1.0361679792404175,-7.75541877746582
1697039562926789400,5.630789306640625,5.9181342124938965,1.0618159770965576,-7.747168064117432
1697039562945624000,5.6496240234375,5.912108898162842,1.0606069564819336,-7.7519330978393555
1697039562964458500,5.66845849609375,5.931225776672363,1.0771130323410034,-7.7350358963012695
1697039562983293000,5.68729296875,5.948896884918213,1.0928150415420532,-7.719245910644531
1697039563002127400,5.70612744140625,5.947756767272949,1.0983020067214966,-7.719346046447754
1697039563020961800,5.7249619140625,5.93770694732666,1.0578099489212036,-7.732726097106934
1697039563039796500,5.74379638671875,5.930490970611572,1.0685869455337524,-7.736781120300293
1697039563058631000,5.762630859375,5.918186187744141,1.1037969589233398,-7.7412590980529785
1697039563077465600,5.781465576171875,5.868995189666748,1.0987110137939453,-7.7793378829956055
1697039563096300000,5.800300048828125,5.8407721519470215,1.0727250576019287,-7.804168224334717
1697039563115134700,5.819134765625,5.866396903991699,1.050091028213501,-7.788006782531738
1697039563133969200,5.83796923828125,5.88039493560791,1.017896056175232,-7.7817230224609375
1697039563152803600,5.856803466796875,5.871178150177002,1.0007719993591309,-7.79089879989624
1697039563171638000,5.875637939453125,5.8442559242248535,1.004338026046753,-7.810657978057861
1697039563190472700,5.89447265625,5.821417808532715,0.9813420176506042,-7.8306097984313965
1697039563209307400,5.913307373046875,5.834082126617432,0.9595109820365906,-7.823886871337891
1697039563228141800,5.932141845703125,5.850103855133057,0.9352239966392517,-7.814858913421631
1697039563246976300,5.950976318359375,5.849671840667725,0.9150030016899109,-7.817575931549072
1697039563265811000,5.96981103515625,5.843577861785889,0.8775929808616638,-7.826417922973633
1697039563284645400,5.988645263671875,5.8367719650268555,0.8425229787826538,-7.8353447914123535
1697039563303479800,6.007479736328125,5.853817939758301,0.8128870129585266,-7.825753211975098
1697039563322314500,6.026314453125,5.879762172698975,0.8046360015869141,-7.80713415145874
1697039563341149000,6.04514892578125,5.896149158477783,0.7718020081520081,-7.7980852127075195
1697039563359983400,6.0639833984375,5.908690929412842,0.7218430042266846,-7.7933759689331055
1697039563378818000,6.082818115234375,5.913562774658203,0.6665480136871338,-7.794604778289795
1697039563397652700,6.10165283203125,5.917381763458252,0.6329969763755798,-7.794504165649414
1697039563416487200,6.120487060546875,5.948208808898926,0.6236109733581543,-7.771762847900391
1697039563435321900,6.13932177734375,5.974212169647217,0.6251159906387329,-7.751670837402344
1697039563454156300,6.15815625,6.0216779708862305,0.5903599858283997,-7.717593193054199
1697039563472990700,6.17699072265625,6.078729152679443,0.538578987121582,-7.676547050476074
1697039563491825200,6.1958251953125,6.132246017456055,0.5096200108528137,-7.63585090637207
1697039563510659800,6.214659912109375,6.154722213745117,0.5019260048866272,-7.618257999420166
1697039563529494300,6.233494384765625,6.238269805908203,0.5063089728355408,-7.549703121185303
1697039563548329000,6.252328857421875,6.3257222175598145,0.5147669911384583,-7.476004123687744
1697039563567163400,6.271163330078125,6.434375762939453,0.48400500416755676,-7.3847761154174805
1697039563585998000,6.289998046875,6.519071102142334,0.45211198925971985,-7.312161922454834
1697039563604832500,6.30883251953125,6.5819010734558105,0.44012001156806946,-7.256393909454346
1697039563623667000,6.3276669921875,6.6415228843688965,0.4599030017852783,-7.20062780380249
1697039563642501600,6.346501708984375,6.681078910827637,0.467958003282547,-7.163418769836426
1697039563661336300,6.36533642578125,6.713712215423584,0.38650399446487427,-7.137722015380859
1697039563680170800,6.384170654296875,6.735777854919434,0.5001879930496216,-7.109817028045654
1697039563699005200,6.403005126953125,6.81244421005249,0.5002350211143494,-7.036386966705322
1697039563717839600,6.421839599609375,6.900516033172607,0.4891270101070404,-6.9508280754089355
1697039563736674300,6.44067431640625,7.011261940002441,0.46546098589897156,-6.840755939483643
1697039563755509000,6.459509033203125,7.011481761932373,0.4818679988384247,-6.839393138885498
1697039563774343700,6.47834375,7.1324567794799805,0.48680898547172546,-6.712782859802246
1697039563793177900,6.497177734375,7.269505023956299,0.4192200005054474,-6.568784236907959
1697039563812012500,6.516012451171875,7.338648796081543,0.40269601345062256,-6.492493152618408
1697039563830847000,6.534846923828125,7.382331848144531,0.32080599665641785,-6.4473748207092285
1697039563849681400,6.553681396484375,7.434399127960205,0.2513439953327179,-6.390377998352051
1697039563868516000,6.57251611328125,7.590932846069336,0.1024319976568222,-6.207869052886963
1697039563887350800,6.591350830078125,7.660017967224121,0.03888300061225891,-6.123153209686279
1697039563906185200,6.610185302734375,7.692324161529541,0.002563999965786934,-6.082640171051025
1697039563925019600,6.62901953125,7.70953893661499,-0.01064400002360344,-6.060800075531006
1697039563943854000,6.64785400390625,7.777277946472168,-0.09481900185346603,-5.972883224487305
1697039563962688800,6.666688720703125,7.79379415512085,-0.1819159984588623,-5.949289798736572
1697039563981523200,6.685523193359375,7.751156806945801,-0.33146199584007263,-5.998342037200928
1697039564000358000,6.70435791015625,7.738709926605225,-0.4117810130119324,-6.009426116943359
1697039564019192300,6.7231923828125,7.739820957183838,-0.28790000081062317,-6.015202045440674
1697039564038027000,6.742027099609375,7.74793004989624,-0.25848400592803955,-6.006091117858887
1697039564056861400,6.760861328125,7.747399806976318,-0.2392980009317398,-6.007572174072266
1697039564075695900,6.77969580078125,7.751826763153076,-0.2879840135574341,-5.999718189239502
1697039564094530800,6.79853076171875,7.793109893798828,-0.30875301361083984,-5.944954872131348
1697039564113365200,6.817365234375,7.838746070861816,-0.3461509943008423,-5.882569789886475
1697039564132199700,6.83619970703125,7.86309814453125,-0.29725998640060425,-5.852664947509766
1697039564151034000,6.8550341796875,7.819532871246338,-0.2542620003223419,-5.912751197814941
1697039564169868800,6.873868896484375,7.840386867523193,-0.27624499797821045,-5.884079933166504
1697039564188703200,6.892703125,7.858344078063965,-0.3017520010471344,-5.858819007873535
1697039564207538000,6.911537841796875,7.893791198730469,-0.35068899393081665,-5.808222770690918
1697039564226372600,6.93037255859375,7.939462184906006,-0.4412569999694824,-5.739390850067139
1697039564245207000,6.94920703125,8.10423755645752,-0.6067479848861694,-5.488493919372559
1697039564264041500,6.96804150390625,8.237489700317383,-0.8574439883232117,-5.251564025878906
1697039564282876000,6.9868759765625,8.144448280334473,-0.9043220281600952,-5.387071132659912
1697039564301710300,7.00571044921875,8.038105964660645,-0.8212599754333496,-5.557406902313232
1697039564320545300,7.024545166015625,7.8081278800964355,-0.44885700941085815,-5.916252136230469
1697039564339379700,7.043379638671875,7.723690986633301,-0.0767429992556572,-6.042275905609131
1697039564358214100,7.062214111328125,7.792421817779541,-0.20643700659275055,-5.950288772583008
1697039564377048800,7.081048828125,7.789443016052246,-0.3061549961566925,-5.949893951416016
1697039564395883500,7.099883544921875,7.808631896972656,-0.4101890027523041,-5.918394088745117
1697039564414718000,7.118718017578125,7.866084098815918,-0.561083972454071,-5.829261779785156
1697039564433552600,7.137552734375,7.914955139160156,-0.66526198387146,-5.751634120941162
1697039564452387000,7.156386962890625,7.939183235168457,-0.6314229965209961,-5.721980094909668
1697039564471221500,7.175221435546875,7.980528831481934,-0.6812000274658203,-5.658402919769287
1697039564490056200,7.19405615234375,8.001304626464844,-0.6707249879837036,-5.630241870880127
1697039564508891000,7.212890869140625,8.02431583404541,-0.62676602602005,-5.6024909019470215
1697039564527725300,7.231725341796875,8.048236846923828,-0.5220810174942017,-5.578863143920898
1697039564546559700,7.250559814453125,8.162152290344238,-0.40969398617744446,-5.420497894287109
1697039564565394400,7.26939453125,8.255703926086426,-0.4303649961948395,-5.27527379989624
1697039564584228900,7.288228759765625,8.264080047607422,-0.40608900785446167,-5.264071941375732
1697039564603063300,7.307063232421875,8.263047218322754,-0.39411699771881104,-5.266602039337158
1697039564621898000,7.32589794921875,8.277685165405273,-0.4064050018787384,-5.242626190185547
1697039564640732400,7.344732421875,8.298521995544434,-0.44158801436424255,-5.206717014312744
1697039564659567000,7.363567138671875,8.330138206481934,-0.4664109945297241,-5.153799057006836
1697039564678401500,7.382401611328125,8.378328323364258,-0.43906301259994507,-5.077520847320557
1697039564697236000,7.401236083984375,8.414324760437012,-0.426937997341156,-5.018691062927246
1697039564716070700,7.420070556640625,8.438138961791992,-0.3979569971561432,-4.980947971343994
1697039564734905000,7.438905029296875,8.482279777526855,-0.39284899830818176,-4.905810832977295
1697039564753739800,7.45773974609375,8.50951862335205,-0.43551701307296753,-4.854772090911865
1697039564772574500,7.476574462890625,8.60024642944336,-0.4351699948310852,-4.69220495223999
1697039564791409000,7.495408935546875,8.666328430175781,-0.4110249876976013,-4.571235179901123
1697039564810243300,7.514243408203125,8.708390235900879,-0.3412480056285858,-4.496429920196533
1697039564829078000,7.533078125,8.737041473388672,-0.40119698643684387,-4.435486793518066
1697039564847912400,7.551912353515625,8.768326759338379,-0.35343098640441895,-4.377429962158203
1697039564866747100,7.5707470703125,8.857902526855469,-0.25068598985671997,-4.200610160827637
1697039564885581600,7.58958154296875,8.941909790039062,-0.332643985748291,-4.012730121612549
1697039564904416300,7.608416259765625,8.927799224853516,-0.3862999975681305,-4.039253234863281
1697039564923250700,7.627250732421875,8.975138664245605,-0.3640879988670349,-3.9350619316101074
1697039564942085400,7.64608544921875,8.998624801635742,-0.33160001039505005,-3.883963108062744
1697039564960920000,7.664920166015625,9.042051315307617,-0.26339098811149597,-3.787126064300537
1697039564979754500,7.68375439453125,9.170428276062012,-0.16545900702476501,-3.470771074295044
1697039564998589000,7.7025888671875,9.33286190032959,-0.13433699309825897,-3.008327007293701
1697039565017423400,7.72142333984375,9.419940948486328,-0.19363200664520264,-2.7198541164398193
1697039565036258000,7.740258056640625,9.427197456359863,-0.3087390065193176,-2.6838419437408447
1697039565055092500,7.759092529296875,9.394916534423828,-0.4372979998588562,-2.777534008026123
1697039565073927000,7.777927001953125,9.455103874206543,-0.5129830241203308,-2.551126003265381
1697039565092761600,7.79676171875,9.628966331481934,-0.48120200634002686,-1.7949509620666504
1697039565111596300,7.81559619140625,9.727289199829102,-0.3409779965877533,-1.197471022605896
1697039565130430700,7.8344306640625,9.746683120727539,-0.3796449899673462,-1.0141149759292603
1697039565149265400,7.853265380859375,9.720590591430664,-0.5925469994544983,-1.1529910564422607
1697039565168099800,7.872099853515625,9.687485694885254,-0.8460959792137146,-1.2677290439605713
1697039565186934500,7.8909345703125,9.709811210632324,-1.003466010093689,-0.9396860003471375
1697039565205769000,7.90976904296875,9.736104965209961,-1.0614579916000366,-0.5019339919090271
1697039565224603600,7.928603759765625,9.72511100769043,-1.2352310419082642,-0.2584739923477173
1697039565243438000,7.94743798828125,9.678298950195312,-1.5623409748077393,-0.24493800103664398
1697039565262272500,7.9662724609375,9.624561309814453,-1.8779339790344238,-0.1075339987874031
1697039565281107200,7.985107177734375,9.564666748046875,-2.159959077835083,0.14870700240135193
1697039565299942000,8.00394189453125,9.47934627532959,-2.4740591049194336,0.43751901388168335
1697039565318776600,8.022776611328124,9.367526054382324,-2.791145086288452,0.7933139801025391
1697039565337611000,8.041611083984375,9.241331100463867,-3.0577430725097656,1.190953016281128
1697039565356445400,8.060445556640625,9.079673767089844,-3.304677963256836,1.6760059595108032
1697039565375279900,8.07927978515625,8.872578620910645,-3.603132963180542,2.113095998764038
1697039565394114800,8.09811474609375,8.658151626586914,-3.9049479961395264,2.4409379959106445
1697039565412949200,8.11694921875,8.472857475280762,-4.1667680740356445,2.6493630409240723
1697039565431784000,8.135783935546876,8.337631225585938,-4.33730411529541,2.8003718852996826
1697039565450618400,8.154618408203126,8.25858211517334,-4.412906169891357,2.9141829013824463
1697039565469452800,8.173452880859376,8.259195327758789,-4.388628959655762,2.948899030685425
1697039565488287200,8.192287353515624,8.27547836303711,-4.314577102661133,3.0118560791015625
1697039565507122000,8.211121826171874,8.273119926452637,-4.275296211242676,3.073714017868042
