time,seconds_elapsed,z,y,x
1697039557370607900,0.07460791015625,-0.25753748416900635,0.21092499792575836,0.2609750032424927
1697039557389442600,0.093442626953125,-0.25519999861717224,0.3404499888420105,0.16568750143051147
1697039557408277000,0.112277099609375,-0.17820000648498535,0.2903999984264374,0.16197499632835388
1697039557427111400,0.131111328125,-0.06091250106692314,0.11687500029802322,0.2512125074863434
1697039557445946400,0.1499462890625,-0.08772499859333038,-0.055412501096725464,0.3562625050544739
1697039557464780500,0.168780517578125,-0.18796250224113464,-0.13846249878406525,0.3843125104904175
1697039557483615200,0.187615234375,-0.22453749179840088,-0.15070000290870667,0.2915000021457672
1697039557502449700,0.20644970703125,-0.20996250212192535,-0.13474999368190765,0.15097500383853912
1697039557521284000,0.2252841796875,-0.17201249301433563,-0.10175000131130219,0.06187500059604645
1697039557540118800,0.244118896484375,-0.09748750180006027,-0.082225002348423,0.04839999973773956
1697039557558953200,0.262953125,0.005087499972432852,-0.11769999563694,0.1424500048160553
1697039557577787600,0.28178759765625,0.008799999952316284,-0.28380000591278076,0.23292499780654907
1697039557596622000,0.3006220703125,-0.049912501126527786,-0.36079999804496765,0.24268749356269836
1697039557615456800,0.319456787109375,-0.09019999951124191,-0.38651248812675476,0.21449999511241913
1697039557634291200,0.338291259765625,-0.1414874941110611,-0.4670875072479248,0.09844999760389328
1697039557653126000,0.3571259765625,-0.12319999933242798,-0.5550875067710876,-0.06159999966621399
1697039557671960300,0.375960205078125,0.013612499460577965,-0.4230875074863434,-0.0798875018954277
1697039557690794800,0.394794677734375,0.10408750176429749,-0.31679999828338623,0.022687500342726707
1697039557709629200,0.413629150390625,0.0625625029206276,-0.48785001039505005,0.10944999754428864
1697039557728464000,0.4324638671875,0.1541374921798706,-0.8324249982833862,-0.006599999964237213
1697039557747298300,0.45129833984375,0.17861250042915344,-0.8335250020027161,-0.15193749964237213
1697039557766133000,0.470133056640625,0.20184999704360962,-0.5746124982833862,-0.2619374990463257
1697039557784967200,0.48896728515625,0.23237499594688416,-0.47932499647140503,-0.4805625081062317
1697039557803801900,0.5078017578125,0.25437501072883606,-0.6771875023841858,-0.8874250054359436
1697039557822636300,0.52663623046875,0.4729999899864197,-0.6381375193595886,-1.1977624893188477
1697039557841470700,0.545470703125,0.7442874908447266,-0.4291374981403351,-1.2075250148773193
1697039557860305200,0.56430517578125,0.9103875160217285,-0.6014249920845032,-1.0854250192642212
1697039557879139800,0.583139892578125,1.069200038909912,-0.9202874898910522,-0.9253749847412109
1697039557897974300,0.601974365234375,1.301300048828125,-1.135337471961975,-0.7616124749183655
1697039557916808700,0.62080859375,1.521299958229065,-1.463962435722351,-0.5856124758720398
1697039557935643400,0.639643310546875,1.7069250345230103,-1.5837249755859375,-0.49527499079704285
1697039557954477800,0.658477783203125,2.02097487449646,-1.5262500047683716,-0.5075125098228455
1697039557973312300,0.677312255859375,2.3971750736236572,-1.8072999715805054,-0.40851250290870667
1697039557992146700,0.696146728515625,2.9677999019622803,-1.7595875263214111,0.07163749635219574
1697039558010981400,0.7149814453125,3.5541000366210938,-1.4187250137329102,0.5945500135421753
1697039558029816000,0.733816162109375,3.723912477493286,-2.0076375007629395,0.7654625177383423
1697039558048650200,0.752650146484375,3.444237470626831,-2.1029250621795654,0.6335999965667725
1697039558067485000,0.77148486328125,3.7679123878479004,-2.1334500312805176,0.4235000014305115
1697039558086319000,0.790319091796875,4.6366376876831055,-1.908637523651123,0.3550249934196472
1697039558105153800,0.80915380859375,5.093550205230713,-1.1512874364852905,0.5101249814033508
1697039558123988200,0.82798828125,5.2278876304626465,-0.955762505531311,0.9499874711036682
1697039558142823000,0.846822998046875,5.244937419891357,-0.6148999929428101,1.7892874479293823
1697039558161657300,0.8656572265625,4.470399856567383,-0.5330874919891357,2.609062433242798
1697039558180491800,0.88449169921875,3.204712390899658,-0.6234250068664551,3.0281624794006348
1697039558199326200,0.903326171875,2.014787435531616,-1.3331999778747559,2.2339625358581543
1697039558218161000,0.922160888671875,0.9372000098228455,-1.6850625276565552,0.44302499294281006
1697039558236995300,0.940995361328125,0.8370999693870544,-0.8445249795913696,-0.737137496471405
1697039558255829800,0.959829833984375,1.0777250528335571,-0.08470000326633453,-0.8837124705314636
1697039558274664200,0.978664306640625,1.01791250705719,-0.04922499880194664,-0.3499374985694885
1697039558293499000,0.997498779296875,0.9151999950408936,-1.1378124952316284,0.3587374985218048
1697039558312333300,1.016333251953125,0.8199124932289124,-2.3375000953674316,0.9719874858856201
1697039558331167700,1.035167724609375,0.3984749913215637,-2.19216251373291,1.0147500038146973
1697039558350002200,1.054002197265625,-0.03162499889731407,-1.0865249633789062,0.34402498602867126
1697039558368836600,1.072836669921875,-0.15125000476837158,0.49568748474121094,-0.44398748874664307
1697039558387671300,1.09167138671875,-0.2722499966621399,1.4998500347137451,-1.2148125171661377
1697039558406505700,1.110505615234375,-0.2465374916791916,1.7221875190734863,-1.720674991607666
1697039558425340400,1.12934033203125,0.05884999781847,-0.2532750070095062,-0.2704625129699707
1697039558444175000,1.148175048828125,1.105912446975708,0.13516250252723694,-0.24722500145435333
1697039558463009300,1.16700927734375,0.5035250186920166,2.2853875160217285,-1.2515250444412231
1697039558481843700,1.18584375,0.2616625130176544,3.850412368774414,-1.5569125413894653
1697039558500678400,1.204678466796875,-0.28929999470710754,4.879049777984619,-0.9301875233650208
1697039558519512800,1.223512939453125,-0.7011125087738037,5.656062602996826,-0.8801375031471252
1697039558538347300,1.24234716796875,-0.1769624948501587,4.1827497482299805,0.6128374934196472
1697039558557182000,1.261181884765625,0.22495000064373016,4.267037391662598,1.0477499961853027
1697039558576016400,1.280016357421875,0.7233874797821045,5.52296257019043,0.5761250257492065
1697039558594850800,1.298850830078125,1.126675009727478,6.392787456512451,0.3452624976634979
1697039558613685200,1.317685302734375,0.8175749778747559,6.03487491607666,0.48454999923706055
1697039558632520000,1.33652001953125,0.6978124976158142,5.244387626647949,0.27073749899864197
1697039558651354400,1.355354248046875,0.3704249858856201,4.846187591552734,-0.6920375227928162
1697039558670188800,1.374188720703125,0.042899999767541885,5.508249759674072,-1.475100040435791
1697039558689023500,1.3930234375,-0.2404875010251999,7.290800094604492,-2.181299924850464
1697039558707858000,1.41185791015625,-0.267300009727478,8.386674880981445,-2.264349937438965
1697039558726692400,1.4306923828125,-0.6045874953269958,8.160624504089355,-2.5184500217437744
1697039558745527000,1.449527099609375,-1.8482749462127686,10.294899940490723,-2.827549934387207
1697039558764361500,1.468361572265625,-2.561762571334839,10.116562843322754,-1.8477250337600708
1697039558783196000,1.48719580078125,-1.6857500076293945,4.633612632751465,-0.004124999977648258
1697039558802030300,1.5060302734375,-1.7945125102996826,-0.5696625113487244,0.5235999822616577
1697039558820864800,1.52486474609375,-2.988149881362915,-2.3387374877929688,-0.3889875113964081
1697039558839699200,1.54369921875,-3.8200249671936035,-3.705899953842163,-0.5295125246047974
1697039558858534000,1.562533935546875,-3.7919750213623047,-3.2390875816345215,-0.03712499886751175
1697039558877368300,1.581368408203125,-3.2837750911712646,-1.4774374961853027,0.5785999894142151
1697039558896202800,1.60020263671875,-2.8879125118255615,-1.4932500123977661,0.8999375104904175
1697039558915037200,1.619037109375,-2.8109123706817627,-1.2893375158309937,0.4600749909877777
1697039558933871900,1.637871826171875,-1.3509374856948853,-0.17270000278949738,-0.27541249990463257
1697039558952706300,1.656706298828125,1.350250005722046,1.5303750038146973,-0.6785625219345093
1697039558971541000,1.675541015625,2.1015501022338867,0.4076874852180481,-0.7017999887466431
1697039558990375400,1.69437548828125,0.30195000767707825,-2.9422249794006348,-0.7188500165939331
1697039559009209900,1.7132099609375,-2.9001500606536865,-4.540249824523926,-3.0206000804901123
1697039559028044500,1.73204443359375,-1.5367000102996826,-3.936762571334839,-3.5030875205993652
1697039559046879000,1.75087890625,-1.7688000202178955,-1.026574969291687,-2.160399913787842
1697039559065713400,1.76971337890625,-1.4841749668121338,0.4589749872684479,-0.1531749963760376
1697039559084548000,1.788548095703125,-1.5794625282287598,1.4950374364852905,0.38926249742507935
1697039559103382500,1.807382568359375,-2.036375045776367,4.070412635803223,0.29026249051094055
1697039559122217000,1.826217041015625,-3.233725070953369,3.915174961090088,-0.10064999759197235
1697039559141051400,1.845051513671875,-2.401712417602539,5.4019622802734375,0.16940000653266907
1697039559159886000,1.863885986328125,-2.3662374019622803,2.849824905395508,-0.8434249758720398
1697039559178720500,1.882720458984375,-2.622812509536743,-1.883062481880188,-1.1477124691009521
1697039559197555000,1.901554931640625,-1.8825124502182007,-1.3466750383377075,-0.13859999179840088
1697039559216389600,1.9203896484375,-0.7462124824523926,0.6593124866485596,0.6335999965667725
1697039559235224000,1.93922412109375,0.3031874895095825,0.6886000037193298,0.3623124957084656
1697039559254058500,1.95805859375,0.48647499084472656,-0.09322500228881836,-0.19346250593662262
1697039559272893000,1.976892822265625,0.05156249925494194,-0.6821374893188477,-0.3657499849796295
1697039559291727600,1.9957275390625,-0.46406251192092896,-1.696062445640564,-0.30841249227523804
1697039559310562000,2.01456201171875,-0.6093999743461609,-1.8317749500274658,-0.1531749963760376
1697039559329396700,2.033396728515625,-0.5153499841690063,-1.1683374643325806,0.14739999175071716
1697039559348231200,2.052231201171875,-0.5691124796867371,-0.23622499406337738,0.26468750834465027
1697039559367065600,2.071065673828125,-0.47753748297691345,0.33687499165534973,0.20845000445842743
1697039559385900300,2.089900390625,-0.09515000134706497,0.21092499792575836,-0.0016499999910593033
1697039559404734500,2.108734375,0.1163249984383583,-0.3778499960899353,-0.089649997651577
1697039559423569000,2.12756884765625,0.07108750194311142,-0.6258999705314636,0.03368749842047691
1697039559442403600,2.146403564453125,0.011137500405311584,-0.40727499127388,0.12416250258684158
1697039559461238000,2.165238037109375,0.011137500405311584,-0.16898749768733978,0.1046374961733818
1697039559480072700,2.18407275390625,0.0038499999791383743,-0.0919874981045723,0.04963750019669533
1697039559498907100,2.2029072265625,0.0038499999791383743,-0.052937500178813934,0.027637500315904617
1697039559517741600,2.221741455078125,0.010037500411272049,0.014299999922513962,0.008112499490380287
1697039559536576000,2.240575927734375,0.00013749999925494194,0.04963750019669533,-0.020075000822544098
1697039559555410700,2.25941064453125,-0.025437500327825546,0.021587500348687172,-0.040837500244379044
1697039559574245400,2.278245361328125,-0.049912501126527786,0.026537500321865082,-0.031075000762939453
1697039559593079600,2.29707958984375,-0.062150001525878906,0.017875000834465027,0.0006874999962747097
1697039559611914200,2.315914306640625,-0.05472499877214432,-0.0028874999843537807,0.019112499430775642
1697039559630748700,2.334748779296875,-0.03891250118613243,-0.005224999971687794,0.017875000834465027
1697039559649583000,2.3535830078125,-0.013199999928474426,0.009349999949336052,0.021449999883770943
1697039559668417500,2.37241748046875,0.008799999952316284,-0.005224999971687794,0.0411125011742115
1697039559687252200,2.391252197265625,0.02461249940097332,-0.03698749840259552,0.03739999979734421
1697039559706086700,2.410086669921875,0.038087498396635056,-0.04688749834895134,0.023924998939037323
1697039559724921000,2.428921142578125,0.042899999767541885,-0.03464999794960022,0.008112499490380287
1697039559743755800,2.447755859375,0.01979999989271164,-0.05169999971985817,-0.005362499970942736
1697039559762590200,2.466590087890625,-0.009624999947845936,-0.06998749822378159,0.020349999889731407
1697039559781424600,2.485424560546875,-0.013199999928474426,-0.06517499685287476,0.04221250116825104
1697039559800259000,2.504259033203125,-0.009624999947845936,-0.05664999783039093,0.04963750019669533
1697039559819093500,2.523093505859375,-0.0193875003606081,-0.07246249914169312,0.043449997901916504
1697039559837928200,2.54192822265625,-0.027912499383091927,-0.1274625062942505,0.03863750025629997
1697039559856762600,2.5607626953125,-0.002199999988079071,-0.09693749994039536,0.04221250116825104
1697039559875597600,2.57959765625,0.03932499885559082,0.030112499371170998,0.03987500071525574
1697039559894432000,2.598431884765625,0.047849997878074646,0.07782500237226486,0.0411125011742115
1697039559913266200,2.61726611328125,0.030799999833106995,0.021587500348687172,0.031212499365210533
1697039559932100900,2.636100830078125,0.030799999833106995,0.004537499975413084,0.027637500315904617
1697039559950935300,2.654935302734375,0.050324998795986176,0.05087500065565109,0.014162499457597733
1697039559969769700,2.673769775390625,0.04908749833703041,0.08635000139474869,0.0006874999962747097
1697039559988604400,2.6926044921875,0.03684999793767929,0.08387500047683716,0.006874999962747097
1697039560007438800,2.71143896484375,0.021037500351667404,0.08387500047683716,0.05692499876022339
1697039560026273500,2.7302734375,0.035612501204013824,0.0728750005364418,0.09968750178813934
1697039560045107700,2.749107666015625,0.07108750194311142,0.08511249721050262,0.09597499668598175
1697039560063942400,2.7679423828125,0.10766249895095825,0.16940000653266907,0.09239999949932098
1697039560082776800,2.78677685546875,0.12732499837875366,0.2854500114917755,0.08868750184774399
1697039560101611300,2.805611328125,0.13942499458789825,0.27445000410079956,0.08868750184774399
1697039560120445700,2.82444580078125,0.15537500381469727,0.23539999127388,0.1106875017285347
1697039560139280600,2.84328076171875,0.1358499974012375,0.32339999079704285,0.10573749989271164
1697039560158115000,2.862114990234375,0.10161250084638596,0.36616250872612,0.09721250087022781
1697039560176949500,2.880949462890625,0.08689999580383301,0.36739999055862427,0.1143999993801117
1697039560195784000,2.899783935546875,0.08332499861717224,0.36492499709129333,0.148499995470047
1697039560214618400,2.918618408203125,0.06984999775886536,0.37716248631477356,0.21449999511241913
1697039560233453000,2.937453125,0.09913749992847443,0.3746874928474426,0.2694999873638153
1697039560252287500,2.95628759765625,0.17242500185966492,0.4162124991416931,0.2829749882221222
1697039560271122200,2.9751220703125,0.1798499971628189,0.5689749717712402,0.2829749882221222
1697039560289956600,2.99395654296875,0.1896124929189682,0.7485499978065491,0.2670249938964844
1697039560308791000,3.012791015625,0.20418749749660492,0.8706499934196472,0.25244998931884766
1697039560327625500,3.03162548828125,0.18713749945163727,0.8670749664306641,0.279262512922287
1697039560346460200,3.050460205078125,0.1260875016450882,0.8133124709129333,0.30744999647140503
1697039560365294600,3.069294677734375,0.0966624990105629,0.7728874683380127,0.3489750027656555
1697039560384129300,3.08812939453125,0.11261250078678131,0.6287875175476074,0.3513124883174896
1697039560402963700,3.106963623046875,0.1480875015258789,0.5517874956130981,0.29878750443458557
1697039560421798100,3.125798095703125,0.13089999556541443,0.6055499911308289,0.32573750615119934
1697039560440632600,3.144632568359375,0.1676124930381775,0.6520249843597412,0.4295499920845032
1697039560459467000,3.163467041015625,0.25671249628067017,0.7766000032424927,0.47478750348091125
1697039560478301700,3.1823017578125,0.33742499351501465,1.0051250457763672,0.4235000014305115
1697039560497136000,3.20113623046875,0.39723750948905945,0.9671750068664551,0.3880249857902527
1697039560515970800,3.219970703125,0.44123750925064087,0.6642624735832214,0.40878748893737793
1697039560534805200,3.23880517578125,0.4399999976158142,0.6104999780654907,0.39902499318122864
1697039560553639700,3.2576396484375,0.4632374942302704,0.8340749740600586,0.37097498774528503
1697039560572474000,3.27647412109375,0.4987125098705292,0.8780750036239624,0.4160749912261963
1697039560591308500,3.29530859375,0.5047624707221985,0.6788374781608582,0.5273125171661377
1697039560610143200,3.314143310546875,0.5512375235557556,0.6458374857902527,0.5945500135421753
1697039560628977700,3.332977783203125,0.6220499873161316,0.5909749865531921,0.6763625144958496
1697039560647812000,3.35181201171875,0.7026249766349792,0.5603125095367432,0.6776000261306763
1697039560666646800,3.370646728515625,0.7955750226974487,0.7106000185012817,0.5700749754905701
1697039560685481200,3.389481201171875,0.8724374771118164,0.9305999875068665,0.5565999746322632
1697039560704316000,3.40831591796875,0.8908625245094299,1.0624624490737915,0.6176499724388123
1697039560723150000,3.427150146484375,0.8713374733924866,0.8560749888420105,0.6043124794960022
1697039560741984500,3.445984619140625,0.7735750079154968,0.7423624992370605,0.6543624997138977
1697039560760819500,3.4648193359375,0.8516749739646912,0.9231749773025513,0.7716500163078308
1697039560779654000,3.48365380859375,0.9091500043869019,0.897599995136261,0.8339374661445618
1697039560798488300,3.50248828125,0.9556249976158142,0.9048874974250793,0.6848874688148499
1697039560817323000,3.521322998046875,0.9616749882698059,0.906125009059906,0.648312509059906
1697039560836157700,3.54015771484375,0.9286749958992004,1.0734624862670898,0.7679374814033508
1697039560854992000,3.558991943359375,0.9909625053405762,1.207937479019165,0.9829875230789185
1697039560873826600,3.57782666015625,1.118012547492981,1.2555124759674072,0.9451749920845032
1697039560892661000,3.596660888671875,1.2390124797821045,1.1932250261306763,0.7654625177383423
1697039560911495400,3.615495361328125,1.3648250102996826,1.5243250131607056,0.8839874863624573
1697039560930330000,3.634330078125,1.5896375179290771,1.5866124629974365,0.9207000136375427
1697039560949164500,3.65316455078125,1.8046875,1.536562442779541,0.9585124850273132
1697039560967999200,3.671999267578125,1.9365500211715698,1.531612515449524,1.0844625234603882
1697039560986833700,3.690833740234375,1.9512624740600586,1.3630374670028687,1.273800015449524
1697039561005668000,3.709668212890625,1.979312539100647,1.190750002861023,1.2725625038146973
1697039561024502500,3.72850244140625,2.0868375301361084,0.9391250014305115,1.216325044631958
1697039561043337000,3.7473369140625,2.066075086593628,0.7631250023841858,1.4887125492095947
1697039561062171600,3.766171630859375,1.8474500179290771,0.6263124942779541,2.1118624210357666
1697039561081006300,3.78500634765625,1.6409250497817993,0.5335000157356262,2.8203999996185303
1697039561099840800,3.8038408203125,1.5994000434875488,0.1681624948978424,3.1490249633789062
1697039561118675200,3.82267529296875,1.5175875425338745,-0.17503750324249268,3.742887496948242
1697039561137509600,3.841509521484375,1.1046749353408813,-0.21051250398159027,4.205850124359131
1697039561156344300,3.86034423828125,0.9116249680519104,1.549899935722351,3.7549874782562256
1697039561175178800,3.8791787109375,1.119249939918518,0.7338374853134155,3.4801249504089355
1697039561194013400,3.898013427734375,1.009387493133545,0.7093625068664551,4.825287342071533
1697039561212847900,3.916847900390625,0.5780500173568726,-0.39627498388290405,5.23696231842041
1697039561231682600,3.9356826171875,0.01484999991953373,-1.0485750436782837,5.057387351989746
1697039561250516700,3.954516845703125,-0.6814500093460083,-0.5831375122070312,4.619999885559082
1697039561269351200,3.97335107421875,-0.5556374788284302,0.9916499853134155,3.4386000633239746
1697039561288185900,3.992185791015625,-0.27101248502731323,2.072812557220459,2.293912410736084
1697039561307020300,4.011020263671875,0.0943249985575676,1.8309500217437744,1.7539499998092651
1697039561325855000,4.02985498046875,0.3667125105857849,2.1070499420166016,1.3923250436782837
1697039561344689400,4.048689453125,0.6330500245094299,2.331862449645996,1.0087000131607056
1697039561363523800,4.06752392578125,4.35682487487793,3.3434500694274902,-0.16788749396800995
1697039561382358500,4.086358642578125,7.629737377166748,-1.9075374603271484,0.7777000069618225
1697039561401193000,4.10519287109375,0.12732499837875366,3.424025058746338,0.13997499644756317
1697039561420027600,4.124027587890625,-0.267300009727478,1.1602250337600708,-0.40603750944137573
1697039561438862000,4.142862060546875,-0.9074999690055847,1.6086125373840332,0.4918375015258789
1697039561457696500,4.161696533203125,-0.42253750562667847,1.9091874361038208,0.19497500360012054
1697039561476531000,4.180531005859375,-1.390125036239624,1.2347500324249268,0.6591749787330627
1697039561495365600,4.19936572265625,-2.3197624683380127,0.29411250352859497,0.8742250204086304
1697039561514200000,4.218199951171875,-2.48476243019104,0.35144999623298645,0.5431249737739563
1697039561533034500,4.237034423828125,-2.520237445831299,-0.4536125063896179,0.8839874863624573
1697039561551869000,4.255868896484375,-2.2892374992370605,-0.7236624956130981,0.9267500042915344
1697039561570703400,4.274703369140625,-1.964324951171875,-0.8079500198364258,1.0355124473571777
1697039561589538000,4.2935380859375,-0.7804499864578247,-0.9972875118255615,0.454025000333786
1697039561608372500,4.31237255859375,0.4179999828338623,-1.3956249952316284,0.03987500071525574
1697039561627207200,4.331207275390625,0.052799999713897705,-0.17270000278949738,0.16321249306201935
1697039561646041900,4.350041748046875,0.7185750007629395,-0.5330874919891357,-0.02983750030398369
1697039561664876000,4.3688759765625,1.088724970817566,-0.6148999929428101,-0.27665001153945923
1697039561683710700,4.387710693359375,1.3575375080108643,-0.38279998302459717,-0.7958499789237976
1697039561702545200,4.406545166015625,1.1742500066757202,-0.41456249356269836,-0.9559000134468079
1697039561721379600,4.425379638671875,0.5535749793052673,-0.6844750046730042,-0.8386124968528748
1697039561740214300,4.44421435546875,0.3104749917984009,-0.9398124814033508,-0.49527499079704285
1697039561759048700,4.463048583984375,0.3899500072002411,-1.1903375387191772,-0.2069374918937683
1697039561777883100,4.481883056640625,0.2872374951839447,-1.2368124723434448,-0.028599999845027924
1697039561796717800,4.5007177734375,0.15289999544620514,-0.9985250234603882,0.012924999929964542
1697039561815552500,4.519552490234375,0.028324998915195465,-0.6283749938011169,-0.12870000302791595
1697039561834387000,4.538386962890625,0.006324999965727329,-0.6258999705314636,-0.18988749384880066
1697039561853221400,4.557221435546875,0.1676124930381775,-0.7249000072479248,-0.06764999777078629
1697039561872056000,4.57605615234375,0.4729999899864197,-0.6393749713897705,0.20721249282360077
1697039561890890500,4.594890380859375,0.37894999980926514,-0.304562509059906,0.14739999175071716
1697039561909725000,4.613724853515625,0.09556250274181366,-0.02241249941289425,0.014162499457597733
1697039561928559400,4.632559326171875,0.0038499999791383743,0.025299999862909317,-0.02983750030398369
1697039561947393800,4.651393798828125,0.01732499897480011,0.011824999935925007,-0.045649997889995575
1697039561966228200,4.670228271484375,0.0013749999925494194,-0.050462499260902405,-0.07617499679327011
1697039561985063000,4.68906298828125,-0.020624998956918716,-0.06751249730587006,-0.06407500058412552
1697039562003897300,4.7078974609375,-0.025437500327825546,-0.14698749780654907,-0.15565000474452972
1697039562022731800,4.726731689453125,-0.022962499409914017,-0.011412499472498894,-0.2069374918937683
1697039562041566500,4.74556640625,-0.02667500078678131,0.11811249703168869,-0.15812499821186066
1697039562060401200,4.764401123046875,0.023375000804662704,0.24268749356269836,-0.11659999936819077
1697039562079235600,4.783235595703125,0.11742500215768814,0.1975875049829483,-0.1396999955177307
1697039562098070000,4.802070068359375,0.12113749980926514,0.16458749771118164,-0.20817500352859497
1697039562116904400,4.820904541015625,0.10408750176429749,0.05582499876618385,-0.20941250026226044
1697039562135739400,4.839739501953125,0.10766249895095825,0.015537500381469727,-0.19222499430179596
1697039562154573800,4.85857373046875,0.08208750188350677,0.04853750020265579,-0.14588749408721924
1697039562173408300,4.877408203125,0.033137500286102295,0.07411249727010727,-0.08236250281333923
1697039562192242700,4.89624267578125,0.021037500351667404,0.05211250111460686,-0.043175000697374344
1697039562211077000,4.9150771484375,0.005087499972432852,0.011824999935925007,-0.02488750033080578
1697039562229911800,4.933911865234375,-0.05967500060796738,-0.10422500222921371,-0.02488750033080578
1697039562248746200,4.952746337890625,-0.09143749624490738,-0.1714625060558319,-0.018837500363588333
1697039562267581000,4.971580810546875,-0.05719999969005585,-0.057750001549720764,-0.012649999931454659
1697039562286415400,4.990415283203125,-0.027912499383091927,0.0387750007212162,-0.0028874999843537807
1697039562305249800,5.009249755859375,-0.010724999941885471,0.021587500348687172,-0.023649999871850014
1697039562324084500,5.02808447265625,0.011137500405311584,0.027775000780820847,-0.10064999759197235
1697039562342919000,5.0469189453125,0.01484999991953373,0.029012499377131462,-0.18988749384880066
1697039562361753600,5.065753662109375,0.02956249937415123,0.07782500237226486,-0.11893749982118607
1697039562380588000,5.084588134765625,0.04661250114440918,0.03506249934434891,-0.04936249926686287
1697039562399422500,5.10342236328125,0.04179999977350235,0.05087500065565109,-0.005362499970942736
1697039562418257200,5.122257080078125,0.06984999775886536,0.09129999577999115,-0.040837500244379044
1697039562437091300,5.14109130859375,0.07232499867677689,0.03382499888539314,-0.06517499685287476
1697039562455926300,5.15992626953125,0.03684999793767929,-0.08470000326633453,-0.038362499326467514
1697039562474760700,5.1787607421875,0.03437500074505806,-0.14698749780654907,-0.04207500070333481
1697039562493595100,5.19759521484375,0.016087500378489494,-0.08346249908208847,-0.043175000697374344
1697039562512429600,5.2164296875,0.00013749999925494194,-0.09803749620914459,-0.006599999964237213
1697039562531264000,5.235263916015625,-0.0364375002682209,-0.2153249979019165,0.03135000169277191
1697039562550098700,5.2540986328125,-0.021724998950958252,-0.21779999136924744,-0.005362499970942736
1697039562568933000,5.27293310546875,0.02708750031888485,-0.0882750004529953,-0.04688749834895134
1697039562587767800,5.291767822265625,0.04908749833703041,-0.025987500324845314,-0.031075000762939453
1697039562606602200,5.310602294921875,0.057612501084804535,-0.018699999898672104,-0.004124999977648258
1697039562625437000,5.32943701171875,0.030799999833106995,0.03258749842643738,0.0031624999828636646
1697039562644271400,5.348271240234375,-0.0364375002682209,0.05087500065565109,0.03492499887943268
1697039562663105800,5.367105712890625,0.010037500411272049,0.13158750534057617,-0.03959999978542328
1697039562681940200,5.385940185546875,0.010037500411272049,0.171875,-0.04936249926686287
1697039562700775000,5.40477490234375,-0.04372499883174896,0.07782500237226486,0.0019249999895691872
1697039562719609300,5.423609375,-0.049912501126527786,0.004537499975413084,0.03368749842047691
1697039562738444000,5.442444091796875,0.016087500378489494,0.10958749800920486,0.008112499490380287
1697039562757278500,5.461278564453125,0.01484999991953373,0.14863750338554382,0.028875000774860382
1697039562776113200,5.480113037109375,-0.022962499409914017,0.029012499377131462,0.09116250276565552
1697039562794947600,5.498947509765625,0.035612501204013824,-0.03451250120997429,0.011687500402331352
1697039562813782000,5.517781982421875,0.03932499885559082,-0.1518000066280365,-0.0016499999910593033
1697039562832617000,5.536616943359375,0.025849999859929085,-0.2055625021457672,0.03616249933838844
1697039562851451100,5.555451171875,-0.0009624999947845936,-0.20446249842643738,0.09239999949932098
1697039562870285800,5.574285888671875,0.010037500411272049,-0.08951249718666077,0.10339999943971634
1697039562889120300,5.593120361328125,-0.005912499967962503,-0.04922499880194664,0.11563749611377716
1697039562907954700,5.61195458984375,0.006324999965727329,-0.1555124968290329,0.116737499833107
1697039562926789400,5.630789306640625,-0.025437500327825546,-0.1872749924659729,0.13763749599456787
1697039562945624000,5.6496240234375,-0.040150001645088196,-0.11769999563694,0.11563749611377716
1697039562964458500,5.66845849609375,-0.014437500387430191,-0.07851249724626541,0.05939999967813492
1697039562983293000,5.68729296875,-0.02419999986886978,0.020349999889731407,0.05211250111460686
1697039563002127400,5.70612744140625,-0.06338749825954437,0.11329999566078186,0.05816249921917915
1697039563020961800,5.7249619140625,-0.08896250277757645,0.10958749800920486,0.0789249986410141
1697039563039796500,5.74379638671875,-0.03272499889135361,-0.06517499685287476,0.07039999961853027
1697039563058631000,5.762630859375,-0.05238749831914902,-0.047987498342990875,0.0411125011742115
1697039563077465600,5.781465576171875,-0.08772499859333038,0.18658749759197235,-0.03217500075697899
1697039563096300000,5.800300048828125,-0.09019999951124191,0.09129999577999115,-0.07864999771118164
1697039563115134700,5.819134765625,-0.08648750185966492,-0.023512499406933784,-0.03712499886751175
1697039563133969200,5.83796923828125,-0.06943749636411667,-0.021175000816583633,-0.01759999990463257
1697039563152803600,5.856803466796875,-0.05719999969005585,0.030112499371170998,-0.012649999931454659
1697039563171638000,5.875637939453125,-0.07672499865293503,0.08635000139474869,-0.055412501096725464
1697039563190472700,5.89447265625,-0.11701250076293945,-0.0004124999977648258,-0.089649997651577
1697039563209307400,5.913307373046875,-0.10491249710321426,-0.06270000338554382,-0.10917499661445618
1697039563228141800,5.932141845703125,-0.08648750185966492,-0.005224999971687794,-0.08717499673366547
1697039563246976300,5.950976318359375,-0.0719124972820282,-0.008937500417232513,-0.048124998807907104
1697039563265811000,5.96981103515625,-0.11591249704360962,-0.08951249718666077,-0.07136250287294388
1697039563284645400,5.988645263671875,-0.11948750168085098,-0.057750001549720764,-0.12388750165700912
1697039563303479800,6.007479736328125,-0.10119999945163727,-0.13598750531673431,-0.09941250085830688
1697039563322314500,6.026314453125,-0.12319999933242798,-0.11769999563694,-0.06159999966621399
1697039563341149000,6.04514892578125,-0.1732500046491623,-0.10175000131130219,-0.10793749988079071
1697039563359983400,6.0639833984375,-0.14396250247955322,-0.10670000314712524,-0.09583749622106552
1697039563378818000,6.082818115234375,-0.11591249704360962,-0.11027500033378601,-0.09212499856948853
1697039563397652700,6.10165283203125,-0.03272499889135361,-0.2250874936580658,-0.05664999783039093
1697039563416487200,6.120487060546875,-0.15001249313354492,-0.32161250710487366,-0.050599999725818634
1697039563435321900,6.13932177734375,-0.2172500044107437,-0.2605625092983246,-0.09088750183582306
1697039563454156300,6.15815625,-0.20143750309944153,-0.3278000056743622,-0.1116499975323677
1697039563472990700,6.17699072265625,-0.17201249301433563,-0.3546124994754791,-0.10436250269412994
1697039563491825200,6.1958251953125,-0.11343749612569809,-0.3998500108718872,-0.053075000643730164
1697039563510659800,6.214659912109375,0.03684999793767929,-0.3973749876022339,-0.02241249941289425
1697039563529494300,6.233494384765625,0.016087500378489494,-0.5440874695777893,-0.06641250103712082
1697039563548329000,6.252328857421875,-0.12925000488758087,-0.6001874804496765,-0.06888750195503235
1697039563567163400,6.271163330078125,-0.09624999761581421,-0.6734749674797058,-0.0016499999910593033
1697039563585998000,6.289998046875,-0.0681999996304512,-0.5451874732971191,0.027637500315904617
1697039563604832500,6.30883251953125,0.00013749999925494194,-0.4609000086784363,0.023924998939037323
1697039563623667000,6.3276669921875,-0.005912499967962503,-0.4573250114917755,0.06063750013709068
1697039563642501600,6.346501708984375,0.023375000804662704,-0.4450874924659729,0.009349999949336052
1697039563661336300,6.36533642578125,0.021037500351667404,-0.15427500009536743,-0.12759999930858612
1697039563680170800,6.384170654296875,0.18837499618530273,-0.13103750348091125,-0.02241249941289425
1697039563699005200,6.403005126953125,-0.013199999928474426,-0.633187472820282,0.03987500071525574
1697039563717839600,6.421839599609375,-0.04867500066757202,-0.553849995136261,-0.02241249941289425
1697039563736674300,6.44067431640625,-0.09391249716281891,-0.645425021648407,-0.043175000697374344
1697039563755509000,6.459509033203125,-0.18424999713897705,-0.15303750336170197,0.06421250104904175
1697039563774343700,6.47834375,-0.16967499256134033,-0.7126625180244446,-0.060362499207258224
1697039563793177900,6.497177734375,-0.26372501254081726,-0.8617125153541565,-0.17270000278949738
1697039563812012500,6.516012451171875,-0.2147749960422516,-0.42061248421669006,-0.0028874999843537807
1697039563830847000,6.534846923828125,-0.1915374994277954,-0.24956250190734863,0.015399999916553497
1697039563849681400,6.553681396484375,-0.2232999950647354,-0.2470874935388565,-0.05912499874830246
1697039563868516000,6.57251611328125,-0.80121248960495,-1.2465749979019165,-0.4427500069141388
1697039563887350800,6.591350830078125,-0.6594499945640564,-0.7444249987602234,-0.30951249599456787
1697039563906185200,6.610185302734375,-0.195250004529953,-0.07246249914169312,0.011687500402331352
1697039563925019600,6.62901953125,-0.015675000846385956,-0.1872749924659729,-0.08236250281333923
1697039563943854000,6.64785400390625,-0.2624875009059906,-0.47808748483657837,-0.16541250050067902
1697039563962688800,6.666688720703125,-0.6168249845504761,-0.3913249969482422,-0.1214125007390976
1697039563981523200,6.685523193359375,-0.862262487411499,0.23292499780654907,0.10587500035762787
1697039564000358000,6.70435791015625,-0.32477501034736633,-0.34127500653266907,-0.27293750643730164
1697039564019192300,6.7231923828125,0.26647499203681946,0.604449987411499,-0.06159999966621399
1697039564038027000,6.742027099609375,0.3129499852657318,0.09858749806880951,0.15716250240802765
1697039564056861400,6.760861328125,0.20295000076293945,-0.3643749952316284,-0.1812250018119812
1697039564075695900,6.77969580078125,0.20295000076293945,-0.050462499260902405,-0.17270000278949738
1697039564094530800,6.79853076171875,0.1480875015258789,-0.509850025177002,-0.33646249771118164
1697039564113365200,6.817365234375,0.22261250019073486,-0.39256250858306885,-0.28751251101493835
1697039564132199700,6.83619970703125,0.07590000331401825,-0.03698749840259552,0.027637500315904617
1697039564151034000,6.8550341796875,-0.08043749630451202,0.05335000157356262,0.16073749959468842
1697039564169868800,6.873868896484375,0.002612499985843897,-0.03946249932050705,0.04963750019669533
1697039564188703200,6.892703125,-0.02914999984204769,-0.13722500205039978,-0.19470000267028809
1697039564207538000,6.911537841796875,-0.06338749825954437,-0.37537500262260437,-0.5502749681472778
1697039564226372600,6.93037255859375,-0.10724999755620956,-0.41208750009536743,-0.5515124797821045
1697039564245207000,6.94920703125,0.5377625226974487,-3.941575050354004,-2.419450044631958
1697039564264041500,6.96804150390625,0.5720000267028809,0.7643625140190125,-1.2430000305175781
1697039564282876000,6.9868759765625,-0.1671999990940094,0.6165499687194824,0.0031624999828636646
1697039564301710300,7.00571044921875,-0.37482500076293945,1.6990875005722046,1.4166624546051025
1697039564320545300,7.024545166015625,0.37523749470710754,2.666675090789795,3.1039249897003174
1697039564339379700,7.043379638671875,-0.3382500112056732,-1.9648749828338623,0.27197501063346863
1697039564358214100,7.062214111328125,-0.37482500076293945,0.14258749783039093,-0.5807999968528748
1697039564377048800,7.081048828125,-0.317487508058548,-0.06627500057220459,-0.4232249855995178
1697039564395883500,7.099883544921875,-0.3772999942302704,-0.2923249900341034,-0.45980000495910645
1697039564414718000,7.118718017578125,-0.1280124932527542,-0.7126625180244446,-1.1147124767303467
1697039564433552600,7.137552734375,1.8535000085830688,-0.3620375096797943,-1.196524977684021
1697039564452387000,7.156386962890625,1.7252124547958374,-0.35708749294281006,-1.396862506866455
1697039564471221500,7.175221435546875,0.8113874793052673,-0.6381375193595886,-0.8764249682426453
1697039564490056200,7.19405615234375,0.7442874908447266,-0.10670000314712524,-0.2656500041484833
1697039564508891000,7.212890869140625,0.12484999746084213,-0.28503748774528503,0.22068749368190765
1697039564527725300,7.231725341796875,0.44247499108314514,-0.23608750104904175,0.7239375114440918
1697039564546559700,7.250559814453125,0.27390000224113464,-1.4579124450683594,0.06916250288486481
1697039564565394400,7.26939453125,0.3862375020980835,-0.6124249696731567,-0.271699994802475
1697039564584228900,7.288228759765625,0.26647499203681946,0.09735000133514404,-0.010312499478459358
1697039564603063300,7.307063232421875,0.06613750010728836,-0.1237500011920929,-0.04936249926686287
1697039564621898000,7.32589794921875,0.033137500286102295,-0.1652749925851822,-0.13612499833106995
1697039564640732400,7.344732421875,0.02213750034570694,-0.2862749993801117,-0.29122498631477356
1697039564659567000,7.363567138671875,0.47052499651908875,-0.4010874927043915,-0.2582249939441681
1697039564678401500,7.382401611328125,0.6269999742507935,-0.5856124758720398,-0.2387000024318695
1697039564697236000,7.401236083984375,0.6415749788284302,-0.25203749537467957,-0.27541249990463257
1697039564716070700,7.420070556640625,0.694100022315979,-0.4193750023841858,-0.2129874974489212
1697039564734905000,7.438905029296875,0.4314749836921692,-0.5489000082015991,-0.3572250008583069
1697039564753739800,7.45773974609375,0.3007124960422516,-0.6221874952316284,-0.39022499322891235
1697039564772574500,7.476574462890625,0.4571875035762787,-1.0986249446868896,-0.2387000024318695
1697039564791409000,7.495408935546875,0.8113874793052673,-0.9802374839782715,-0.10670000314712524
1697039564810243300,7.514243408203125,0.7601000070571899,-0.2250874936580658,-0.2656500041484833
1697039564829078000,7.533078125,0.4937624931335449,-0.4548499882221222,-0.30098751187324524
1697039564847912400,7.551912353515625,0.7430499792098999,-0.8079500198364258,-0.3254624903202057
1697039564866747100,7.5707470703125,1.0509124994277954,-0.9703375101089478,-0.11659999936819077
1697039564885581600,7.58958154296875,0.7418124675750732,-0.816474974155426,-0.15812499821186066
1697039564904416300,7.608416259765625,0.8639125227928162,-0.4511374831199646,-0.29122498631477356
1697039564923250700,7.627250732421875,1.460112452507019,-0.6514750123023987,-0.46351251006126404
1697039564942085400,7.64608544921875,2.162600040435791,-0.18851250410079956,-0.6883249878883362
1697039564960920000,7.664920166015625,2.7649874687194824,-1.1536250114440918,-0.6283749938011169
1697039564979754500,7.68375439453125,3.5358123779296875,-2.374074935913086,-0.8716124892234802
1697039564998589000,7.7025888671875,3.921912431716919,-2.6245999336242676,-1.291812539100647
1697039565017423400,7.72142333984375,3.417287588119507,-1.0253374576568604,-1.5056250095367432
1697039565036258000,7.740258056640625,2.3336498737335205,0.20982499420642853,-1.3956249952316284
1697039565055092500,7.759092529296875,1.7741625308990479,0.15234999358654022,-1.187999963760376
1697039565073927000,7.777927001953125,2.3153624534606934,-2.6905999183654785,-0.8813750147819519
1697039565092761600,7.79676171875,3.161949872970581,-4.707587242126465,-0.026124998927116394
1697039565111596300,7.81559619140625,2.5316500663757324,-2.4083125591278076,0.2316875010728836
1697039565130430700,7.8344306640625,1.2207249402999878,-0.23608750104904175,-0.8141375184059143
1697039565149265400,7.853265380859375,0.42899999022483826,1.204224944114685,-1.4469125270843506
1697039565168099800,7.872099853515625,0.05637500062584877,-0.29961249232292175,-1.2930500507354736
1697039565186934500,7.8909345703125,0.7453874945640564,-2.490262508392334,-0.5820375084877014
1697039565205769000,7.90976904296875,1.2047749757766724,-2.4132626056671143,-0.4452250003814697
1697039565224603600,7.928603759765625,1.2122000455856323,-0.5086125135421753,-1.454337477684021
1697039565243438000,7.94743798828125,1.1901999711990356,-0.5684249997138977,-1.881962537765503
1697039565262272500,7.9662724609375,1.4882999658584595,-1.4236749410629272,-1.64243745803833
1697039565281107200,7.985107177734375,1.55058753490448,-1.8305374383926392,-1.583862543106079
1697039565299942000,8.00394189453125,1.4993000030517578,-2.124924898147583,-1.7670124769210815
1697039565318776600,8.022776611328124,1.5871624946594238,-2.6123623847961426,-1.5666749477386475
1697039565337611000,8.041611083984375,1.704450011253357,-2.9997000694274902,-1.2025749683380127
1697039565356445400,8.060445556640625,1.5566375255584717,-3.474900007247925,-1.2588125467300415
1697039565375279900,8.07927978515625,1.4943499565124512,-2.8921749591827393,-1.5178624391555786
1697039565394114800,8.09811474609375,1.1387749910354614,-2.2995500564575195,-1.4788124561309814
1697039565412949200,8.11694921875,0.6500999927520752,-1.2513874769210815,-1.2430000305175781
1697039565431784000,8.135783935546876,0.3129499852657318,-1.2171499729156494,-0.7493749856948853
1697039565450618400,8.154618408203126,0.5352874994277954,-0.6601374745368958,-0.03217500075697899
1697039565469452800,8.173452880859376,0.4021874964237213,-0.4914250075817108,0.49802500009536743
1697039565488287200,8.192287353515624,0.3264249861240387,-0.6136624813079834,0.5725499987602234
1697039565507122000,8.211121826171874,0.41923749446868896,-0.5966125130653381,0.23292499780654907
