time,seconds_elapsed,z,y,x
1701881991719968000,0.156968017578125,-1.745954155921936,-2.6568801403045654,0.5473191738128662
1701881991729560600,0.166560546875,-1.7056382894515991,-2.566474676132202,0.2858765125274658
1701881991739154000,0.17615380859375,-1.5834687948226929,-2.0729100704193115,0.21623992919921875
1701881991748746500,0.18574658203125,-1.4612993001937866,-1.5095562934875488,0.342074453830719
1701881991758338300,0.19533837890625,-1.4160966873168945,-1.3214153051376343,0.47890424728393555
1701881991767931100,0.20493115234375,-1.4258701801300049,-1.444806456565857,0.5473191738128662
1701881991777524500,0.2145244140625,-1.394106149673462,-1.6196614503860474,0.5815265774726868
1701881991787117000,0.224116943359375,-1.3122526407241821,-1.7076234817504883,0.6169557571411133
1701881991796708900,0.233708984375,-1.219403862953186,-1.436254620552063,0.5839699506759644
1701881991806301700,0.2433017578125,-1.1387720108032227,-0.6128324866294861,0.44958359003067017
1701881991815895000,0.25289501953125,-1.0398147106170654,-0.05207473039627075,0.46424391865730286
1701881991825487600,0.262487548828125,-0.9970554113388062,0.020005248486995697,0.5729747414588928
1701881991835079400,0.272079345703125,-0.9970554113388062,-0.14858859777450562,0.6401679515838623
1701881991844672000,0.281672119140625,-0.9506310224533081,-0.4149180054664612,0.6658235192298889
1701881991854265600,0.291265625,-0.8492304086685181,-0.7142331600189209,0.6536065936088562
1701881991863858000,0.30085791015625,-0.7319477200508118,-0.9316948056221008,0.6157340407371521
1701881991873450000,0.310449951171875,-0.6342121958732605,-1.0673028230667114,0.577861487865448
1701881991883042600,0.32004248046875,-0.5864133834838867,-1.1845855712890625,0.5570927262306213
1701881991892636000,0.329635986328125,-0.5986303091049194,-1.3238587379455566,0.5607577562332153
1701881991902228700,0.339228759765625,-0.6610894203186035,-1.4631319046020508,0.5790832042694092
1701881991911820300,0.3488203125,-0.7441646456718445,-1.5168864727020264,0.5888567566871643
1701881991921413000,0.3584130859375,-0.7783721089363098,-1.482679009437561,0.5766398310661316
1701881991931006500,0.36800634765625,-0.6806365847587585,-1.5083346366882324,0.5473191738128662
1701881991940599000,0.37759912109375,-0.5302154421806335,-1.1247224807739258,0.5241069197654724
1701881991950190800,0.38719091796875,-0.4068242609500885,-0.8926005363464355,0.49234288930892944
1701881991959783700,0.39678369140625,-0.3029802441596985,-0.7496622800827026,0.5143333673477173
1701881991969377000,0.406376953125,-0.26877278089523315,-0.6885775923728943,0.5839699506759644
1701881991978969600,0.415969482421875,-0.2883199155330658,-0.8119687438011169,0.6817055344581604
1701881991988561400,0.4255615234375,-0.3298575282096863,-1.0098832845687866,0.8026533126831055
1701881991998154000,0.435154052734375,-0.3775036036968231,-1.1283875703811646,0.9211576581001282
1701881992007747600,0.44474755859375,-0.42514967918395996,-1.1039537191390991,1.014006495475769
1701881992017340200,0.454340087890625,-0.46546560525894165,-0.9329164624214172,1.0518789291381836
1701881992026932000,0.463931884765625,-0.48989951610565186,-0.7020162343978882,1.0213366746902466
1701881992036524500,0.473524658203125,-0.4947862923145294,-0.5309789776802063,0.9272661209106445
1701881992046118000,0.483117919921875,-0.4715740978717804,-0.44546034932136536,0.7953231334686279
1701881992055710700,0.492710693359375,-0.4337015450000763,-0.44790375232696533,0.6633801460266113
1701881992065302500,0.502302490234375,-0.4080459773540497,-0.5077667832374573,0.5558710098266602
1701881992074895000,0.51189501953125,-0.4056025743484497,-0.5847335457801819,0.47646087408065796
1701881992084488400,0.521488525390625,-0.42759308218955994,-0.6348230242729187,0.4202629029750824
1701881992094081000,0.5310810546875,-0.4691306948661804,-0.6372663974761963,0.3689517378807068
1701881992103672800,0.5406728515625,-0.5118899941444397,-0.6067240238189697,0.3115321099758148
1701881992113265700,0.550265625,-0.5387672781944275,-0.5700731873512268,0.24067382514476776
1701881992122859000,0.55985888671875,-0.5412106513977051,-0.5578562617301941,0.1563768982887268
1701881992132451600,0.56945166015625,-0.5106683373451233,-0.5835118293762207,0.06841489672660828
1701881992142043400,0.57904345703125,-0.46424391865730286,-0.6274928450584412,-0.012369656935334206
1701881992151636200,0.58863623046875,-0.4178195297718048,-0.6201626658439636,-0.0844496339559555
1701881992161229600,0.5982294921875,-0.38727715611457825,-0.48577627539634705,-0.13942588865756989
1701881992170822100,0.607822265625,-0.36162158846855164,-0.3501681983470917,-0.15530791878700256
1701881992180414000,0.6174140625,-0.3261924386024475,-0.27442312240600586,-0.12354385852813721
1701881992190006500,0.627006591796875,-0.2919849753379822,-0.21944688260555267,-0.05757235363125801
1701881992199600000,0.63660009765625,-0.26877278089523315,-0.19379130005836487,0.021837789565324783
1701881992209192400,0.6461923828125,-0.2480039894580841,-0.1901262104511261,0.10017894953489304
1701881992218784500,0.655784423828125,-0.2235700935125351,-0.1889045089483261,0.16004198789596558
1701881992228377000,0.665377197265625,-0.17836740612983704,-0.1498102843761444,0.1966928243637085
1701881992237970400,0.674970458984375,-0.1172826737165451,-0.08750387281179428,0.21623992919921875
1701881992247563000,0.68456298828125,-0.0647498071193695,-0.025197450071573257,0.21990501880645752
1701881992257155000,0.694155029296875,-0.029320668429136276,0.01511846948415041,0.21379654109477997
1701881992266747600,0.70374755859375,-0.01588202826678753,0.02489202655851841,0.19913621246814728
1701881992276341000,0.713341064453125,-0.01832541823387146,0.0065666078589856625,0.17714570462703705
1701881992285933600,0.72293359375,-0.024433890357613564,-0.05085303261876106,0.1575985997915268
1701881992295525400,0.732525390625,-0.024433890357613564,-0.14003673195838928,0.1453816443681717
1701881992305118200,0.7421181640625,-0.012216945178806782,-0.2157817929983139,0.13805148005485535
1701881992314711600,0.751711669921875,0.010995250195264816,-0.26342788338661194,0.13560809195041656
1701881992324304100,0.76130419921875,0.03176405653357506,-0.2805316150188446,0.1319430023431778
1701881992333896000,0.77089599609375,0.047646086663007736,-0.2707580327987671,0.12827792763710022
1701881992343488800,0.78048876953125,0.05864133685827255,-0.23777230083942413,0.129499614238739
1701881992353082000,0.79008203125,0.07330167293548584,-0.2047865390777588,0.13316470384597778
1701881992362674700,0.7996748046875,0.08674030750989914,-0.19379130005836487,0.14049486815929413
1701881992372266500,0.8092666015625,0.10750912129878998,-0.1889045089483261,0.1441599577665329
1701881992381859000,0.818859130859375,0.13805148005485535,-0.2011214643716812,0.14171656966209412
1701881992391452700,0.82845263671875,0.17348061501979828,-0.21333840489387512,0.14171656966209412
1701881992401045200,0.838045166015625,0.20157960057258606,-0.20356485247612,0.14049486815929413
1701881992410637000,0.847636962890625,0.21868331730365753,-0.18768282234668732,0.13438639044761658
1701881992420229600,0.857229736328125,0.21623992919921875,-0.19256959855556488,0.1185043677687645
1701881992429823000,0.866822998046875,0.20646637678146362,-0.1913478970527649,0.09040539711713791
1701881992439415600,0.87641552734375,0.20157960057258606,-0.18279604613780975,0.0525328628718853
1701881992449007600,0.886007568359375,0.18936264514923096,-0.15469707548618317,0.005955760832875967
1701881992458600200,0.89560009765625,0.1820324808359146,-0.10827267915010452,-0.046577103435993195
1701881992468193500,0.905193603515625,0.1844758689403534,-0.08750387281179428,-0.09910997003316879
1701881992477786000,0.9147861328125,0.20035789906978607,-0.10582929104566574,-0.150421142578125
1701881992487378000,0.9243779296875,0.22723518311977386,-0.14248012006282806,-0.19195875525474548
1701881992496970800,0.933970703125,0.25533416867256165,-0.19256959855556488,-0.21394924819469452
1701881992506564000,0.943564208984375,0.27854636311531067,-0.2426590770483017,-0.21150586009025574
1701881992516156700,0.95315673828125,0.3005368411540985,-0.27808821201324463,-0.18096350133419037
1701881992525748500,0.96274853515625,0.32252734899520874,-0.2805316150188446,-0.13209572434425354
1701881992535341300,0.97234130859375,0.35917818546295166,-0.2536543309688568,-0.07101099193096161
1701881992544934700,0.9819345703125,0.4422534108161926,-0.19256959855556488,-0.0050394898280501366
1701881992554527200,0.99152734375,0.5558710098266602,-0.12659808993339539,0.07330167293548584
1701881992564119000,1.001119140625,0.6450546979904175,-0.06551336497068405,0.15515519678592682
1701881992573711600,1.010711669921875,0.684148907661438,-0.014202198944985867,0.2357870489358902
1701881992583305200,1.02030517578125,0.6902574300765991,0.020005248486995697,0.3005368411540985
1701881992592897800,1.029897705078125,0.6988092660903931,0.052990999072790146,0.34818294644355774
1701881992602489600,1.039489501953125,0.7330167293548584,0.07620319724082947,0.3775036036968231
1701881992612082200,1.049082275390625,0.7928797602653503,0.08231166750192642,0.38483378291130066
1701881992621675500,1.058675537109375,0.8747332692146301,0.05665608495473862,0.3799470067024231
1701881992631268400,1.068268310546875,0.9749122262001038,0.02367033064365387,0.365286648273468
1701881992640860200,1.077860107421875,1.0799779891967773,0.02733541466295719,0.3396310806274414
1701881992650452700,1.08745263671875,1.188708782196045,0.07620319724082947,0.3005368411540985
1701881992660046000,1.097046142578125,1.30476975440979,0.14339639246463776,0.25411245226860046
1701881992669639000,1.106638916015625,1.437934398651123,0.2313583940267563,0.20768806338310242
1701881992679230700,1.116230712890625,1.5674340724945068,0.3242071866989136,0.14660334587097168
1701881992688823300,1.1258232421875,1.6260753870010376,0.3217637836933136,0.0659715011715889
1701881992698416600,1.135416748046875,1.6321839094161987,0.25090551376342773,-0.014813045971095562
1701881992708009500,1.145009521484375,1.5906462669372559,0.10674555599689484,-0.07711946964263916
1701881992717601000,1.15460107421875,1.4892456531524658,-0.08261708915233612,-0.10888352245092392
1701881992727193900,1.16419384765625,1.3401988744735718,-0.24754585325717926,-0.10521844029426575
1701881992736787200,1.173787109375,1.1618314981460571,-0.3733803927898407,-0.07589777559041977
1701881992746379800,1.1833798828125,0.9883508682250977,-0.46134239435195923,-0.04413371533155441
1701881992755971600,1.1929716796875,0.8502993583679199,-0.5102101564407349,-0.01725643500685692
1701881992765564400,1.202564453125,0.781884491443634,-0.5016583204269409,0.0035123717971146107
1701881992775157800,1.21215771484375,0.790436327457428,-0.3953709006309509,0.0022906772792339325
1701881992784750300,1.221750244140625,0.8527427911758423,-0.18646112084388733,-0.03558185324072838
1701881992794342100,1.231342041015625,0.9187142848968506,-0.005650337319821119,-0.09910997003316879
1701881992803935000,1.24093505859375,0.9309312105178833,0.02733541466295719,-0.16874656081199646
1701881992813528300,1.2505283203125,0.8722898960113525,-0.054518118500709534,-0.22372281551361084
1701881992823121000,1.260120849609375,0.7953231334686279,-0.18523943424224854,-0.23716144263744354
1701881992832712700,1.269712646484375,0.7415685653686523,-0.3184041380882263,-0.2017323076725006
1701881992842305300,1.27930517578125,0.7293516397476196,-0.41858309507369995,-0.13576079905033112
1701881992851899000,1.28889892578125,0.7696675658226013,-0.4662291705608368,-0.05512896552681923
1701881992861491500,1.298491455078125,0.888171911239624,-0.4674508571624756,0.029320668429136276
1701881992871083300,1.308083251953125,1.0750911235809326,-0.48455458879470825,0.10017894953489304
1701881992880675800,1.31767578125,1.2595670223236084,-0.649483323097229,0.15393351018428802
1701881992890269200,1.327269287109375,1.3805148601531982,-0.9451334476470947,0.21623992919921875
1701881992899862000,1.336862060546875,1.4574815034866333,-1.2077977657318115,0.2858765125274658
1701881992909453800,1.346453857421875,1.5833160877227783,-1.3886085748672485,0.33352261781692505
1701881992919046400,1.35604638671875,1.7800089120864868,-1.51566481590271,0.3530697226524353
1701881992928639700,1.3656396484375,1.9901403188705444,-1.6123313903808594,0.38483378291130066
1701881992938232600,1.375232666015625,2.1917200088500977,-1.7381658554077148,0.42881476879119873
1701881992947824000,1.38482421875,2.3798608779907227,-1.9592925310134888,0.4679090082645416
1701881992957417000,1.3944169921875,2.4898133277893066,-2.1535420417785645,0.4837910234928131
1701881992967010300,1.40401025390625,2.5044736862182617,-2.190192937850952,0.4960079789161682
1701881992976603000,1.413602783203125,2.4983654022216797,-2.0753536224365234,0.5241069197654724
1701881992986194700,1.423194580078125,2.514247417449951,-1.9055380821228027,0.5741963982582092
1701881992995787500,1.43278759765625,2.5643367767333984,-1.7625997066497803,0.6584933400154114
1701881993005380900,1.442380859375,2.6547422409057617,-1.6917414665222168,0.767224133014679
1701881993014973400,1.451973388671875,2.7927937507629395,-1.7222838401794434,0.8893936276435852
1701881993024565200,1.461565185546875,2.930845260620117,-1.7919204235076904,1.014006495475769
1701881993034158000,1.471157958984375,3.0224721431732178,-1.8346797227859497,1.132510781288147
1701881993043751400,1.48075146484375,3.0969955921173096,-1.8261278867721558,1.2546802759170532
1701881993053344000,1.490343994140625,3.195952892303467,-1.8029156923294067,1.3951750993728638
1701881993062935800,1.499935791015625,3.3291175365448,-1.7882553339004517,1.5527737140655518
1701881993072528400,1.5095283203125,3.529475450515747,-1.8334580659866333,1.7360279560089111
1701881993082122000,1.5191220703125,3.8141303062438965,-2.0374810695648193,1.9547111988067627
1701881993091714600,1.528714599609375,4.101228713989258,-2.369781970977783,2.207602024078369
1701881993101306400,1.538306396484375,4.299142837524414,-2.6654319763183594,2.487370014190674
1701881993110899000,1.54789892578125,4.416425704956055,-2.814478635787964,2.800123929977417
1701881993120492500,1.557492431640625,4.592349529266357,-2.7704977989196777,3.140976667404175
1701881993130085000,1.567085205078125,4.89059591293335,-2.543262481689453,3.4671690464019775
1701881993139677000,1.576677001953125,5.196019649505615,-2.2549426555633545,3.737163543701172
1701881993149269500,1.58626953125,5.348731517791748,-2.2048532962799072,3.8581113815307617
1701881993158863000,1.595863037109375,5.326740741729736,-2.7155215740203857,3.7359418869018555
1701881993168455400,1.605455322265625,5.20457124710083,-3.628127336502075,3.476942539215088
1701881993178047500,1.615047607421875,4.982223033905029,-4.438110828399658,3.283914804458618
1701881993187640000,1.62464013671875,4.7659831047058105,-4.760638236999512,3.2594809532165527
1701881993197233400,1.6342333984375,4.708410739898682,-4.532181262969971,3.3278958797454834
1701881993206826000,1.643825927734375,4.840506553649902,-3.8956782817840576,3.3865373134613037
1701881993216418000,1.65341796875,5.037199020385742,-3.1223456859588623,3.3376693725585938
1701881993226010600,1.6630107421875,5.18135929107666,-2.545706033706665,3.159301996231079
1701881993235604000,1.67260400390625,5.2375569343566895,-2.3050320148468018,2.8856425285339355
1701881993245196500,1.682196533203125,5.222896575927734,-2.3477914333343506,2.5814404487609863
1701881993254788400,1.691788330078125,5.126382827758789,-2.4308667182922363,2.3102242946624756
1701881993264381200,1.701381103515625,4.963897705078125,-2.4088761806488037,2.1343002319335938
1701881993273974500,1.710974609375,4.762318134307861,-2.264716148376465,2.0145742893218994
1701881993283567000,1.720567138671875,4.547146797180176,-2.091235637664795,1.872857689857483
1701881993293159000,1.730158935546875,4.295477867126465,-2.0069386959075928,1.650509238243103
1701881993302751700,1.739751708984375,3.9558467864990234,-2.039924383163452,1.2571237087249756
1701881993312345000,1.749344970703125,3.6211025714874268,-1.9507406949996948,0.7415685653686523
1701881993321937700,1.758937744140625,3.3315608501434326,-1.5071128606796265,0.20402298867702484
1701881993331529500,1.768529541015625,3.062788248062134,-0.8180772066116333,-0.36543938517570496
1701881993341122000,1.7781220703125,2.8160059452056885,-0.18523943424224854,-0.90909343957901
1701881993350715600,1.787715576171875,2.5680019855499268,0.24601873755455017,-1.251167893409729
1701881993360308200,1.79730810546875,2.311445951461792,0.5160132050514221,-1.3452383279800415
1701881993369900000,1.806900146484375,2.007244110107422,0.49646610021591187,-1.2939271926879883
1701881993379492600,1.81649267578125,1.7494665384292603,0.34008920192718506,-1.375780701637268
1701881993389086200,1.826086181640625,1.6138584613800049,-0.01175880990922451,-1.108229637145996
1701881993398678800,1.8356787109375,1.5601038932800293,-0.08139539510011673,-0.9750649333000183
1701881993408270600,1.8452705078125,1.6028631925582886,0.03955236077308655,-0.9310839176177979
1701881993417863200,1.85486328125,1.7201459407806396,0.22158484160900116,-0.9103151559829712
1701881993427456500,1.86445654296875,1.6590611934661865,0.5013529062271118,-0.779593825340271
1701881993437049000,1.874049072265625,1.0494356155395508,0.7774558663368225,-0.337340384721756
1701881993446641200,1.88364111328125,0.7794411182403564,0.603975236415863,-0.045355409383773804
1701881993456233700,1.893233642578125,0.8307522535324097,0.6467345356941223,0.0390942245721817
1701881993465827000,1.9028271484375,0.9248227477073669,0.9448279738426208,0.024433890357613564
1701881993475419600,1.912419677734375,1.123958945274353,1.1341906785964966,-0.0844496339559555
1701881993485011500,1.922011474609375,1.3548592329025269,0.9655967950820923,-0.2664821147918701
1701881993494604300,1.931604248046875,1.582094430923462,0.5160132050514221,-0.4656183123588562
1701881993504197600,1.94119775390625,1.5442218780517578,0.2924431264400482,-0.4265241026878357
1701881993513790200,1.950790283203125,1.4122788906097412,0.10552386194467545,-0.2286095917224884
1701881993523382000,1.960382080078125,1.3475290536880493,-0.2279987335205078,-0.11743538826704025
1701881993532974800,1.969974853515625,1.345085620880127,-0.5370874404907227,-0.11377029865980148
1701881993542568200,1.979568115234375,1.3634110689163208,-0.6812474131584167,-0.18218518793582916
1701881993552160800,1.989160888671875,1.4135005474090576,-0.7081246972084045,-0.25060009956359863
1701881993561752600,1.998752685546875,1.4415994882583618,-0.6812474131584167,-0.2786990702152252
1701881993571345400,2.008345458984375,1.382958173751831,-0.6189410090446472,-0.28602921962738037
1701881993580938800,2.017938720703125,1.2375766038894653,-0.6238277554512024,-0.29946786165237427
1701881993590531300,2.02753125,1.0824213027954102,-0.6678087711334229,-0.3202366828918457
1701881993600123100,2.037123046875,0.9871291518211365,-0.7142331600189209,-0.34222719073295593
1701881993609715700,2.0467158203125,0.9443698525428772,-0.7166765332221985,-0.3642176687717438
1701881993619309300,2.056309326171875,0.9077190160751343,-0.5993938446044922,-0.4143071472644806
1701881993628902000,2.06590185546875,0.8124268651008606,-0.3892624080181122,-0.4130854606628418
1701881993638493700,2.07549365234375,0.6682668924331665,-0.32695600390434265,-0.30313295125961304
1701881993648086300,2.085086181640625,0.5326588153839111,-0.34405970573425293,-0.08200624585151672
1701881993657679600,2.0946796875,0.4300364851951599,-0.31596073508262634,0.20157960057258606
1701881993667272400,2.1042724609375,0.37261682748794556,-0.2915268540382385,0.41293275356292725
1701881993676864300,2.1138642578125,0.3115321099758148,-0.25976279377937317,0.5864133834838867
1701881993686456800,2.123456787109375,0.22967857122421265,-0.3061871826648712,0.7464553713798523
1701881993696050200,2.13305029296875,0.2748812735080719,-0.6055023670196533,0.8295305967330933
1701881993705643000,2.14264306640625,0.6914790868759155,-0.6934643387794495,0.8710681796073914
1701881993715234600,2.152234619140625,1.077534556388855,-0.09239064902067184,0.9284878373146057
1701881993724827400,2.161827392578125,1.3377554416656494,0.43171629309654236,1.0506572723388672
1701881993734420700,2.171420654296875,1.6908252239227295,0.44393324851989746,1.2058124542236328
1701881993744013300,2.181013427734375,1.9046217203140259,0.4011739492416382,1.3255385160446167
1701881993753605000,2.190605224609375,1.799556016921997,0.17882554233074188,1.4354910850524902
1701881993763198000,2.200197998046875,1.8948482275009155,0.18126893043518066,1.5833160877227783
1701881993772791300,2.209791259765625,1.8679709434509277,0.4683671295642853,1.7409147024154663
1701881993782383900,2.2193837890625,1.5674340724945068,0.5196782946586609,1.8007776737213135
1701881993791975700,2.2289755859375,1.1948171854019165,0.2716743052005768,1.7091506719589233
1701881993801568500,2.238568603515625,0.8612946271896362,-0.09116895496845245,1.5100144147872925
1701881993811161900,2.248161865234375,0.5619794726371765,-0.31473904848098755,1.298661231994629
1701881993820754400,2.25775439453125,0.2907632887363434,-0.39292749762535095,1.007897973060608
1701881993830346200,2.26734619140625,0.14171656966209412,-0.38193225860595703,0.3787252902984619
1701881993839938800,2.276938720703125,0.1441599577665329,-0.4246915578842163,-0.5584670901298523
1701881993849532400,2.286532470703125,0.10017894953489304,-0.5102101564407349,-1.5321576595306396
1701881993859124700,2.296124755859375,0.01588202826678753,-0.49921491742134094,-2.375126838684082
1701881993868716800,2.305716796875,-0.17348061501979828,-0.04963133856654167,-2.6072487831115723
1701881993878309400,2.315309326171875,-0.3127537965774536,1.001025915145874,-2.2150847911834717
1701881993887902700,2.32490283203125,-0.05619794875383377,1.6900616884231567,-1.6983081102371216
1701881993897495300,2.334495361328125,1.0250016450881958,1.5727789402008057,-1.3696722984313965
1701881993907087400,2.34408740234375,1.9180604219436646,1.00224769115448,-1.2206255197525024
1701881993916680000,2.353679931640625,0.9040539264678955,-0.22555534541606903,-0.6415423154830933
1701881993926273300,2.363273193359375,-0.03542914241552353,-0.9072608947753906,0.1710372269153595
1701881993935865900,2.372865966796875,-0.26755109429359436,-0.6226060390472412,0.3310792148113251
1701881993945457700,2.382457763671875,-0.1832541823387146,-0.3110739588737488,-0.04291202127933502
1701881993955050500,2.392050537109375,0.04031591862440109,-0.3953709006309509,-0.5169295072555542
1701881993964643800,2.401643798828125,0.009773556143045425,-0.1656923145055771,-0.8199097514152527
1701881993974236400,2.411236328125,-0.1979145109653473,-0.03374931216239929,-0.8699992299079895
1701881993983828200,2.420828125,-0.25533416867256165,-0.001985253533348441,-0.7722636461257935
1701881993993421000,2.430421142578125,-0.1966928243637085,0.16660858690738678,-0.5401417016983032
1701881994003014400,2.440014404296875,-0.10750912129878998,0.37918344140052795,-0.22616620361804962
1701881994012607000,2.44960693359375,-0.0024433890357613564,0.5783196687698364,-0.016034740954637527
1701881994022198800,2.45919873046875,0.04031591862440109,0.5844281315803528,0.010842538438737392
1701881994031791400,2.468791259765625,0.06841489672660828,0.8776348233222961,-0.16630317270755768
1701881994041385000,2.478385009765625,0.18081079423427582,1.6118731498718262,-0.5218162536621094
1701881994050977500,2.4879775390625,0.18691925704479218,1.3357702493667603,-0.728282630443573
1701881994060569300,2.4975693359375,-0.025655584409832954,0.3229855000972748,-0.5706840753555298
1701881994070162000,2.507161865234375,-0.1954711228609085,-0.08017370104789734,-0.2725905776023865
1701881994079755300,2.51675537109375,-0.19302773475646973,0.10430216789245605,-0.072232685983181
1701881994089347800,2.526347900390625,-0.18691925704479218,0.34131091833114624,0.05741964280605316
1701881994098940000,2.53593994140625,-0.19058434665203094,0.44759833812713623,0.13316470384597778
1701881994108532500,2.545532470703125,-0.18081079423427582,0.44759833812713623,0.1698155403137207
1701881994118125800,2.555125732421875,-0.14904673397541046,0.44515493512153625,0.18081079423427582
1701881994127718400,2.564718505859375,-0.10750912129878998,0.4683671295642853,0.16737215220928192
1701881994137310200,2.574310302734375,-0.062306419014930725,0.49890950322151184,0.1429382562637329
1701881994146903000,2.583903076171875,-0.012216945178806782,0.5233433842658997,0.11972606182098389
1701881994156496400,2.593496337890625,0.03787253051996231,0.5453338623046875,0.10017894953489304
1701881994166089000,2.6030888671875,0.08551861345767975,0.5697677731513977,0.08185353130102158
1701881994175680800,2.6126806640625,0.11483928561210632,0.5954233407974243,0.07574506103992462
1701881994185273600,2.622273681640625,0.130721315741539,0.6051968932151794,0.08063183724880219
1701881994194867000,2.631866943359375,0.14904673397541046,0.6198572516441345,0.08796200156211853
1701881994204459500,2.64145947265625,0.1441599577665329,0.6809419989585876,0.08185353130102158
1701881994214051300,2.65105126953125,0.1319430023431778,0.7346965670585632,0.06352811306715012
1701881994223644000,2.660643798828125,0.12705622613430023,0.7640172243118286,0.042759306728839874
1701881994233237500,2.670237548828125,0.12216944992542267,0.765238881111145,0.024433890357613564
1701881994242830000,2.679830078125,0.11972606182098389,0.7298097610473633,0.024433890357613564
1701881994252422000,2.689421875,0.12583453953266144,0.6601731777191162,0.03787253051996231
1701881994262014500,2.699014404296875,0.1453816443681717,0.5673243999481201,0.05741964280605316
1701881994271608000,2.708608154296875,0.1710372269153595,0.4793623983860016,0.06841489672660828
1701881994281200400,2.718200439453125,0.19424942135810852,0.41949936747550964,0.06841489672660828
1701881994290792400,2.72779248046875,0.20646637678146362,0.3828485310077667,0.05375456064939499
1701881994300385000,2.737385009765625,0.20768806338310242,0.34131091833114624,0.023212196305394173
1701881994309978400,2.746978271484375,0.1954711228609085,0.293664813041687,-0.01725643500685692
1701881994319571000,2.756571044921875,0.16859383881092072,0.23380178213119507,-0.06245913356542587
1701881994329163000,2.7661630859375,0.1441599577665329,0.18249061703681946,-0.09910997003316879
1701881994338755600,2.775755615234375,0.11483928561210632,0.14217470586299896,-0.12232216447591782
1701881994348349000,2.785348876953125,0.08429691940546036,0.09941539168357849,-0.12354385852813721
1701881994357941500,2.79494140625,0.05619794875383377,0.05543438717722893,-0.10521844029426575
1701881994367533300,2.804533203125,0.03542914241552353,0.007788302376866341,-0.07467607408761978
1701881994377126100,2.814126220703125,0.024433890357613564,-0.04107947647571564,-0.04413371533155441
1701881994386719500,2.823719482421875,0.02076880633831024,-0.08872556686401367,-0.01969982497394085
1701881994396312000,2.83331201171875,0.01588202826678753,-0.14248012006282806,-0.001374406274408102
1701881994405904000,2.84290380859375,0.004886778071522713,-0.1913478970527649,0.012064233422279358
1701881994415496700,2.85249658203125,-0.014660334214568138,-0.2438807636499405,0.026877280324697495
1701881994425090000,2.862090087890625,-0.03298575058579445,-0.30007871985435486,0.03420744836330414
1701881994434682600,2.8716826171875,-0.042759306728839874,-0.34283801913261414,0.0390942245721817
1701881994444274400,2.8812744140625,-0.05131116881966591,-0.37704548239707947,0.046424392610788345
1701881994453867000,2.890866943359375,-0.061084724962711334,-0.3965925872325897,0.061084724962711334
1701881994463460600,2.900460693359375,-0.04886778071522713,-0.41736137866973877,0.08063183724880219
1701881994473053200,2.91005322265625,-0.009773556143045425,-0.4540122151374817,0.09651386737823486
1701881994482645000,2.91964501953125,0.03176405653357506,-0.4955498278141022,0.09895725548267365
1701881994492237600,2.929237548828125,0.07574506103992462,-0.5383091568946838,0.09529217332601547
1701881994501831000,2.938830810546875,0.10873081535100937,-0.5822901725769043,0.09407047927379608
1701881994511423700,2.948423828125,0.1185043677687645,-0.654370129108429,0.10140064358711243
1701881994521015600,2.958015625,0.12094775587320328,-0.7166765332221985,0.09407047927379608
1701881994530608000,2.967608154296875,0.11483928561210632,-0.7594358325004578,0.06719319522380829
1701881994540201500,2.977201416015625,0.10750912129878998,-0.7960866689682007,0.03787253051996231
1701881994549794300,2.986794189453125,0.09895725548267365,-0.7887565493583679,0.01695101149380207
1701881994559385900,2.9963857421875,0.08185353130102158,-0.8095253109931946,0.01572931744158268
1701881994568978700,3.005978759765625,0.06963659077882767,-0.8180772066116333,0.025655584409832954
1701881994578572000,3.015572021484375,0.07207997888326645,-0.7924215793609619,0.046424392610788345
1701881994588164600,3.02516455078125,0.07207997888326645,-0.73255854845047,0.08063183724880219
1701881994597756400,3.03475634765625,0.07696675509214401,-0.6653653979301453,0.1172826737165451
1701881994607349200,3.044349365234375,0.10140064358711243,-0.6201626658439636,0.1441599577665329
1701881994616942600,3.053942626953125,0.13560809195041656,-0.5883986353874207,0.15271180868148804
1701881994626535200,3.06353515625,0.17592400312423706,-0.5737382769584656,0.1453816443681717
1701881994636127000,3.073126953125,0.21623992919921875,-0.5639647245407104,0.12461283802986145
1701881994645719800,3.0827197265625,0.23945212364196777,-0.5444176197052002,0.09651386737823486
1701881994655313200,3.092313232421875,0.23334364593029022,-0.5077667832374573,0.07574506103992462
1701881994664905700,3.10190576171875,0.22967857122421265,-0.4760027229785919,0.07085828483104706
1701881994674497500,3.11149755859375,0.23945212364196777,-0.44423866271972656,0.0781884491443634
1701881994684090000,3.121090087890625,0.2480039894580841,-0.4100312292575836,0.09529217332601547
1701881994693683700,3.13068359375,0.2357870489358902,-0.36482852697372437,0.11361759155988693
1701881994703276300,3.1402763671875,0.20646637678146362,-0.3379512429237366,0.12216944992542267
1701881994712868000,3.1498681640625,0.16737215220928192,-0.3342861533164978,0.11483928561210632
1701881994722460700,3.159460693359375,0.1172826737165451,-0.3184041380882263,0.11239589750766754
1701881994732054300,3.16905419921875,0.047646086663007736,-0.29030516743659973,0.12583453953266144
1701881994741646800,3.178646728515625,-0.023212196305394173,-0.2573194205760956,0.1575985997915268
1701881994751238700,3.18823876953125,-0.09407047927379608,-0.2157817929983139,0.20524467527866364
1701881994760831200,3.197831298828125,-0.17714570462703705,-0.18157434463500977,0.2504473626613617
1701881994770424800,3.2074248046875,-0.24678228795528412,-0.16080553829669952,0.2895416021347046
1701881994780017400,3.217017333984375,-0.3017585575580597,-0.13514995574951172,0.32252734899520874
1701881994789609200,3.226609130859375,-0.38483378291130066,-0.08628217875957489,0.3408527672290802
1701881994799201800,3.236201904296875,-0.5057815313339233,-0.08261708915233612,0.3286358118057251
1701881994808795400,3.24579541015625,-0.6084038615226746,-0.13514995574951172,0.2626643180847168
1701881994818387700,3.2553876953125,-0.6623111367225647,-0.23410721123218536,0.13560809195041656
1701881994827979800,3.264979736328125,-0.705070436000824,-0.3611634373664856,-0.030695075169205666
1701881994837572400,3.274572265625,-0.7441646456718445,-0.4796678125858307,-0.1626380831003189
1701881994847165700,3.284165771484375,-0.7624900937080383,-0.5505260825157166,-0.19318044185638428
1701881994856758500,3.293758544921875,-0.7502731680870056,-0.5554128885269165,-0.14064757525920868
1701881994866350300,3.303350341796875,-0.7148439884185791,-0.5541911721229553,-0.08200624585151672
1701881994875943000,3.31294287109375,-0.6574243903160095,-0.617719292640686,-0.06856760382652283
1701881994885536300,3.322536376953125,-0.6035171151161194,-0.7594358325004578,-0.11499200016260147
1701881994895128800,3.33212890625,-0.5876350402832031,-0.913369357585907,-0.1895153671503067
1701881994904721000,3.341720947265625,-0.5876350402832031,-1.0074398517608643,-0.2420482337474823
1701881994914313500,3.3513134765625,-0.5717530250549316,-1.0037747621536255,-0.27747735381126404
1701881994923906800,3.36090673828125,-0.5387672781944275,-0.8913788795471191,-0.2701472043991089
1701881994933499600,3.370499755859375,-0.499673068523407,-0.724006712436676,-0.23960483074188232
1701881994943091200,3.38009130859375,-0.4850127100944519,-0.5590779781341553,-0.20784078538417816
1701881994952684000,3.38968408203125,-0.49356457591056824,-0.43568679690361023,-0.2017323076725006
1701881994962277400,3.39927734375,-0.5082249045372009,-0.35138988494873047,-0.21150586009025574
1701881994971870000,3.408869873046875,-0.517998456954956,-0.2927485406398773,-0.2176143378019333
1701881994981462000,3.4184619140625,-0.5155550837516785,-0.2548760175704956,-0.2163926362991333
1701881994991054600,3.4280546875,-0.5167768001556396,-0.23532891273498535,-0.21028417348861694
1701881995000648000,3.43764794921875,-0.5106683373451233,-0.23410721123218536,-0.21272756159305573
1701881995010240800,3.44724072265625,-0.4825693368911743,-0.24021568894386292,-0.2163926362991333
1701881995019832300,3.456832275390625,-0.45324867963790894,-0.2536543309688568,-0.2176143378019333
1701881995029425200,3.466425048828125,-0.42392799258232117,-0.2695363461971283,-0.21394924819469452
1701881995039018500,3.4760185546875,-0.3958290219306946,-0.2829749882221222,-0.20051060616970062
1701881995048611000,3.485611083984375,-0.3506263196468353,-0.2805316150188446,-0.18462859094142914
1701881995058203000,3.495202880859375,-0.3029802441596985,-0.28664007782936096,-0.1626380831003189
1701881995067795700,3.504795654296875,-0.258999228477478,-0.27442312240600586,-0.15897299349308014
1701881995077389000,3.51438916015625,-0.21990501880645752,-0.23777230083942413,-0.16019469499588013
1701881995086981600,3.523981689453125,-0.17958909273147583,-0.19867807626724243,-0.16141638159751892
1701881995096573400,3.533573486328125,-0.1441599577665329,-0.1644706279039383,-0.15530791878700256
1701881995106166300,3.543166259765625,-0.12461283802986145,-0.072843536734581,-0.1516428291797638
1701881995115759600,3.552759521484375,-0.08063183724880219,-0.05329642444849014,-0.149199441075325
1701881995125352200,3.562352294921875,-0.01710372418165207,-0.06184828653931618,-0.13453911244869232
1701881995134944300,3.5719443359375,0.047646086663007736,-0.03497100621461868,-0.10766182839870453
1701881995144536800,3.581536865234375,0.08429691940546036,0.06032116711139679,-0.08200624585151672
1701881995154130200,3.591130126953125,0.07330167293548584,0.18371231853961945,-0.05512896552681923
1701881995163723000,3.600722900390625,0.028098974376916885,0.2912214398384094,-0.03802524134516716
1701881995173314800,3.610314697265625,0.04153761267662048,0.270452618598938,-0.02214321307837963
1701881995182907400,3.619907470703125,0.11972606182098389,0.2154763638973236,-0.00015271181473508477
1701881995192500700,3.629500732421875,0.18814095854759216,0.19837264716625214,-0.00015271181473508477
1701881995202093600,3.639093505859375,0.2223484069108963,0.27411770820617676,-0.030695075169205666
1701881995211685400,3.648685302734375,0.27854636311531067,0.30221667885780334,-0.06368082761764526
1701881995221278000,3.65827783203125,0.3432961702346802,0.24601873755455017,-0.0587940476834774
1701881995230871300,3.667871337890625,0.365286648273468,0.20936790108680725,-0.04291202127933502
1701881995240464100,3.677464111328125,0.34451785683631897,0.18126893043518066,-0.030695075169205666
1701881995250056000,3.687055908203125,0.35795649886131287,0.06154286116361618,-0.01847812905907631
1701881995259648500,3.6966484375,0.37139514088630676,0.034665580838918686,-0.025808297097682953
1701881995269241900,3.706241943359375,0.28343313932418823,0.2533488869667053,-0.04169032722711563
1701881995278834700,3.715834716796875,0.2504473626613617,0.16538690030574799,-0.0331384651362896
1701881995288426500,3.725426513671875,0.2638860046863556,0.04077405482530594,-0.0050394898280501366
1701881995298019000,3.73501904296875,0.2651077210903168,0.02244863659143448,0.025655584409832954
1701881995307612400,3.7446123046875,0.17348061501979828,0.3364241421222687,0.062306419014930725
1701881995317205200,3.754205322265625,0.28343313932418823,0.1372879147529602,0.07574506103992462
1701881995326797000,3.763797119140625,0.49356457591056824,-0.13270656764507294,0.047646086663007736
1701881995336389600,3.7733896484375,0.5131117105484009,-0.10094250738620758,0.01695101149380207
1701881995345983000,3.78298291015625,0.46546560525894165,-0.04107947647571564,0.029320668429136276
1701881995355575800,3.792575927734375,0.4031592011451721,0.03588727489113808,0.03665083646774292
1701881995365167600,3.802167724609375,0.3506263196468353,0.10674555599689484,0.042759306728839874
1701881995374760200,3.81176025390625,0.33474430441856384,0.11407572776079178,0.05008947476744652
1701881995384353800,3.821353759765625,0.2883199155330658,0.05787777900695801,0.05986303091049194
1701881995393946400,3.8309462890625,0.21746163070201874,-0.022754060104489326,0.08674030750989914
1701881995403538200,3.8405380859375,0.16615045070648193,-0.06917845457792282,0.10384403169155121
1701881995413130800,3.850130859375,0.13682979345321655,-0.11315945535898209,0.09040539711713791
1701881995422724400,3.859724365234375,0.10140064358711243,-0.13392825424671173,0.07207997888326645
1701881995432317000,3.86931689453125,0.07696675509214401,-0.14248012006282806,0.07207997888326645
1701881995441908700,3.87890869140625,0.05986303091049194,-0.11682453751564026,0.07574506103992462
1701881995451501300,3.888501220703125,0.05375456064939499,-0.06917845457792282,0.08063183724880219
1701881995461095000,3.898094970703125,0.05497625470161438,-0.017867282032966614,0.09040539711713791
1701881995470687500,3.9076875,0.0647498071193695,0.02244863659143448,0.10384403169155121
1701881995480279300,3.917279296875,0.09040539711713791,0.04932591691613197,0.10873081535100937
1701881995489872000,3.926871826171875,0.11972606182098389,0.0725381150841713,0.09895725548267365
1701881995499465500,3.936465576171875,0.13805148005485535,0.10185877978801727,0.08063183724880219
1701881995509058000,3.94605810546875,0.13805148005485535,0.09452861547470093,0.061084724962711334
1701881995518649900,3.95564990234375,0.026877280324697495,0.0456608310341835,0.03665083646774292
1701881995528242700,3.96524267578125,-0.01710372418165207,-0.021532366052269936,0.020616095513105392
1701881995537836000,3.9748359375,-0.014660334214568138,-0.04474456235766411,0.008399149402976036
1701881995547428600,3.9844287109375,-0.03665083646774292,0.012675080448389053,-0.012369656935334206
1701881995557020400,3.9940205078125,-0.06352811306715012,0.07742489129304886,-0.03558185324072838
1701881995566613200,4.00361328125,-0.06963659077882767,0.06887302547693253,-0.05512896552681923
1701881995576206600,4.01320654296875,-0.05497625470161438,0.03955236077308655,-0.06612421572208405
1701881995585799200,4.022799072265625,-0.03176405653357506,0.029778804630041122,-0.05757235363125801
1701881995595391000,4.032390869140625,-0.007330167107284069,0.06398624926805496,-0.029473381116986275
1701881995604983800,4.04198388671875,0.013438640162348747,0.12995775043964386,0.004734066314995289
1701881995614577200,4.0515771484375,0.03787253051996231,0.19226416945457458,0.026877280324697495
1701881995624170000,4.061169921875,0.05375456064939499,0.2020377367734909,0.021837789565324783
1701881995633761800,4.07076171875,0.09773556143045425,0.18249061703681946,-0.01847812905907631
1701881995643354400,4.080354248046875,0.15149012207984924,0.18004722893238068,-0.07345438003540039
1701881995652947700,4.08994775390625,0.1954711228609085,0.17882554233074188,-0.12720894813537598
1701881995662540500,4.09954052734375,0.20768806338310242,0.1238492801785469,-0.1785201132297516
1701881995672132400,4.10913232421875,0.21990501880645752,0.09330692142248154,-0.20661908388137817
1701881995681725000,4.118724853515625,0.24311721324920654,0.06765133142471313,-0.1895153671503067
1701881995691318500,4.128318603515625,0.26755109429359436,0.03833066672086716,-0.13209572434425354
1701881995700910800,4.137910888671875,0.28343313932418823,-0.009315420873463154,-0.05635065957903862
1701881995710503000,4.1475029296875,0.2761029601097107,-0.06184828653931618,0.01695101149380207
1701881995720095500,4.157095458984375,0.25289076566696167,-0.08994726091623306,0.07330167293548584
1701881995729689000,4.166689208984375,0.2345653474330902,-0.09727742522954941,0.10628741979598999
1701881995739281700,4.17628173828125,0.2101314514875412,-0.1119377613067627,0.12216944992542267
1701881995748873500,4.18587353515625,0.16859383881092072,-0.11682453751564026,0.12705622613430023
1701881995758466000,4.195466064453125,0.12216944992542267,-0.0850604772567749,0.11972606182098389
1701881995768059600,4.2050595703125,0.08429691940546036,-0.017867282032966614,0.10140064358711243
1701881995777652200,4.21465234375,0.05375456064939499,0.05421269312500954,0.08185353130102158
1701881995787244000,4.224244140625,0.025655584409832954,0.10430216789245605,0.062306419014930725
1701881995796836900,4.2338369140625,-0.006108472589403391,0.14828316867351532,0.025655584409832954
1701881995806430200,4.24343017578125,-0.009773556143045425,0.18371231853961945,-0.013591351918876171
1701881995816022800,4.253022705078125,-0.012216945178806782,0.1898207813501358,-0.024586603045463562
1701881995825614600,4.262614501953125,-0.042759306728839874,0.21425467729568481,-0.02092151902616024
1701881995835207400,4.27220751953125,-0.08307522535324097,0.2301367074251175,-0.00992626789957285
1701881995844800800,4.28180078125,-0.13560809195041656,0.20692451298236847,-0.00259610079228878
1701881995854393300,4.291393310546875,-0.1844758689403534,0.19226416945457458,-0.013591351918876171
1701881995863985200,4.300985107421875,-0.21868331730365753,0.164165198802948,-0.03558185324072838
1701881995873578000,4.310577880859375,-0.24311721324920654,0.09697200357913971,-0.06245913356542587
1701881995883171300,4.32017138671875,-0.2516690790653229,0.029778804630041122,-0.09055810421705246
1701881995892764000,4.329763916015625,-0.2480039894580841,-0.038636088371276855,-0.11499200016260147
1701881995902355700,4.339355712890625,-0.2480039894580841,-0.08261708915233612,-0.11499200016260147
1701881995911948500,4.348948486328125,-0.25655585527420044,-0.07895200699567795,-0.0856713280081749
1701881995921542000,4.3585419921875,-0.2357870489358902,-0.04718795046210289,-0.049020491540431976
1701881995931134700,4.368134765625,-0.1979145109653473,-0.019088976085186005,-0.028251685202121735
1701881995940726500,4.3777265625,-0.15026842057704926,-0.001985253533348441,-0.0331384651362896
1701881995950319000,4.387319091796875,-0.05864133685827255,0.013896775431931019,-0.045355409383773804
1701881995959912400,4.396912353515625,0.012216945178806782,0.034665580838918686,-0.03558185324072838
1701881995969505300,4.40650537109375,0.012216945178806782,0.05421269312500954,-0.014813045971095562
1701881995979097000,4.41609716796875,0.028098974376916885,0.09941539168357849,0.0022906772792339325
1701881995988689700,4.425689697265625,0.09529217332601547,0.0590994730591774,0.0390942245721817
1701881995998283300,4.435283203125,0.11361759155988693,-0.009315420873463154,0.08185353130102158
1701881996007875800,4.444875732421875,0.12339114397764206,0.029778804630041122,0.1050657257437706
1701881996017467600,4.454467529296875,0.130721315741539,0.09086353331804276,0.09773556143045425
1701881996027060200,4.464060302734375,0.13927318155765533,0.09452861547470093,0.05986303091049194
1701881996036653800,4.47365380859375,0.14904673397541046,0.06642963737249374,0.01572931744158268
1701881996046246400,4.483246337890625,0.14782503247261047,0.03833066672086716,-0.014813045971095562
1701881996055838200,4.492838134765625,0.1319430023431778,0.02733541466295719,-0.031916771084070206
1701881996065430800,4.5024306640625,0.10384403169155121,0.03588727489113808,-0.03680354729294777
1701881996075024400,4.5120244140625,0.07330167293548584,0.06398624926805496,-0.03924693539738655
1701881996084617000,4.521616943359375,0.05131116881966591,0.09086353331804276,-0.047798797488212585
1701881996094208800,4.531208740234375,0.03787253051996231,0.10674555599689484,-0.06734590977430344
1701881996103801600,4.540801513671875,0.024433890357613564,0.11407572776079178,-0.09177979826927185
1701881996113395000,4.55039501953125,0.013438640162348747,0.10063708573579788,-0.11010521650314331
1701881996122987500,4.559987548828125,0.006108472589403391,0.0725381150841713,-0.11865708231925964
1701881996132579300,4.569579345703125,-0.0024433890357613564,0.0456608310341835,-0.11010521650314331
1701881996142172200,4.579172119140625,-0.010995250195264816,0.028557108715176582,-0.08933641016483307
1701881996151765500,4.588765625,0.007330167107284069,0.018783552572131157,-0.05757235363125801
1701881996161358000,4.598358154296875,0.0024433890357613564,0.018783552572131157,-0.025808297097682953
1701881996170950000,4.607949951171875,0.004886778071522713,-0.008093725889921188,0.0010689827613532543
1701881996180542700,4.617542724609375,0.0012216945178806782,-0.05085303261876106,0.024433890357613564
1701881996190136000,4.627135986328125,-0.0024433890357613564,-0.07773031294345856,0.03542914241552353
1701881996199729000,4.63672900390625,-0.007330167107284069,-0.09361234307289124,0.03420744836330414
1701881996209320400,4.646320556640625,0.01832541823387146,-0.08628217875957489,0.025655584409832954
1701881996218913300,4.655913330078125,0.0647498071193695,-0.072843536734581,0.026877280324697495
1701881996228506600,4.665506591796875,0.1050657257437706,-0.04474456235766411,0.061084724962711334
1701881996238099500,4.675099365234375,0.13316470384597778,-0.0007635590736754239,0.11117420345544815
1701881996247691300,4.684691162109375,0.15149012207984924,0.04077405482530594,0.1453816443681717
1701881996257283800,4.694283935546875,0.16859383881092072,0.06032116711139679,0.15149012207984924
1701881996266877400,4.70387744140625,0.18936264514923096,0.04932591691613197,0.13438639044761658
1701881996276469800,4.7134697265625,0.19913621246814728,0.020005248486995697,0.1050657257437706
1701881996286061800,4.723061767578125,0.19058434665203094,-0.04474456235766411,0.08429691940546036
1701881996295654400,4.732654296875,0.17836740612983704,-0.10582929104566574,0.0659715011715889
1701881996305248000,4.742248046875,0.16126367449760437,-0.14492350816726685,0.046424392610788345
1701881996314840600,4.751840576171875,0.1441599577665329,-0.17057909071445465,0.04153761267662048
1701881996324432400,4.761432373046875,0.13316470384597778,-0.19256959855556488,0.05008947476744652
1701881996334025000,4.77102490234375,0.12216944992542267,-0.18279604613780975,0.06841489672660828
1701881996343618600,4.78061865234375,0.11972606182098389,-0.1779092699289322,0.08918370306491852
1701881996353211100,4.790211181640625,0.12583453953266144,-0.17913095653057098,0.09407047927379608
1701881996362803000,4.799802978515625,0.11239589750766754,-0.13392825424671173,0.0794101431965828
1701881996372395500,4.8093955078125,0.09773556143045425,-0.0716218426823616,0.05986303091049194
1701881996381989000,4.818989013671875,0.08551861345767975,-0.04840964451432228,0.03665083646774292
1701881996391581700,4.828581787109375,0.07574506103992462,-0.008093725889921188,0.012064233422279358
1701881996401173500,4.838173583984375,0.06841489672660828,0.016340164467692375,-0.012369656935334206
1701881996410766300,4.847766357421875,0.0659715011715889,0.02244863659143448,-0.030695075169205666
1701881996420359700,4.857359619140625,0.0659715011715889,0.034665580838918686,-0.04169032722711563
1701881996429952300,4.8669521484375,0.0659715011715889,0.052990999072790146,-0.045355409383773804
1701881996439544000,4.8765439453125,0.06963659077882767,0.07742489129304886,-0.045355409383773804
1701881996449137000,4.886136962890625,0.07207997888326645,0.10796725004911423,-0.04046862944960594
1701881996458730200,4.895730224609375,0.0659715011715889,0.1519482582807541,-0.03802524134516716
1701881996468322800,4.90532275390625,0.061084724962711334,0.17149536311626434,-0.029473381116986275
1701881996477914600,4.91491455078125,0.0525328628718853,0.18371231853961945,-0.027029991149902344
1701881996487507500,4.924507568359375,0.042759306728839874,0.19470755755901337,-0.01969982497394085
1701881996497100800,4.934100830078125,0.03176405653357506,0.2044811248779297,-0.012369656935334206
1701881996506693400,4.943693359375,0.023212196305394173,0.21303297579288483,-0.0038177953101694584
1701881996516285200,4.95328515625,0.014660334214568138,0.21303297579288483,0.0022906772792339325
1701881996525878000,4.9628779296875,0.008551862090826035,0.19837264716625214,0.010842538438737392
1701881996535471400,4.972471435546875,0.004886778071522713,0.17027367651462555,0.01572931744158268
1701881996545064200,4.982064208984375,0,0.12873606383800507,0.021837789565324783
1701881996554656000,4.991656005859375,-0.0036650835536420345,0.08108997344970703,0.029320668429136276
1701881996564248600,5.00124853515625,-0.010995250195264816,0.033443886786699295,0.04031591862440109
1701881996573842000,5.010842041015625,-0.01954711228609085,-0.004428642801940441,0.05741964280605316
1701881996583434800,5.020434814453125,-0.028098974376916885,-0.03497100621461868,0.08185353130102158
1701881996593026600,5.030026611328125,-0.0390942245721817,-0.056961506605148315,0.10995250940322876
1701881996602619100,5.039619140625,-0.05008947476744652,-0.0716218426823616,0.13560809195041656
1701881996612212500,5.04921240234375,-0.05986303091049194,-0.08994726091623306,0.15149012207984924
1701881996621805300,5.058805419921875,-0.07207997888326645,-0.11926792562007904,0.1563768982887268
1701881996631397000,5.068397216796875,-0.0794101431965828,-0.15836215019226074,0.14904673397541046
1701881996640989700,5.07798974609375,-0.08674030750989914,-0.20722992718219757,0.13682979345321655
1701881996650583300,5.087583251953125,-0.08918370306491852,-0.25121092796325684,0.11483928561210632
1701881996660176000,5.09717578125,-0.08918370306491852,-0.28664007782936096,0.09040539711713791
1701881996669767700,5.106767578125,-0.08796200156211853,-0.30985227227211,0.06352811306715012
1701881996679360300,5.1163603515625,-0.08185353130102158,-0.3220692276954651,0.03787253051996231
1701881996688953900,5.125953857421875,-0.07330167293548584,-0.32939937710762024,0.01695101149380207
1701881996698546400,5.13554638671875,-0.062306419014930725,-0.32573428750038147,0.0022906772792339325
1701881996708138200,5.14513818359375,-0.043981000781059265,-0.2976353168487549,-0.007482878863811493
1701881996717730800,5.154730712890625,-0.03665083646774292,-0.24876753985881805,-0.012369656935334206
1701881996727324400,5.164324462890625,-0.04153761267662048,-0.2426590770483017,-0.011147962883114815
1701881996736917000,5.1739169921875,-0.042759306728839874,-0.23655059933662415,-0.008704573847353458
1701881996746508800,5.1835087890625,-0.046424392610788345,-0.20722992718219757,-0.0038177953101694584
1701881996756101400,5.193101318359375,-0.05619794875383377,-0.1766875684261322,0.0035123717971146107
1701881996765695000,5.202695068359375,-0.06841489672660828,-0.15469707548618317,0.009620844386518002
1701881996775287600,5.21228759765625,-0.08185353130102158,-0.13514995574951172,0.01572931744158268
1701881996784879400,5.22187939453125,-0.09773556143045425,-0.11438114941120148,0.023212196305394173
1701881996794472000,5.231471923828125,-0.11361759155988693,-0.09361234307289124,0.030542362481355667
1701881996804065500,5.2410654296875,-0.12827792763710022,-0.07650861889123917,0.030542362481355667
1701881996813658000,5.250658203125,-0.14171656966209412,-0.06184828653931618,0.019394399598240852
1701881996823250000,5.26025,-0.15026842057704926,-0.05085303261876106,0.005955760832875967
1701881996832842800,5.2698427734375,-0.1563768982887268,-0.04230117425322533,-0.006261184345930815
1701881996842436000,5.27943603515625,-0.14171656966209412,-0.012980503961443901,-0.016034740954637527
1701881996852028700,5.289028564453125,-0.13805148005485535,0.04199574887752533,-0.02092151902616024
1701881996861620500,5.298620361328125,-0.13682979345321655,0.02489202655851841,-0.025808297097682953
1701881996871213300,5.30821337890625,-0.12339114397764206,0.0029015245381742716,-0.029473381116986275
1701881996880806700,5.317806640625,-0.11239589750766754,-0.0068720318377017975,-0.028251685202121735
1701881996890399200,5.327399169921875,-0.09407047927379608,-0.005650337319821119,-0.023364907130599022
1701881996899991000,5.336990966796875,-0.07207997888326645,0.0004581354442052543,-0.01847812905907631
1701881996909584000,5.346583984375,-0.05008947476744652,-0.0068720318377017975,-0.016034740954637527
1701881996919177200,5.35617724609375,-0.029320668429136276,-0.019088976085186005,-0.014813045971095562
1701881996928769800,5.365769775390625,-0.012216945178806782,-0.02641914412379265,-0.013591351918876171
1701881996938361600,5.375361572265625,0.0012216945178806782,-0.02886253222823143,-0.011147962883114815
1701881996947954400,5.384954345703125,0.012216945178806782,-0.03008422814309597,-0.00992626789957285
1701881996957547800,5.3945478515625,0.01954711228609085,-0.03130592033267021,-0.007482878863811493
1701881996967140400,5.404140380859375,0.025655584409832954,-0.0325276181101799,-0.0050394898280501366
1701881996976732200,5.413732177734375,0.026877280324697495,-0.03497100621461868,-0.0038177953101694584
1701881996986325000,5.423324951171875,0.029320668429136276,-0.03374931216239929,-0.00259610079228878
1701881996995918300,5.43291845703125,0.030542362481355667,-0.02641914412379265,-0.001374406274408102
1701881997005511000,5.442510986328125,0.03298575058579445,-0.017867282032966614,-0.001374406274408102
1701881997015102700,5.452102783203125,0.03542914241552353,-0.01175880990922451,-0.001374406274408102
1701881997024695600,5.461695556640625,0.0390942245721817,-0.004428642801940441,-0.00259610079228878
1701881997034289000,5.471288818359375,0.04153761267662048,0.0016798300202935934,-0.0038177953101694584
1701881997043881500,5.480881591796875,0.043981000781059265,0.011453386396169662,-0.0038177953101694584
1701881997053473300,5.490473388671875,0.046424392610788345,0.018783552572131157,-0.001374406274408102
1701881997063066000,5.500066162109375,0.046424392610788345,0.02489202655851841,0.0010689827613532543
1701881997072659500,5.509659423828125,0.047646086663007736,0.031000498682260513,0.0022906772792339325
1701881997082252300,5.519252197265625,0.046424392610788345,0.037108972668647766,0.004734066314995289
1701881997091844000,5.528843994140625,0.046424392610788345,0.04199574887752533,0.005955760832875967
1701881997101436700,5.538436767578125,0.045202698558568954,0.0456608310341835,0.005955760832875967
1701881997111030000,5.548030029296875,0.042759306728839874,0.04932591691613197,0.0035123717971146107
1701881997120622600,5.55762255859375,0.0390942245721817,0.04810422286391258,-0.001374406274408102
1701881997130214700,5.567214599609375,0.03542914241552353,0.04321744292974472,-0.006261184345930815
1701881997139807200,5.57680712890625,0.030542362481355667,0.03588727489113808,-0.011147962883114815
1701881997149400600,5.586400634765625,0.024433890357613564,0.02733541466295719,-0.014813045971095562
1701881997158993200,5.5959931640625,0.01710372418165207,0.020005248486995697,-0.01725643500685692
1701881997168585200,5.605585205078125,0.010995250195264816,0.012675080448389053,-0.01725643500685692
1701881997178177800,5.615177734375,0.006108472589403391,0.0065666078589856625,-0.01725643500685692
1701881997187771400,5.624771484375,0.0024433890357613564,0.0016798300202935934,-0.016034740954637527
1701881997197363700,5.63436376953125,-0.0012216945178806782,-0.001985253533348441,-0.016034740954637527
1701881997206955800,5.643955810546875,-0.0024433890357613564,-0.0068720318377017975,-0.014813045971095562
1701881997216548400,5.65354833984375,-0.0012216945178806782,-0.014202198944985867,-0.00992626789957285
1701881997226141700,5.6631416015625,0.0012216945178806782,-0.025197450071573257,-0.006261184345930815
1701881997235734500,5.672734619140625,0.0036650835536420345,-0.03497100621461868,-0.0038177953101694584
1701881997245326300,5.682326416015625,0.006108472589403391,-0.04230117425322533,-0.00259610079228878
1701881997254919000,5.6919189453125,0.009773556143045425,-0.05329642444849014,-0.00259610079228878
1701881997264512300,5.70151220703125,0.010995250195264816,-0.0594048947095871,-0.00259610079228878
1701881997274105000,5.71110498046875,0.010995250195264816,-0.0594048947095871,-0.001374406274408102
1701881997283697000,5.72069677734375,0.009773556143045425,-0.06306997686624527,-0.0038177953101694584
1701881997293289500,5.73028955078125,0.009773556143045425,-0.06795676052570343,-0.0050394898280501366
1701881997302882800,5.7398828125,0.008551862090826035,-0.0716218426823616,-0.007482878863811493
1701881997312475600,5.7494755859375,0.008551862090826035,-0.07040014863014221,-0.008704573847353458
1701881997322067500,5.7590673828125,0.008551862090826035,-0.07040014863014221,-0.008704573847353458
1701881997331660000,5.768659912109375,0.010995250195264816,-0.06917845457792282,-0.007482878863811493
1701881997341253600,5.778253662109375,0.013438640162348747,-0.07040014863014221,-0.006261184345930815
1701881997350846200,5.78784619140625,0.01710372418165207,-0.06917845457792282,-0.008704573847353458
1701881997360438000,5.79743798828125,0.01954711228609085,-0.06795676052570343,-0.012369656935334206
1701881997370030600,5.807030517578125,0.023212196305394173,-0.06429167091846466,-0.012369656935334206
1701881997379624200,5.816624267578125,0.026877280324697495,-0.0594048947095871,-0.011147962883114815
1701881997389216800,5.826216796875,0.03176405653357506,-0.054518118500709534,-0.008704573847353458
1701881997398808600,5.83580859375,0.03542914241552353,-0.04840964451432228,-0.0038177953101694584
1701881997408401200,5.845401123046875,0.03542914241552353,-0.04230117425322533,-0.00015271181473508477
1701881997417994800,5.854994873046875,0.03420744836330414,-0.03497100621461868,0.0035123717971146107
1701881997427587300,5.86458740234375,0.029320668429136276,-0.03008422814309597,0.007177455350756645
1701881997437179100,5.87417919921875,0.024433890357613564,-0.023975754156708717,0.008399149402976036
1701881997446771700,5.883771728515625,0.01832541823387146,-0.019088976085186005,0.007177455350756645
1701881997456365300,5.893365234375,0.010995250195264816,-0.01175880990922451,0.004734066314995289
1701881997465958000,5.9029580078125,0.006108472589403391,-0.0032069480512291193,-0.00015271181473508477
1701881997475549700,5.9125498046875,0.0012216945178806782,0.005344913341104984,-0.0050394898280501366
1701881997485142300,5.922142333984375,-0.0024433890357613564,0.013896775431931019,-0.00992626789957285
1701881997494736000,5.93173583984375,-0.006108472589403391,0.02367033064365387,-0.013591351918876171
1701881997504328400,5.941328369140625,-0.007330167107284069,0.032222192734479904,-0.01847812905907631
1701881997513920300,5.950920166015625,-0.007330167107284069,0.03833066672086716,-0.02092151902616024
1701881997523512800,5.960512939453125,-0.007330167107284069,0.04199574887752533,-0.023364907130599022
1701881997533106400,5.9701064453125,-0.007330167107284069,0.04443913698196411,-0.025808297097682953
1701881997542699000,5.979698974609375,-0.007330167107284069,0.0456608310341835,-0.027029991149902344
1701881997552290800,5.989290771484375,-0.006108472589403391,0.0456608310341835,-0.027029991149902344
1701881997561883400,5.99888330078125,-0.0036650835536420345,0.04321744292974472,-0.025808297097682953
1701881997571477000,6.00847705078125,-0.0036650835536420345,0.04321744292974472,-0.02214321307837963
1701881997581069600,6.018069580078125,-0.0024433890357613564,0.04077405482530594,-0.01847812905907631
1701881997590661400,6.027661376953125,-0.0024433890357613564,0.03833066672086716,-0.016034740954637527
1701881997600254000,6.03725390625,-0.0012216945178806782,0.033443886786699295,-0.013591351918876171
1701881997609847600,6.04684765625,0,0.031000498682260513,-0.00992626789957285
1701881997619440000,6.056440185546875,0.0024433890357613564,0.028557108715176582,-0.006261184345930815
1701881997629032000,6.066031982421875,0.0024433890357613564,0.0261137206107378,-0.0038177953101694584
1701881997638624500,6.07562451171875,0.0012216945178806782,0.0261137206107378,-0.00259610079228878
1701881997648218000,6.085218017578125,0.0024433890357613564,0.028557108715176582,-0.00259610079228878
1701881997657810700,6.094810791015625,0.0012216945178806782,0.029778804630041122,-0.00259610079228878
1701881997667402500,6.104402587890625,0,0.028557108715176582,-0.00259610079228878
1701881997676995000,6.1139951171875,0,0.028557108715176582,-0.0038177953101694584
1701881997686588700,6.123588623046875,0,0.028557108715176582,-0.007482878863811493
1701881997696181200,6.13318115234375,0,0.028557108715176582,-0.008704573847353458
1701881997705773000,6.14277294921875,0,0.031000498682260513,-0.00992626789957285
1701881997715365600,6.15236572265625,0.0012216945178806782,0.032222192734479904,-0.011147962883114815
1701881997724959200,6.161959228515625,0,0.033443886786699295,-0.013591351918876171
1701881997734551800,6.1715517578125,-0.0012216945178806782,0.037108972668647766,-0.016034740954637527
1701881997744143600,6.1811435546875,-0.0024433890357613564,0.03588727489113808,-0.01725643500685692
1701881997753736200,6.190736083984375,-0.007330167107284069,0.037108972668647766,-0.01847812905907631
1701881997763329500,6.20032958984375,-0.009773556143045425,0.03833066672086716,-0.01847812905907631
1701881997772922400,6.20992236328125,-0.012216945178806782,0.03833066672086716,-0.01969982497394085
1701881997782514200,6.21951416015625,-0.01588202826678753,0.033443886786699295,-0.02214321307837963
1701881997792106800,6.229106689453125,-0.01710372418165207,0.032222192734479904,-0.023364907130599022
1701881997801700400,6.238700439453125,-0.01954711228609085,0.028557108715176582,-0.023364907130599022
1701881997811292700,6.248292724609375,-0.01832541823387146,0.02489202655851841,-0.02214321307837963
1701881997820884700,6.257884765625,-0.01832541823387146,0.018783552572131157,-0.02092151902616024
1701881997830477300,6.267477294921875,-0.01588202826678753,0.016340164467692375,-0.016034740954637527
1701881997840070700,6.277070556640625,-0.014660334214568138,0.011453386396169662,-0.012369656935334206
1701881997849663500,6.28666357421875,-0.013438640162348747,0.010231691412627697,-0.00992626789957285
1701881997859255300,6.29625537109375,-0.012216945178806782,0.011453386396169662,-0.007482878863811493
1701881997868847900,6.305847900390625,-0.010995250195264816,0.010231691412627697,-0.006261184345930815
1701881997878441200,6.315441162109375,-0.010995250195264816,0.012675080448389053,-0.006261184345930815
1701881997888033800,6.32503369140625,-0.007330167107284069,0.016340164467692375,-0.0050394898280501366
1701881997897625900,6.3346259765625,-0.004886778071522713,0.016340164467692375,-0.0050394898280501366
1701881997907218400,6.344218505859375,-0.0024433890357613564,0.017561858519911766,-0.00259610079228878
1701881997916811800,6.353811767578125,0.0012216945178806782,0.018783552572131157,0.0010689827613532543
1701881997926404600,6.363404541015625,0.0024433890357613564,0.021226942539215088,0.004734066314995289
1701881997935996400,6.372996337890625,0.0024433890357613564,0.02244863659143448,0.010842538438737392
1701881997945589000,6.382589111328125,0.004886778071522713,0.02489202655851841,0.01695101149380207
1701881997955182300,6.392182373046875,0.007330167107284069,0.028557108715176582,0.023212196305394173
1701881997964775200,6.401775146484375,0.009773556143045425,0.032222192734479904,0.03176405653357506
1701881997974366700,6.41136669921875,0.013438640162348747,0.03833066672086716,0.04153761267662048
1701881997983959600,6.42095947265625,0.01832541823387146,0.0456608310341835,0.0525328628718853
1701881997993553000,6.430552978515625,0.023212196305394173,0.052990999072790146,0.06352811306715012
1701881998003145500,6.4401455078125,0.029320668429136276,0.05665608495473862,0.07452336698770523
1701881998012737500,6.449737548828125,0.03665083646774292,0.05665608495473862,0.08674030750989914
1701881998022330000,6.459330078125,0.046424392610788345,0.05543438717722893,0.10017894953489304
1701881998031923500,6.46892333984375,0.05497625470161438,0.04810422286391258,0.11361759155988693
1701881998041516000,6.47851611328125,0.06352811306715012,0.037108972668647766,0.12339114397764206
1701881998051107800,6.48810791015625,0.07696675509214401,0.02489202655851841,0.13316470384597778
1701881998060700700,6.49770068359375,0.08918370306491852,0.012675080448389053,0.14782503247261047
1701881998070294000,6.5072939453125,0.1050657257437706,0.0004581354442052543,0.16492876410484314
1701881998079886600,6.516886474609375,0.11972606182098389,-0.012980503961443901,0.18081079423427582
1701881998089478400,6.526478515625,0.13560809195041656,-0.019088976085186005,0.19424942135810852
1701881998099071200,6.5360712890625,0.15149012207984924,-0.017867282032966614,0.2101314514875412
1701881998108664600,6.54566455078125,0.16615045070648193,-0.01175880990922451,0.2235700935125351
1701881998118257200,6.555257080078125,0.17958909273147583,-0.0007635590736754239,0.2345653474330902
1701881998127849000,6.564848876953125,0.19424942135810852,0.013896775431931019,0.24433889985084534
1701881998137441800,6.57444189453125,0.2101314514875412,0.029778804630041122,0.25411245226860046
1701881998147035100,6.58403515625,0.22723518311977386,0.03955236077308655,0.26632940769195557
1701881998156627700,6.593627685546875,0.24189551174640656,0.04321744292974472,0.28098973631858826
1701881998166219500,6.603219482421875,0.25411245226860046,0.0456608310341835,0.29320669174194336
1701881998175812400,6.612812255859375,0.2651077210903168,0.04688252881169319,0.3017585575580597
1701881998185405700,6.62240576171875,0.2724378705024719,0.04932591691613197,0.2993151545524597
1701881998194998300,6.631998291015625,0.27854636311531067,0.05421269312500954,0.2858765125274658
1701881998204590000,6.641590087890625,0.284654825925827,0.06398624926805496,0.2626643180847168
1701881998214182700,6.6511826171875,0.29565006494522095,0.0713164210319519,0.23823043704032898
1701881998223776300,6.6607763671875,0.3115321099758148,0.07620319724082947,0.21257483959197998
1701881998233368800,6.670368896484375,0.3261924386024475,0.10185877978801727,0.1954711228609085
1701881998242960600,6.679960693359375,0.3408527672290802,0.14828316867351532,0.19058434665203094
1701881998252553500,6.689553466796875,0.34573954343795776,0.17882554233074188,0.19058434665203094
1701881998262146800,6.699146728515625,0.3518480062484741,0.19715094566345215,0.19180603325366974
1701881998271739400,6.708739501953125,0.3555130958557129,0.22402822971343994,0.19180603325366974
1701881998281331200,6.718331298828125,0.36039987206459045,0.24479703605175018,0.18691925704479218
1701881998290923800,6.727923828125,0.365286648273468,0.24479703605175018,0.1832541823387146
1701881998300517400,6.737517333984375,0.3665083646774292,0.2301367074251175,0.18691925704479218
1701881998310110000,6.74710986328125,0.36039987206459045,0.22158484160900116,0.1954711228609085
1701881998319701800,6.75670166015625,0.3506263196468353,0.2154763638973236,0.21257483959197998
1701881998329294300,6.76629443359375,0.3408527672290802,0.2044811248779297,0.22723518311977386
1701881998338888000,6.775887939453125,0.33352261781692505,0.19592925906181335,0.23334364593029022
1701881998348480500,6.78548046875,0.32374903559684753,0.17882554233074188,0.2345653474330902
1701881998358072300,6.795072265625,0.2919849753379822,0.13973131775856018,0.23212195932865143
1701881998367665000,6.804664794921875,0.258999228477478,0.12995775043964386,0.2235700935125351
1701881998377258200,6.81425830078125,0.24678228795528412,0.13362284004688263,0.21990501880645752
1701881998386851000,6.82385107421875,0.22601348161697388,0.09208522737026215,0.21379654109477997
1701881998396443000,6.83344287109375,0.18691925704479218,0.037108972668647766,0.20035789906978607
1701881998406035500,6.843035400390625,0.1453816443681717,0.0004581354442052543,0.18081079423427582
1701881998415628800,6.85262890625,0.0916270911693573,-0.014202198944985867,0.14782503247261047
1701881998425221400,6.862221435546875,0.026877280324697495,-0.014202198944985867,0.11117420345544815
1701881998434813400,6.8718134765625,-0.046424392610788345,0.005344913341104984,0.07330167293548584
1701881998444406000,6.881406005859375,-0.11483928561210632,0.032222192734479904,0.03787253051996231
1701881998453999400,6.890999267578125,-0.17348061501979828,0.05421269312500954,0.007177455350756645
1701881998463592000,6.900592041015625,-0.21868331730365753,0.07986827939748764,-0.01847812905907631
1701881998473184000,6.91018408203125,-0.25655585527420044,0.09452861547470093,-0.04046862944960594
1701881998482776600,6.919776611328125,-0.27976804971694946,0.06032116711139679,-0.07834116369485855
1701881998492370000,6.929369873046875,-0.2883199155330658,-0.001985253533348441,-0.13331741094589233
1701881998501962500,6.93896240234375,-0.28343313932418823,-0.054518118500709534,-0.1907370537519455
1701881998511554300,6.94855419921875,-0.2602209448814392,-0.09605573117733002,-0.23593975603580475
1701881998521147100,6.958147216796875,-0.22723518311977386,-0.11560284346342087,-0.26159533858299255
1701881998530740500,6.967740478515625,-0.1954711228609085,-0.11560284346342087,-0.2701472043991089
1701881998540333000,6.9773330078125,-0.1698155403137207,-0.09727742522954941,-0.2591519355773926
1701881998549924900,6.9869248046875,-0.1575985997915268,-0.07406523078680038,-0.23716144263744354
1701881998559517700,6.996517578125,-0.16126367449760437,-0.0459662564098835,-0.2163926362991333
1701881998569111000,7.006111083984375,-0.17592400312423706,-0.009315420873463154,-0.21150586009025574
1701881998578703600,7.01570361328125,-0.19913621246814728,0.02489202655851841,-0.2176143378019333
1701881998588295400,7.02529541015625,-0.22967857122421265,0.04321744292974472,-0.23105297982692719
1701881998597888300,7.03488818359375,-0.26877278089523315,0.02733541466295719,-0.2530434727668762
1701881998607481600,7.044481689453125,-0.3115321099758148,-0.020310672000050545,-0.2835858464241028
1701881998617074200,7.05407421875,-0.365286648273468,-0.08994726091623306,-0.31657159328460693
1701881998626666000,7.063666015625,-0.4214846193790436,-0.16080553829669952,-0.3471139669418335
1701881998636258600,7.073258544921875,-0.4679090082645416,-0.21089501678943634,-0.3703261613845825
1701881998645852200,7.08285205078125,-0.499673068523407,-0.23288552463054657,-0.3898732662200928
1701881998655444700,7.09244482421875,-0.5167768001556396,-0.2585411071777344,-0.4143071472644806
1701881998665036500,7.10203662109375,-0.5082249045372009,-0.24876753985881805,-0.4143071472644806
1701881998674629000,7.111629150390625,-0.47890424728393555,-0.2292204350233078,-0.411863774061203
1701881998684222700,7.12122265625,-0.4300364851951599,-0.21333840489387512,-0.4130854606628418
1701881998693815300,7.130815185546875,-0.3640649616718292,-0.17057909071445465,-0.3972034156322479
1701881998703407000,7.140406982421875,-0.2895416021347046,-0.08872556686401367,-0.3581092059612274
1701881998712999700,7.149999755859375,-0.23090025782585144,-0.05207473039627075,-0.33978378772735596
1701881998722593000,7.159593017578125,-0.19058434665203094,-0.036192700266838074,-0.33856210112571716
1701881998732185600,7.169185546875,-0.17714570462703705,-0.021532366052269936,-0.3483356535434723
1701881998741777700,7.178777587890625,-0.1710372269153595,-0.03130592033267021,-0.3727695345878601
1701881998751370200,7.188370361328125,-0.19424942135810852,-0.0459662564098835,-0.4008685052394867
1701881998760963600,7.197963623046875,-0.2357870489358902,-0.039857782423496246,-0.43018919229507446
1701881998770556200,7.20755615234375,-0.24189551174640656,0.007788302376866341,-0.4643966257572174
1701881998780148000,7.21714794921875,-0.237008735537529,-0.009315420873463154,-0.492495596408844
1701881998789740800,7.22674072265625,-0.28098973631858826,-0.06429167091846466,-0.49493899941444397
1701881998799334100,7.236334228515625,-0.32374903559684753,-0.06917845457792282,-0.4900522232055664
1701881998808926700,7.2459267578125,-0.33596599102020264,-0.015423892997205257,-0.48760882019996643
1701881998818518500,7.2555185546875,-0.34696123003959656,0.050547610968351364,-0.49982577562332153
1701881998828111400,7.265111328125,-0.33718767762184143,0.11896250396966934,-0.5328115224838257
1701881998837704700,7.27470458984375,-0.3151971995830536,0.14583978056907654,-0.5792359113693237
1701881998847297300,7.28429736328125,-0.29565006494522095,0.15439164638519287,-0.6378772258758545
1701881998856889000,7.29388916015625,-0.24311721324920654,0.1751604527235031,-0.7062921524047852
1701881998866482000,7.30348193359375,-0.19913621246814728,0.14217470586299896,-0.7380561828613281
1701881998876075300,7.3130751953125,-0.20035789906978607,0.1751604527235031,-0.7527165412902832
1701881998885667800,7.322667724609375,-0.21990501880645752,0.19592925906181335,-0.7380561828613281
1701881998895259600,7.332259765625,-0.23334364593029022,0.16538690030574799,-0.7075138092041016
1701881998904852200,7.341852294921875,-0.24067382514476776,0.19348587095737457,-0.6867450475692749
1701881998914445800,7.35144580078125,-0.2504473626613617,0.19348587095737457,-0.6867450475692749
1701881998924038400,7.361038330078125,-0.26877278089523315,0.23380178213119507,-0.7209524512290955
1701881998933630200,7.370630126953125,-0.31886225938796997,0.21058958768844604,-0.7539382576942444
1701881998943222800,7.380222900390625,-0.3762819170951843,0.16905197501182556,-0.7869240045547485
1701881998952816400,7.38981640625,-0.4031592011451721,0.1776038408279419,-0.8565605878829956
1701881998962408700,7.39940869140625,-0.4324798583984375,0.23991025984287262,-0.9799517393112183
1701881998972000800,7.409000732421875,-0.47768256068229675,0.319320410490036,-1.1216683387756348
1701881998981593300,7.41859326171875,-0.5192201733589172,0.3584146201610565,-1.2621631622314453
1701881998991186700,7.428186767578125,-0.5741963982582092,0.27533939480781555,-1.3366864919662476
1701881999000779300,7.437779296875,-0.5900784730911255,0.21058958768844604,-1.3916627168655396
1701881999010371300,7.447371337890625,-0.5888567566871643,0.111632339656353,-1.423426866531372
1701881999019964000,7.4569638671875,-0.5913001298904419,0.04810422286391258,-1.4283136129379272
1701881999029557200,7.46655712890625,-0.5851916670799255,0.02733541466295719,-1.4099881649017334
1701881999039149800,7.47614990234375,-0.5815265774726868,0.04443913698196411,-1.3879976272583008
1701881999048741600,7.48574169921875,-0.5705313682556152,0.10918894410133362,-1.3794457912445068
1701881999058334500,7.49533447265625,-0.5473191738128662,0.16050012409687042,-1.3745590448379517
1701881999067927800,7.504927734375,-0.5302154421806335,0.18737739324569702,-1.352568507194519
1701881999077520400,7.514520263671875,-0.5045598149299622,0.20570281147956848,-1.3220261335372925
1701881999087112200,7.5241123046875,-0.4813476502895355,0.19592925906181335,-1.3122526407241821
1701881999096705000,7.533705078125,-0.45202696323394775,0.1629435122013092,-1.352568507194519
1701881999106298400,7.54329833984375,-0.4605788290500641,0.09575030952692032,-1.4185400009155273
1701881999115891000,7.552890869140625,-0.497229665517807,-0.0068720318377017975,-1.486954927444458
1701881999125482800,7.562482666015625,-0.5509842038154602,-0.11926792562007904,-1.5346009731292725
1701881999135075300,7.572075439453125,-0.6293253898620605,-0.21089501678943634,-1.5236058235168457
1701881999144669000,7.5816689453125,-0.7295043468475342,-0.20967331528663635,-1.4930634498596191
1701881999154261500,7.591261474609375,-0.8516737818717957,-0.1363716572523117,-1.463742733001709
1701881999163853300,7.600853271484375,-0.9652913808822632,-0.06184828653931618,-1.4429739713668823
1701881999173446000,7.61044580078125,-1.0508099794387817,-0.023975754156708717,-1.417318344116211
1701881999183039200,7.620039306640625,-1.1241116523742676,0.007788302376866341,-1.3806675672531128
1701881999192632000,7.629632080078125,-1.1925265789031982,0.050547610968351364,-1.3550119400024414
1701881999202223900,7.639223876953125,-1.2548329830169678,0.10552386194467545,-1.3354648351669312
1701881999211816400,7.64881640625,-1.260941505432129,0.11896250396966934,-1.3024790287017822
1701881999221409800,7.658409912109375,-1.2988139390945435,0.07498150318861008,-1.219403862953186
1701881999231002600,7.668002685546875,-1.3012573719024658,0.034665580838918686,-1.1289983987808228
1701881999240594200,7.67759423828125,-1.2633848190307617,-0.03374931216239929,-1.0349279642105103
1701881999250187000,7.68718701171875,-1.2084085941314697,-0.08750387281179428,-0.9335273504257202
1701881999259780400,7.6967802734375,-1.1351069211959839,-0.1241547018289566,-0.8272398710250854
1701881999269373000,7.706373046875,-1.0422581434249878,-0.14003673195838928,-0.7246175408363342
1701881999278964700,7.71596484375,-0.9359707236289978,-0.14125843346118927,-0.6317687630653381
1701881999288557600,7.7255576171875,-0.8247964978218079,-0.13514995574951172,-0.5425850749015808
1701881999298151000,7.73515087890625,-0.7172874212265015,-0.1119377613067627,-0.4534013867378235
1701881999307743500,7.744743408203125,-0.626882016658783,-0.07895200699567795,-0.3739912211894989
1701881999317335300,7.754335205078125,-0.5509842038154602,-0.037414394319057465,-0.31290650367736816
1701881999326928000,7.763927978515625,-0.4825693368911743,-0.012980503961443901,-0.27381229400634766
1701881999336521500,7.773521484375,-0.4459185004234314,-0.010537114925682545,-0.25060009956359863
1701881999346114000,7.783114013671875,-0.4214846193790436,-0.020310672000050545,-0.2432699203491211
1701881999355705900,7.792705810546875,-0.38727715611457825,-0.04474456235766411,-0.2420482337474823
1701881999365298400,7.80229833984375,-0.3530697226524353,-0.06795676052570343,-0.23960483074188232
1701881999374892000,7.81189208984375,-0.31886225938796997,-0.09239064902067184,-0.2420482337474823
1701881999384484600,7.821484619140625,-0.28343313932418823,-0.10216420143842697,-0.23593975603580475
1701881999394076400,7.831076416015625,-0.24433889985084534,-0.09483403712511063,-0.2163926362991333
1701881999403669000,7.8406689453125,-0.19913621246814728,-0.07650861889123917,-0.1907370537519455
1701881999413262300,7.850262451171875,-0.14782503247261047,-0.058183200657367706,-0.16874656081199646
1701881999422855200,7.859855224609375,-0.0916270911693573,-0.04963133856654167,-0.149199441075325
1701881999432446700,7.86944677734375,-0.03176405653357506,-0.04474456235766411,-0.13331741094589233
1701881999442039600,7.87903955078125,0.01710372418165207,-0.038636088371276855,-0.11621369421482086
1701881999451633000,7.8886328125,0.0525328628718853,-0.02764083817601204,-0.0978882759809494
1701881999461225500,7.8982255859375,0.08063183724880219,-0.014202198944985867,-0.07589777559041977
1701881999470817300,7.9078173828125,0.09895725548267365,0.0016798300202935934,-0.04413371533155441
1701881999480410000,7.91741015625,0.10873081535100937,0.012675080448389053,-0.006261184345930815
1701881999490003500,7.92700341796875,0.1172826737165451,0.02367033064365387,0.04153761267662048
1701881999499596000,7.936595947265625,0.12461283802986145,0.02733541466295719,0.09040539711713791
1701881999509187800,7.946187744140625,0.129499614238739,0.0261137206107378,0.13438639044761658
1701881999518780400,7.955780517578125,0.13316470384597778,0.028557108715176582,0.17225892841815948
1701881999528374000,7.9653740234375,0.13316470384597778,0.033443886786699295,0.20157960057258606
1701881999537966600,7.974966552734375,0.12827792763710022,0.03588727489113808,0.21990501880645752
1701881999547558400,7.984558349609375,0.12339114397764206,0.04077405482530594,0.23090025782585144
1701881999557151000,7.99415087890625,0.11606097966432571,0.0456608310341835,0.23823043704032898
1701881999566744600,8.00374462890625,0.11117420345544815,0.05543438717722893,0.24311721324920654
1701881999576337200,8.013337158203125,0.10995250940322876,0.06642963737249374,0.24311721324920654
1701881999585929000,8.022928955078125,0.11117420345544815,0.07620319724082947,0.2357870489358902
1701881999595521500,8.032521484375,0.11606097966432571,0.0847550556063652,0.2223484069108963
1701881999605115100,8.042115234375,0.11972606182098389,0.08842013776302338,0.20768806338310242
1701881999614707500,8.05170751953125,0.12339114397764206,0.08964183181524277,0.1966928243637085
1701881999624299500,8.061299560546875,0.12827792763710022,0.0847550556063652,0.18569757044315338
1701881999633892000,8.07089208984375,0.13316470384597778,0.07498150318861008,0.17225892841815948
1701881999643485400,8.0804853515625,0.13805148005485535,0.06765133142471313,0.15515519678592682
1701881999653078300,8.090078369140626,0.14171656966209412,0.06276455521583557,0.13805148005485535
1701881999662669800,8.099669921875,0.1441599577665329,0.06276455521583557,0.12827792763710022
1701881999672262700,8.1092626953125,0.14782503247261047,0.06276455521583557,0.11606097966432571
1701881999681856000,8.11885595703125,0.14904673397541046,0.06154286116361618,0.10628741979598999
1701881999691448600,8.128448486328125,0.15026842057704926,0.06520794332027435,0.09773556143045425
1701881999701040400,8.138040283203125,0.14904673397541046,0.06276455521583557,0.08796200156211853
1701881999710633200,8.14763330078125,0.15026842057704926,0.05787777900695801,0.0781884491443634
1701881999720226600,8.1572265625,0.15149012207984924,0.04810422286391258,0.06963659077882767
1701881999729819100,8.166819091796874,0.15149012207984924,0.033443886786699295,0.05619794875383377
1701881999739411000,8.176410888671874,0.15393351018428802,0.017561858519911766,0.046424392610788345
1701881999749003800,8.186003662109375,0.1588202863931656,0.005344913341104984,0.042759306728839874
1701881999758597000,8.19559716796875,0.16737215220928192,-0.009315420873463154,0.04031591862440109
1701881999768189700,8.205189697265626,0.17714570462703705,-0.020310672000050545,0.047646086663007736
1701881999777781500,8.214781494140626,0.18691925704479218,-0.03130592033267021,0.05375456064939499
1701881999787374000,8.2243740234375,0.19180603325366974,-0.03497100621461868,0.061084724962711334
1701881999796967700,8.2339677734375,0.19424942135810852,-0.0325276181101799,0.06841489672660828
1701881999806560000,8.24356005859375,0.19180603325366974,-0.02641914412379265,0.07452336698770523
1701881999816152000,8.253152099609375,0.19180603325366974,-0.022754060104489326,0.07696675509214401
1701881999825744600,8.26274462890625,0.1966928243637085,-0.02764083817601204,0.0781884491443634
1701881999835338000,8.272337890625,0.20402298867702484,-0.037414394319057465,0.08185353130102158
1701881999844930800,8.281930908203124,0.21501824259757996,-0.04963133856654167,0.08674030750989914
1701881999854522400,8.2915224609375,0.2223484069108963,-0.06429167091846466,0.09407047927379608
1701881999864115200,8.301115234375,0.22601348161697388,-0.072843536734581,0.1050657257437706
1701881999873708500,8.31070849609375,0.2223484069108963,-0.07895200699567795,0.11483928561210632
1701881999883301000,8.320301025390625,0.21501824259757996,-0.07528692483901978,0.12461283802986145
1701881999892893000,8.329892822265625,0.20524467527866364,-0.0716218426823616,0.12705622613430023
1701881999902485800,8.33948583984375,0.19180603325366974,-0.06306997686624527,0.12827792763710022
1701881999912079000,8.3490791015625,0.17836740612983704,-0.055739812552928925,0.130721315741539
1701881999921671700,8.358671630859375,0.1698155403137207,-0.05329642444849014,0.1319430023431778
1701881999931263500,8.368263427734375,0.16615045070648193,-0.055739812552928925,0.13438639044761658
1701881999940856300,8.377856201171875,0.16615045070648193,-0.0716218426823616,0.13560809195041656
1701881999950449700,8.38744970703125,0.16737215220928192,-0.0850604772567749,0.13927318155765533
1701881999960042200,8.397042236328126,0.1698155403137207,-0.09727742522954941,0.13927318155765533
1701881999969634000,8.406634033203124,0.17348061501979828,-0.10338589549064636,0.13438639044761658
1701881999979226600,8.4162265625,0.1710372269153595,-0.10338589549064636,0.12461283802986145
1701881999988820200,8.4258203125,0.16492876410484314,-0.0984991192817688,0.11117420345544815
1701881999998412800,8.435412841796875,0.15515519678592682,-0.08994726091623306,0.09529217332601547
1701882000008004600,8.445004638671875,0.14049486815929413,-0.07895200699567795,0.0794101431965828
1701882000017597200,8.45459716796875,0.12216944992542267,-0.06673506647348404,0.062306419014930725
1701882000027190500,8.4641904296875,0.10262233763933182,-0.055739812552928925,0.046424392610788345
1701882000036783000,8.473783203125,0.08551861345767975,-0.04718795046210289,0.028098974376916885
1701882000046375000,8.483375,0.06841489672660828,-0.04107947647571564,0.014507622458040714
1701882000055967700,8.4929677734375,0.05497625470161438,-0.037414394319057465,-0.00015271181473508477
1701882000065561000,8.50256103515625,0.045202698558568954,-0.03374931216239929,-0.011147962883114815
1701882000075153700,8.512153564453126,0.03787253051996231,-0.02764083817601204,-0.02214321307837963
1701882000084745500,8.521745361328126,0.03542914241552353,-0.023975754156708717,-0.029473381116986275
1701882000094338300,8.53133837890625,0.03176405653357506,-0.022754060104489326,-0.0331384651362896
1701882000103931600,8.540931640625,0.028098974376916885,-0.022754060104489326,-0.030695075169205666
1701882000113524200,8.550524169921875,0.025655584409832954,-0.020310672000050545,-0.02214321307837963
1701882000123116000,8.560115966796875,0.023212196305394173,-0.017867282032966614,-0.01725643500685692
1701882000132708900,8.569708984375,0.02076880633831024,-0.016645587980747223,-0.016034740954637527
1701882000142302200,8.57930224609375,0.01588202826678753,-0.016645587980747223,-0.01969982497394085
1701882000151894800,8.588894775390624,0.012216945178806782,-0.019088976085186005,-0.024586603045463562
1701882000161486600,8.598486572265625,0.008551862090826035,-0.017867282032966614,-0.030695075169205666
1701882000171079200,8.6080791015625,0.007330167107284069,-0.014202198944985867,-0.03558185324072838
1701882000180672800,8.6176728515625,0.004886778071522713,-0.015423892997205257,-0.04291202127933502
1701882000190265300,8.627265380859376,0.0036650835536420345,-0.017867282032966614,-0.05024218559265137
1701882000199857200,8.636857177734376,0.0036650835536420345,-0.019088976085186005,-0.05512896552681923
1701882000209449700,8.64644970703125,0.0036650835536420345,-0.019088976085186005,-0.05635065957903862
1701882000219043000,8.65604296875,0.0036650835536420345,-0.020310672000050545,-0.05512896552681923
1701882000228636000,8.665635986328125,0.0024433890357613564,-0.015423892997205257,-0.049020491540431976
1701882000238227500,8.6752275390625,-0.0012216945178806782,-0.009315420873463154,-0.04169032722711563
1701882000247820300,8.6848203125,-0.0024433890357613564,-0.0032069480512291193,-0.03558185324072838
1701882000257413600,8.69441357421875,-0.004886778071522713,0.0016798300202935934,-0.03436015918850899
1701882000267006200,8.704006103515624,-0.004886778071522713,0.0065666078589856625,-0.03802524134516716
1701882000276598000,8.713597900390624,-0.006108472589403391,0.007788302376866341,-0.046577103435993195
1701882000286190800,8.72319091796875,-0.0036650835536420345,0.0065666078589856625,-0.05757235363125801
1701882000295784200,8.7327841796875,-0.0012216945178806782,0.0016798300202935934,-0.06856760382652283
1701882000305376800,8.742376708984375,0.0012216945178806782,-0.001985253533348441,-0.07711946964263916
1701882000314968600,8.751968505859375,0.004886778071522713,-0.008093725889921188,-0.0856713280081749
1701882000324561200,8.76156103515625,0.006108472589403391,-0.01175880990922451,-0.09177979826927185
1701882000334154800,8.77115478515625,0.006108472589403391,-0.014202198944985867,-0.09544488787651062
1701882000343747300,8.780747314453125,0.0036650835536420345,-0.012980503961443901,-0.0978882759809494
1701882000353339100,8.790339111328125,0,-0.010537114925682545,-0.0978882759809494
1701882000362931700,8.799931640625,-0.0024433890357613564,-0.010537114925682545,-0.09422318637371063
1701882000372525000,8.809525146484376,-0.0036650835536420345,-0.014202198944985867,-0.09300149232149124
1701882000382118000,8.819117919921876,-0.0012216945178806782,-0.019088976085186005,-0.0856713280081749
1701882000391709700,8.828709716796874,0.006108472589403391,-0.025197450071573257,-0.07589777559041977
1701882000401302300,8.83830224609375,0.013438640162348747,-0.0325276181101799,-0.06490252166986465
1701882000410895600,8.8478955078125,0.021990500390529633,-0.036192700266838074,-0.05390727147459984
1701882000420488400,8.857488525390625,0.029320668429136276,-0.037414394319057465,-0.045355409383773804
1701882000430080000,8.867080078125,0.030542362481355667,-0.03497100621461868,-0.04046862944960594
1701882000439672800,8.8766728515625,0.030542362481355667,-0.03130592033267021,-0.0331384651362896
1701882000449266200,8.88626611328125,0.026877280324697495,-0.02641914412379265,-0.028251685202121735
1701882000458858800,8.895858642578125,0.025655584409832954,-0.022754060104489326,-0.023364907130599022
1701882000468450600,8.905450439453125,0.025655584409832954,-0.025197450071573257,-0.02092151902616024
1701882000478043400,8.91504345703125,0.028098974376916885,-0.025197450071573257,-0.01847812905907631
1701882000487636700,8.92463671875,0.030542362481355667,-0.02641914412379265,-0.01725643500685692
1701882000497229300,8.934229248046876,0.03298575058579445,-0.02764083817601204,-0.014813045971095562
1701882000506821000,8.943821044921876,0.03298575058579445,-0.02641914412379265,-0.012369656935334206
1701882000516413700,8.95341357421875,0.03420744836330414,-0.02641914412379265,-0.007482878863811493
1701882000526007300,8.96300732421875,0.03298575058579445,-0.025197450071573257,-0.0038177953101694584
1701882000535599900,8.972599853515625,0.03176405653357506,-0.019088976085186005,0.0035123717971146107
1701882000545191700,8.982191650390625,0.030542362481355667,-0.019088976085186005,0.008399149402976036
1701882000554784300,8.9917841796875,0.030542362481355667,-0.015423892997205257,0.012064233422279358
1701882000564377900,9.0013779296875,0.03176405653357506,-0.014202198944985867,0.010842538438737392
1701882000573970200,9.01097021484375,0.03176405653357506,-0.01175880990922451,0.007177455350756645
1701882000583562200,9.020562255859375,0.03420744836330414,-0.01175880990922451,0.0035123717971146107
1701882000593154800,9.03015478515625,0.03542914241552353,-0.012980503961443901,-0.001374406274408102
1701882000602748200,9.039748046875,0.03665083646774292,-0.01175880990922451,-0.0050394898280501366
1701882000612340700,9.0493408203125,0.03542914241552353,-0.012980503961443901,-0.00992626789957285
1701882000621932500,9.0589326171875,0.03176405653357506,-0.009315420873463154,-0.00992626789957285
1701882000631525400,9.068525390625,0.026877280324697495,-0.0032069480512291193,-0.008704573847353458
1701882000641118700,9.07811865234375,0.01954711228609085,0.0029015245381742716,-0.007482878863811493
1701882000650711300,9.087711181640625,0.013438640162348747,0.007788302376866341,-0.008704573847353458
1701882000660303000,9.09730322265625,0.008551862090826035,0.011453386396169662,-0.011147962883114815
1701882000669896000,9.10689599609375,0.004886778071522713,0.011453386396169662,-0.013591351918876171
1701882000679489300,9.1164892578125,0.0036650835536420345,0.011453386396169662,-0.01725643500685692
1701882000689081900,9.126081787109374,0.0036650835536420345,0.009009997360408306,-0.01847812905907631
1701882000698673700,9.135673583984374,0.004886778071522713,0.004123218823224306,-0.01969982497394085
1701882000708266200,9.145266357421875,0.006108472589403391,0.0029015245381742716,-0.016034740954637527
1701882000717859800,9.15485986328125,0.006108472589403391,0.0004581354442052543,-0.011147962883114815
1701882000727452400,9.164452392578125,0.004886778071522713,-0.0007635590736754239,-0.007482878863811493
1701882000737044200,9.174044189453125,0.004886778071522713,0.0004581354442052543,-0.0038177953101694584
1701882000746636800,9.18363671875,0.004886778071522713,0.0016798300202935934,-0.00259610079228878
1701882000756230100,9.193230224609374,0.006108472589403391,0.0004581354442052543,-0.001374406274408102
1701882000765822700,9.20282275390625,0.007330167107284069,-0.0007635590736754239,-0.00015271181473508477
1701882000775414800,9.212414794921875,0.009773556143045425,-0.001985253533348441,0.0022906772792339325
1701882000785007400,9.22200732421875,0.010995250195264816,-0.004428642801940441,0.0035123717971146107
1701882000794600700,9.2316005859375,0.012216945178806782,-0.008093725889921188,0.007177455350756645
1701882000804193300,9.241193359375,0.014660334214568138,-0.009315420873463154,0.012064233422279358
1701882000813785000,9.25078515625,0.01588202826678753,-0.009315420873463154,0.01572931744158268
1701882000823378000,9.2603779296875,0.01832541823387146,-0.009315420873463154,0.013285927474498749
1701882000832971300,9.26997119140625,0.01832541823387146,-0.008093725889921188,0.012064233422279358
1701882000842563800,9.279563720703125,0.01832541823387146,-0.008093725889921188,0.008399149402976036
1701882000852155600,9.28915576171875,0.01832541823387146,-0.008093725889921188,0.007177455350756645
1701882000861748200,9.298748291015626,0.01710372418165207,-0.0068720318377017975,0.007177455350756645
1701882000871341800,9.308341796875,0.01710372418165207,-0.0068720318377017975,0.007177455350756645
1701882000880934400,9.317934326171875,0.01710372418165207,-0.0068720318377017975,0.007177455350756645
1701882000890526200,9.327526123046875,0.01710372418165207,-0.009315420873463154,0.007177455350756645
1701882000900118800,9.337118896484375,0.01954711228609085,-0.009315420873463154,0.007177455350756645
1701882000909712100,9.346712158203125,0.01832541823387146,-0.005650337319821119,0.005955760832875967
1701882000919305000,9.356304931640626,0.01710372418165207,-0.001985253533348441,0.007177455350756645
1701882000928896500,9.365896484375,0.014660334214568138,0.0029015245381742716,0.009620844386518002
1701882000938489300,9.3754892578125,0.013438640162348747,0.0029015245381742716,0.007177455350756645
1701882000948082700,9.385082763671875,0.013438640162348747,0.0004581354442052543,0.004734066314995289
1701882000957675300,9.39467529296875,0.012216945178806782,-0.0068720318377017975,-0.00015271181473508477
1701882000967267000,9.40426708984375,0.014660334214568138,-0.012980503961443901,-0.007482878863811493
1701882000976860000,9.41385986328125,0.014660334214568138,-0.016645587980747223,-0.013591351918876171
1701882000986453200,9.423453369140624,0.012216945178806782,-0.019088976085186005,-0.023364907130599022
1701882000996045800,9.4330458984375,0.008551862090826035,-0.020310672000050545,-0.0331384651362896
1701882001005637600,9.4426376953125,0.0036650835536420345,-0.017867282032966614,-0.03924693539738655
1701882001015230200,9.452230224609375,-0.0036650835536420345,-0.014202198944985867,-0.04413371533155441
1701882001024823800,9.46182373046875,-0.009773556143045425,-0.009315420873463154,-0.04291202127933502
1701882001034416400,9.47141650390625,-0.014660334214568138,-0.004428642801940441,-0.03924693539738655
1701882001044008200,9.48100830078125,-0.01588202826678753,-0.0032069480512291193,-0.03680354729294777
1701882001053600800,9.490600830078124,-0.01588202826678753,-0.004428642801940441,-0.031916771084070206
1701882001063194000,9.500194091796875,-0.013438640162348747,-0.008093725889921188,-0.028251685202121735
1701882001072787000,9.509786865234375,-0.009773556143045425,-0.008093725889921188,-0.023364907130599022
1701882001082378500,9.51937841796875,-0.007330167107284069,-0.009315420873463154,-0.01725643500685692
1701882001091971300,9.528971435546875,-0.0036650835536420345,-0.0068720318377017975,-0.008704573847353458
1701882001101564700,9.538564697265626,-0.0012216945178806782,-0.004428642801940441,-0.006261184345930815
1701882001111157200,9.5481572265625,0.0012216945178806782,0.0004581354442052543,-0.00259610079228878
1701882001120749000,9.5577490234375,0.0012216945178806782,0.004123218823224306,-0.00259610079228878
1701882001130342000,9.567341796875,0.0024433890357613564,0.005344913341104984,-0.0038177953101694584
1701882001139935200,9.576935302734375,0.004886778071522713,0.011453386396169662,-0.001374406274408102
1701882001149527800,9.58652783203125,0.006108472589403391,0.01511846948415041,-0.00015271181473508477
1701882001159119600,9.59611962890625,0.006108472589403391,0.017561858519911766,0.0010689827613532543
1701882001168712200,9.605712158203126,0.008551862090826035,0.016340164467692375,0.0010689827613532543
1701882001178305800,9.615305908203124,0.008551862090826035,0.018783552572131157,0.0035123717971146107
1701882001187898400,9.6248984375,0.009773556143045425,0.018783552572131157,0.007177455350756645
1701882001197490200,9.634490234375,0.008551862090826035,0.021226942539215088,0.010842538438737392
1701882001207082800,9.644082763671875,0.006108472589403391,0.02367033064365387,0.01695101149380207
1701882001216676000,9.653676025390626,0.0012216945178806782,0.0261137206107378,0.023212196305394173
1701882001226269000,9.66326904296875,-0.004886778071522713,0.02489202655851841,0.023212196305394173
1701882001235860500,9.672860595703124,-0.012216945178806782,0.02733541466295719,0.023212196305394173
1701882001245453300,9.682453369140624,-0.02076880633831024,0.031000498682260513,0.01695101149380207
1701882001255046700,9.692046630859375,-0.028098974376916885,0.034665580838918686,0.008399149402976036
1701882001264639200,9.70163916015625,-0.03420744836330414,0.03955236077308655,-0.001374406274408102
1701882001274231000,9.71123095703125,-0.03542914241552353,0.04199574887752533,-0.011147962883114815
1701882001283823900,9.720823974609376,-0.03420744836330414,0.04688252881169319,-0.02214321307837963
1701882001293417200,9.730417236328124,-0.029320668429136276,0.050547610968351364,-0.029473381116986275
1701882001303009800,9.740009765625,-0.023212196305394173,0.04932591691613197,-0.0331384651362896
1701882001312601600,9.7496015625,-0.01832541823387146,0.0456608310341835,-0.03436015918850899
1701882001322194200,9.759194091796875,-0.013438640162348747,0.04321744292974472,-0.03558185324072838
1701882001331787500,9.76878759765625,-0.007330167107284069,0.03833066672086716,-0.0331384651362896
1701882001341380400,9.77838037109375,-0.0012216945178806782,0.032222192734479904,-0.030695075169205666
1701882001350972200,9.78797216796875,0.0036650835536420345,0.028557108715176582,-0.027029991149902344
1701882001360564700,9.797564697265624,0.006108472589403391,0.02244863659143448,-0.024586603045463562
1701882001370158000,9.807157958984375,0.009773556143045425,0.01511846948415041,-0.02092151902616024
1701882001379750700,9.816750732421875,0.010995250195264816,0.005344913341104984,-0.01969982497394085
1701882001389342500,9.826342529296875,0.010995250195264816,0.0004581354442052543,-0.01969982497394085
1701882001398935300,9.835935302734375,0.010995250195264816,-0.0032069480512291193,-0.01969982497394085
1701882001408528600,9.845528564453126,0.013438640162348747,-0.005650337319821119,-0.01847812905907631
1701882001418121200,9.855121337890624,0.01710372418165207,-0.008093725889921188,-0.014813045971095562
1701882001427713000,9.864713134765625,0.01954711228609085,-0.012980503961443901,-0.007482878863811493
1701882001437305600,9.8743056640625,0.021990500390529633,-0.016645587980747223,0.0035123717971146107
1701882001446899200,9.883899169921875,0.02076880633831024,-0.021532366052269936,0.01817270554602146
1701882001456491800,9.89349169921875,0.021990500390529633,-0.025197450071573257,0.028098974376916885
1701882001466083600,9.90308349609375,0.01832541823387146,-0.02764083817601204,0.030542362481355667
1701882001475676200,9.91267626953125,0.010995250195264816,-0.025197450071573257,0.029320668429136276
1701882001485269500,9.92226953125,0.004886778071522713,-0.023975754156708717,0.023212196305394173
1701882001494862000,9.931862060546875,0.0024433890357613564,-0.021532366052269936,0.01572931744158268
1701882001504454000,9.941453857421875,0.0024433890357613564,-0.021532366052269936,0.009620844386518002
1701882001514046700,9.951046630859375,0.0024433890357613564,-0.020310672000050545,0.007177455350756645
1701882001523640000,9.96064013671875,0.0012216945178806782,-0.017867282032966614,0.005955760832875967
1701882001533232600,9.970232666015624,0,-0.012980503961443901,0.004734066314995289
1701882001542824400,9.979824462890624,-0.0012216945178806782,-0.0068720318377017975,-0.00015271181473508477
1701882001552417300,9.989417236328125,-0.008551862090826035,0.0004581354442052543,-0.0050394898280501366
1701882001562010600,9.9990107421875,-0.014660334214568138,0.010231691412627697,-0.008704573847353458
1701882001571603200,10.008603271484375,-0.01832541823387146,0.02244863659143448,-0.012369656935334206
1701882001581195000,10.018195068359375,-0.01710372418165207,0.03588727489113808,-0.01847812905907631
1701882001590787600,10.02778759765625,-0.013438640162348747,0.0456608310341835,-0.025808297097682953
1701882001600381200,10.037381103515624,-0.004886778071522713,0.04810422286391258,-0.027029991149902344
1701882001609973500,10.046973388671875,0.0036650835536420345,0.050547610968351364,-0.027029991149902344
1701882001619565300,10.0565654296875,0.010995250195264816,0.04932591691613197,-0.027029991149902344
1701882001629158100,10.066158203125,0.01832541823387146,0.04199574887752533,-0.030695075169205666
1701882001638751500,10.07575146484375,0.025655584409832954,0.02733541466295719,-0.0331384651362896
1701882001648344000,10.085343994140626,0.03176405653357506,0.01511846948415041,-0.03436015918850899
1701882001657936000,10.094935791015626,0.03420744836330414,0.005344913341104984,-0.03436015918850899
1701882001667528700,10.10452880859375,0.03176405653357506,0.004123218823224306,-0.03680354729294777
1701882001677122000,10.1141220703125,0.025655584409832954,0.007788302376866341,-0.047798797488212585
1701882001686714600,10.123714599609375,0.023212196305394173,0.01511846948415041,-0.06001574173569679
1701882001696306400,10.133306396484375,0.021990500390529633,0.016340164467692375,-0.07467607408761978
1701882001705899000,10.14289892578125,0.025655584409832954,0.016340164467692375,-0.09300149232149124
1701882001715492400,10.152492431640624,0.028098974376916885,0.011453386396169662,-0.1113269105553627
1701882001725085200,10.162085205078125,0.03298575058579445,0.004123218823224306,-0.12843063473701477
1701882001734677000,10.171677001953125,0.03787253051996231,-0.0007635590736754239,-0.14309096336364746
1701882001744269600,10.18126953125,0.04153761267662048,-0.0068720318377017975,-0.1516428291797638
1701882001753863000,10.19086279296875,0.045202698558568954,-0.009315420873463154,-0.15530791878700256
1701882001763455500,10.20045556640625,0.045202698558568954,-0.010537114925682545,-0.15530791878700256
1701882001773047300,10.21004736328125,0.043981000781059265,-0.008093725889921188,-0.1516428291797638
1701882001782640000,10.21964013671875,0.04031591862440109,-0.001985253533348441,-0.14309096336364746
1701882001792233500,10.2292333984375,0.03665083646774292,0.0004581354442052543,-0.1369825005531311
1701882001801826000,10.238825927734375,0.03665083646774292,0.0004581354442052543,-0.13576079905033112
1701882001811417900,10.24841796875,0.03787253051996231,-0.005650337319821119,-0.13453911244869232
1701882001821010400,10.258010498046875,0.04153761267662048,-0.014202198944985867,-0.1369825005531311
1701882001830604000,10.26760400390625,0.046424392610788345,-0.02641914412379265,-0.149199441075325
1701882001840196400,10.2771962890625,0.05131116881966591,-0.039857782423496246,-0.16996824741363525
1701882001849788400,10.286788330078124,0.0525328628718853,-0.04840964451432228,-0.1907370537519455
1701882001859381000,10.296381103515625,0.0525328628718853,-0.058183200657367706,-0.21028417348861694
1701882001868974300,10.305974365234375,0.047646086663007736,-0.058183200657367706,-0.22616620361804962
1701882001878567000,10.31556689453125,0.04031591862440109,-0.054518118500709534,-0.23593975603580475
1701882001888158700,10.32515869140625,0.024433890357613564,-0.039857782423496246,-0.23349636793136597
1701882001897751600,10.33475146484375,0.0024433890357613564,-0.02886253222823143,-0.22616620361804962
1701882001907345000,10.344344970703125,-0.021990500390529633,-0.021532366052269936,-0.21394924819469452
1701882001916937500,10.3539375,-0.046424392610788345,-0.016645587980747223,-0.2017323076725006
1701882001926529300,10.363529296875,-0.06719319522380829,-0.014202198944985867,-0.1907370537519455
1701882001936121900,10.373121826171875,-0.08429691940546036,-0.012980503961443901,-0.18340688943862915
1701882001945715500,10.382715576171876,-0.11483928561210632,-0.008093725889921188,-0.19195875525474548
1701882001955308000,10.39230810546875,-0.1319430023431778,-0.04107947647571564,-0.22494450211524963
1701882001964899800,10.40189990234375,-0.14049486815929413,-0.06795676052570343,-0.28847262263298035
1701882001974492400,10.411492431640625,-0.12461283802986145,-0.017867282032966614,-0.3458922505378723
1701882001984085800,10.421085693359375,-0.129499614238739,-0.07528692483901978,-0.3764346241950989
1701882001993678300,10.43067822265625,-0.11972606182098389,-0.06673506647348404,-0.3605526089668274
1701882002003270100,10.440270263671875,-0.11972606182098389,-0.04718795046210289,-0.29946786165237427
1701882002012863000,10.449863037109376,-0.1185043677687645,-0.0032069480512291193,-0.23227466642856598
1701882002022456300,10.459456298828124,-0.11483928561210632,0.04321744292974472,-0.17241163551807404
1701882002032049000,10.469048828125,-0.0916270911693573,0.06642963737249374,-0.1382041871547699
1701882002041640700,10.478640625,-0.05864133685827255,0.07375980913639069,-0.13331741094589233
1701882002051233300,10.4882333984375,-0.03420744836330414,0.06642963737249374,-0.14675605297088623
1701882002060827000,10.497826904296875,-0.026877280324697495,0.08353336155414581,-0.1760767251253128
1701882002070419500,10.50741943359375,-0.03542914241552353,-0.010537114925682545,-0.2652604281902313
1701882002080011300,10.51701123046875,-0.025655584409832954,-0.039857782423496246,-0.32878854870796204
1701882002089603800,10.526603759765624,-0.02076880633831024,-0.08628217875957489,-0.3703261613845825
1701882002099197200,10.536197265625,-0.023212196305394173,-0.10827267915010452,-0.38132140040397644
1701882002108790000,10.5457900390625,-0.029320668429136276,-0.12048961967229843,-0.36910444498062134
1701882002118381600,10.555381591796875,-0.043981000781059265,-0.1253764033317566,-0.34100547432899475
1701882002127974400,10.564974365234375,-0.043981000781059265,-0.10827267915010452,-0.3092414140701294
1701882002137567700,10.574567626953124,-0.04153761267662048,-0.10705098509788513,-0.27381229400634766
1701882002147160300,10.584160400390624,-0.03665083646774292,-0.12293300777673721,-0.24571330845355988
1701882002156752100,10.593752197265625,-0.030542362481355667,-0.14125843346118927,-0.2298312783241272
1701882002166344700,10.6033447265625,-0.024433890357613564,-0.17057909071445465,-0.2176143378019333
1701882002175938300,10.612938232421875,-0.006108472589403391,-0.1632489264011383,-0.20051060616970062
1701882002185531000,10.62253076171875,-0.008551862090826035,-0.15469707548618317,-0.20051060616970062
1701882002195122700,10.632122802734376,-0.012216945178806782,-0.18401773273944855,-0.2163926362991333
1701882002204715300,10.64171533203125,-0.013438640162348747,-0.2011214643716812,-0.21394924819469452
1701882002214308600,10.65130859375,-0.02076880633831024,-0.19867807626724243,-0.18462859094142914
1701882002223901200,10.660901123046875,-0.025655584409832954,-0.17302247881889343,-0.149199441075325
1701882002233493200,10.6704931640625,-0.010995250195264816,-0.13026317954063416,-0.11865708231925964
1701882002243085800,10.6800859375,-0.0036650835536420345,-0.09727742522954941,-0.0856713280081749
1701882002252679200,10.68967919921875,-0.012216945178806782,-0.08383878320455551,-0.06001574173569679
1701882002262271700,10.699271728515624,-0.021990500390529633,-0.0850604772567749,-0.049020491540431976
1701882002271863600,10.708863525390624,-0.021990500390529633,-0.08994726091623306,-0.046577103435993195
1701882002281456400,10.718456298828125,-0.024433890357613564,-0.08750387281179428,-0.045355409383773804
1701882002291049700,10.7280498046875,-0.029320668429136276,-0.06917845457792282,-0.03924693539738655
1701882002300642300,10.737642333984375,-0.03298575058579445,-0.04230117425322533,-0.023364907130599022
1701882002310234000,10.747234130859376,-0.030542362481355667,-0.016645587980747223,-0.006261184345930815
1701882002319826700,10.75682666015625,-0.007330167107284069,-0.08872556686401367,-0.06245913356542587
1701882002329420300,10.766420166015624,0.010995250195264816,-0.19623468816280365,-0.18462859094142914
1701882002339012600,10.7760126953125,0.03298575058579445,-0.25976279377937317,-0.28847262263298035
1701882002348604700,10.785604736328125,0.046424392610788345,-0.2683146595954895,-0.3336753249168396
1701882002358197200,10.795197265625,0.045202698558568954,-0.23532891273498535,-0.31290650367736816
1701882002367790600,10.80479052734375,0.030542362481355667,-0.18768282234668732,-0.26281702518463135
1701882002377383200,10.814383056640626,0.028098974376916885,-0.14614520967006683,-0.22005772590637207
1701882002386975000,10.82397509765625,0.042759306728839874,-0.12904147803783417,-0.19684553146362305
1701882002396567800,10.83356787109375,0.09040539711713791,-0.06429167091846466,-0.19928891956806183
1701882002406161200,10.8431611328125,0.13560809195041656,0.005344913341104984,-0.2518217861652374
1701882002415753700,10.852753662109375,0.16126367449760437,0.04932591691613197,-0.3177932798862457
1701882002425345500,10.862345458984375,0.17348061501979828,0.12018419802188873,-0.3361186981201172
1701882002434938000,10.871938232421876,0.17836740612983704,0.20814619958400726,-0.28602921962738037
1701882002444531500,10.881531494140624,0.15393351018428802,0.25212720036506653,-0.20784078538417816
1701882002454124300,10.891124267578125,0.10995250940322876,0.23258009552955627,-0.14675605297088623
1701882002463716000,10.900716064453125,0.0659715011715889,0.17882554233074188,-0.12843063473701477
1701882002473308700,10.91030859375,0.025655584409832954,0.10796725004911423,-0.1369825005531311
1701882002482902000,10.919902099609375,-0.0012216945178806782,0.06887302547693253,-0.150421142578125
1701882002492494600,10.92949462890625,-0.01588202826678753,0.05665608495473862,-0.17241163551807404
1701882002502086700,10.939086669921876,-0.024433890357613564,0.06642963737249374,-0.2017323076725006
1701882002511679200,10.94867919921875,-0.03420744836330414,0.0713164210319519,-0.22738789021968842
1701882002521272600,10.9582724609375,-0.045202698558568954,0.09941539168357849,-0.23716144263744354
1701882002530865200,10.967865234375,-0.05864133685827255,0.1519482582807541,-0.2163926362991333
1701882002540457000,10.97745703125,-0.07696675509214401,0.19837264716625214,-0.16630317270755768
1701882002550049500,10.987049560546875,-0.0916270911693573,0.21791976690292358,-0.10399674624204636
1701882002559643100,10.99664306640625,-0.11606097966432571,0.26312246918678284,-0.05757235363125801
1701882002569235700,11.006235595703124,-0.12705622613430023,0.2838912606239319,-0.04169032722711563
1701882002578827500,11.01582763671875,-0.12705622613430023,0.319320410490036,-0.05512896552681923
1701882002588420000,11.025420166015625,-0.11239589750766754,0.35352784395217896,-0.06123743951320648
1701882002598013400,11.035013427734375,-0.0647498071193695,0.3229855000972748,-0.04046862944960594
1701882002607606000,11.04460595703125,-0.04153761267662048,0.2948864996433258,-0.024586603045463562
1701882002617198000,11.054197998046876,-0.03176405653357506,0.2716743052005768,-0.02214321307837963
1701882002626790700,11.063790771484374,-0.03176405653357506,0.23868857324123383,-0.014813045971095562
1701882002636384000,11.073384033203125,-0.03420744836330414,0.20692451298236847,-0.001374406274408102
1701882002645976600,11.0829765625,-0.045202698558568954,0.16783028841018677,0.0022906772792339325
1701882002655568400,11.092568359375,-0.045202698558568954,0.12995775043964386,0.0022906772792339325
1701882002665161200,11.1021611328125,-0.03298575058579445,0.08719844371080399,-0.00015271181473508477
1701882002674754600,11.111754638671876,-0.01710372418165207,0.06887302547693253,-0.00259610079228878
1701882002684347100,11.12134716796875,0.0024433890357613564,0.06398624926805496,-0.0050394898280501366
1701882002693939000,11.13093896484375,0.01710372418165207,0.06154286116361618,-0.01847812905907631
1701882002703531500,11.140531494140625,0.021990500390529633,0.07742489129304886,-0.031916771084070206
1701882002713125000,11.150125,0.025655584409832954,0.10308047384023666,-0.03436015918850899
1701882002722717700,11.1597177734375,0.029320668429136276,0.11896250396966934,-0.031916771084070206
1701882002732309500,11.1693095703125,0.03176405653357506,0.1360662281513214,-0.01969982497394085
1701882002741902000,11.178902099609376,0.029320668429136276,0.15927842259407043,0.004734066314995289
1701882002751495400,11.188495361328124,0.029320668429136276,0.1763821393251419,0.023212196305394173
1701882002761088000,11.198087890625,0.03176405653357506,0.17393875122070312,0.03665083646774292
1701882002770680000,11.20768017578125,0.043981000781059265,0.14461809396743774,0.04153761267662048
1701882002780272600,11.217272705078125,0.03787253051996231,0.13362284004688263,0.03420744836330414
1701882002789866000,11.226865966796876,0.03665083646774292,0.10796725004911423,0.023212196305394173
1701882002799458600,11.23645849609375,0.0390942245721817,0.06887302547693253,0.009620844386518002
1701882002809050400,11.24605029296875,0.03665083646774292,0.04688252881169319,-0.012369656935334206
1701882002818643200,11.255643310546875,0.03542914241552353,0.04688252881169319,-0.030695075169205666
1701882002828236500,11.265236572265625,0.03420744836330414,0.06032116711139679,-0.04046862944960594
1701882002837829000,11.2748291015625,0.03176405653357506,0.09697200357913971,-0.05512896552681923
1701882002847421000,11.2844208984375,0.03542914241552353,0.11529742181301117,-0.07101099193096161
1701882002857013500,11.294013427734376,0.045202698558568954,0.1104106456041336,-0.07467607408761978
1701882002866607000,11.303607177734374,0.03787253051996231,0.11529742181301117,-0.07711946964263916
1701882002876199700,11.31319970703125,0.029320668429136276,0.11651911586523056,-0.07711946964263916
1701882002885791500,11.32279150390625,0.023212196305394173,0.10552386194467545,-0.06368082761764526
1701882002895384000,11.332384033203125,0.008551862090826035,0.09941539168357849,-0.05635065957903862
1701882002904977400,11.341977294921875,-0.0036650835536420345,0.07009471952915192,-0.06123743951320648
1701882002914570000,11.351570068359376,-0.007330167107284069,0.02367033064365387,-0.06612421572208405
1701882002924162000,11.361162109375,-0.0024433890357613564,-0.016645587980747223,-0.06001574173569679
1701882002933754600,11.370754638671874,0.0024433890357613564,-0.056961506605148315,-0.05268557742238045
1701882002943348000,11.380347900390625,0.0036650835536420345,-0.08383878320455551,-0.045355409383773804
1701882002952940500,11.3899404296875,0.0024433890357613564,-0.08994726091623306,-0.04046862944960594
1701882002962532400,11.399532470703125,0,-0.08261708915233612,-0.027029991149902344
1701882002972125200,11.409125244140625,-0.0012216945178806782,-0.072843536734581,-0.014813045971095562
1701882002981718500,11.418718505859376,-0.0024433890357613564,-0.07406523078680038,-0.011147962883114815
1701882002991311000,11.42831103515625,0.0024433890357613564,-0.09972081333398819,-0.012369656935334206
1701882003000903000,11.43790283203125,0.013438640162348747,-0.15714046359062195,-0.01847812905907631
1701882003010495500,11.44749560546875,0.02076880633831024,-0.19745637476444244,-0.03924693539738655
1701882003020089000,11.457089111328125,0.025655584409832954,-0.1913478970527649,-0.06490252166986465
1701882003029681700,11.466681640625,0.030542362481355667,-0.1632489264011383,-0.08078455179929733
1701882003039273500,11.4762734375,0.03420744836330414,-0.14248012006282806,-0.07834116369485855
1701882003048866000,11.485865966796876,0.043981000781059265,-0.12171131372451782,-0.05024218559265137
1701882003058459400,11.49545947265625,0.046424392610788345,-0.1107160672545433,-0.007482878863811493
1701882003068052200,11.50505224609375,0.04153761267662048,-0.08994726091623306,0.024433890357613564
1701882003077644000,11.51464404296875,0.023212196305394173,-0.07406523078680038,0.0390942245721817
1701882003087236600,11.524236572265625,-0.012216945178806782,-0.06795676052570343,0.04031591862440109
1701882003096830000,11.533829833984376,-0.05619794875383377,-0.0068720318377017975,0.05131116881966591
1701882003106422500,11.543422607421874,-0.09773556143045425,0.04443913698196411,0.10140064358711243
1701882003116014300,11.553014404296874,-0.13682979345321655,0.07986827939748764,0.17714570462703705
1701882003125607200,11.562607177734375,-0.17470231652259827,0.0713164210319519,0.24067382514476776
1701882003135200500,11.572200439453125,-0.21868331730365753,0.05665608495473862,0.2883199155330658
1701882003144793000,11.58179296875,-0.26755109429359436,0.04932591691613197,0.3286358118057251
1701882003154385000,11.591385009765625,-0.28098973631858826,0.016340164467692375,0.37261682748794556
1701882003163977700,11.600977783203126,-0.28221142292022705,-0.019088976085186005,0.41415444016456604
1701882003173571000,11.610571044921874,-0.3017585575580597,0.04810422286391258,0.474017471075058
1701882003183163600,11.62016357421875,-0.3261924386024475,0.0261137206107378,0.5570927262306213
1701882003192755500,11.62975537109375,-0.36162158846855164,-0.05207473039627075,0.652384877204895
1701882003202348000,11.63934814453125,-0.42881476879119873,-0.055739812552928925,0.7330167293548584
1701882003211941600,11.648941650390626,-0.4679090082645416,-0.06551336497068405,0.8295305967330933
1701882003221534200,11.6585341796875,-0.4593571424484253,-0.13392825424671173,0.9468132257461548
1701882003231126000,11.6681259765625,-0.4984513521194458,-0.11560284346342087,1.045770525932312
1701882003240718600,11.677718505859374,-0.5668662786483765,-0.10582929104566574,1.1251806020736694
1701882003250312000,11.68731201171875,-0.6134433746337891,-0.18646112084388733,1.1141854524612427
1701882003259904800,11.69690478515625,-0.6843016147613525,-0.19867807626724243,1.0579874515533447
1701882003269496300,11.706496337890625,-0.673306405544281,-0.09361234307289124,1.0738694667816162
1701882003279089200,11.716089111328126,-0.605960488319397,0.15683503448963165,1.2143644094467163
1701882003288682500,11.7256826171875,-0.4984513521194458,0.270452618598938,1.3756279945373535
1701882003298275000,11.735275146484375,-0.3970507085323334,0.48547086119651794,1.563768982887268
1701882003307867000,11.744866943359375,-0.2480039894580841,0.7139277458190918,1.7494665384292603
1701882003317459700,11.754459716796875,-0.061084724962711334,0.7579087615013123,1.8924047946929932
1701882003327053000,11.764052978515625,-0.013438640162348747,0.7774558663368225,2.1013145446777344
1701882003336645600,11.773645751953126,-0.12094775587320328,0.5990884304046631,2.2870121002197266
1701882003346237400,11.783237548828126,-0.24678228795528412,0.6882721781730652,2.5582282543182373
1701882003355830000,11.792830078125,-0.23090025782585144,0.9045121073722839,2.774468183517456
1701882003365423600,11.802423583984375,-0.16492876410484314,1.080436110496521,2.776911735534668
1701882003375016200,11.81201611328125,-0.20280128717422485,1.0963181257247925,2.5362377166748047
1701882003384608000,11.82160791015625,-0.3640649616718292,0.9350544214248657,2.3102242946624756
1701882003394200600,11.83120068359375,-0.5057815313339233,1.2673553228378296,2.5728886127471924
