time,seconds_elapsed,z,y,x
1701857490477545700,0.118545654296875,7.065107822418213,6.148955821990967,-0.33439695835113525
1701857490487138800,0.128138916015625,7.275975227355957,6.187241077423096,-0.6266204118728638
1701857490496731100,0.137731201171875,7.51286506652832,6.211169242858887,-0.8587242364883423
1701857490506324200,0.14732421875,7.670791149139404,6.282954216003418,-1.0238289833068848
1701857490515918000,0.15691796875,7.979764461517334,6.429215431213379,-1.2586246728897095
1701857490525511200,0.16651123046875,8.578269004821777,6.725925445556641,-1.6462619304656982
1701857490535103500,0.176103515625,9.040383338928223,6.912864685058594,-2.0365912914276123
1701857490544696600,0.185696533203125,8.628518104553223,6.570391654968262,-2.1969103813171387
1701857490554290400,0.19529052734375,7.656434059143066,5.9336018562316895,-1.986341953277588
1701857490563883500,0.204883544921875,6.763612270355225,5.449952602386475,-1.674975872039795
1701857490573475800,0.214475830078125,7.800003528594971,5.3470611572265625,-1.301695466041565
1701857490583069000,0.22406884765625,8.19511890411377,5.265705108642578,-0.6912266612052917
1701857490592662800,0.233662841796875,9.169595718383789,5.1218366622924805,-0.4492524564266205
1701857490602256000,0.243255859375,9.602995872497559,5.14576530456543,-0.1501496136188507
1701857490611848200,0.25284814453125,9.69631576538086,5.059623718261719,0.16360925137996674
1701857490621441300,0.262441162109375,9.780064582824707,4.813162803649902,0.4938187599182129
1701857490631035100,0.27203515625,9.701101303100586,4.59511661529541,0.6879364848136902
1701857490640628200,0.281628173828125,9.24855899810791,4.520939350128174,0.6305087804794312
1701857490650220500,0.291220458984375,8.434700012207031,4.3295135498046875,0.4938187599182129
1701857490659813600,0.300813720703125,7.77607536315918,4.269692897796631,0.20907287299633026
1701857490669407500,0.310407470703125,7.036394119262695,4.348656177520752,-0.24586252868175507
1701857490679000600,0.32000048828125,6.591030120849609,4.53290319442749,-0.7677969932556152
1701857490688593000,0.329593017578125,6.401997089385986,4.348656177520752,-0.8036893010139465
1701857490698186000,0.33918603515625,6.619743824005127,4.147658824920654,-0.7510471940040588
1701857490707779800,0.34877978515625,6.3254265785217285,4.341477394104004,-0.7486543655395508
1701857490717373000,0.358373046875,6.284748554229736,5.052444934844971,-0.9544371366500854
1701857490726965200,0.36796533203125,7.096214771270752,5.842674732208252,-1.1386845111846924
1701857490736558300,0.377558349609375,7.816753387451172,5.9407806396484375,-0.7390831112861633
1701857490746152200,0.387152099609375,8.350651741027832,5.318347454071045,0.11814561486244202
1701857490755745300,0.396745361328125,8.824729919433594,4.535296440124512,0.8817551732063293
1701857490765337600,0.406337646484375,9.090632438659668,4.171586990356445,1.169192910194397
1701857490774931000,0.415930908203125,9.444769859313965,4.178765773773193,1.0875378847122192
1701857490784524800,0.42552490234375,10.009775161743164,4.260121822357178,0.8697910308837891
1701857490794117600,0.43511767578125,10.311570167541504,4.31515645980835,0.5850451588630676
1701857490803710000,0.4447099609375,10.246963500976562,4.363012790679932,0.20189441740512848
1701857490813303000,0.454302978515625,9.966704368591309,4.367798805236816,-0.10229317098855972
1701857490822897000,0.46389697265625,9.535996437072754,4.2816572189331055,-0.42771705985069275
1701857490832490200,0.473490234375,9.389735221862793,4.37019157409668,-0.6409773826599121
1701857490842082300,0.483082275390625,9.181559562683105,4.568795680999756,-0.6409773826599121
1701857490851675600,0.492675537109375,8.93240737915039,4.628915309906006,-0.47557350993156433
1701857490861269500,0.50226953125,8.81515884399414,4.626522541046143,-0.26500511169433594
1701857490870862600,0.511862548828125,8.714659690856934,4.676771640777588,-0.21954147517681122
1701857490880454700,0.52145458984375,8.623732566833496,4.813162803649902,-0.2027917206287384
1701857490890048000,0.531048095703125,8.537590980529785,4.875376224517822,-0.10468599200248718
1701857490899641900,0.540641845703125,8.475378036499023,4.8299126625061035,0.08464609831571579
1701857490909235000,0.55023486328125,8.590232849121094,4.784449100494385,0.15882360935211182
1701857490918827000,0.559826904296875,8.676374435424805,4.695914268493652,0.05353940650820732
1701857490928420400,0.56942041015625,8.516056060791016,4.643272399902344,0.015254244208335876
1701857490938014200,0.57901416015625,8.259724617004395,4.612165451049805,0.09182456880807877
1701857490947607300,0.588607177734375,8.010870933532715,4.554438591003418,0.21146570146083832
1701857490957199600,0.59819970703125,7.948657512664795,4.485046863555908,0.25692933797836304
1701857490966792700,0.607792724609375,7.917551040649414,4.497011184692383,0.2066800594329834
1701857490976386600,0.617386474609375,7.979764461517334,4.5807600021362305,0.11575279384851456
1701857490985979600,0.626979736328125,8.266902923583984,4.501796722412109,0.07028916478157043
1701857490995572000,0.636572021484375,8.547162055969238,4.461118698120117,0.008075776509940624
1701857491005165000,0.6461650390625,8.666803359985352,4.4635114669799805,-0.023030918091535568
1701857491014759000,0.655759033203125,8.846264839172363,4.504189491271973,-0.09032905846834183
1701857491024352000,0.66535205078125,9.15284538269043,4.535296440124512,-0.013459627516567707
1701857491033944300,0.6749443359375,9.36341381072998,4.540081977844238,0.10618150234222412
1701857491043537400,0.684537353515625,9.382556915283203,4.535296440124512,0.16360925137996674
1701857491053131300,0.69413134765625,9.243772506713867,4.583152770996094,0.15164513885974884
1701857491062724400,0.703724365234375,9.085846900939941,4.65523624420166,0.11575279384851456
1701857491072316700,0.713316650390625,8.915657043457031,4.758127689361572,0.11814561486244202
1701857491081909800,0.72290966796875,8.74337387084961,4.856233596801758,0.12053844332695007
1701857491091503600,0.732503662109375,8.628518104553223,4.920839786529541,0.12771691381931305
1701857491101096700,0.7420966796875,8.532805442810059,4.968696117401123,0.10378868132829666
1701857491110689000,0.75168896484375,8.422736167907715,4.947160720825195,0.1947159469127655
1701857491120282000,0.7612822265625,8.449056625366211,4.937589645385742,0.22821545600891113
1701857491129876000,0.7708759765625,8.516056060791016,4.894518852233887,0.3693920075893402
1701857491139469000,0.780468994140625,8.492127418518066,4.913661479949951,0.47228336334228516
1701857491149061400,0.790061279296875,8.422736167907715,4.8777689933776855,0.5057829022407532
1701857491158654500,0.799654541015625,8.566305160522461,4.762913703918457,0.5778666734695435
1701857491168248300,0.809248291015625,8.788837432861328,4.767699241638184,0.6376872062683105
1701857491177841400,0.81884130859375,8.82951545715332,4.746163845062256,0.6520441770553589
1701857491187433700,0.828433837890625,8.858229637145996,4.731806755065918,0.6855437159538269
1701857491197026800,0.83802685546875,8.82951545715332,4.782055854797363,0.6592226624488831
1701857491206620700,0.84762060546875,8.803194046020508,4.803591251373291,0.592223584651947
1701857491216213800,0.8572138671875,8.755337715148926,4.83469820022583,0.4411766827106476
1701857491225806000,0.86680615234375,8.568697929382324,4.8059844970703125,0.2928216755390167
1701857491235399200,0.876399169921875,8.566305160522461,4.753342151641846,0.1420738399028778
1701857491244993000,0.885992919921875,8.650053977966309,4.691128730773926,0.15643078088760376
1701857491254586000,0.895586181640625,8.891729354858398,4.609473705291748,0.3526422381401062
1701857491264178400,0.905178466796875,9.246166229248047,4.59511661529541,0.6975077986717224
1701857491273771500,0.914771484375,9.384949684143066,4.583152770996094,1.0301101207733154
1701857491283365600,0.92436572265625,9.399306297302246,4.573581218719482,1.2816556692123413
1701857491292958500,0.93395849609375,9.296415328979492,4.628915309906006,1.3630115985870361
1701857491302550800,0.94355078125,9.069096565246582,4.715056896209717,1.2601202726364136
1701857491312144000,0.953143798828125,8.82951545715332,4.731806755065918,1.0950154066085815
1701857491321737700,0.96273779296875,8.652446746826172,4.715056896209717,0.9128618240356445
1701857491331331000,0.9723310546875,8.559126853942871,4.7126641273498535,0.8051848411560059
1701857491340923100,0.981923095703125,8.606983184814453,4.7126641273498535,0.7405785918235779
1701857491350516500,0.9915166015625,8.839086532592773,4.676771640777588,0.747757077217102
1701857491360110300,1.0011103515625,9.15284538269043,4.612165451049805,0.8721838593482971
1701857491369703400,1.010703369140625,9.485447883605957,4.566402912139893,1.0516455173492432
1701857491379295500,1.02029541015625,9.880562782287598,4.547260284423828,1.3366905450820923
1701857491388888800,1.029888916015625,10.05284595489502,4.561617374420166,1.4587244987487793
1701857491398482700,1.039482666015625,9.885348320007324,4.575973987579346,1.3654043674468994
1701857491408075800,1.04907568359375,9.56471061706543,4.643272399902344,1.077966570854187
1701857491417667800,1.058667724609375,9.200701713562012,4.71744966506958,0.7621139883995056
1701857491427261200,1.06826123046875,8.774480819702148,4.796412944793701,0.49621158838272095
1701857491436855000,1.07785498046875,8.446663856506348,4.884947299957275,0.35503506660461426
1701857491446448000,1.0874482421875,8.266902923583984,4.9639105796813965,0.3885345757007599
1701857491456040400,1.09704052734375,8.247760772705078,5.052444934844971,0.5153541564941406
1701857491465633500,1.106633544921875,8.477770805358887,5.085944652557373,0.7980063557624817
1701857491475227400,1.116227294921875,8.810373306274414,5.095515727996826,1.1620144844055176
1701857491484820500,1.125820556640625,9.090632438659668,5.155336380004883,1.4515460729599
1701857491494412800,1.135412841796875,9.265308380126953,5.191527843475342,1.4898312091827393
1701857491504006000,1.145005859375,9.428020477294922,5.1529436111450195,1.4635101556777954
1701857491513599700,1.154599853515625,9.461520195007324,5.100301265716553,1.4419747591018677
1701857491523192800,1.16419287109375,9.416056632995605,5.057230472564697,1.3630115985870361
1701857491532785200,1.17378515625,9.375378608703613,4.947160720825195,1.2888340950012207
1701857491542378200,1.183378173828125,9.14566707611084,4.84187650680542,1.267298698425293
1701857491551972000,1.19297216796875,8.982954978942871,4.817948341369629,1.298405408859253
1701857491561565200,1.202565185546875,8.827122688293457,4.796412944793701,1.3701900243759155
1701857491571157500,1.212157470703125,8.791230201721191,4.774877548217773,1.4994025230407715
1701857491580750600,1.22175048828125,8.920442581176758,4.734199523925781,1.7270197868347168
1701857491590344400,1.231344482421875,8.961420059204102,4.676771640777588,1.913659930229187
1701857491599937500,1.2409375,8.908478736877441,4.631308078765869,1.8993029594421387
1701857491609529900,1.25052978515625,8.874979019165039,4.559224605560303,1.7772690057754517
1701857491619123000,1.260123046875,8.748159408569336,4.475475788116455,1.6070795059204102
1701857491628716800,1.269716796875,8.61176872253418,4.437190532684326,1.3917254209518433
1701857491638310000,1.279309814453125,8.544769287109375,4.37019157409668,1.2098709344863892
1701857491647902200,1.288902099609375,8.628518104553223,4.343870639801025,1.1715857982635498
1701857491657495300,1.298495361328125,8.673981666564941,4.3055853843688965,1.1979068517684937
1701857491667089200,1.308089111328125,8.702695846557617,4.3223347663879395,1.1955139636993408
1701857491676682200,1.31768212890625,8.63330364227295,4.384548187255859,1.1644073724746704
1701857491686274600,1.327274658203125,8.437092781066895,4.482654094696045,1.1021939516067505
1701857491695867600,1.33686767578125,8.183154106140137,4.602295398712158,1.0157532691955566
1701857491705461500,1.34646142578125,8.116155624389648,4.6887359619140625,1.0205388069152832
1701857491715054800,1.356054931640625,8.17119026184082,4.746163845062256,1.2433704137802124
1701857491724647000,1.36564697265625,8.223832130432129,4.83469820022583,1.4012967348098755
1701857491734240000,1.375239990234375,8.216653823852539,4.925625324249268,1.4635101556777954
1701857491743834000,1.384834228515625,8.17836856842041,4.954339504241943,1.4419747591018677
1701857491753427000,1.394427001953125,8.132905006408691,4.954339504241943,1.475474238395691
1701857491763019300,1.404019287109375,8.080263137817383,4.923232555389404,1.4946168661117554
1701857491772612600,1.413612548828125,8.001299858093262,4.865804672241211,1.4922239780426025
1701857491782206500,1.42320654296875,7.965407371520996,4.858626365661621,1.5305092334747314
1701857491791799600,1.432799560546875,7.931908130645752,4.892126083374023,1.5257235765457153
1701857491801391600,1.4423916015625,7.946264743804932,4.930410861968994,1.5017952919006348
1701857491810985000,1.45198486328125,8.058727264404297,4.942375183105469,1.5544373989105225
1701857491820578800,1.461578857421875,8.240582466125488,4.975874900817871,1.662413477897644
1701857491830172000,1.471171875,8.331509590148926,4.992624282836914,1.7629120349884033
1701857491839764200,1.48076416015625,8.283653259277344,4.944767951965332,1.827518343925476
1701857491849357300,1.490357421875,8.130512237548828,4.930410861968994,1.8490537405014038
1701857491858951200,1.499951171875,7.967800140380859,4.971088886260986,1.7629120349884033
1701857491868544300,1.509544189453125,7.840980529785156,4.997410297393799,1.72941255569458
1701857491878136600,1.519136474609375,7.766504287719727,5.004588603973389,1.6357933282852173
1701857491887729700,1.528729736328125,7.845766544342041,4.930410861968994,1.5137593746185303
1701857491897323500,1.538323486328125,7.982157230377197,4.8466620445251465,1.3486546277999878
1701857491906916600,1.54791650390625,8.0922269821167,4.782055854797363,1.2146565914154053
1701857491916509000,1.557509033203125,8.231010437011719,4.762913703918457,1.2026925086975098
1701857491926102000,1.56710205078125,8.468199729919434,4.727021217346191,1.1859427690505981
1701857491935696000,1.57669580078125,8.6907320022583,4.638486862182617,1.2290135622024536
1701857491945289000,1.5862890625,8.82233715057373,4.592723846435547,1.267298698425293
1701857491954881300,1.59588134765625,8.793622970581055,4.614558696746826,1.1596217155456543
1701857491964474400,1.605474365234375,8.642875671386719,4.628915309906006,0.9846464991569519
1701857491974068200,1.615068115234375,8.477770805358887,4.6169514656066895,0.7597211599349976
1701857491983661300,1.624661376953125,8.331509590148926,4.599902629852295,0.5754738450050354
1701857491993253600,1.634253662109375,8.211868286132812,4.564010143280029,0.46749773621559143
1701857492002846700,1.6438466796875,8.257331848144531,4.544867515563965,0.4411766827106476
1701857492012440600,1.653440673828125,8.360222816467285,4.544867515563965,0.5201398134231567
1701857492022033700,1.66303369140625,8.542376518249512,4.499403953552246,0.6400800347328186
1701857492031626000,1.6726259765625,8.776873588562012,4.418047904968262,0.7884350419044495
1701857492041219000,1.682218994140625,8.918049812316895,4.363012790679932,0.867398202419281
1701857492050813000,1.69181298828125,8.947062492370605,4.324728012084961,0.9631111025810242
1701857492060406000,1.701406005859375,8.925228118896484,4.331906318664551,0.9990034699440002
1701857492069998300,1.710998291015625,8.886942863464355,4.37019157409668,0.9774680733680725
1701857492079591400,1.72059130859375,8.805587768554688,4.386941432952881,0.9248259663581848
1701857492089185300,1.730185302734375,8.788837432861328,4.343870639801025,0.9080761671066284
1701857492098778400,1.7397783203125,8.872586250305176,4.284049987792969,1.022931694984436
1701857492108370700,1.74937060546875,8.968598365783691,4.250550270080566,1.2625130414962769
1701857492117963800,1.7589638671875,8.963812828063965,4.24576473236084,1.3701900243759155
1701857492127557600,1.7685576171875,8.954241752624512,4.202693939208984,1.4060823917388916
1701857492137150700,1.778150634765625,8.889336585998535,4.157230377197266,1.3677972555160522
1701857492146743000,1.787742919921875,8.81515884399414,4.162015914916992,1.2960125207901
1701857492156336000,1.797336181640625,8.709874153137207,4.133302211761475,1.231406331062317
1701857492165930200,1.80693017578125,8.590232849121094,4.157230377197266,1.1572288274765015
1701857492175523300,1.8165234375,8.48734188079834,4.229014873504639,1.1069796085357666
1701857492185115400,1.826115478515625,8.520841598510742,4.240979194641113,1.0950154066085815
1701857492194708700,1.835708740234375,8.647661209106445,4.229014873504639,1.2888340950012207
1701857492204302600,1.845302490234375,8.70508861541748,4.255335807800293,1.516152262687683
1701857492213895700,1.854895751953125,8.688339233398438,4.229014873504639,1.7102699279785156
1701857492223487700,1.86448779296875,8.571090698242188,4.226622104644775,1.8873388767242432
1701857492233081000,1.8740810546875,8.420342445373535,4.23858642578125,2.0165512561798096
1701857492242675000,1.883675048828125,8.19272518157959,4.248157501220703,2.1361923217773438
1701857492252268000,1.89326806640625,8.08504867553711,4.296013832092285,2.191227436065674
1701857492261860400,1.9028603515625,8.020442008972168,4.324728012084961,2.1361923217773438
1701857492271453400,1.912453369140625,8.018049240112305,4.355834484100342,1.9710876941680908
1701857492281047300,1.92204736328125,8.0922269821167,4.351048946380615,1.7485551834106445
1701857492290640400,1.931640380859375,8.345866203308105,4.300799369812012,1.5233306884765625
1701857492300232700,1.941232666015625,8.609375953674316,4.2816572189331055,1.3654043674468994
1701857492309825800,1.95082568359375,8.920442581176758,4.147658824920654,1.2936197519302368
1701857492319419600,1.960419677734375,9.167202949523926,3.996612071990967,1.3055838346481323
1701857492329012700,1.9700126953125,9.3490571975708,3.929612874984741,1.2960125207901
1701857492338605000,1.97960498046875,9.377771377563477,3.881756544113159,1.2888340950012207
1701857492348198100,1.9891982421875,9.337093353271484,3.809971809387207,1.2242279052734375
1701857492357792000,1.9987919921875,9.26291561126709,3.881756544113159,1.145264744758606
1701857492367385000,2.008385009765625,9.1145601272583,3.9320058822631836,1.0998010635375977
1701857492376977400,2.017977294921875,9.004490852355957,3.9463627338409424,1.1380863189697266
1701857492386570500,2.027570556640625,8.966205596923828,4.087838172912598,1.0683952569961548
1701857492396164400,2.037164306640625,8.961420059204102,4.159623146057129,0.9774680733680725
1701857492405757400,2.04675732421875,9.004490852355957,4.109373569488525,0.8434699773788452
1701857492415349800,2.056349853515625,9.37298583984375,3.8937206268310547,0.8554341197013855
1701857492424942800,2.06594287109375,9.978668212890625,3.8386857509613037,0.778863787651062
1701857492434536700,2.07553662109375,10.404890060424805,3.635295867919922,0.7525427341461182
1701857492444129800,2.0851298828125,10.57956600189209,3.4316067695617676,0.9750752449035645
1701857492453722000,2.09472216796875,10.318748474121094,3.6640095710754395,1.2194422483444214
1701857492463315200,2.104315185546875,10.07468032836914,3.951148271560669,0.9583254456520081
1701857492472909000,2.113908935546875,9.717850685119629,3.991826295852661,1.114158034324646
1701857492482502100,2.123502197265625,9.28445053100586,4.193122386932373,1.1548360586166382
1701857492492094500,2.133094482421875,8.817551612854004,4.296013832092285,1.1620144844055176
1701857492501687600,2.1426875,8.293224334716797,4.355834484100342,1.1907284259796143
1701857492511281400,2.152281494140625,7.9366936683654785,4.403690814971924,1.5041881799697876
1701857492520874500,2.16187451171875,8.099405288696289,4.403690814971924,1.8059829473495483
1701857492530466800,2.171466796875,8.738588333129883,4.233800411224365,2.121835470199585
1701857492540060200,2.18106005859375,9.512067794799805,4.116552352905273,2.3350958824157715
1701857492549654000,2.190654052734375,10.050453186035156,4.046861171722412,2.3374886512756348
1701857492559246800,2.200246826171875,10.12014389038086,3.960719585418701,2.210369825363159
1701857492568839200,2.209839111328125,9.77527904510498,3.96789813041687,2.0476579666137695
1701857492578432300,2.219432373046875,9.100203514099121,4.1021952629089355,1.9232312440872192
1701857492588026400,2.2290263671875,8.539983749389648,4.382155418395996,1.6381862163543701
1701857492597619500,2.238619384765625,7.998907089233398,4.286442756652832,1.908874273300171
1701857492607211800,2.248211669921875,7.948657512664795,4.396512508392334,1.705484390258789
1701857492616804900,2.257804931640625,8.030014038085938,4.1883368492126465,1.8753747940063477
1701857492626398700,2.267398681640625,8.159226417541504,4.025325775146484,1.9232312440872192
1701857492635991800,2.27699169921875,8.544769287109375,3.7357943058013916,1.9232312440872192
1701857492645584000,2.286583984375,9.148059844970703,3.3909287452697754,1.669592022895813
1701857492655177200,2.29617724609375,9.835099220275879,2.9650063514709473,1.4539388418197632
1701857492664771000,2.30577099609375,10.541280746459961,2.8139593601226807,1.2337992191314697
1701857492674364200,2.3153642578125,11.343474388122559,2.8761727809906006,1.085145115852356
1701857492683956500,2.32495654296875,12.188440322875977,3.2904303073883057,0.3167499005794525
1701857492693549600,2.334549560546875,12.363415718078613,3.3191440105438232,0.13489536941051483
1701857492703143400,2.344143310546875,11.800803184509277,2.4598217010498047,0.836291491985321
1701857492712736500,2.353736572265625,10.847861289978027,1.4590235948562622,1.877767562866211
1701857492722328800,2.363328857421875,10.172786712646484,1.1285150051116943,2.4212374687194824
1701857492731922000,2.372921875,9.57906723022461,0.6783652305603027,2.615056037902832
1701857492741515800,2.382515869140625,8.877371788024902,0.259621262550354,2.8689942359924316
1701857492751108900,2.39210888671875,8.307580947875977,-0.056530434638261795,3.22552490234375
1701857492760701200,2.401701171875,7.89123010635376,-0.1618146300315857,3.7713875770568848
1701857492770294300,2.411294189453125,7.675576686859131,-0.06849455088376999,3.8985064029693604
1701857492779888000,2.42088818359375,7.558328628540039,0.13519448041915894,3.5727832317352295
1701857492789481200,2.430481201171875,7.335795879364014,0.3122633695602417,3.067598581314087
1701857492799073500,2.440073486328125,6.80668306350708,0.34576287865638733,2.7538397312164307
1701857492808666600,2.44966650390625,5.982954025268555,0.29312077164649963,2.785245656967163
1701857492818260500,2.459260498046875,5.006083965301514,0.2955136001110077,3.1585259437561035
1701857492827853600,2.468853515625,4.089334011077881,0.4175475537776947,3.711566925048828
1701857492837446000,2.47844580078125,3.0526435375213623,0.5778666734695435,4.4635114669799805
1701857492847039000,2.4880390625,1.9609181880950928,0.9227322340011597,4.896612644195557
1701857492856632800,2.4976328125,1.194915771484375,1.5858432054519653,4.504189491271973
1701857492866226000,2.507225830078125,0.6610172390937805,2.308774709701538,3.467499017715454
1701857492875819300,2.5168193359375,0.38793638348579407,2.720639228820801,2.5935206413269043
1701857492885411600,2.52641162109375,0.37597227096557617,2.416750907897949,2.7466611862182617
1701857492895005400,2.53600537109375,0.8069794178009033,1.3202399015426636,4.934897422790527
1701857492904598500,2.5455986328125,1.7694923877716064,0.4701896607875824,7.5637125968933105
1701857492914190800,2.55519091796875,2.822932481765747,0.12323036789894104,8.72482967376709
1701857492923784000,2.564783935546875,3.70139741897583,0.027218356728553772,8.921041488647461
1701857492933377800,2.574377685546875,4.070191383361816,0.041575293987989426,8.93539810180664
1701857492942971000,2.583970947265625,3.780360698699951,-0.15463615953922272,9.043374061584473
1701857492952563200,2.593563232421875,3.3951163291931152,-0.8608179688453674,9.873982429504395
1701857492962156300,2.60315625,3.1794631481170654,-1.3827524185180664,11.018349647521973
1701857492971750100,2.612750244140625,2.7702903747558594,-1.4976078271865845,11.104491233825684
1701857492981343200,2.62234326171875,2.1619153022766113,-1.2607184648513794,10.834102630615234
1701857492990935600,2.631935546875,1.4629119634628296,-0.9517452120780945,10.42941665649414
1701857493000528600,2.641528564453125,0.22522443532943726,-1.1051849126815796,9.541379928588867
1701857493010122500,2.65112255859375,-0.7540382146835327,-1.5263217687606812,8.822935104370117
1701857493019715600,2.660715576171875,-2.82951283454895,-2.1705892086029053,12.373584747314453
1701857493029308000,2.670307861328125,-12.456436157226562,-1.8376877307891846,28.82573699951172
1701857493038901000,2.67990087890625,-10.909775733947754,3.659224033355713,15.983756065368652
1701857493048494800,2.689494873046875,-10.509875297546387,3.9008991718292236,8.150253295898438
1701857493058088000,2.699087890625,-12.410972595214844,1.358525037765503,4.101896286010742
1701857493067680300,2.70868017578125,-11.000702857971191,-0.0972084179520607,1.0612168312072754
1701857493077273300,2.7182734375,-2.092224359512329,-3.6523447036743164,15.696617126464844
1701857493086867200,2.7278671875,1.4318052530288696,-3.1615169048309326,23.118255615234375
1701857493096460300,2.737460205078125,-1.3860424757003784,-0.7651050686836243,10.3648099899292
1701857493106052600,2.747052490234375,-0.6870391964912415,-1.0453643798828125,4.1521453857421875
1701857493115645700,2.756645751953125,4.321437835693359,-8.136494636535645,12.019147872924805
1701857493125239600,2.766239501953125,23.294727325439453,-24.84258460998535,26.268705368041992
1701857493134833000,2.7758330078125,-2.606980323791504,2.4574289321899414,9.045766830444336
1701857493144425000,2.785425048828125,-4.785645484924316,2.071885347366333,5.181657314300537
1701857493154018000,2.79501806640625,-6.451947212219238,-5.563013553619385,9.562915802001953
1701857493163612200,2.804612060546875,-1.0770692825317383,-7.186244487762451,9.177371978759766
1701857493173205200,2.814205322265625,-2.3054845333099365,-5.459823131561279,6.09122896194458
1701857493182797300,2.82379736328125,-3.483351469039917,-6.168696880340576,4.717150688171387
1701857493192390700,2.833390625,3.1004998683929443,-14.902200698852539,11.188240051269531
1701857493201984500,2.842984619140625,-0.064606212079525,-8.670392990112305,4.767399787902832
1701857493211577600,2.85257763671875,-0.2799602448940277,-4.622035980224609,3.5632119178771973
1701857493221169700,2.862169677734375,-4.189533233642578,-6.929913520812988,7.094419956207275
1701857493230763000,2.871762939453125,-4.256532192230225,-7.739285945892334,6.80249547958374
1701857493240356900,2.88135693359375,-1.9414764642715454,-8.857332229614258,7.934898853302002
1701857493249950000,2.890949951171875,-0.9957132935523987,-8.045567512512207,6.862316131591797
1701857493259542300,2.900542236328125,-0.8353942036628723,-7.834998607635498,6.950850486755371
1701857493269135400,2.91013525390625,-0.768395185470581,-6.898806571960449,7.262216567993164
1701857493278729200,2.919729248046875,-1.1009975671768188,-6.398407936096191,7.068099021911621
1701857493288322300,2.929322265625,-1.4817553758621216,-6.429514408111572,7.841578960418701
1701857493297914400,2.938914306640625,-1.673181176185608,-8.158029556274414,5.7394843101501465
1701857493307507700,2.9485078125,-1.7237296104431152,-9.742975234985352,9.24437141418457
1701857493317101600,2.9581015625,-0.4953143000602722,-9.491728782653809,10.221240997314453
1701857493326694700,2.967694580078125,-0.7253243923187256,-11.5552396774292,9.007481575012207
1701857493336287000,2.977286865234375,-1.4817553758621216,-11.607881546020508,8.899505615234375
1701857493345880000,2.986880126953125,-1.1368898153305054,-10.88016414642334,7.312466144561768
1701857493355474000,2.996473876953125,-1.7018951177597046,-10.585846900939941,5.207978248596191
1701857493365067000,3.00606689453125,-1.3334003686904907,-11.033305168151855,3.9080774784088135
1701857493374659300,3.015659423828125,-0.7803592681884766,-9.671191215515137,3.9248273372650146
1701857493384252400,3.02525244140625,0.34247273206710815,-6.968198776245117,4.796113967895508
1701857493393846300,3.03484619140625,0.4405784606933594,-5.48883581161499,4.446462631225586
1701857493403439400,3.044439453125,-0.08135596662759781,-6.1950178146362305,5.169693470001221
1701857493413031700,3.05403173828125,-0.12921242415905,-6.4079790115356445,5.1290154457092285
1701857493422624800,3.063624755859375,-0.31345975399017334,-6.410371780395508,5.253442287445068
1701857493432218600,3.073218505859375,0.04336991161108017,-7.092625617980957,5.993123531341553
1701857493441811700,3.082811767578125,-0.36610186100006104,-8.407182693481445,5.473581790924072
1701857493451404000,3.092404052734375,-0.3613162338733673,-9.22582721710205,5.174479007720947
1701857493460997000,3.1019970703125,-0.4139583110809326,-9.414859771728516,4.305285930633545
1701857493470591000,3.111591064453125,-0.5216353535652161,-9.35743236541748,3.982254981994629
1701857493480184000,3.12118408203125,-0.48095735907554626,-9.620942115783691,3.7450666427612305
1701857493489776400,3.1307763671875,-0.4953143000602722,-9.910472869873047,3.5967116355895996
1701857493499369500,3.140369384765625,-0.550349235534668,-10.126126289367676,3.512962818145752
1701857493508963300,3.14996337890625,-0.28953152894973755,-10.250553131103516,3.6062827110290527
1701857493518556400,3.159556396484375,-0.19621145725250244,-10.080662727355957,3.7474594116210938
1701857493528148700,3.169148681640625,-0.17946170270442963,-10.118947982788086,4.037290096282959
1701857493537741800,3.178741943359375,-0.2991028428077698,-10.071091651916504,3.9631125926971436
1701857493547335700,3.188335693359375,-0.38763725757598877,-10.410872459411621,4.046861171722412
1701857493556928800,3.1979287109375,-0.24167509377002716,-11.076375961303711,4.228715896606445
1701857493566521000,3.20752099609375,-0.6535396575927734,-6.355337142944336,3.4555349349975586
1701857493576114200,3.2171142578125,-0.002093719784170389,2.306381940841675,1.8705891370773315
1701857493585708000,3.2267080078125,2.635993242263794,-1.6893328428268433,4.446462631225586
1701857493595301400,3.23630126953125,-0.040677983313798904,-2.950948476791382,3.2135608196258545
1701857493604893400,3.2458935546875,-0.5742774605751038,-1.2702897787094116,1.3486546277999878
1701857493614486500,3.255486572265625,0.08883354067802429,-1.7012969255447388,1.1428718566894531
1701857493624080600,3.26508056640625,0.24197418987751007,-0.6861419081687927,2.105085611343384
1701857493633673700,3.274673828125,1.6474584341049194,-0.7148557901382446,3.2350962162017822
1701857493643265800,3.284265869140625,0.706480860710144,-4.89481782913208,2.739482879638672
1701857493652859100,3.293859130859375,-0.2225325107574463,-9.338289260864258,-2.1179471015930176
1701857493662453000,3.303452880859375,-2.3676979541778564,-11.69432258605957,-7.159923553466797
1701857493672046000,3.313046142578125,-2.3294129371643066,-13.173685073852539,-4.988437175750732
1701857493681638100,3.32263818359375,-1.4841482639312744,-14.303695678710938,-0.542572557926178
1701857493691231500,3.3322314453125,-0.38763725757598877,-13.564014434814453,1.511366605758667
1701857493700825300,3.341825439453125,-0.7037889361381531,-15.483955383300781,3.4603207111358643
1701857493710418400,3.35141845703125,-1.9151554107666016,-21.931415557861328,8.736793518066406
1701857493720010800,3.3610107421875,2.2172493934631348,-19.084854125976562,5.650949954986572
1701857493729603800,3.370603759765625,2.731706142425537,-20.77269172668457,6.345167636871338
1701857493739197700,3.38019775390625,2.2722842693328857,-20.26272201538086,6.230311870574951
1701857493748790800,3.389790771484375,0.6993024349212646,-16.082460403442383,4.96121883392334
1701857493758383000,3.399383056640625,-0.22971096634864807,-12.735499382019043,2.4930222034454346
1701857493767976200,3.40897607421875,-0.5982056856155396,-10.951949119567871,1.0683952569961548
1701857493777570000,3.418570068359375,-0.6296114325523376,-10.130911827087402,1.077966570854187
1701857493787163100,3.4281630859375,0.036191441118717194,-9.077471733093262,1.090229868888855
1701857493796755500,3.43775537109375,-0.1986042857170105,-8.917152404785156,0.989432156085968
1701857493806348500,3.4473486328125,-0.9334999322891235,-9.144471168518066,1.566401481628418
1701857493815942400,3.4569423828125,-0.9167501926422119,-9.132506370544434,1.9950158596038818
1701857493825535500,3.466535400390625,-0.4331009089946747,-9.14686393737793,2.0380866527557373
1701857493835127800,3.4761279296875,0.024227328598499298,-9.244969367980957,2.200798511505127
1701857493844721000,3.485720947265625,0.39032918214797974,-9.55633544921875,2.2728824615478516
1701857493854314800,3.495314697265625,0.529412031173706,-9.719047546386719,2.308774709701538
1701857493863907800,3.504907958984375,0.5533402562141418,-9.520442962646484,2.41166615486145
1701857493873500200,3.514500244140625,0.7758727669715881,-9.443872451782227,2.152942180633545
1701857493883093200,3.52409326171875,0.8715856671333313,-9.573084831237793,1.9902302026748657
1701857493892687000,3.53368701171875,0.6538388133049011,-9.616155624389648,1.9519450664520264
1701857493902280200,3.5432802734375,0.6035895347595215,-9.510871887207031,2.0859432220458984
1701857493911872500,3.55287255859375,0.4812564551830292,-9.192327499389648,2.2704896926879883
1701857493921465600,3.562465576171875,0.5341976284980774,-9.0152587890625,2.3757736682891846
1701857493931059500,3.5720595703125,0.5003990530967712,-8.979366302490234,2.2585253715515137
1701857493940652500,3.581652587890625,0.5485545992851257,-9.204291343688965,2.2055842876434326
1701857493950244900,3.591244873046875,0.6299105882644653,-9.565906524658203,2.2417757511138916
1701857493959838000,3.600837890625,0.7160521745681763,-9.807581901550293,2.315953254699707
1701857493969431800,3.610431884765625,0.859621524810791,-9.946365356445312,2.3350958824157715
1701857493979025000,3.62002490234375,0.9002995491027832,-10.06152057647705,2.4068803787231445
1701857493988617200,3.6296171875,0.7758727669715881,-10.087841033935547,2.4236302375793457
1701857493998210300,3.639210205078125,0.617946445941925,-10.126126289367676,2.440380096435547
1701857494007804200,3.64880419921875,0.5365904569625854,-10.178768157958984,2.402094841003418
1701857494017397200,3.658397216796875,0.6849454641342163,-10.327123641967773,2.57437801361084
1701857494026989600,3.667989501953125,0.9146564602851868,-10.446764945983887,2.4164516925811768
1701857494036582700,3.677582763671875,0.828514814376831,-10.786844253540039,1.8610178232192993
1701857494046176500,3.687176513671875,0.5605186820030212,-11.054841041564941,2.0787646770477295
1701857494055769600,3.69676953125,0.4956133961677551,-10.951949119567871,2.3757736682891846
1701857494065362000,3.70636181640625,0.6586244106292725,-10.920842170715332,2.370988130569458
1701857494074955000,3.715955078125,0.7878368496894836,-10.96630573272705,2.354238271713257
1701857494084548900,3.725548828125,0.8045865893363953,-10.65523910522461,2.356631278991699
1701857494094142000,3.735141845703125,0.6729813814163208,-10.20748233795166,2.4308087825775146
1701857494103734300,3.744734375,0.5724828243255615,-9.795618057250977,2.3733808994293213
1701857494113327400,3.754327392578125,0.0768694281578064,-9.338289260864258,2.402094841003418
1701857494122921200,3.763921142578125,0.2706880569458008,-8.758927345275879,2.2872393131256104
1701857494132514300,3.773514404296875,1.1614162921905518,-9.268898010253906,2.1505494117736816
1701857494142106600,3.783106689453125,1.293021559715271,-9.637691497802734,2.3925235271453857
1701857494151699700,3.79269970703125,1.103988528251648,-9.771689414978027,2.5002005100250244
1701857494161293600,3.80229345703125,0.8955138921737671,-9.829116821289062,2.449951171875
1701857494170886700,3.81188671875,0.7615157961845398,-9.836296081542969,2.3446671962738037
1701857494180479000,3.82147900390625,0.6514459848403931,-9.829116821289062,2.184048891067505
1701857494190072000,3.831072021484375,0.584446907043457,-9.79801082611084,2.1337995529174805
1701857494199666000,3.840666015625,0.5748756527900696,-9.742975234985352,2.1170499324798584
1701857494209259000,3.850259033203125,0.6275177597999573,-9.642477035522461,2.152942180633545
1701857494218851300,3.859851318359375,0.7112665176391602,-9.501300811767578,2.200798511505127
1701857494228444400,3.8694443359375,0.7974081635475159,-9.37896728515625,2.2489542961120605
1701857494238038300,3.879038330078125,0.924227774143219,-9.304789543151855,2.2585253715515137
1701857494247631400,3.88863134765625,1.0295119285583496,-9.316754341125488,2.251347064971924
1701857494257223700,3.8982236328125,1.111167073249817,-9.355039596557617,2.282453775405884
1701857494266816800,3.907816650390625,1.1327024698257446,-9.381360054016113,2.3494527339935303
1701857494276410600,3.91741064453125,1.111167073249817,-9.434301376342773,2.48105788230896
1701857494286003700,3.927003662109375,1.135095238685608,-9.522835731506348,2.6054847240448
1701857494295596000,3.936595947265625,1.1566306352615356,-9.601799011230469,2.7275187969207764
1701857494305189000,3.946189208984375,1.1566306352615356,-9.661619186401367,2.830709218978882
1701857494314783000,3.955782958984375,1.170987606048584,-9.707083702087402,2.888136863708496
1701857494324376000,3.9653759765625,1.1757732629776,-9.738189697265625,2.888136863708496
1701857494333968400,3.974968505859375,1.1805589199066162,-9.733404159545898,2.861815929412842
1701857494343561500,3.9845615234375,1.139880895614624,-9.704689979553223,2.792423963546753
1701857494353155300,3.9941552734375,1.1159526109695435,-9.671191215515137,2.662912607192993
1701857494362748400,4.00374853515625,1.072582721710205,-9.618548393249512,2.5959134101867676
1701857494372340700,4.0133408203125,0.9888339638710022,-9.592227935791016,2.545664072036743
1701857494381933800,4.022933837890625,0.9146564602851868,-9.568299293518066,2.5336999893188477
1701857494391527700,4.032527587890625,0.8476574420928955,-9.558728218078613,2.521735906600952
1701857494401120800,4.042120849609375,0.8093722462654114,-9.544371604919434,2.5552353858947754
1701857494410713000,4.051713134765625,0.7974081635475159,-9.503693580627441,2.5719852447509766
1701857494420306200,4.06130615234375,0.6969096064567566,-9.27846908569336,2.765803813934326
1701857494429900000,4.070900146484375,0.7758727669715881,-9.099007606506348,2.792423963546753
1701857494439493000,4.0804931640625,0.771087110042572,-8.924330711364746,2.739482879638672
1701857494449085400,4.09008544921875,0.7591229677200317,-8.785248756408691,2.708376169204712
1701857494458678500,4.099678466796875,0.7040880918502808,-8.725427627563477,2.662912607192993
1701857494468272400,4.1092724609375,0.582054078578949,-8.732605934143066,2.5791637897491455
1701857494477865500,4.118865478515625,0.5748756527900696,-8.902795791625977,2.591127872467041
1701857494487457800,4.128457763671875,0.6777670383453369,-9.223434448242188,2.677269458770752
1701857494497051000,4.13805078125,0.6945167779922485,-9.460622787475586,2.8666014671325684
1701857494506644700,4.147644775390625,0.6658028960227966,-9.647262573242188,3.0939197540283203
1701857494516237800,4.15723779296875,0.6897311210632324,-9.793225288391113,3.218346357345581
1701857494525830100,4.166830078125,0.768694281578064,-9.903294563293457,3.304488182067871
1701857494535423200,4.17642333984375,0.9361918568611145,-9.994521141052246,3.3382866382598877
1701857494545017000,4.18601708984375,1.0773683786392212,-10.039984703063965,3.273381471633911
1701857494554610200,4.195610107421875,1.1327024698257446,-10.032806396484375,3.1728827953338623
1701857494564202500,4.205202392578125,1.1494522094726562,-10.023235321044922,3.014956474304199
1701857494573795600,4.214795654296875,1.1566306352615356,-10.011270523071289,2.895315408706665
1701857494583389400,4.224389404296875,1.2906286716461182,-10.063913345336914,2.9312076568603516
1701857494592982500,4.233982421875,1.1566306352615356,-10.212267875671387,2.9838497638702393
1701857494602574800,4.243574951171875,0.9194421172142029,-10.374979972839355,2.943171739578247
1701857494612168000,4.25316796875,0.5868397355079651,-10.612168312072754,2.741875648498535
1701857494621761800,4.26276171875,0.6011967062950134,-10.72702407836914,2.54327130317688
1701857494631355000,4.27235498046875,0.7950153350830078,-10.707880973815918,2.5313072204589844
1701857494640947200,4.281947265625,0.802193820476532,-10.590633392333984,2.6126632690429688
1701857494650540300,4.291540283203125,0.6945167779922485,-10.391729354858398,2.5719852447509766
1701857494660134100,4.301134033203125,0.7830511927604675,-10.343873023986816,2.471486806869507
1701857494669727200,4.310727294921875,0.9481559991836548,-10.262516975402832,2.5025932788848877
1701857494679319600,4.320319580078125,1.1231311559677124,-10.159626007080078,2.545664072036743
1701857494688912600,4.32991259765625,1.257129192352295,-9.999306678771973,2.6485555171966553
1701857494698506500,4.339506591796875,1.2690932750701904,-9.848259925842285,2.7466611862182617
1701857494708099600,4.349099609375,1.2092727422714233,-9.716654777526855,2.739482879638672
1701857494717692000,4.35869189453125,1.1422736644744873,-9.628120422363281,2.717947483062744
1701857494727285000,4.368284912109375,1.1685947179794312,-9.551549911499023,2.6916263103485107
1701857494736878800,4.37787890625,1.3097712993621826,-9.510871887207031,2.622234582901001
1701857494746472000,4.387471923828125,1.474876046180725,-9.484550476074219,2.53609299659729
1701857494756064300,4.397064208984375,1.5753746032714844,-9.453444480895996,2.4834508895874023
1701857494765657300,4.4066572265625,1.6064813137054443,-9.41755199432373,2.41166615486145
1701857494775251200,4.416251220703125,1.6689938306808472,-9.405288696289062,2.3685953617095947
1701857494784844300,4.42584423828125,1.6618152856826782,-9.374181747436523,2.3135604858398438
1701857494794436600,4.4354365234375,1.4724832773208618,-9.345467567443848,2.330310106277466
1701857494804029700,4.44502978515625,1.202094316482544,-9.323932647705078,2.301596164703369
1701857494813623600,4.45462353515625,1.0630114078521729,-9.321539878845215,2.2704896926879883
1701857494823216600,4.464216552734375,1.0199406147003174,-9.321539878845215,2.220240354537964
1701857494832809000,4.47380908203125,0.9529415965080261,-9.300004005432129,2.207977056503296
1701857494842402000,4.483402099609375,0.8763712644577026,-9.280861854553223,2.169692039489746
1701857494851996000,4.492995849609375,0.8835497498512268,-9.338289260864258,2.105085611343384
1701857494861589000,4.502589111328125,0.9218349456787109,-9.297611236572266,2.0883359909057617
1701857494871181300,4.512181396484375,0.8739784955978394,-9.355039596557617,2.105085611343384
1701857494880774400,4.5217744140625,0.8500502705574036,-9.518050193786621,2.0691933631896973
1701857494890368300,4.5313681640625,0.8811569213867188,-9.625727653503418,2.042872428894043
1701857494899961300,4.54096142578125,0.9098708033561707,-9.654440879821777,2.0165512561798096
1701857494909553700,4.5505537109375,0.8811569213867188,-9.716654777526855,2.050050735473633
1701857494919146800,4.560146728515625,0.8045865893363953,-9.771689414978027,2.1409780979156494
1701857494928740600,4.56974072265625,0.8715856671333313,-9.833903312683105,2.1960129737854004
1701857494938333700,4.579333740234375,1.0151549577713013,-9.848259925842285,2.2322044372558594
1701857494947926000,4.588926025390625,1.0414760112762451,-9.81236743927002,2.301596164703369
1701857494957519000,4.59851904296875,1.0007981061935425,-9.757332801818848,2.3350958824157715
1701857494967113000,4.608113037109375,0.9840483069419861,-9.726225852966309,2.3135604858398438
1701857494976706000,4.6177060546875,1.0055837631225586,-9.716654777526855,2.2657039165496826
1701857494986298400,4.62729833984375,0.9672985672950745,-9.699904441833496,2.220240354537964
1701857494995891500,4.636891357421875,0.9433703422546387,-9.690333366394043,2.2031915187835693
1701857495005485300,4.6464853515625,0.9266205430030823,-9.664012908935547,2.176870346069336
1701857495015078400,4.656078369140625,0.9146564602851868,-9.65683364868164,2.2031915187835693
1701857495024670500,4.66567041015625,0.9146564602851868,-9.685547828674316,2.2274186611175537
1701857495034263800,4.675263916015625,0.9649057388305664,-9.707083702087402,2.282453775405884
1701857495043857700,4.684857666015625,0.981655478477478,-9.733404159545898,2.299203395843506
1701857495053450800,4.69445068359375,0.9840483069419861,-9.762118339538574,2.3183460235595703
1701857495063042800,4.704042724609375,1.0031908750534058,-9.778867721557617,2.3350958824157715
1701857495072636200,4.71363623046875,1.0223335027694702,-9.843474388122559,2.354238271713257
1701857495082230000,4.72322998046875,1.0055837631225586,-9.879366874694824,2.433201551437378
1701857495091823000,4.732822998046875,0.9888339638710022,-9.917651176452637,2.466701030731201
1701857495101415200,4.742415283203125,0.9433703422546387,-9.92243766784668,2.440380096435547
1701857495111008500,4.752008544921875,0.8691928386688232,-9.896116256713867,2.4475584030151367
1701857495120602400,4.761602294921875,0.8069794178009033,-9.869794845581055,2.44277286529541
1701857495130195500,4.771195556640625,0.8117650747299194,-9.807581901550293,2.4164516925811768
1701857495139787500,4.78078759765625,0.7806583642959595,-9.764511108398438,2.4212374687194824
1701857495149380900,4.790380859375,0.7328019142150879,-9.692726135253906,2.4547369480133057
1701857495158974700,4.799974609375,0.6969096064567566,-9.65683364868164,2.5073790550231934
1701857495168567800,4.80956787109375,0.6083751320838928,-9.64965534210205,2.6198415756225586
1701857495178159900,4.819159912109375,0.5796613097190857,-9.620942115783691,2.6748766899108887
1701857495187753200,4.828753173828125,0.6346961855888367,-9.618548393249512,2.684448003768921
1701857495197346800,4.838346923828125,0.646660327911377,-9.582656860351562,2.6916263103485107
1701857495206940200,4.847940185546875,0.6801598072052002,-9.55633544921875,2.701197624206543
1701857495216532200,4.8575322265625,0.7016952633857727,-9.565906524658203,2.7514469623565674
1701857495226125300,4.867125244140625,0.7280163168907166,-9.613762855529785,2.799602508544922
1701857495235719200,4.87671923828125,0.7519445419311523,-9.64965534210205,2.809173822402954
1701857495245312500,4.8863125,0.7591229677200317,-9.685547828674316,2.8426733016967773
1701857495254904600,4.895904541015625,0.7399803996086121,-9.716654777526855,2.8522446155548096
1701857495264497700,4.90549755859375,0.7447660565376282,-9.731011390686035,2.8833513259887695
1701857495274091500,4.915091552734375,0.7950153350830078,-9.714262008666992,2.8761727809906006
1701857495283684600,4.9246845703125,0.8165507316589355,-9.697511672973633,2.854637384414673
1701857495293277000,4.93427685546875,0.7974081635475159,-9.68076229095459,2.861815929412842
1701857495302870000,4.9438701171875,0.8213363885879517,-9.690333366394043,2.8450660705566406
1701857495312464000,4.9534638671875,0.8380861282348633,-9.652048110961914,2.823530673980713
1701857495322057000,4.963056884765625,0.8093722462654114,-9.647262573242188,2.8115665912628174
1701857495331649300,4.972649169921875,0.7519445419311523,-9.64965534210205,2.8354947566986084
1701857495341242400,4.982242431640625,0.7447660565376282,-9.68794059753418,2.8139593601226807
1701857495350836200,4.991836181640625,0.7280163168907166,-9.721440315246582,2.7828526496887207
1701857495360429300,5.00142919921875,0.6897311210632324,-9.733404159545898,2.749054193496704
1701857495370021600,5.011021728515625,0.6873382925987244,-9.740582466125488,2.7131617069244385
1701857495379614700,5.02061474609375,0.737587571144104,-9.728618621826172,2.662912607192993
1701857495389208600,5.03020849609375,0.7806583642959595,-9.697511672973633,2.622234582901001
1701857495398801700,5.0398017578125,0.7974081635475159,-9.704689979553223,2.5719852447509766
1701857495408394000,5.04939404296875,0.7782655358314514,-9.692726135253906,2.5241286754608154
1701857495417987000,5.058987060546875,0.7591229677200317,-9.704689979553223,2.50498628616333
1701857495427581000,5.068580810546875,0.735194742679596,-9.697511672973633,2.5073790550231934
1701857495437174000,5.078174072265625,0.7280163168907166,-9.68794059753418,2.50498628616333
1701857495446766300,5.087766357421875,0.6921239495277405,-9.697511672973633,2.5025932788848877
1701857495456359400,5.097359375,0.6346961855888367,-9.70229721069336,2.495414972305298
1701857495465953300,5.106953369140625,0.6059823632240295,-9.750154495239258,2.4619154930114746
1701857495475546400,5.11654638671875,0.6299105882644653,-9.776474952697754,2.449951171875
1701857495485138700,5.126138671875,0.5988038778305054,-9.802796363830566,2.418844699859619
1701857495494731800,5.135731689453125,0.5796613097190857,-9.824331283569336,2.4212374687194824
1701857495504325600,5.14532568359375,0.6107679605484009,-9.853045463562012,2.394916296005249
1701857495513918700,5.154918701171875,0.6729813814163208,-9.848259925842285,2.378166675567627
1701857495523511000,5.164510986328125,0.7734799385070801,-9.814760208129883,2.3446671962738037
1701857495533104000,5.174104248046875,0.8141579031944275,-9.786046028137207,2.3685953617095947
1701857495542698000,5.183697998046875,0.8333004713058472,-9.754940032958984,2.3685953617095947
1701857495552291000,5.193291015625,0.8309076428413391,-9.738189697265625,2.356631278991699
1701857495561883400,5.20288330078125,0.8356932997703552,-9.733404159545898,2.354238271713257
1701857495571476500,5.2124765625,0.8811569213867188,-9.742975234985352,2.330310106277466
1701857495581070300,5.2220703125,0.9050851464271545,-9.742975234985352,2.306381940841675
1701857495590663400,5.231663330078125,0.9218349456787109,-9.754940032958984,2.3135604858398438
1701857495600255700,5.241255859375,0.8955138921737671,-9.745368003845215,2.3183460235595703
1701857495609848800,5.250848876953125,0.8500502705574036,-9.752547264099121,2.2800607681274414
1701857495619442700,5.260442626953125,0.8213363885879517,-9.786046028137207,2.2393829822540283
1701857495629035800,5.270035888671875,0.8213363885879517,-9.809974670410156,2.2055842876434326
1701857495638628000,5.279628173828125,0.857228696346283,-9.841081619262695,2.184048891067505
1701857495648221200,5.28922119140625,0.857228696346283,-9.853045463562012,2.1720848083496094
1701857495657815000,5.29881494140625,0.8763712644577026,-9.853045463562012,2.152942180633545
1701857495667408100,5.308408203125,0.890728235244751,-9.855438232421875,2.176870346069336
1701857495677000200,5.318000244140625,0.8955138921737671,-9.8267240524292,2.186441659927368
1701857495686593500,5.327593505859375,0.8811569213867188,-9.78843879699707,2.1888344287872314
1701857495696187400,5.3371875,0.8859425783157349,-9.762118339538574,2.1744775772094727
1701857495705780500,5.346780517578125,0.9314061999320984,-9.70229721069336,2.138585329055786
1701857495715372500,5.35637255859375,0.9337990283966064,-9.659226417541504,2.155334949493408
1701857495724965600,5.365965576171875,0.9122636318206787,-9.632905960083008,2.145763635635376
1701857495734559500,5.3755595703125,0.8811569213867188,-9.606584548950195,2.1744775772094727
1701857495744152800,5.38515283203125,0.8835497498512268,-9.613762855529785,2.2055842876434326
1701857495753745000,5.394744873046875,0.8644071817398071,-9.599406242370605,2.220240354537964
1701857495763338000,5.404337890625,0.8213363885879517,-9.5802640914917,2.2728824615478516
1701857495772931800,5.413931884765625,0.8356932997703552,-9.592227935791016,2.2393829822540283
1701857495782525000,5.42352490234375,0.8691928386688232,-9.592227935791016,2.215454578399658
1701857495792117200,5.4331171875,0.828514814376831,-9.597013473510742,2.2489542961120605
1701857495801710300,5.44271044921875,0.7974081635475159,-9.608977317810059,2.275275230407715
1701857495811304200,5.45230419921875,0.8045865893363953,-9.630513191223145,2.2944178581237793
1701857495820897300,5.461897216796875,0.8141579031944275,-9.625727653503418,2.3255245685577393
1701857495830489600,5.471489501953125,0.8189435601234436,-9.64965534210205,2.301596164703369
1701857495840082700,5.481082763671875,0.7734799385070801,-9.678369522094727,2.308774709701538
1701857495849676500,5.490676513671875,0.7304090857505798,-9.738189697265625,2.308774709701538
1701857495859269600,5.50026953125,0.7136593461036682,-9.802796363830566,2.2968106269836426
1701857495868862000,5.509862060546875,0.7088736891746521,-9.829116821289062,2.3350958824157715
1701857495878455000,5.519455078125,0.6969096064567566,-9.848259925842285,2.3733808994293213
1701857495888049000,5.529048828125,0.6442674994468689,-9.845867156982422,2.4044876098632812
1701857495897642000,5.53864208984375,0.6203392744064331,-9.845867156982422,2.4164516925811768
1701857495907234300,5.548234375,0.6059823632240295,-9.838688850402832,2.4308087825775146
1701857495916827400,5.557827392578125,0.617946445941925,-9.802796363830566,2.3973093032836914
1701857495926421200,5.567421142578125,0.6586244106292725,-9.747760772705078,2.385344982147217
1701857495936014300,5.577014404296875,0.6873382925987244,-9.692726135253906,2.332702875137329
1701857495945606700,5.586606689453125,0.7208378314971924,-9.652048110961914,2.3039891719818115
1701857495955199700,5.59619970703125,0.7016952633857727,-9.623334884643555,2.260918378829956
1701857495964793600,5.605793701171875,0.6705885529518127,-9.640084266662598,2.2417757511138916
1701857495974386700,5.61538671875,0.6586244106292725,-9.68794059753418,2.2031915187835693
1701857495983978800,5.624978759765625,0.6921239495277405,-9.723833084106445,2.186441659927368
1701857495993572000,5.634572021484375,0.6969096064567566,-9.754940032958984,2.2031915187835693
1701857496003166000,5.644166015625,0.6538388133049011,-9.795618057250977,2.2633111476898193
1701857496012759000,5.653759033203125,0.6514459848403931,-9.833903312683105,2.3135604858398438
1701857496022351000,5.66335107421875,0.6825526356697083,-9.843474388122559,2.370988130569458
1701857496031944400,5.6729443359375,0.7830511927604675,-9.850652694702148,2.3973093032836914
1701857496041538300,5.682538330078125,0.828514814376831,-9.829116821289062,2.418844699859619
1701857496051131400,5.69213134765625,0.828514814376831,-9.821938514709473,2.426023006439209
1701857496060723500,5.701723388671875,0.7878368496894836,-9.821938514709473,2.4212374687194824
1701857496070316800,5.71131689453125,0.771087110042572,-9.829116821289062,2.4068803787231445
1701857496079910700,5.72091064453125,0.7806583642959595,-9.8267240524292,2.3997020721435547
1701857496089503500,5.73050341796875,0.768694281578064,-9.80518913269043,2.3997020721435547
1701857496099095800,5.740095703125,0.735194742679596,-9.764511108398438,2.449951171875
1701857496108689000,5.74968896484375,0.771087110042572,-9.733404159545898,2.50498628616333
1701857496118282800,5.75928271484375,0.8117650747299194,-9.704689979553223,2.5552353858947754
1701857496127875800,5.768875732421875,0.7878368496894836,-9.647262573242188,2.622234582901001
1701857496137468200,5.77846826171875,0.768694281578064,-9.611370086669922,2.684448003768921
1701857496147061200,5.788061279296875,0.7758727669715881,-9.568299293518066,2.7275187969207764
1701857496156655000,5.797655029296875,0.7591229677200317,-9.537193298339844,2.785245656967163
1701857496166248200,5.807248291015625,0.7567301392555237,-9.472586631774902,2.794816732406616
1701857496175840500,5.816840576171875,0.8117650747299194,-9.410074234008789,2.8043880462646484
1701857496185433600,5.82643359375,0.8333004713058472,-9.304789543151855,2.7972097396850586
1701857496195027500,5.83602734375,0.6993024349212646,-9.242576599121094,2.7972097396850586
1701857496204620500,5.84562060546875,0.6011967062950134,-9.24018383026123,2.806781053543091
1701857496214212900,5.855212890625,0.5341976284980774,-9.252147674560547,2.7828526496887207
1701857496223806000,5.864805908203125,0.49322056770324707,-9.26171875,2.7828526496887207
1701857496233399800,5.87439990234375,0.5437689423561096,-9.311968803405762,2.801995277404785
1701857496242993000,5.883992919921875,0.6275177597999573,-9.37896728515625,2.8211379051208496
1701857496252585200,5.893585205078125,0.7088736891746521,-9.45583724975586,2.871387243270874
1701857496262178300,5.90317822265625,0.706480860710144,-9.518050193786621,2.9240293502807617
1701857496271772200,5.912772216796875,0.7256234884262085,-9.575477600097656,2.974278450012207
1701857496281365200,5.922365234375,0.7160521745681763,-9.637691497802734,2.9718856811523438
1701857496290957600,5.93195751953125,0.6873382925987244,-9.68794059753418,2.967100143432617
1701857496300550700,5.941550537109375,0.6370890140533447,-9.728618621826172,2.902493953704834
1701857496310144500,5.95114453125,0.5988038778305054,-9.769296646118164,2.861815929412842
1701857496319737600,5.960737548828125,0.6849454641342163,-9.77408218383789,2.806781053543091
1701857496329329700,5.97032958984375,0.8117650747299194,-9.757332801818848,2.7610182762145996
1701857496338923000,5.979923095703125,0.9098708033561707,-9.70229721069336,2.7538397312164307
1701857496348516900,5.989516845703125,0.8620143532752991,-9.661619186401367,2.830709218978882
1701857496358109700,5.999109619140625,0.857228696346283,-9.625727653503418,2.8450660705566406
1701857496367702000,6.008701904296875,0.8883354067802429,-9.606584548950195,2.830709218978882
1701857496377295000,6.018295166015625,0.7591229677200317,-9.592227935791016,2.7828526496887207
1701857496386889000,6.027888916015625,0.6921239495277405,-9.585049629211426,2.7203402519226074
1701857496396482000,6.03748193359375,0.771087110042572,-9.594620704650879,2.622234582901001
1701857496406074400,6.047074462890625,0.8883354067802429,-9.597013473510742,2.5097718238830566
1701857496415667500,6.05666748046875,0.9002995491027832,-9.589835166931152,2.4212374687194824
1701857496425261300,6.06626123046875,0.7758727669715881,-9.597013473510742,2.363809585571289
1701857496434854400,6.0758544921875,0.6370890140533447,-9.630513191223145,2.354238271713257
1701857496444446700,6.08544677734375,0.5147559642791748,-9.647262573242188,2.3207387924194336
1701857496454039800,6.095039794921875,0.4405784606933594,-9.69511890411377,2.301596164703369
1701857496463633700,6.104633544921875,0.4501497745513916,-9.690333366394043,2.3183460235595703
1701857496473226800,6.114226806640625,0.5003990530967712,-9.66640567779541,2.3183460235595703
1701857496482819000,6.123819091796875,0.5940182209014893,-9.611370086669922,2.315953254699707
1701857496492412200,6.133412109375,0.6538388133049011,-9.582656860351562,2.3518455028533936
1701857496502006000,6.143006103515625,0.6777670383453369,-9.565906524658203,2.356631278991699
1701857496511599000,6.15259912109375,0.8404789566993713,-9.54197883605957,2.41166615486145
1701857496521191400,6.16219140625,0.7950153350830078,-9.544371604919434,2.48105788230896
1701857496530784500,6.171784423828125,0.6514459848403931,-9.620942115783691,2.6054847240448
1701857496540378400,6.18137841796875,0.6227321028709412,-9.711869239807129,2.7035903930664062
1701857496549971500,6.190971435546875,0.6227321028709412,-9.769296646118164,2.739482879638672
1701857496559563800,6.200563720703125,0.7112665176391602,-9.958329200744629,2.837887763977051
1701857496569156900,6.210156982421875,0.7950153350830078,-9.924830436706543,2.8043880462646484
1701857496578750700,6.219750732421875,0.8165507316589355,-9.685547828674316,2.8737800121307373
1701857496588343800,6.22934375,0.7495517134666443,-9.635298728942871,2.885744094848633
1701857496597936000,6.23893603515625,0.7280163168907166,-9.690333366394043,2.9479575157165527
1701857496607529200,6.248529296875,0.7160521745681763,-9.723833084106445,2.9479575157165527
1701857496617123000,6.258123046875,0.7304090857505798,-9.738189697265625,2.9072794914245605
1701857496626716200,6.267716064453125,0.7519445419311523,-9.723833084106445,2.833101987838745
1701857496636308200,6.27730810546875,0.737587571144104,-9.728618621826172,2.715554714202881
1701857496645901300,6.2869013671875,0.7447660565376282,-9.709476470947266,2.6174488067626953
1701857496655495200,6.2964951171875,0.7208378314971924,-9.683155059814453,2.5384857654571533
1701857496665088300,6.306088134765625,0.6921239495277405,-9.68076229095459,2.457129716873169
1701857496674680600,6.3156806640625,0.6681957244873047,-9.652048110961914,2.3925235271453857
1701857496684273700,6.325273681640625,0.6873382925987244,-9.601799011230469,2.370988130569458
1701857496693867500,6.334867431640625,0.6945167779922485,-9.54197883605957,2.3446671962738037
1701857496703460600,6.344460693359375,0.735194742679596,-9.460622787475586,2.3422741889953613
1701857496713053000,6.354052978515625,0.8165507316589355,-9.400503158569336,2.3255245685577393
1701857496722646000,6.36364599609375,0.7782655358314514,-9.35025405883789,2.2585253715515137
1701857496732240000,6.373239990234375,0.6945167779922485,-9.355039596557617,2.3207387924194336
1701857496741833000,6.3828330078125,0.6299105882644653,-9.398110389709473,2.48105788230896
1701857496751425300,6.39242529296875,0.7998009920120239,-9.41755199432373,2.631805896759033
1701857496761018400,6.402018310546875,0.7950153350830078,-9.35743236541748,2.653341293334961
1701857496770612200,6.4116123046875,0.706480860710144,-9.182756423950195,2.6413772106170654
1701857496780205300,6.421205322265625,0.8739784955978394,-8.981759071350098,2.6126632690429688
1701857496789797600,6.430797607421875,0.9672985672950745,-8.787641525268555,2.6509482860565186
1701857496799390700,6.440390625,0.9385846853256226,-8.660821914672852,2.9001009464263916
1701857496808984600,6.449984619140625,0.4405784606933594,-8.569893836975098,3.1250264644622803
1701857496818577700,6.45957763671875,0.014656038954854012,-8.615358352661133,3.4698920249938965
1701857496828170000,6.469169921875,-0.016450656577944756,-8.624929428100586,3.7929229736328125
1701857496837763000,6.47876318359375,0.23718854784965515,-8.512466430664062,3.8814573287963867
1701857496847357000,6.48835693359375,0.5700899958610535,-7.9642109870910645,4.003790378570557
1701857496856950000,6.497949951171875,0.7806583642959595,-7.415955543518066,4.271786689758301
1701857496866542000,6.5075419921875,0.8739784955978394,-7.289135932922363,4.729115009307861
1701857496876135400,6.517135498046875,0.8691928386688232,-7.372884750366211,5.050052165985107
1701857496885729300,6.526729248046875,0.9361918568611145,-7.731808185577393,5.993123531341553
1701857496895322400,6.536322265625,1.1303095817565918,-7.657630443572998,6.017051696777344
1701857496904914400,6.54591455078125,1.1015957593917847,-7.035197734832764,5.406582832336426
1701857496914507800,6.5555078125,1.1422736644744873,-6.630810737609863,6.064908027648926
1701857496924101600,6.5651015625,1.3600205183029175,-6.38165807723999,6.6729841232299805
1701857496933694700,6.57469482421875,2.090130567550659,-6.209374904632568,7.252346515655518
1701857496943286800,6.584286865234375,1.3983057737350464,-6.123233318328857,7.226025104522705
1701857496952879900,6.5938798828125,-0.3852444589138031,-6.082555294036865,6.381059646606445
1701857496962473700,6.6034736328125,-1.9486548900604248,-5.8692946434021,5.260620594024658
1701857496972066800,6.61306689453125,-2.6596224308013916,-5.713761329650879,3.5177483558654785
1701857496981659100,6.6226591796875,-1.3310075998306274,-5.5366926193237305,0.47228336334228516
1701857496991252200,6.632252197265625,2.2722842693328857,-4.674678325653076,-1.6031911373138428
1701857497000846000,6.64184619140625,4.29033088684082,-3.6451661586761475,-2.5298118591308594
1701857497010439200,6.651439208984375,2.9928228855133057,-3.515953779220581,-1.9336998462677002
1701857497020031500,6.661031494140625,1.1973086595535278,-3.8297126293182373,-0.5979065299034119
1701857497029624600,6.67062451171875,0.9218349456787109,-4.336990833282471,0.4411766827106476
1701857497039218400,6.680218505859375,1.1973086595535278,-4.564608097076416,0.23778675496578217
1701857497048811500,6.6898115234375,2.011167526245117,-4.562215328216553,-0.2745763957500458
1701857497058403800,6.69940380859375,2.3488545417785645,-5.163113117218018,-0.4133601188659668
1701857497067997000,6.708996826171875,1.0920244455337524,-4.849354267120361,-0.6002993583679199
1701857497077590800,6.7185908203125,-0.36610186100006104,-5.411966800689697,0.6783652305603027
1701857497087184000,6.728183837890625,-1.5798611640930176,-7.1886372566223145,3.1441688537597656
1701857497096776200,6.737776123046875,-0.6152545213699341,-8.691927909851074,4.008575916290283
1701857497106369300,6.747369384765625,1.6136597394943237,-10.128519058227539,4.214358806610107
1701857497115963100,6.756963134765625,3.7971103191375732,-11.169995307922363,4.6286163330078125
1701857497125556200,6.76655615234375,6.710970401763916,-12.472289085388184,3.5727832317352295
1701857497135148300,6.776148193359375,7.223034381866455,-11.177173614501953,0.7238288521766663
1701857497144741600,6.78574169921875,3.770789384841919,-8.28724193572998,-1.3663017749786377
1701857497154335500,6.79533544921875,1.4796617031097412,-4.811069011688232,-4.456931114196777
1701857497163928600,6.804928466796875,1.0103694200515747,-2.6036901473999023,-6.3173508644104
1701857497173520600,6.814520751953125,1.6256239414215088,-3.436990737915039,-5.402694225311279
1701857497183114000,6.824114013671875,1.446162223815918,-4.346562385559082,-5.14666223526001
1701857497192707800,6.833707763671875,1.0968101024627686,-4.844568729400635,-5.1681976318359375
1701857497202300700,6.84330078125,1.5849459171295166,-4.6076788902282715,-4.835296154022217
1701857497211893000,6.85289306640625,1.8963119983673096,-5.457430362701416,-4.684548377990723
1701857497221486000,6.862486083984375,0.9577272534370422,-6.166304111480713,-4.083651065826416
1701857497231080000,6.872079833984375,1.6474584341049194,-7.506882667541504,-4.529015064239502
1701857497240673000,6.881673095703125,2.346461772918701,-9.110971450805664,-3.786641836166382
1701857497250265300,6.891265380859375,1.9058831930160522,-10.755738258361816,-3.3317065238952637
1701857497259858400,6.9008583984375,1.7670994997024536,-12.438789367675781,-3.0397820472717285
1701857497269452300,6.910452392578125,2.2483558654785156,-14.394622802734375,-2.479562520980835
1701857497279045400,6.92004541015625,2.724527597427368,-16.036996841430664,-1.5960127115249634
1701857497288637700,6.9296376953125,3.3424742221832275,-19.63071632385254,1.4539388418197632
1701857497298230800,6.939230712890625,1.9824535846710205,-20.633607864379883,2.2896320819854736
1701857497307824600,6.94882470703125,1.9992033243179321,-22.73091697692871,3.029313564300537
1701857497317417700,6.958417724609375,2.063809633255005,-25.730918884277344,3.105883836746216
1701857497327010000,6.968010009765625,3.2273194789886475,-30.91885757446289,4.326821327209473
1701857497336603100,6.97760302734375,7.134500026702881,-34.83321762084961,5.196014404296875
1701857497346197000,6.987197021484375,8.961420059204102,-37.49552917480469,4.9995036125183105
1701857497355790000,6.9967900390625,10.194321632385254,-32.52533721923828,4.173680782318115
1701857497365382100,7.006382080078125,7.8433732986450195,-23.93271255493164,3.28773832321167
1701857497374975500,7.0159755859375,8.116155624389648,-21.29941177368164,5.1218366622924805
1701857497384569300,7.0255693359375,7.3262248039245605,-15.067604064941406,2.4140589237213135
1701857497394162400,7.035162353515625,6.516852378845215,-9.857831001281738,1.3127623796463013
1701857497403754500,7.04475439453125,5.384449005126953,-9.958329200744629,1.8849459886550903
1701857497413347800,7.054347900390625,5.645565986633301,-10.248160362243652,4.944468975067139
1701857497422941700,7.063941650390625,3.6343984603881836,-10.808380126953125,6.632306098937988
1701857497432534500,7.073534423828125,1.9417755603790283,-13.645370483398438,9.78544807434082
1701857497442126800,7.083126953125,-0.576670229434967,-14.2127685546875,9.979267120361328
1701857497451720000,7.092719970703125,-3.227020502090454,-10.84427261352539,8.236394882202148
1701857497461313800,7.102313720703125,-5.549254894256592,-7.1524457931518555,6.7091755867004395
1701857497470907000,7.111906982421875,-5.9922261238098145,-8.248956680297852,4.520939350128174
1701857497480499200,7.121499267578125,-4.742574691772461,-7.794320583343506,3.1585259437561035
1701857497490092300,7.13109228515625,-1.7715860605239868,-7.571488857269287,3.0412776470184326
1701857497499686100,7.14068603515625,0.031405795365571976,-6.817451000213623,3.5871403217315674
1701857497509279200,7.150279296875,1.3384851217269897,-6.44387149810791,4.468297004699707
1701857497518871600,7.15987158203125,2.0063817501068115,-6.080162525177002,4.458725929260254
1701857497528464600,7.169464599609375,2.5163521766662598,-6.645167350769043,2.926422119140625
1701857497538058500,7.17905859375,2.3297119140625,-6.192625045776367,2.1433708667755127
1701857497547651600,7.188651611328125,1.230808138847351,-4.734498500823975,1.1524431705474854
1701857497557244000,7.198243896484375,1.4533406496047974,-3.061018466949463,0.23778675496578217
1701857497566837000,7.2078369140625,0.9002995491027832,-1.825723648071289,-0.5979065299034119
1701857497576430800,7.217430908203125,0.3041875660419464,-1.1171491146087646,-0.9400802254676819
1701857497586024000,7.22702392578125,1.8819550275802612,-0.4540380835533142,-1.3304094076156616
1701857497595616000,7.236615966796875,2.2794625759124756,-0.15702898800373077,-1.5481562614440918
1701857497605209300,7.246209228515625,3.4692938327789307,-0.19770696759223938,-1.8954145908355713
1701857497614803200,7.25580322265625,1.4916257858276367,-0.2192423790693283,-1.8427724838256836
1701857497624396300,7.265396240234375,1.7096717357635498,0.25722843408584595,-1.6175481081008911
1701857497633988400,7.27498828125,3.488436222076416,0.5946164131164551,-1.1868400573730469
1701857497643581400,7.28458154296875,4.211368083953857,1.083051323890686,-0.44446679949760437
1701857497653175300,7.29417529296875,3.8979079723358154,1.6863417625427246,-0.44446679949760437
1701857497662768400,7.303768310546875,4.1659040451049805,2.4358935356140137,-0.9640084505081177
1701857497672360700,7.313360595703125,3.5769708156585693,3.120539903640747,-1.667797327041626
1701857497681953800,7.322953857421875,2.2459630966186523,2.416750907897949,0.2760719060897827
1701857497691547600,7.332547607421875,4.9175496101379395,1.973779559135437,1.6911274194717407
1701857497701140700,7.342140625,13.12702465057373,2.126920223236084,1.6310077905654907
1701857497710733000,7.351733154296875,17.354843139648438,3.3693933486938477,4.307679176330566
1701857497720326100,7.361326171875,10.790433883666992,5.62462854385376,2.2345972061157227
1701857497729920000,7.370919921875,21.092132568359375,8.459226608276367,4.207180500030518
1701857497739513000,7.38051318359375,31.52812957763672,20.717058181762695,-8.859724998474121
1701857497749105400,7.39010546875,2.6096723079681396,11.827722549438477,-12.520444869995117
1701857497758698500,7.399698486328125,15.102001190185547,1.9043877124786377,-3.310171127319336
1701857497768292400,7.409292236328125,14.132608413696289,0.21415762603282928,1.9256240129470825
1701857497777885400,7.418885498046875,25.265216827392578,-4.851747035980225,5.251049518585205
1701857497787477500,7.4284775390625,25.818256378173828,-5.167898654937744,5.844768524169922
1701857497797070800,7.43807080078125,28.039993286132812,-1.6055840253829956,3.694817304611206
1701857497806664700,7.447664794921875,28.96392250061035,0.3888336718082428,3.2997024059295654
1701857497816257800,7.4572578125,28.70549774169922,-0.19770696759223938,3.7522449493408203
1701857497825849900,7.466849853515625,27.625736236572266,0.0726819857954979,3.701995849609375
1701857497835443000,7.47644287109375,25.40639305114746,1.2433704137802124,3.3236305713653564
1701857497845036800,7.486036865234375,22.365713119506836,1.6839489936828613,3.136990547180176
1701857497854630000,7.4956298828125,19.208084106445312,1.4829518795013428,3.067598581314087
1701857497864222200,7.50522216796875,16.53380584716797,1.0926226377487183,2.864208698272705
1701857497873815300,7.514815185546875,14.367105484008789,0.7887341380119324,3.0173492431640625
1701857497883409200,7.5244091796875,12.650554656982422,0.3840480446815491,2.653341293334961
1701857497893002200,7.534002197265625,11.534900665283203,0.18305093050003052,2.660519599914551
1701857497902594600,7.543594482421875,10.531709671020508,-0.07567301392555237,2.7035903930664062
1701857497912187600,7.553187744140625,9.741779327392578,-0.2072782665491104,2.449951171875
1701857497921781500,7.562781494140625,8.966205596923828,-0.4899304509162903,2.121835470199585
1701857497931374600,7.57237451171875,8.293224334716797,-0.6406782865524292,1.9926230907440186
1701857497940967000,7.581966796875,7.254140853881836,-0.4058825373649597,1.6959130764007568
1701857497950560000,7.59156005859375,6.595815658569336,-1.0429716110229492,1.9902302026748657
1701857497960153900,7.60115380859375,6.330212116241455,-1.038185954093933,1.6863417625427246
1701857497969747000,7.610746826171875,6.078666687011719,-0.7244270443916321,1.5568302869796753
1701857497979339000,7.620339111328125,5.518447399139404,-0.45643091201782227,1.3103694915771484
1701857497988932000,7.62993212890625,4.9725847244262695,-0.18335004150867462,1.0205388069152832
1701857497998526000,7.63952587890625,4.539483547210693,-0.494716078042984,0.7860422134399414
1701857498008119000,7.649119140625,4.4410786628723145,-0.4899304509162903,0.8051848411560059
1701857498017711400,7.65871142578125,4.565804481506348,-0.4082753658294678,0.7238288521766663
1701857498027304400,7.668304443359375,5.13320255279541,-0.666999340057373,0.8530412912368774
1701857498036898300,7.677898193359375,6.047560214996338,-0.631106972694397,0.9248259663581848
1701857498046491400,7.687491455078125,6.9430742263793945,-0.7818548083305359,0.98703932762146
1701857498056083700,7.697083740234375,7.596613883972168,-0.8464609980583191,1.1045867204666138
1701857498065676800,7.7066767578125,8.087441444396973,-0.9110672473907471,1.1380863189697266
1701857498075270700,7.716270751953125,8.628518104553223,-0.9852447509765625,1.1620144844055176
1701857498084863700,7.72586376953125,9.222237586975098,-1.069292664527893,1.1835498809814453
1701857498094456000,7.7354560546875,9.576674461364746,-1.1769696474075317,1.2792627811431885
1701857498104049200,7.745049072265625,10.028918266296387,-1.301396369934082,1.322333574295044
1701857498113643000,7.75464306640625,10.435997009277344,-1.4401801824569702,1.3007981777191162
1701857498123236000,7.764236083984375,10.919646263122559,-1.552642822265625,1.2816556692123413
1701857498132828200,7.773828125,11.379366874694824,-1.612762451171875,1.3127623796463013
1701857498142421200,7.783421142578125,11.644970893859863,-1.674975872039795,1.291226863861084
1701857498152015000,7.79301513671875,11.903694152832031,-1.8041882514953613,1.3390833139419556
1701857498161608200,7.802608154296875,12.16929817199707,-1.9046868085861206,1.4276177883148193
1701857498171200500,7.812200439453125,12.327523231506348,-2.012363910675049,1.4276177883148193
1701857498180793600,7.821793701171875,12.435199737548828,-2.0243279933929443,1.38933265209198
1701857498190387500,7.831387451171875,12.36820125579834,-1.919043779373169,1.4108680486679077
1701857498199980500,7.84098046875,12.023335456848145,-1.7324036359786987,1.4467604160308838
1701857498209572900,7.85057275390625,11.537293434143066,-1.5744773149490356,1.4682958126068115
1701857498219166000,7.860166015625,11.041680335998535,-1.4425729513168335,1.4084752798080444
1701857498228759800,7.869759765625,10.62532901763916,-1.332503080368042,1.3319048881530762
1701857498238353000,7.879352783203125,10.275677680969238,-1.246361494064331,1.329512119293213
1701857498247945000,7.888945068359375,9.947562217712402,-1.186540961265564,1.3199408054351807
1701857498257538300,7.898538330078125,9.705886840820312,-1.1721839904785156,1.3319048881530762
1701857498267132200,7.908132080078125,9.528818130493164,-1.1602199077606201,1.3199408054351807
1701857498276725200,7.917725341796875,9.341878890991211,-1.1362916231155396,1.2601202726364136
1701857498286317300,7.9273173828125,9.104989051818848,-1.1099705696105957,1.2218350172042847
1701857498295910400,7.936910400390625,8.863015174865723,-1.0836495161056519,1.181157112121582
1701857498305504300,7.946504150390625,8.717052459716797,-1.069292664527893,1.1596217155456543
1701857498315097300,7.956097412109375,8.652446746826172,-1.057328462600708,1.1931211948394775
1701857498324689700,7.965689697265625,8.695517539978027,-1.057328462600708,1.2385848760604858
1701857498334282800,7.97528271484375,8.839086532592773,-1.0549356937408447,1.267298698425293
1701857498343876600,7.984876708984375,8.980562210083008,-1.0764710903167725,1.2696914672851562
1701857498353469700,7.9944697265625,9.14566707611084,-1.1123634576797485,1.2792627811431885
1701857498363062000,8.00406201171875,9.279664993286133,-1.1267203092575073,1.2696914672851562
1701857498372655000,8.013655029296874,9.384949684143066,-1.150648593902588,1.2601202726364136
1701857498382249000,8.0232490234375,9.497411727905273,-1.1626126766204834,1.2840484380722046
1701857498391842000,8.032842041015625,9.607781410217285,-1.179362416267395,1.303191065788269
1701857498401434000,8.04243408203125,9.763314247131348,-1.210469126701355,1.3175479173660278
1701857498411027200,8.052027099609376,9.971489906311035,-1.2272188663482666,1.2960125207901
1701857498420621000,8.06162109375,10.156036376953125,-1.2535399198532104,1.3127623796463013
1701857498430214100,8.071214111328125,10.282855987548828,-1.2678968906402588,1.3175479173660278
1701857498439806500,8.080806396484375,10.390533447265625,-1.277468204498291,1.3199408054351807
1701857498449399600,8.090399658203125,10.4790678024292,-1.277468204498291,1.3175479173660278
1701857498458993400,8.099993408203124,10.55803108215332,-1.2631112337112427,1.329512119293213
1701857498468586500,8.10958642578125,10.56520938873291,-1.272682547569275,1.329512119293213
1701857498478178800,8.1191787109375,10.555638313293457,-1.272682547569275,1.2936197519302368
1701857498487772000,8.12877197265625,10.505388259887695,-1.2655041217803955,1.2601202726364136
1701857498497365800,8.13836572265625,10.435997009277344,-1.2702897787094116,1.2218350172042847
1701857498506958800,8.147958740234374,10.368997573852539,-1.2655041217803955,1.205085277557373
1701857498516551200,8.15755126953125,10.278070449829102,-1.2942179441452026,1.1835498809814453
1701857498526144300,8.167144287109375,10.196714401245117,-1.3181462287902832,1.1380863189697266
1701857498535738000,8.176738037109375,10.144072532653809,-1.2942179441452026,1.1404790878295898
1701857498545331000,8.1863310546875,10.055238723754883,-1.2918251752853394,1.1476575136184692
1701857498554923300,8.19592333984375,9.861420631408691,-1.2798609733581543,1.118943691253662
1701857498564516400,8.205516357421875,9.677172660827637,-1.3803595304489136,1.1404790878295898
1701857498574110200,8.215110107421875,9.600603103637695,-1.4928221702575684,1.1213364601135254
1701857498583703300,8.224703369140625,9.463912963867188,-1.3229317665100098,1.1093723773956299
1701857498593295600,8.234295654296876,9.174381256103516,-1.1051849126815796,1.1261221170425415
1701857498602888700,8.243888671875,8.913264274597168,-1.088435173034668,1.0612168312072754
1701857498612482600,8.253482666015625,9.018847465515137,-1.1362916231155396,1.0253244638442993
1701857498622075600,8.26307568359375,9.322735786437988,-1.1673983335494995,1.042074203491211
1701857498631668000,8.27266796875,9.507282257080078,-1.1889337301254272,1.0061819553375244
1701857498641261000,8.282260986328126,9.49501895904541,-1.1937193870544434,1.022931694984436
1701857498650855000,8.29185498046875,9.485447883605957,-1.1985050439834595,1.022931694984436
1701857498660448000,8.301447998046875,9.576674461364746,-1.1817553043365479,1.054038405418396
1701857498670040000,8.3110400390625,9.715457916259766,-1.19132661819458,1.0636097192764282
1701857498679633200,8.320633056640625,9.827920913696289,-1.2032907009124756,1.0683952569961548
1701857498689227000,8.33022705078125,9.90688419342041,-1.2272188663482666,1.0636097192764282
1701857498698820000,8.339820068359375,9.973882675170898,-1.2296117544174194,1.0396814346313477
1701857498708412400,8.349412353515625,10.040882110595703,-1.2439687252044678,1.0444670915603638
1701857498718005500,8.359005615234375,10.09860897064209,-1.2655041217803955,1.042074203491211
1701857498727599400,8.368599365234376,10.136894226074219,-1.3037892580032349,1.0564311742782593
1701857498737192400,8.3781923828125,10.151250839233398,-1.3205389976501465,1.073180913925171
1701857498746784800,8.38778466796875,10.1847505569458,-1.3061820268630981,1.1021939516067505
1701857498756377900,8.3973779296875,10.203892707824707,-1.3037892580032349,1.090229868888855
1701857498765971700,8.4069716796875,10.201499938964844,-1.3037892580032349,1.077966570854187
1701857498775564800,8.416564697265626,10.160821914672852,-1.313360571861267,1.085145115852356
1701857498785156900,8.426156982421874,10.110572814941406,-1.3181462287902832,1.0827522277832031
1701857498794750000,8.43575,10.040882110595703,-1.3061820268630981,1.0707881450653076
1701857498804343800,8.44534375,9.981060981750488,-1.301396369934082,1.0660024881362915
1701857498813937000,8.45493701171875,9.911669731140137,-1.3037892580032349,1.073180913925171
1701857498823529200,8.464529296875,9.847063064575195,-1.3181462287902832,1.0950154066085815
1701857498833122300,8.474122314453124,9.78245735168457,-1.2990036010742188,1.0755738019943237
1701857498842716200,8.483716064453125,9.739386558532715,-1.2822538614273071,1.0636097192764282
1701857498852309200,8.493309326171875,9.698708534240723,-1.2535399198532104,1.0564311742782593
1701857498861901600,8.502901611328125,9.67238712310791,-1.2439687252044678,1.0444670915603638
1701857498871494700,8.51249462890625,9.660423278808594,-1.2343974113464355,1.0348957777023315
1701857498881088500,8.522088623046875,9.655637741088867,-1.2343974113464355,1.0277173519134521
1701857498890681600,8.531681640625,9.636494636535645,-1.2487542629241943,1.0205388069152832
1701857498900273700,8.541273681640625,9.648459434509277,-1.241575837135315,1.0157532691955566
1701857498909867000,8.550866943359376,9.669994354248047,-1.2391830682754517,1.0133603811264038
1701857498919460900,8.5604609375,9.698708534240723,-1.2511471509933472,1.046859860420227
1701857498929053700,8.5700537109375,9.725028991699219,-1.2559328079223633,1.0372886657714844
1701857498938646000,8.57964599609375,9.746564865112305,-1.2678968906402588,1.0396814346313477
1701857498948239000,8.589239013671875,9.78963565826416,-1.2702897787094116,1.0396814346313477
1701857498957833000,8.5988330078125,9.835099220275879,-1.272682547569275,1.0516455173492432
1701857498967426000,8.608426025390624,9.880562782287598,-1.2750753164291382,1.054038405418396
1701857498977018400,8.618018310546875,9.904491424560547,-1.2822538614273071,1.0612168312072754
1701857498986611500,8.627611572265625,9.957133293151855,-1.2942179441452026,1.0492527484893799
1701857498996205300,8.637205322265626,9.983454704284668,-1.2918251752853394,1.0660024881362915
1701857499005798400,8.64679833984375,10.012167930603027,-1.2822538614273071,1.0612168312072754
1701857499015390500,8.656390380859374,10.01456069946289,-1.2870395183563232,1.073180913925171
1701857499024983600,8.665983642578125,10.0073823928833,-1.277468204498291,1.0755738019943237
1701857499034577400,8.675577392578125,10.002596855163574,-1.2678968906402588,1.0636097192764282
1701857499044170500,8.68517041015625,9.981060981750488,-1.2750753164291382,1.054038405418396
1701857499053762800,8.6947626953125,9.966704368591309,-1.2655041217803955,1.0444670915603638
1701857499063356000,8.70435595703125,9.92124080657959,-1.2702897787094116,1.046859860420227
1701857499072949800,8.71394970703125,9.909276962280273,-1.2607184648513794,1.0444670915603638
1701857499082542800,8.72354296875,9.892526626586914,-1.2535399198532104,1.0348957777023315
1701857499092135200,8.73313525390625,9.878170013427734,-1.2511471509933472,1.0253244638442993
1701857499101728300,8.742728271484374,9.827920913696289,-1.2702897787094116,1.0372886657714844
1701857499111322000,8.752322021484375,9.81356430053711,-1.2678968906402588,1.042074203491211
1701857499120915200,8.761915283203125,9.77527904510498,-1.2655041217803955,1.0205388069152832
1701857499130507300,8.77150732421875,9.741779327392578,-1.2750753164291382,1.0157532691955566
1701857499140100400,8.781100341796876,9.751350402832031,-1.2678968906402588,1.0109676122665405
1701857499149694200,8.790694091796874,9.748957633972168,-1.2702897787094116,1.022931694984436
1701857499159287300,8.800287353515625,9.758528709411621,-1.2631112337112427,1.0037890672683716
1701857499168879600,8.809879638671875,9.79681396484375,-1.2750753164291382,1.0157532691955566
1701857499178472700,8.81947265625,9.78963565826416,-1.2798609733581543,1.01814603805542
1701857499188066600,8.829066650390626,9.78963565826416,-1.2798609733581543,1.0037890672683716
1701857499197659600,8.83865966796875,9.806385040283203,-1.277468204498291,1.0205388069152832
1701857499207252000,8.848251953125,9.8207426071167,-1.272682547569275,1.01814603805542
1701857499216845000,8.857844970703125,9.835099220275879,-1.2870395183563232,1.0157532691955566
1701857499226439000,8.86743896484375,9.875777244567871,-1.2702897787094116,1.0253244638442993
1701857499236032000,8.877031982421874,9.887741088867188,-1.2822538614273071,1.0157532691955566
1701857499245624000,8.8866240234375,9.923633575439453,-1.2822538614273071,1.0157532691955566
1701857499255217200,8.896217041015625,9.930811882019043,-1.277468204498291,1.0109676122665405
1701857499264811000,8.90581103515625,9.949954986572266,-1.2798609733581543,1.01814603805542
1701857499274404000,8.915404052734376,9.964311599731445,-1.2750753164291382,1.01814603805542
1701857499283996400,8.924996337890626,9.978668212890625,-1.2870395183563232,1.022931694984436
1701857499293589500,8.934589599609374,9.957133293151855,-1.2846466302871704,1.0277173519134521
1701857499303183400,8.944183349609375,9.93559741973877,-1.2822538614273071,1.0253244638442993
1701857499312776400,8.9537763671875,9.92124080657959,-1.2655041217803955,1.0133603811264038
1701857499322368500,8.963368408203126,9.90688419342041,-1.2678968906402588,1.0133603811264038
1701857499331961900,8.9729619140625,9.887741088867188,-1.272682547569275,1.0085747241973877
1701857499341555700,8.9825556640625,9.863813400268555,-1.272682547569275,1.0013962984085083
1701857499351148500,8.9921484375,9.851848602294922,-1.2750753164291382,0.98703932762146
1701857499360740900,9.001740966796875,9.827920913696289,-1.2631112337112427,0.9822536706924438
1701857499370334000,9.011333984375,9.830313682556152,-1.272682547569275,0.9798609018325806
1701857499379927800,9.020927734375,9.830313682556152,-1.2678968906402588,0.9750752449035645
1701857499389521000,9.03052099609375,9.835099220275879,-1.2822538614273071,0.9678967595100403
1701857499399113200,9.04011328125,9.8207426071167,-1.272682547569275,0.9702895879745483
1701857499408706300,9.049706298828125,9.81356430053711,-1.272682547569275,0.9798609018325806
1701857499418300200,9.059300048828124,9.80399227142334,-1.2702897787094116,0.9774680733680725
1701857499427893200,9.068893310546875,9.801599502563477,-1.2750753164291382,0.9726824164390564
1701857499437485300,9.0784853515625,9.794421195983887,-1.2918251752853394,0.9750752449035645
1701857499447078400,9.088078369140625,9.780064582824707,-1.277468204498291,0.9678967595100403
1701857499456672300,9.09767236328125,9.78963565826416,-1.2870395183563232,0.9798609018325806
1701857499466265300,9.107265380859374,9.81356430053711,-1.2990036010742188,0.9726824164390564
1701857499475857700,9.116857666015624,9.832706451416016,-1.2870395183563232,0.9918249845504761
1701857499485450800,9.12645068359375,9.835099220275879,-1.2870395183563232,0.9846464991569519
1701857499495044600,9.136044677734375,9.837491989135742,-1.2798609733581543,0.9822536706924438
1701857499504637700,9.1456376953125,9.849455833435059,-1.272682547569275,0.989432156085968
1701857499514230000,9.15522998046875,9.856635093688965,-1.272682547569275,0.9918249845504761
1701857499523823000,9.164822998046875,9.863813400268555,-1.2655041217803955,0.9966106414794922
1701857499533417000,9.1744169921875,9.873384475708008,-1.277468204498291,1.0109676122665405
1701857499543009800,9.184009765625,9.89970588684082,-1.2655041217803955,1.01814603805542
1701857499552602000,9.19360205078125,9.897313117980957,-1.272682547569275,1.0253244638442993
1701857499562195200,9.2031953125,9.89970588684082,-1.272682547569275,1.0133603811264038
1701857499571789000,9.2127890625,9.911669731140137,-1.2655041217803955,1.01814603805542
1701857499581382100,9.222382080078125,9.897313117980957,-1.2631112337112427,1.022931694984436
1701857499590974500,9.231974365234375,9.897313117980957,-1.2631112337112427,1.0109676122665405
1701857499600567600,9.241567626953126,9.89013385772705,-1.2631112337112427,1.0037890672683716
1701857499610161400,9.251161376953124,9.89013385772705,-1.2655041217803955,1.01814603805542
1701857499619754500,9.26075439453125,9.870991706848145,-1.2702897787094116,1.0085747241973877
1701857499629346600,9.2703466796875,9.861420631408691,-1.2750753164291382,0.9990034699440002
1701857499638939600,9.279939697265625,9.870991706848145,-1.2655041217803955,0.98703932762146
1701857499648533500,9.289533447265624,9.856635093688965,-1.2631112337112427,0.9918249845504761
1701857499658126600,9.299126708984375,9.847063064575195,-1.2702897787094116,0.9846464991569519
1701857499667719000,9.308718994140625,9.837491989135742,-1.2750753164291382,1.0013962984085083
1701857499677312000,9.31831201171875,9.801599502563477,-1.272682547569275,0.989432156085968
1701857499686905900,9.32790576171875,9.799206733703613,-1.2750753164291382,0.9846464991569519
1701857499696499000,9.3374990234375,9.81356430053711,-1.2702897787094116,0.9918249845504761
1701857499706091300,9.34709130859375,9.806385040283203,-1.2798609733581543,0.9798609018325806
1701857499715684400,9.356684326171875,9.839884757995605,-1.2702897787094116,0.9774680733680725
1701857499725278200,9.3662783203125,9.868598937988281,-1.2822538614273071,0.9774680733680725
1701857499734871000,9.37587109375,9.851848602294922,-1.2750753164291382,0.9702895879745483
1701857499744463400,9.38546337890625,9.832706451416016,-1.277468204498291,0.9583254456520081
1701857499754056400,9.395056396484375,9.823135375976562,-1.2846466302871704,0.9655039310455322
1701857499763650300,9.404650390625,9.842277526855469,-1.2750753164291382,0.9607182741165161
1701857499773243400,9.414243408203125,9.854242324829102,-1.2870395183563232,0.9487541913986206
1701857499782835700,9.423835693359376,9.870991706848145,-1.2894322872161865,0.9535398483276367
1701857499792428800,9.4334287109375,9.892526626586914,-1.272682547569275,0.9607182741165161
1701857499802022700,9.443022705078125,9.911669731140137,-1.296610713005066,0.9559326171875
1701857499811615700,9.45261572265625,9.9140625,-1.2846466302871704,0.9439685344696045
1701857499821207800,9.462207763671875,9.92841911315918,-1.2822538614273071,0.9415757060050964
1701857499830801000,9.47180078125,9.933204650878906,-1.2822538614273071,0.9487541913986206
1701857499840394800,9.481394775390624,9.930811882019043,-1.2894322872161865,0.9439685344696045
1701857499849987800,9.49098779296875,9.92841911315918,-1.2798609733581543,0.9391828775405884
1701857499859580200,9.500580078125,9.904491424560547,-1.2870395183563232,0.9415757060050964
1701857499869173200,9.51017333984375,9.89970588684082,-1.2846466302871704,0.9320043921470642
1701857499878767000,9.51976708984375,9.887741088867188,-1.2918251752853394,0.9391828775405884
1701857499888360200,9.529360107421875,9.892526626586914,-1.2894322872161865,0.9296116232872009
1701857499897952300,9.5389521484375,9.885348320007324,-1.2798609733581543,0.9487541913986206
1701857499907545600,9.548545654296875,9.870991706848145,-1.2678968906402588,0.9415757060050964
1701857499917139500,9.558139404296876,9.861420631408691,-1.272682547569275,0.9439685344696045
1701857499926732300,9.567732177734374,9.861420631408691,-1.2750753164291382,0.9487541913986206
1701857499936324600,9.57732470703125,9.847063064575195,-1.2607184648513794,0.9463613629341125
1701857499945917700,9.586917724609375,9.837491989135742,-1.2702897787094116,0.9367900490760803
1701857499955511600,9.596511474609375,9.842277526855469,-1.2750753164291382,0.9415757060050964
1701857499965104600,9.606104736328126,9.835099220275879,-1.2798609733581543,0.9415757060050964
1701857499974697000,9.615697021484374,9.815957069396973,-1.2846466302871704,0.9631111025810242
1701857499984290000,9.6252900390625,9.825528144836426,-1.272682547569275,0.9439685344696045
1701857499993884000,9.6348837890625,9.842277526855469,-1.296610713005066,0.9320043921470642
1701857500003477000,9.64447705078125,9.894919395446777,-1.2990036010742188,0.9367900490760803
1701857500013069000,9.654069091796876,10.002596855163574,-1.296610713005066,0.9128618240356445
1701857500022662100,9.663662109375,10.101001739501953,-1.296610713005066,0.898504912853241
1701857500032256000,9.673256103515625,10.163214683532715,-1.301396369934082,0.9176474809646606
1701857500041849000,9.68284912109375,10.196714401245117,-1.3205389976501465,0.9152546525001526
1701857500051441400,9.69244140625,10.19910717010498,-1.3181462287902832,0.9320043921470642
1701857500061034500,9.702034423828126,10.182357788085938,-1.3277174234390259,0.900897741317749
1701857500070628400,9.71162841796875,10.144072532653809,-1.3037892580032349,0.8841479420661926
1701857500080221400,9.721221435546875,10.077073097229004,-1.296610713005066,0.8961120843887329
1701857500089813500,9.7308134765625,9.990633010864258,-1.277468204498291,0.8793623447418213
1701857500099406600,9.740406494140625,9.911669731140137,-1.277468204498291,0.8745766878128052
1701857500109000400,9.75000048828125,9.842277526855469,-1.2894322872161865,0.8626125454902649
1701857500118593500,9.759593505859375,9.768099784851074,-1.301396369934082,0.8793623447418213
1701857500128185900,9.769185791015625,9.686744689941406,-1.2990036010742188,0.8745766878128052
1701857500137779000,9.778779052734375,9.612566947937012,-1.2846466302871704,0.867398202419281
1701857500147372800,9.788372802734376,9.543174743652344,-1.2918251752853394,0.867398202419281
1701857500156966000,9.7979658203125,9.478269577026367,-1.272682547569275,0.8793623447418213
1701857500166558200,9.80755810546875,9.420842170715332,-1.2655041217803955,0.8937192559242249
1701857500176151000,9.817151123046875,9.384949684143066,-1.2607184648513794,0.8889335989952087
1701857500185745000,9.826744873046875,9.365806579589844,-1.2678968906402588,0.9224331378936768
1701857500195338000,9.836337890625,9.396913528442383,-1.2655041217803955,0.9080761671066284
1701857500204930300,9.845930419921874,9.48066234588623,-1.2702897787094116,0.9200403094291687
1701857500214523400,9.8555234375,9.607781410217285,-1.2702897787094116,0.9104689955711365
1701857500224117200,9.8651171875,9.744172096252441,-1.2918251752853394,0.9320043921470642
1701857500233710300,9.87471044921875,9.839884757995605,-1.296610713005066,0.9583254456520081
1701857500243302700,9.884302734375,9.916455268859863,-1.2990036010742188,0.9846464991569519
1701857500252895700,9.893895751953124,9.978668212890625,-1.3061820268630981,0.98703932762146
1701857500262489600,9.903489501953125,10.03848934173584,-1.3037892580032349,0.9990034699440002
1701857500272082700,9.913082763671875,10.065109252929688,-1.296610713005066,1.0133603811264038
1701857500281674800,9.9226748046875,10.110572814941406,-1.2990036010742188,1.022931694984436
1701857500291267800,9.932267822265626,10.160821914672852,-1.2918251752853394,1.0325030088424683
1701857500300861700,9.94186181640625,10.134501457214355,-1.3157533407211304,1.01814603805542
1701857500310454800,9.951454833984375,10.12014389038086,-1.3157533407211304,1.0061819553375244
1701857500320047000,9.961047119140625,10.08185863494873,-1.3277174234390259,1.01814603805542
1701857500329640200,9.97064013671875,10.055238723754883,-1.3181462287902832,1.0061819553375244
1701857500339234000,9.980234130859374,10.004989624023438,-1.2990036010742188,0.9918249845504761
1701857500348827100,9.9898271484375,9.882955551147461,-1.2894322872161865,0.9702895879745483
1701857500358419200,9.999419189453125,9.760921478271484,-1.2702897787094116,0.9750752449035645
1701857500368012300,10.00901220703125,9.739386558532715,-1.2678968906402588,0.9631111025810242
1701857500377606100,10.018606201171876,9.70349407196045,-1.2702897787094116,0.9655039310455322
1701857500387199200,10.02819921875,9.684351921081543,-1.246361494064331,0.9535398483276367
1701857500396791600,10.03779150390625,9.6795654296875,-1.2559328079223633,0.9655039310455322
1701857500406384600,10.047384521484375,9.705886840820312,-1.2631112337112427,0.9391828775405884
1701857500415978500,10.056978515625,9.772886276245117,-1.2702897787094116,0.9343972206115723
1701857500425571600,10.066571533203126,9.81117057800293,-1.2702897787094116,0.9367900490760803
1701857500435163600,10.07616357421875,9.815957069396973,-1.2631112337112427,0.9439685344696045
1701857500444756700,10.0857568359375,9.839884757995605,-1.277468204498291,0.9463613629341125
1701857500454350600,10.0953505859375,9.870991706848145,-1.277468204498291,0.9320043921470642
1701857500463943700,10.104943603515625,9.904491424560547,-1.277468204498291,0.9200403094291687
1701857500473536000,10.114535888671876,9.92841911315918,-1.2822538614273071,0.9248259663581848
1701857500483129000,10.124129150390624,9.942776679992676,-1.2942179441452026,0.9272187948226929
1701857500492723000,10.133722900390625,9.933204650878906,-1.2918251752853394,0.9200403094291687
1701857500502316000,10.14331591796875,9.9140625,-1.308574914932251,0.9152546525001526
1701857500511908400,10.152908447265625,9.870991706848145,-1.2822538614273071,0.8961120843887329
1701857500521501400,10.16250146484375,9.835099220275879,-1.277468204498291,0.9032905697822571
1701857500531095300,10.17209521484375,9.79681396484375,-1.2750753164291382,0.8793623447418213
1701857500540688100,10.181688232421875,9.765707015991211,-1.2702897787094116,0.8865407705307007
1701857500550280400,10.191280517578125,9.753743171691895,-1.2583255767822266,0.8961120843887329
1701857500559873500,10.20087353515625,9.770493507385254,-1.2631112337112427,0.8793623447418213
1701857500569467400,10.21046728515625,9.79681396484375,-1.2631112337112427,0.8841479420661926
1701857500579060500,10.220060546875,9.79681396484375,-1.2678968906402588,0.8865407705307007
1701857500588652800,10.22965283203125,9.79681396484375,-1.2583255767822266,0.8865407705307007
1701857500598246000,10.239245849609375,9.756135940551758,-1.272682547569275,0.8817551732063293
1701857500607839700,10.24883984375,9.720243453979492,-1.2678968906402588,0.8937192559242249
1701857500617432800,10.258432861328124,9.701101303100586,-1.2607184648513794,0.900897741317749
1701857500627025000,10.26802490234375,9.732208251953125,-1.2559328079223633,0.9104689955711365
1701857500636618000,10.277617919921875,9.744172096252441,-1.2487542629241943,0.9080761671066284
1701857500646211800,10.2872119140625,9.801599502563477,-1.2487542629241943,0.8865407705307007
1701857500655805000,10.296804931640626,9.854242324829102,-1.2559328079223633,0.9104689955711365
1701857500665397200,10.306397216796874,9.909276962280273,-1.2511471509933472,0.9128618240356445
1701857500674990300,10.315990234375,9.947562217712402,-1.2655041217803955,0.898504912853241
1701857500684584200,10.325584228515625,9.973882675170898,-1.2655041217803955,0.8865407705307007
1701857500694177300,10.33517724609375,9.981060981750488,-1.2822538614273071,0.8889335989952087
1701857500703769300,10.344769287109376,9.997811317443848,-1.2990036010742188,0.8937192559242249
1701857500713362400,10.354362548828124,10.062716484069824,-1.2702897787094116,0.8937192559242249
1701857500722956300,10.363956298828125,10.12014389038086,-1.2870395183563232,0.9080761671066284
1701857500732549400,10.37354931640625,10.124930381774902,-1.2918251752853394,0.8889335989952087
1701857500742141700,10.3831416015625,10.10578727722168,-1.2990036010742188,0.8961120843887329
1701857500751734800,10.39273486328125,10.043274879455566,-1.3061820268630981,0.8841479420661926
1701857500761328600,10.40232861328125,10.000204086303711,-1.3061820268630981,0.8841479420661926
1701857500770921700,10.411921630859375,9.947562217712402,-1.2942179441452026,0.8578268885612488
1701857500780514000,10.42151416015625,9.89970588684082,-1.2846466302871704,0.8434699773788452
1701857500790107000,10.43110693359375,9.870991706848145,-1.2918251752853394,0.8410771489143372
1701857500799700700,10.44070068359375,9.847063064575195,-1.301396369934082,0.8458628058433533
1701857500809293800,10.4502939453125,9.8207426071167,-1.296610713005066,0.8626125454902649
1701857500818886100,10.45988623046875,9.78963565826416,-1.2990036010742188,0.8434699773788452
1701857500828479200,10.469479248046875,9.756135940551758,-1.3109676837921143,0.833898663520813
1701857500838073000,10.479072998046876,9.753743171691895,-1.296610713005066,0.833898663520813
1701857500847666200,10.488666259765624,9.732208251953125,-1.2870395183563232,0.836291491985321
1701857500857258500,10.498258544921875,9.736993789672852,-1.2990036010742188,0.8410771489143372
1701857500866851600,10.5078515625,9.792028427124023,-1.2822538614273071,0.8410771489143372
1701857500876445400,10.517445556640626,9.78245735168457,-1.272682547569275,0.8434699773788452
1701857500886038500,10.52703857421875,9.713065147399902,-1.277468204498291,0.8458628058433533
1701857500895630600,10.536630615234374,9.677172660827637,-1.2678968906402588,0.8554341197013855
1701857500905223700,10.5462236328125,9.698708534240723,-1.2798609733581543,0.8482556343078613
1701857500914817500,10.555817626953125,9.751350402832031,-1.2631112337112427,0.867398202419281
1701857500924410600,10.56541064453125,9.827920913696289,-1.2631112337112427,0.8889335989952087
1701857500934003000,10.5750029296875,9.894919395446777,-1.2702897787094116,0.8793623447418213
1701857500943596000,10.584595947265624,9.954740524291992,-1.2822538614273071,0.8889335989952087
1701857500953190000,10.59418994140625,10.004989624023438,-1.272682547569275,0.8817551732063293
1701857500962783000,10.603782958984375,10.016953468322754,-1.2702897787094116,0.8721838593482971
1701857500972375000,10.613375,10.03848934173584,-1.2439687252044678,0.8769695162773132
1701857500981968100,10.622968017578126,10.040882110595703,-1.2511471509933472,0.8769695162773132
1701857500991562000,10.63256201171875,10.06002426147461,-1.2367901802062988,0.8865407705307007
1701857501001155000,10.642155029296875,10.077073097229004,-1.2511471509933472,0.8721838593482971
1701857501010747400,10.651747314453125,10.043274879455566,-1.2511471509933472,0.867398202419281
1701857501020340500,10.661340576171876,10.01456069946289,-1.2631112337112427,0.8602197170257568
1701857501029934300,10.670934326171874,9.957133293151855,-1.2559328079223633,0.8721838593482971
1701857501039527400,10.68052734375,9.90688419342041,-1.2487542629241943,0.8626125454902649
1701857501049119500,10.690119384765625,9.861420631408691,-1.2487542629241943,0.865005373954773
1701857501058712800,10.699712890625,9.801599502563477,-1.2535399198532104,0.8554341197013855
1701857501068306400,10.709306396484376,9.760921478271484,-1.2631112337112427,0.8482556343078613
1701857501077899500,10.7188994140625,9.717850685119629,-1.2439687252044678,0.8697910308837891
1701857501087491800,10.728491943359375,9.708279609680176,-1.2559328079223633,0.8506484627723694
1701857501097085000,10.7380849609375,9.717850685119629,-1.2678968906402588,0.8506484627723694
1701857501106678800,10.7476787109375,9.732208251953125,-1.2583255767822266,0.8530412912368774
1701857501116271900,10.75727197265625,9.741779327392578,-1.2822538614273071,0.8602197170257568
1701857501125864200,10.7668642578125,9.768099784851074,-1.2750753164291382,0.865005373954773
1701857501135457300,10.776457275390625,9.770493507385254,-1.2798609733581543,0.8721838593482971
1701857501145051100,10.786051025390625,9.78963565826416,-1.2846466302871704,0.8626125454902649
1701857501154644000,10.79564404296875,9.799206733703613,-1.2870395183563232,0.8721838593482971
1701857501164236300,10.805236328125,9.815957069396973,-1.2798609733581543,0.865005373954773
1701857501173829400,10.814829345703124,9.835099220275879,-1.2798609733581543,0.8626125454902649
1701857501183423200,10.82442333984375,9.856635093688965,-1.272682547569275,0.865005373954773
1701857501193016300,10.834016357421875,9.892526626586914,-1.2750753164291382,0.8721838593482971
1701857501202608600,10.843608642578126,9.92124080657959,-1.2846466302871704,0.8769695162773132
1701857501212201700,10.85320166015625,9.966704368591309,-1.2990036010742188,0.865005373954773
1701857501221795600,10.862795654296875,9.983454704284668,-1.2846466302871704,0.8578268885612488
1701857501231388700,10.872388671875,10.012167930603027,-1.2822538614273071,0.8482556343078613
1701857501240980700,10.881980712890625,10.012167930603027,-1.2822538614273071,0.8602197170257568
1701857501250573800,10.89157373046875,10.002596855163574,-1.2798609733581543,0.8458628058433533
1701857501260167700,10.901167724609374,9.997811317443848,-1.2798609733581543,0.8458628058433533
1701857501269760800,10.9107607421875,9.971489906311035,-1.2702897787094116,0.8386843204498291
1701857501279353000,10.92035302734375,9.92841911315918,-1.2798609733581543,0.833898663520813
1701857501288946200,10.9299462890625,9.878170013427734,-1.2631112337112427,0.8123632669448853
1701857501298540000,10.9395400390625,9.839884757995605,-1.2535399198532104,0.8147560954093933
1701857501308133000,10.949133056640624,9.80399227142334,-1.2439687252044678,0.8099704384803772
1701857501317725400,10.958725341796875,9.77527904510498,-1.2559328079223633,0.7956135272979736
1701857501327318500,10.968318603515625,9.777671813964844,-1.2631112337112427,0.8003991842269897
1701857501336912400,10.977912353515626,9.765707015991211,-1.2559328079223633,0.8123632669448853
1701857501346505200,10.987505126953126,9.753743171691895,-1.2535399198532104,0.8123632669448853
1701857501356097500,10.99709765625,9.763314247131348,-1.2559328079223633,0.8051848411560059
1701857501365690600,11.006690673828125,9.768099784851074,-1.2583255767822266,0.8027920126914978
1701857501375284500,11.016284423828125,9.80399227142334,-1.2559328079223633,0.8075776696205139
1701857501384877600,11.025877685546876,9.79681396484375,-1.2655041217803955,0.8267202377319336
1701857501394470000,11.035469970703126,9.827920913696289,-1.2655041217803955,0.8267202377319336
1701857501404063000,11.04506298828125,9.842277526855469,-1.2535399198532104,0.8267202377319336
1701857501413656800,11.05465673828125,9.856635093688965,-1.2631112337112427,0.8219345808029175
1701857501423250000,11.06425,9.875777244567871,-1.2750753164291382,0.836291491985321
1701857501432842000,11.073842041015626,9.89970588684082,-1.272682547569275,0.8291130661964417
1701857501442435000,11.08343505859375,9.93559741973877,-1.2702897787094116,0.836291491985321
1701857501452029000,11.09302880859375,9.993025779724121,-1.2678968906402588,0.8386843204498291
1701857501461622000,11.1026220703125,9.971489906311035,-1.2678968906402588,0.8482556343078613
1701857501471214300,11.11221435546875,9.940383911132812,-1.2702897787094116,0.8410771489143372
1701857501480807400,11.121807373046876,9.93559741973877,-1.2559328079223633,0.836291491985321
1701857501490401300,11.1314013671875,9.93559741973877,-1.2631112337112427,0.8434699773788452
1701857501499994400,11.140994384765625,9.930811882019043,-1.2678968906402588,0.8386843204498291
1701857501509586400,11.15058642578125,9.90688419342041,-1.2607184648513794,0.836291491985321
1701857501519179800,11.1601796875,9.897313117980957,-1.2487542629241943,0.8386843204498291
1701857501528773600,11.169773681640624,9.89013385772705,-1.2702897787094116,0.833898663520813
1701857501538366500,11.179366455078124,9.875777244567871,-1.272682547569275,0.8291130661964417
1701857501547958800,11.188958740234375,9.868598937988281,-1.2678968906402588,0.833898663520813
1701857501557551900,11.1985517578125,9.866206169128418,-1.2750753164291382,0.8386843204498291
1701857501567145700,11.208145751953126,9.870991706848145,-1.2655041217803955,0.8410771489143372
1701857501576738800,11.21773876953125,9.878170013427734,-1.2678968906402588,0.8195417523384094
1701857501586331100,11.2273310546875,9.868598937988281,-1.2702897787094116,0.8291130661964417
1701857501595924200,11.23692431640625,9.856635093688965,-1.2678968906402588,0.8195417523384094
1701857501605518000,11.24651806640625,9.839884757995605,-1.2607184648513794,0.8219345808029175
1701857501615111200,11.256111083984376,9.837491989135742,-1.2655041217803955,0.833898663520813
1701857501624703200,11.265703125,9.823135375976562,-1.2511471509933472,0.8171489238739014
1701857501634296300,11.27529638671875,9.832706451416016,-1.2559328079223633,0.8051848411560059
1701857501643890200,11.28489013671875,9.808777809143066,-1.2535399198532104,0.8195417523384094
1701857501653483300,11.294483154296875,9.81356430053711,-1.2655041217803955,0.8267202377319336
1701857501663075600,11.30407568359375,9.844670295715332,-1.2678968906402588,0.8267202377319336
1701857501672668700,11.313668701171874,9.837491989135742,-1.2702897787094116,0.8243274092674255
1701857501682262500,11.323262451171875,9.832706451416016,-1.2559328079223633,0.8219345808029175
1701857501691855600,11.332855712890625,9.856635093688965,-1.2678968906402588,0.8267202377319336
1701857501701447700,11.34244775390625,9.870991706848145,-1.2535399198532104,0.8315058946609497
1701857501711041000,11.352041015625,9.870991706848145,-1.2535399198532104,0.8458628058433533
1701857501720635000,11.361634765625,9.873384475708008,-1.246361494064331,0.836291491985321
1701857501730227700,11.371227783203125,9.882955551147461,-1.2631112337112427,0.836291491985321
1701857501739820000,11.380820068359375,9.89013385772705,-1.2511471509933472,0.8482556343078613
1701857501749413000,11.3904130859375,9.885348320007324,-1.2583255767822266,0.8458628058433533
1701857501759007000,11.400007080078124,9.897313117980957,-1.2487542629241943,0.8386843204498291
1701857501768600000,11.40960009765625,9.897313117980957,-1.2655041217803955,0.8434699773788452
1701857501778192400,11.4191923828125,9.916455268859863,-1.2631112337112427,0.8458628058433533
1701857501787785500,11.428785400390625,9.904491424560547,-1.2631112337112427,0.8291130661964417
1701857501797379300,11.43837939453125,9.9140625,-1.2655041217803955,0.836291491985321
1701857501806972400,11.447972412109374,9.897313117980957,-1.2559328079223633,0.8410771489143372
1701857501816564500,11.457564453125,9.89970588684082,-1.2822538614273071,0.8410771489143372
1701857501826157600,11.467157470703125,9.904491424560547,-1.2798609733581543,0.836291491985321
1701857501835751400,11.47675146484375,9.894919395446777,-1.2678968906402588,0.836291491985321
1701857501845344500,11.486344482421876,9.885348320007324,-1.2846466302871704,0.836291491985321
1701857501854936800,11.495936767578126,9.897313117980957,-1.2798609733581543,0.8434699773788452
1701857501864530000,11.505530029296875,9.873384475708008,-1.272682547569275,0.8243274092674255
1701857501874123800,11.515123779296875,9.856635093688965,-1.277468204498291,0.8315058946609497
1701857501883716900,11.524716796875,9.866206169128418,-1.2822538614273071,0.8410771489143372
1701857501893309000,11.534308837890626,9.868598937988281,-1.2750753164291382,0.8410771489143372
1701857501902902300,11.54390234375,9.868598937988281,-1.2846466302871704,0.8530412912368774
1701857501912496000,11.55349609375,9.868598937988281,-1.2750753164291382,0.8458628058433533
1701857501922089000,11.5630888671875,9.851848602294922,-1.2822538614273071,0.8291130661964417
1701857501931681300,11.572681396484375,9.842277526855469,-1.277468204498291,0.8434699773788452
1701857501941274400,11.5822744140625,9.823135375976562,-1.2750753164291382,0.8410771489143372
1701857501950868200,11.5918681640625,9.832706451416016,-1.2846466302871704,0.8315058946609497
1701857501960461300,11.60146142578125,9.839884757995605,-1.2702897787094116,0.8315058946609497
1701857501970053600,11.6110537109375,9.827920913696289,-1.2678968906402588,0.8410771489143372
1701857501979646700,11.620646728515625,9.835099220275879,-1.2678968906402588,0.8434699773788452
1701857501989240600,11.630240478515624,9.808777809143066,-1.2631112337112427,0.8434699773788452
1701857501998833700,11.639833740234375,9.81117057800293,-1.2678968906402588,0.8410771489143372
1701857502008425700,11.64942578125,9.81117057800293,-1.2631112337112427,0.8482556343078613
1701857502018018800,11.659018798828125,9.815957069396973,-1.2655041217803955,0.833898663520813
1701857502027612700,11.66861279296875,9.854242324829102,-1.2702897787094116,0.8506484627723694
1701857502037205800,11.678205810546874,9.878170013427734,-1.2631112337112427,0.8482556343078613
1701857502046798000,11.687798095703124,9.873384475708008,-1.2607184648513794,0.8482556343078613
1701857502056391200,11.69739111328125,9.854242324829102,-1.2678968906402588,0.8530412912368774
1701857502065985000,11.706985107421875,9.851848602294922,-1.2583255767822266,0.8602197170257568
1701857502075578000,11.716578125,9.873384475708008,-1.2678968906402588,0.8626125454902649
1701857502085170400,11.72617041015625,9.892526626586914,-1.2607184648513794,0.8554341197013855
1701857502094763500,11.735763427734375,9.90688419342041,-1.2678968906402588,0.865005373954773
1701857502104357400,11.745357421875,9.9140625,-1.2702897787094116,0.8578268885612488
1701857502113950200,11.7549501953125,9.904491424560547,-1.2798609733581543,0.8434699773788452
1701857502123542500,11.76454248046875,9.897313117980957,-1.2702897787094116,0.8482556343078613
1701857502133135600,11.774135498046874,9.882955551147461,-1.2702897787094116,0.8506484627723694
1701857502142729500,11.7837294921875,9.897313117980957,-1.2655041217803955,0.8410771489143372
1701857502152322600,11.793322509765625,9.880562782287598,-1.2822538614273071,0.8506484627723694
1701857502161915000,11.802914794921875,9.866206169128418,-1.2918251752853394,0.836291491985321
1701857502171508000,11.812508056640626,9.868598937988281,-1.2678968906402588,0.833898663520813
1701857502181101800,11.822101806640624,9.863813400268555,-1.2798609733581543,0.836291491985321
1701857502190695000,11.83169482421875,9.856635093688965,-1.2750753164291382,0.8267202377319336
1701857502200287000,11.841286865234375,9.854242324829102,-1.2894322872161865,0.8291130661964417
1701857502209880000,11.850880126953125,9.856635093688965,-1.277468204498291,0.8291130661964417
1701857502219474000,11.860473876953124,9.851848602294922,-1.2870395183563232,0.8410771489143372
1701857502229067000,11.87006689453125,9.842277526855469,-1.2918251752853394,0.833898663520813
1701857502238659300,11.879659423828125,9.832706451416016,-1.2846466302871704,0.8434699773788452
1701857502248252400,11.88925244140625,9.854242324829102,-1.2870395183563232,0.833898663520813
1701857502257846300,11.89884619140625,9.861420631408691,-1.2942179441452026,0.8434699773788452
1701857502267439400,11.908439453125,9.868598937988281,-1.296610713005066,0.8386843204498291
1701857502277031400,11.918031494140624,9.885348320007324,-1.2846466302871704,0.8506484627723694
1701857502286624800,11.927624755859375,9.892526626586914,-1.2894322872161865,0.8482556343078613
1701857502296218600,11.937218505859375,9.887741088867188,-1.2846466302871704,0.8602197170257568
1701857502305811500,11.9468115234375,9.887741088867188,-1.2918251752853394,0.8530412912368774
1701857502315403800,11.95640380859375,9.89013385772705,-1.2846466302871704,0.8458628058433533
1701857502324996900,11.965996826171875,9.882955551147461,-1.296610713005066,0.8434699773788452
1701857502334590700,11.9755908203125,9.882955551147461,-1.2750753164291382,0.8458628058433533
1701857502344183800,11.985183837890625,9.892526626586914,-1.2798609733581543,0.8554341197013855
1701857502353776000,11.994776123046876,9.880562782287598,-1.2894322872161865,0.8602197170257568
1701857502363369200,12.004369140625,9.880562782287598,-1.277468204498291,0.8602197170257568
1701857502372963000,12.013963134765625,9.875777244567871,-1.2798609733581543,0.8602197170257568
1701857502382556200,12.02355615234375,9.873384475708008,-1.2894322872161865,0.8721838593482971
1701857502392148200,12.033148193359375,9.885348320007324,-1.272682547569275,0.8602197170257568
1701857502401741300,12.0427412109375,9.870991706848145,-1.2822538614273071,0.8626125454902649
1701857502411335200,12.052335205078125,9.887741088867188,-1.277468204498291,0.8697910308837891
1701857502420928300,12.06192822265625,9.90688419342041,-1.2822538614273071,0.8626125454902649
1701857502430520600,12.0715205078125,9.892526626586914,-1.2798609733581543,0.867398202419281
1701857502440113700,12.08111376953125,9.902098655700684,-1.277468204498291,0.8578268885612488
1701857502449707500,12.09070751953125,9.9140625,-1.2870395183563232,0.8793623447418213
1701857502459300600,12.100300537109375,9.904491424560547,-1.2846466302871704,0.867398202419281
1701857502468892700,12.109892578125,9.887741088867188,-1.2822538614273071,0.865005373954773
1701857502478486000,12.119486083984375,9.887741088867188,-1.277468204498291,0.8626125454902649
1701857502488080000,12.129079833984376,9.882955551147461,-1.2846466302871704,0.8506484627723694
1701857502497672700,12.138672607421874,9.873384475708008,-1.277468204498291,0.8554341197013855
1701857502507265000,12.14826513671875,9.851848602294922,-1.277468204498291,0.8554341197013855
1701857502516858000,12.157858154296875,9.837491989135742,-1.2678968906402588,0.8530412912368774
1701857502526452000,12.167451904296875,9.818349838256836,-1.2655041217803955,0.8530412912368774
1701857502536045000,12.177045166015626,9.825528144836426,-1.296610713005066,0.8458628058433533
1701857502545637400,12.186637451171874,9.832706451416016,-1.277468204498291,0.8386843204498291
1701857502555230500,12.19623046875,9.837491989135742,-1.2846466302871704,0.8482556343078613
1701857502564824300,12.20582421875,9.854242324829102,-1.277468204498291,0.8626125454902649
1701857502574417400,12.21541748046875,9.851848602294922,-1.2918251752853394,0.8506484627723694
1701857502584009500,12.225009521484376,9.849455833435059,-1.277468204498291,0.8626125454902649
1701857502593602600,12.2346025390625,9.832706451416016,-1.2894322872161865,0.8506484627723694
1701857502603196400,12.244196533203125,9.837491989135742,-1.2894322872161865,0.8602197170257568
1701857502612789500,12.25378955078125,9.830313682556152,-1.2942179441452026,0.8482556343078613
1701857502622381800,12.2633818359375,9.863813400268555,-1.2942179441452026,0.8386843204498291
1701857502631975000,12.272974853515626,9.892526626586914,-1.2894322872161865,0.8530412912368774
1701857502641568800,12.28256884765625,9.875777244567871,-1.2870395183563232,0.8530412912368774
1701857502651161900,12.292161865234375,9.885348320007324,-1.2918251752853394,0.8410771489143372
1701857502660754000,12.30175390625,9.89970588684082,-1.2894322872161865,0.8482556343078613
1701857502670347000,12.311346923828125,9.9140625,-1.277468204498291,0.8506484627723694
1701857502679940900,12.32094091796875,9.93559741973877,-1.2870395183563232,0.8554341197013855
1701857502689534000,12.330533935546875,9.933204650878906,-1.277468204498291,0.8482556343078613
1701857502699126300,12.340126220703125,9.930811882019043,-1.2846466302871704,0.8386843204498291
1701857502708719400,12.34971923828125,9.918848037719727,-1.2846466302871704,0.8578268885612488
1701857502718313200,12.359313232421876,9.911669731140137,-1.2894322872161865,0.8506484627723694
1701857502727906300,12.36890625,9.89970588684082,-1.277468204498291,0.8458628058433533
1701857502737498600,12.37849853515625,9.873384475708008,-1.2918251752853394,0.8578268885612488
1701857502747091500,12.388091552734375,9.875777244567871,-1.2846466302871704,0.8506484627723694
1701857502756685300,12.397685302734375,9.873384475708008,-1.277468204498291,0.8482556343078613
1701857502766278400,12.4072783203125,9.866206169128418,-1.2822538614273071,0.8243274092674255
1701857502775870700,12.41687060546875,9.849455833435059,-1.2990036010742188,0.8410771489143372
