time,seconds_elapsed,z,y,x
1701857770831979000,0.15197900390625,-0.8263236284255981,-0.4811949133872986,-0.008399149402976036
1701857770841572400,0.161572265625,-0.8984035849571228,-0.7866185307502747,0.11987877637147903
1701857770851166500,0.17116650390625,-0.9863656163215637,-1.093263864517212,0.2689255177974701
1701857770860759800,0.180759765625,-1.0938746929168701,-1.4622156620025635,0.388651579618454
1701857770870352100,0.19035205078125,-1.1842801570892334,-1.7969598770141602,0.4912739098072052
1701857770879945500,0.199945556640625,-1.2453649044036865,-2.1159749031066895,0.5816792845726013
1701857770889539600,0.20953955078125,-1.2453649044036865,-2.3908562660217285,0.6427640318870544
1701857770899133000,0.2191328125,-1.1696197986602783,-2.4568276405334473,0.6647545099258423
1701857770908725200,0.228725341796875,-1.0828794240951538,-2.2747952938079834,0.6024481058120728
1701857770918318600,0.238318603515625,-1.0608890056610107,-1.933942437171936,0.4240806996822357
1701857770927912700,0.24791259765625,-1.1561810970306396,-1.6283661127090454,0.10033166408538818
1701857770937506000,0.257506103515625,-1.3553173542022705,-1.4487769603729248,-0.323596328496933
1701857770947098600,0.2670986328125,-1.542236566543579,-1.2911783456802368,-0.7267554998397827
1701857770956692000,0.27669189453125,-1.6497457027435303,-1.1140327453613281,-1.0040801763534546
1701857770966285800,0.286285888671875,-1.6008780002593994,-0.9772028923034668,-1.1323580741882324
1701857770975879200,0.295879150390625,-1.3467655181884766,-0.789061963558197,-1.1189194917678833
1701857770985471700,0.3054716796875,-1.0217947959899902,-0.5752654075622559,-1.0260707139968872
1701857770995065000,0.315065185546875,-0.7786775231361389,-0.49829864501953125,-0.9527690410614014
1701857771004659000,0.324658935546875,-0.6552863717079163,-0.3883461356163025,-0.8513683676719666
1701857771014252300,0.334252197265625,-0.6467345356941223,-0.18798823654651642,-0.6815528273582458
1701857771023844900,0.343844970703125,-0.6833853721618652,-0.05115845799446106,-0.47264307737350464
1701857771033438200,0.353438232421875,-0.682163655757904,-0.014507622458040714,-0.2686200737953186
1701857771043032300,0.3630322265625,-0.5489989519119263,0.05512896552681923,-0.14400723576545715
1701857771052625400,0.37262548828125,-0.34375429153442383,0.32756683230400085,-0.13545538485050201
1701857771062218000,0.382218017578125,-0.23868857324123383,0.5132644176483154,-0.08658760040998459
1701857771071811300,0.391811279296875,-0.319320410490036,0.5181511640548706,0.06978929787874222
1701857771081405400,0.401405517578125,-0.5355603098869324,0.44729289412498474,0.19928891956806183
1701857771090998500,0.41099853515625,-0.7860077023506165,0.40697699785232544,0.15286453068256378
1701857771100591000,0.420591064453125,-0.9888089895248413,0.520594596862793,-0.0035123717971146107
1701857771110184400,0.430184326171875,-1.0877662897109985,0.6781931519508362,-0.10613471269607544
1701857771119778600,0.439778564453125,-1.0731059312820435,0.733169436454773,-0.12812520563602448
1701857771129371600,0.44937158203125,-1.0046910047531128,0.7905890941619873,-0.10491301864385605
1701857771138964200,0.458964111328125,-0.982700526714325,0.9579612016677856,-0.05360184609889984
1701857771148557600,0.4685576171875,-1.032789945602417,1.0996778011322021,0.028251685202121735
1701857771158151700,0.478151611328125,-1.1134217977523804,1.0495883226394653,0.12720894813537598
1701857771167745000,0.4877451171875,-1.2087140083312988,0.7673768401145935,0.19684553146362305
1701857771177337300,0.49733740234375,-1.3125580549240112,0.3898732662200928,0.22250111401081085
1701857771186930700,0.5069306640625,-1.3870813846588135,0.028251685202121735,0.21883602440357208
1701857771196524800,0.51652490234375,-1.3968549966812134,-0.3578037917613983,0.21883602440357208
1701857771206118100,0.5261181640625,-1.3577607870101929,-0.7438592314720154,0.2530434727668762
1701857771215710500,0.53571044921875,-1.3088929653167725,-0.9698727130889893,0.3067980408668518
1701857771225303800,0.5453037109375,-1.2820156812667847,-0.9320002198219299,0.3446705639362335
1701857771234898000,0.55489794921875,-1.2991193532943726,-0.71453857421875,0.337340384721756
1701857771244491300,0.5644912109375,-1.3773078918457031,-0.50196373462677,0.27747735381126404
1701857771254083800,0.574083740234375,-1.4762650728225708,-0.43354883790016174,0.18585027754306793
1701857771263677200,0.58367724609375,-1.5129159688949585,-0.5263976454734802,0.11865708231925964
1701857771273271000,0.59327099609375,-1.4664915800094604,-0.6974348425865173,0.12354385852813721
1701857771282864400,0.602864501953125,-1.3736428022384644,-0.8415948152542114,0.18462859094142914
1701857771292457000,0.61245703125,-1.2575818300247192,-0.9515473246574402,0.24937839806079865
1701857771302050300,0.62205029296875,-1.1366339921951294,-1.0162971019744873,0.2725905776023865
1701857771311644400,0.63164453125,-1.0279031991958618,-1.043174386024475,0.24693500995635986
1701857771321237500,0.641237548828125,-0.9301676750183105,-1.051726222038269,0.21272756159305573
1701857771330830000,0.650830078125,-0.8409839868545532,-1.0358442068099976,0.19928891956806183
1701857771340423400,0.66042333984375,-0.7664605975151062,-0.9600991606712341,0.20051060616970062
1701857771350017500,0.670017578125,-0.7261446714401245,-0.848924994468689,0.19806721806526184
1701857771359610600,0.679610595703125,-0.718814492225647,-0.737750768661499,0.1760767251253128
1701857771369203200,0.689203125,-0.7298097610473633,-0.6412369012832642,0.13576079905033112
1701857771378796500,0.698796630859375,-0.7224795818328857,-0.5960342288017273,0.09177979826927185
1701857771388390700,0.708390625,-0.695602297782898,-0.6632274389266968,0.04413371533155441
1701857771397983700,0.717983642578125,-0.6601731777191162,-0.7902836203575134,-0.0022906772792339325
1701857771407576300,0.727576416015625,-0.6100836992263794,-0.9161182045936584,-0.0328330397605896
1701857771417169700,0.737169677734375,-0.5612159371376038,-1.0468394756317139,-0.026724567636847496
1701857771426763800,0.746763671875,-0.5477772951126099,-1.1274713277816772,0.014813045971095562
1701857771436356900,0.75635693359375,-0.5587725043296814,-1.1115893125534058,0.06612421572208405
1701857771445949400,0.765949462890625,-0.5954233407974243,-1.061499834060669,0.09177979826927185
1701857771455542800,0.775542724609375,-0.6442911624908447,-1.0162971019744873,0.06978929787874222
1701857771465137000,0.785136962890625,-0.6723901033401489,-0.9564340710639954,0.006261184345930815
1701857771474730200,0.794730224609375,-0.6699467301368713,-0.8428165316581726,-0.0975828468799591
1701857771484322600,0.804322509765625,-0.6369609832763672,-0.7328640222549438,-0.2539597451686859
1701857771493916000,0.813916015625,-0.5819846987724304,-0.6803311109542847,-0.44332239031791687
1701857771503510000,0.823510009765625,-0.534338653087616,-0.7072083950042725,-0.6119162440299988
1701857771513103400,0.833103271484375,-0.5184566378593445,-0.7548545002937317,-0.7047650218009949
1701857771522696000,0.842696044921875,-0.5502206683158875,-0.7780666947364807,-0.7182036638259888
1701857771532289000,0.8522890625,-0.6235223412513733,-0.7438592314720154,-0.6815528273582458
1701857771541883100,0.861883056640625,-0.7041541934013367,-0.6400152444839478,-0.6375718116760254
1701857771551476500,0.8714765625,-0.7615737915039062,-0.5154023766517639,-0.61313796043396
1701857771561069000,0.881069091796875,-0.7689039707183838,-0.4091149568557739,-0.6155813336372375
1701857771570662400,0.890662353515625,-0.7273663878440857,-0.35658207535743713,-0.636350154876709
1701857771580256500,0.900256591796875,-0.6552863717079163,-0.34314343333244324,-0.6693359017372131
1701857771589849600,0.909849609375,-0.5636593103408813,-0.3443651497364044,-0.7120952010154724
1701857771599442200,0.919442138671875,-0.4537068009376526,-0.3749074935913086,-0.7450809478759766
1701857771609035500,0.929035400390625,-0.34131091833114624,-0.43232715129852295,-0.7316423058509827
1701857771618629600,0.938629638671875,-0.25090551376342773,-0.4885250926017761,-0.6607840061187744
1701857771628222700,0.94822265625,-0.17882554233074188,-0.510515570640564,-0.5410579442977905
1701857771637815300,0.957815185546875,-0.12629267573356628,-0.47142136096954346,-0.3846810758113861
1701857771647408600,0.96740869140625,-0.10185877978801727,-0.38223767280578613,-0.22586077451705933
1701857771657002800,0.977002685546875,-0.09208522737026215,-0.2673983871936798,-0.09513945877552032
1701857771666595800,0.986595947265625,-0.07986827939748764,-0.14034216105937958,-0.005955760832875967
1701857771676188400,0.9961884765625,-0.03955236077308655,-0.020616095513105392,0.031916771084070206
1701857771685781800,1.00578173828125,0.03008422814309597,0.09300149232149124,0.01847812905907631
1701857771695376000,1.0153759765625,0.11438114941120148,0.15408621728420258,-0.0462716780602932
1701857771704969200,1.02496923828125,0.21089501678943634,0.149199441075325,-0.14767232537269592
1701857771714561500,1.0345615234375,0.3049654960632324,0.10521844029426575,-0.24662958085536957
1701857771724155000,1.04415478515625,0.3477247953414917,0.01969982497394085,-0.30404922366142273
1701857771733749000,1.0537490234375,0.3208475112915039,-0.05482354015111923,-0.28572380542755127
1701857771743342300,1.06334228515625,0.25976279377937317,-0.09391776472330093,-0.20509196817874908
1701857771752934700,1.0729345703125,0.19379130005836487,-0.10613471269607544,-0.10857810080051422
1701857771762528000,1.082528076171875,0.13026317954063416,-0.0975828468799591,-0.030389651656150818
1701857771772122000,1.0921220703125,0.0850604772567749,-0.09269607067108154,0.01847812905907631
1701857771781715500,1.101715576171875,0.06673506647348404,-0.0841442123055458,0.028251685202121735
1701857771791307800,1.111307861328125,0.07528692483901978,-0.07559234648942947,-0.007177455350756645
1701857771800901400,1.1209013671875,0.09727742522954941,-0.0988045409321785,-0.0719272643327713
1701857771810495200,1.1304951171875,0.10827267915010452,-0.1782146841287613,-0.1391204595565796
1701857771820088600,1.140088623046875,0.08628217875957489,-0.2796153426170349,-0.1769929975271225
1701857771829681200,1.14968115234375,0.038636088371276855,-0.37979426980018616,-0.18310146033763885
1701857771839274500,1.1592744140625,-0.018783552572131157,-0.47142136096954346,-0.1769929975271225
1701857771848868600,1.16886865234375,-0.07742489129304886,-0.5593833923339844,-0.17332790791988373
1701857771858461700,1.178461669921875,-0.12140589207410812,-0.6290199756622314,-0.17454960942268372
1701857771868054300,1.18805419921875,-0.13484452664852142,-0.6632274389266968,-0.16966283321380615
1701857771877647600,1.197647705078125,-0.12262758612632751,-0.6461237072944641,-0.16111096739768982
1701857771887241700,1.20724169921875,-0.10185877978801727,-0.5960342288017273,-0.1635543555021286
1701857771896834800,1.216834716796875,-0.0713164210319519,-0.533727765083313,-0.18798823654651642
1701857771906427400,1.226427490234375,-0.02489202655851841,-0.43110546469688416,-0.23441264033317566
1701857771916020700,1.236020751953125,0.020310672000050545,-0.30404922366142273,-0.28694549202919006
1701857771925614800,1.24561474609375,0.04474456235766411,-0.16721943020820618,-0.3333698809146881
1701857771935208000,1.2552080078125,0.04840964451432228,-0.041384901851415634,-0.36513394117355347
1701857771944800500,1.264800537109375,0.039857782423496246,0.01969982497394085,-0.38101598620414734
1701857771954393900,1.274393798828125,0.015423892997205257,0.031916771084070206,-0.3761292099952698
1701857771963988000,1.283988037109375,-0.021226942539215088,0.028251685202121735,-0.35413870215415955
1701857771973581300,1.293581298828125,-0.052990999072790146,0.01969982497394085,-0.3223746418952942
1701857771983173600,1.303173583984375,-0.07742489129304886,0.007482878863811493,-0.29916244745254517
1701857771992767000,1.31276708984375,-0.08964183181524277,0.001374406274408102,-0.28694549202919006
1701857772002361000,1.322361083984375,-0.0859767496585846,0.006261184345930815,-0.2820587158203125
1701857772011954400,1.331954345703125,-0.06642963737249374,0.025808297097682953,-0.2673983871936798
1701857772021547000,1.341547119140625,-0.04932591691613197,0.04169032722711563,-0.23685602843761444
1701857772031140400,1.351140380859375,-0.037108972668647766,0.05512896552681923,-0.18676654994487762
1701857772040734200,1.360734130859375,-0.02489202655851841,0.05757235363125801,-0.1256818175315857
1701857772050327600,1.37032763671875,-0.021226942539215088,0.03802524134516716,-0.06337540596723557
1701857772059920100,1.379920166015625,-0.03833066672086716,0.01725643500685692,-0.0035123717971146107
1701857772069513500,1.389513427734375,-0.06032116711139679,0.011147962883114815,0.03924693539738655
1701857772079107600,1.399107666015625,-0.07864658534526825,0.011147962883114815,0.06001574173569679
1701857772088700700,1.40870068359375,-0.08964183181524277,0.0038177953101694584,0.06368082761764526
1701857772098293200,1.418293212890625,-0.09941539168357849,-0.019394399598240852,0.05024218559265137
1701857772107886600,1.427886474609375,-0.0981936976313591,-0.0462716780602932,0.023364907130599022
1701857772117480700,1.437480712890625,-0.08231166750192642,-0.04749337583780289,-0.013285927474498749
1701857772127073800,1.44707373046875,-0.06520794332027435,-0.026724567636847496,-0.05726693198084831
1701857772136666400,1.456666259765625,-0.04199574887752533,-0.005955760832875967,-0.10613471269607544
1701857772146259700,1.466259765625,-0.009009997360408306,0.012369656935334206,-0.14889401197433472
1701857772155853800,1.475853759765625,0.03374931216239929,0.028251685202121735,-0.1782146841287613
1701857772165447000,1.485447021484375,0.07773031294345856,0.024586603045463562,-0.1892099380493164
1701857772175039500,1.49503955078125,0.11438114941120148,-0.027946261689066887,-0.1757712960243225
1701857772184632800,1.5046328125,0.11926792562007904,-0.10613471269607544,-0.12323843687772751
1701857772194227000,1.51422705078125,0.10705098509788513,-0.15988926589488983,-0.03771981969475746
1701857772203820300,1.5238203125,0.0850604772567749,-0.20631365478038788,0.05512896552681923
1701857772213412600,1.53341259765625,0.058183200657367706,-0.23929941654205322,0.13087402284145355
1701857772223006000,1.543005859375,0.04352286830544472,-0.2295258641242981,0.16874656081199646
1701857772232600000,1.55260009765625,0.05207473039627075,-0.18798823654651642,0.15775130689144135
1701857772242193400,1.562193359375,0.08261708915233612,-0.12323843687772751,0.10644013434648514
1701857772251786000,1.571785888671875,0.11804623156785965,-0.05604523420333862,0.03558185324072838
1701857772261379000,1.581379150390625,0.14614520967006683,-0.030389651656150818,-0.029167955741286278
1701857772270973200,1.59097314453125,0.1510319858789444,-0.05482354015111923,-0.062153708189725876
1701857772280566500,1.60056640625,0.1363716572523117,-0.09391776472330093,-0.05726693198084831
1701857772290159000,1.6101591796875,0.10949437320232391,-0.14767232537269592,-0.01572931744158268
1701857772299752400,1.61975244140625,0.0850604772567749,-0.18432316184043884,0.05268557742238045
1701857772309346600,1.6293466796875,0.0716218426823616,-0.19898349046707153,0.12720894813537598
1701857772318939600,1.638939697265625,0.06673506647348404,-0.19531841576099396,0.19806721806526184
1701857772328532200,1.6485322265625,0.06917845457792282,-0.16599774360656738,0.24937839806079865
1701857772338125600,1.65812548828125,0.06673506647348404,-0.13301199674606323,0.26159533858299255
1701857772347719700,1.6677197265625,0.06551336497068405,-0.10246963053941727,0.22616620361804962
1701857772357312800,1.677312744140625,0.055739812552928925,-0.07437065243721008,0.1626380831003189
1701857772366905300,1.6869052734375,0.02886253222823143,-0.042606595903635025,0.09055810421705246
1701857772376498700,1.696498779296875,0.001985253533348441,0.007482878863811493,0.025808297097682953
1701857772386092800,1.7060927734375,-0.01511846948415041,0.05268557742238045,-0.029167955741286278
1701857772395686100,1.71568603515625,-0.018783552572131157,0.07711946964263916,-0.07314895838499069
1701857772405278500,1.725278564453125,-0.012675080448389053,0.09422318637371063,-0.09636115282773972
1701857772414871800,1.734871826171875,-0.005344913341104984,0.09177979826927185,-0.09391776472330093
1701857772424466000,1.7444658203125,-0.0016798300202935934,0.06856760382652283,-0.06704048812389374
1701857772434059300,1.754059326171875,0.01175880990922451,0.04291202127933502,-0.025502873584628105
1701857772443651600,1.763651611328125,0.04840964451432228,0.024586603045463562,0.016034740954637527
1701857772453245000,1.773244873046875,0.09483403712511063,0.008704573847353458,0.05390727147459984
1701857772462839000,1.782839111328125,0.14370182156562805,-0.0035123717971146107,0.08078455179929733
1701857772472432400,1.792432373046875,0.18401773273944855,-0.019394399598240852,0.09177979826927185
1701857772482024700,1.802024658203125,0.21333840489387512,-0.03649812191724777,0.09177979826927185
1701857772491618000,1.8116181640625,0.22433365881443024,-0.03649812191724777,0.08811471611261368
1701857772501212200,1.821212158203125,0.22677704691886902,-0.029167955741286278,0.08200624585151672
1701857772510805500,1.830805419921875,0.22311195731163025,-0.025502873584628105,0.07711946964263916
1701857772520398000,1.840398193359375,0.2145601063966751,-0.03527642786502838,0.07101099193096161
1701857772529991400,1.849991455078125,0.20600824058055878,-0.059710320085287094,0.06734590977430344
1701857772539585300,1.859585205078125,0.1889045089483261,-0.09147437661886215,0.072232685983181
1701857772549178600,1.8691787109375,0.15836215019226074,-0.10002623498439789,0.08689302206039429
1701857772558771200,1.878771240234375,0.12781979143619537,-0.08170082420110703,0.10277505218982697
1701857772568364500,1.888364501953125,0.10949437320232391,-0.04749337583780289,0.11254860460758209
1701857772577958400,1.89795849609375,0.09972081333398819,-0.014507622458040714,0.11499200016260147
1701857772587551700,1.9075517578125,0.0850604772567749,-0.0022906772792339325,0.11377029865980148
1701857772597144300,1.917144287109375,0.06184828653931618,-0.0035123717971146107,0.11621369421482086
1701857772606737700,1.926737548828125,0.037414394319057465,-0.01817270554602146,0.11499200016260147
1701857772616331800,1.936331787109375,0.01175880990922451,-0.04504998400807381,0.10399674624204636
1701857772625924900,1.9459248046875,-0.016340164467692375,-0.06581879407167435,0.0856713280081749
1701857772635517400,1.955517333984375,-0.051769305020570755,-0.08170082420110703,0.06734590977430344
1701857772645110800,1.96511083984375,-0.09208522737026215,-0.07925742864608765,0.05024218559265137
1701857772654705000,1.974704833984375,-0.13117945194244385,-0.05482354015111923,0.030695075169205666
1701857772664298000,1.984298095703125,-0.17027367651462555,-0.03161134570837021,0.00015271181473508477
1701857772673890600,1.993890625,-0.188599094748497,0.011147962883114815,-0.04504998400807381
1701857772683484000,2.00348388671875,-0.18615570664405823,0.08689302206039429,-0.0975828468799591
1701857772693078000,2.013078125,-0.16905197501182556,0.17241163551807404,-0.1623326539993286
1701857772702671000,2.022671142578125,-0.14217470586299896,0.21883602440357208,-0.22708246111869812
1701857772712263700,2.032263671875,-0.10796725004911423,0.21394924819469452,-0.2796153426170349
1701857772721857000,2.04185693359375,-0.07620319724082947,0.17118994891643524,-0.3089359998703003
1701857772731451100,2.051451171875,-0.05421269312500954,0.10155335813760757,-0.31137940287590027
1701857772741044500,2.06104443359375,-0.0456608310341835,0.014813045971095562,-0.28572380542755127
1701857772750636800,2.07063671875,-0.05421269312500954,-0.07437065243721008,-0.24052110314369202
1701857772760230100,2.080230224609375,-0.05787777900695801,-0.12812520563602448,-0.18310146033763885
1701857772769824300,2.08982421875,-0.0456608310341835,-0.11468657106161118,-0.11835165321826935
1701857772779417600,2.09941748046875,-0.02367033064365387,-0.04871506989002228,-0.06337540596723557
1701857772789010000,2.109010009765625,0.0007635590736754239,0.027029991149902344,-0.029167955741286278
1701857772798603300,2.118603271484375,0.02886253222823143,0.09422318637371063,-0.019394399598240852
1701857772808197400,2.128197265625,0.06429167091846466,0.14186927676200867,-0.021837789565324783
1701857772817790700,2.137790771484375,0.09239064902067184,0.149199441075325,-0.027946261689066887
1701857772827383000,2.147383056640625,0.09727742522954941,0.11865708231925964,-0.020616095513105392
1701857772836976400,2.156976318359375,0.08261708915233612,0.06368082761764526,0.0038177953101694584
1701857772846570500,2.166570556640625,0.05085303261876106,-0.010842538438737392,0.03680354729294777
1701857772856163800,2.176163818359375,0.01175880990922451,-0.06826218217611313,0.06978929787874222
1701857772865756400,2.18575634765625,-0.01511846948415041,-0.10002623498439789,0.09910997003316879
1701857772875349800,2.195349853515625,-0.029778804630041122,-0.10613471269607544,0.11743538826704025
1701857772884943600,2.204943603515625,-0.04077405482530594,-0.0841442123055458,0.1247655525803566
1701857772894537000,2.214536865234375,-0.04321744292974472,-0.0328330397605896,0.12110047042369843
1701857772904129500,2.224129638671875,-0.04077405482530594,0.03680354729294777,0.10644013434648514
1701857772913723000,2.233722900390625,-0.037108972668647766,0.08689302206039429,0.07834116369485855
1701857772923316700,2.243316650390625,-0.03588727489113808,0.11987877637147903,0.047798797488212585
1701857772932910000,2.25291015625,-0.034665580838918686,0.13453911244869232,0.013591351918876171
1701857772942502700,2.262502685546875,-0.032222192734479904,0.12232216447591782,-0.012064233422279358
1701857772952096000,2.272095947265625,-0.037108972668647766,0.0856713280081749,-0.023059483617544174
1701857772961689900,2.28168994140625,-0.052990999072790146,0.0331384651362896,-0.021837789565324783
1701857772971283200,2.291283203125,-0.0725381150841713,-0.026724567636847496,-0.010842538438737392
1701857772980875800,2.300875732421875,-0.08231166750192642,-0.07803573459386826,0.0038177953101694584
1701857772990469000,2.31046923828125,-0.08719844371080399,-0.11712995916604996,0.01725643500685692
1701857773000063200,2.320063232421875,-0.09697200357913971,-0.1378987729549408,0.030695075169205666
1701857773009656300,2.32965625,-0.10308047384023666,-0.11835165321826935,0.045355409383773804
1701857773019249000,2.339248779296875,-0.09330692142248154,-0.060932014137506485,0.05390727147459984
1701857773028842200,2.34884228515625,-0.07375980913639069,0.0038177953101694584,0.047798797488212585
1701857773038436400,2.358436279296875,-0.0456608310341835,0.06368082761764526,0.028251685202121735
1701857773048029400,2.368029541015625,-0.012675080448389053,0.1113269105553627,0.00015271181473508477
1701857773057622000,2.3776220703125,0.016645587980747223,0.12720894813537598,-0.026724567636847496
1701857773067215400,2.38721533203125,0.03497100621461868,0.10888352245092392,-0.043828289955854416
1701857773076809500,2.3968095703125,0.04352286830544472,0.05757235363125801,-0.043828289955854416
1701857773086402600,2.406402587890625,0.039857782423496246,-0.010842538438737392,-0.026724567636847496
1701857773095995100,2.4159951171875,0.020310672000050545,-0.0719272643327713,0.008704573847353458
1701857773105588500,2.42558837890625,-0.009009997360408306,-0.0975828468799591,0.05024218559265137
1701857773115182600,2.4351826171875,-0.02489202655851841,-0.08903098851442337,0.07467607408761978
1701857773124775700,2.444775634765625,-0.016340164467692375,-0.04016320779919624,0.07101099193096161
1701857773134368300,2.4543681640625,0.0068720318377017975,0.02214321307837963,0.047798797488212585
1701857773143961600,2.463961669921875,0.03497100621461868,0.072232685983181,0.01969982497394085
1701857773153555700,2.4735556640625,0.0594048947095871,0.11254860460758209,-0.0035123717971146107
1701857773163148800,2.483148681640625,0.07895200699567795,0.125987246632576,-0.021837789565324783
1701857773172741400,2.492741455078125,0.09116895496845245,0.10399674624204636,-0.027946261689066887
1701857773182334700,2.502334716796875,0.09361234307289124,0.05512896552681923,-0.01695101149380207
1701857773191928800,2.5119287109375,0.08628217875957489,0.001374406274408102,0.006261184345930815
1701857773201522000,2.52152197265625,0.07773031294345856,-0.04749337583780289,0.0331384651362896
1701857773211114500,2.531114501953125,0.0594048947095871,-0.09391776472330093,0.06245913356542587
1701857773220707800,2.540707763671875,0.025197450071573257,-0.12201674282550812,0.09177979826927185
1701857773230302000,2.550302001953125,-0.0016798300202935934,-0.12690351903438568,0.10521844029426575
1701857773239895000,2.55989501953125,-0.010231691412627697,-0.09269607067108154,0.09544488787651062
1701857773249487600,2.569487548828125,-0.0004581354442052543,-0.041384901851415634,0.06123743951320648
1701857773259081000,2.5790810546875,0.025197450071573257,0.014813045971095562,0.012369656935334206
1701857773268675000,2.588675048828125,0.056961506605148315,0.06856760382652283,-0.030389651656150818
1701857773278268200,2.59826806640625,0.09483403712511063,0.11743538826704025,-0.05604523420333862
1701857773287860700,2.60786083984375,0.12904147803783417,0.12232216447591782,-0.06581879407167435
1701857773297454000,2.6174541015625,0.15469707548618317,0.10888352245092392,-0.06337540596723557
1701857773307048200,2.627048095703125,0.18768282234668732,0.11377029865980148,-0.07070557028055191
1701857773316641300,2.636641357421875,0.2170034945011139,0.10277505218982697,-0.10002623498439789
1701857773326233900,2.64623388671875,0.20967331528663635,0.029473381116986275,-0.10857810080051422
1701857773335827200,2.6558271484375,0.1644706279039383,-0.03405473381280899,-0.0841442123055458
1701857773345421300,2.66542138671875,0.11438114941120148,-0.111021488904953,-0.06337540596723557
1701857773355014400,2.675014404296875,0.0984991192817688,-0.1647760421037674,-0.05360184609889984
1701857773364607000,2.68460693359375,0.10827267915010452,-0.16111096739768982,-0.060932014137506485
1701857773374200300,2.694200439453125,0.12171131372451782,-0.17332790791988373,-0.08292251825332642
1701857773383794400,2.70379443359375,0.14003673195838928,-0.21120044589042664,-0.11346487700939178
1701857773393387500,2.713387451171875,0.15469707548618317,-0.27595025300979614,-0.14156384766101837
1701857773402980000,2.72297998046875,0.15591876208782196,-0.372464120388031,-0.15744587779045105
1701857773412573400,2.732573486328125,0.14492350816726685,-0.5154023766517639,-0.1635543555021286
1701857773422167600,2.74216748046875,0.12781979143619537,-0.6815528273582458,-0.1378987729549408
1701857773431760600,2.7517607421875,0.10949437320232391,-0.8379297256469727,-0.06826218217611313
1701857773441353200,2.761353271484375,0.09727742522954941,-0.9588775038719177,0.0331384651362896
1701857773450946600,2.770946533203125,0.1119377613067627,-1.0578347444534302,0.15286453068256378
1701857773460540700,2.780540771484375,0.11926792562007904,-1.1299147605895996,0.2652604281902313
1701857773470133800,2.7901337890625,0.12048961967229843,-1.1934428215026855,0.3727695345878601
1701857773479726300,2.799726318359375,0.1363716572523117,-1.2581926584243774,0.48394373059272766
1701857773489319700,2.809319580078125,0.1644706279039383,-1.3168339729309082,0.5938962697982788
1701857773498913800,2.818913818359375,0.20356485247612,-1.390135645866394,0.7014053463935852
1701857773508507100,2.828507080078125,0.2658712565898895,-1.4939796924591064,0.8223531246185303
1701857773518099500,2.838099365234375,0.36360684037208557,-1.5782766342163086,0.9787300229072571
1701857773527692800,2.84769287109375,0.5042544007301331,-1.6161491870880127,1.1705360412597656
1701857773537287000,2.857286865234375,0.7082774043083191,-1.8103985786437988,1.3489034175872803
1701857773546880300,2.86688037109375,0.9477295279502869,-2.08298921585083,1.4771814346313477
1701857773556472600,2.87647265625,1.2042853832244873,-2.241809368133545,1.5846904516220093
1701857773566066000,2.88606591796875,1.3130161762237549,-2.3419883251190186,1.7265597581863403
1701857773575660000,2.895659912109375,1.2763653993606567,-2.4433889389038086,1.8951536417007446
1701857773585253000,2.905253173828125,1.184738278388977,-2.470266342163086,2.0759644508361816
1701857773594845700,2.914845703125,1.1627477407455444,-2.4336154460906982,2.273878812789917
1701857773604439000,2.92443896484375,1.2922474145889282,-2.3016724586486816,2.5060009956359863
1701857773614033200,2.934033203125,1.5976710319519043,-2.051225185394287,2.791877508163452
1701857773623626200,2.943626220703125,2.0118255615234375,-1.7199931144714355,3.1376168727874756
1701857773633218800,2.95321875,2.4259798526763916,-1.311947226524353,3.5138988494873047
1701857773642812200,2.962812255859375,2.7900447845458984,-0.8965710401535034,3.9011759757995605
1701857773652406300,2.97240625,3.144336223602295,-0.5789304971694946,4.284788131713867
1701857773661999400,2.981999267578125,3.491297483444214,-0.38101598620414734,4.628084182739258
1701857773671592000,2.991592041015625,3.793056011199951,-0.27350685000419617,4.9017438888549805
1701857773681185300,3.001185302734375,4.043503284454346,-0.2918322682380676,5.100880146026611
1701857773690779400,3.010779296875,4.27073860168457,-0.4152234196662903,5.238931655883789
1701857773700372500,3.02037255859375,4.451549530029297,-0.5557183027267456,5.325671672821045
1701857773709965000,3.029965087890625,4.6384687423706055,-0.6436802744865417,5.367209434509277
1701857773719558400,3.039558349609375,4.934118747711182,-0.6400152444839478,5.353770732879639
1701857773729152500,3.049152587890625,5.318952560424805,-0.49952033162117004,5.274360656738281
1701857773738745300,3.058745361328125,5.702564716339111,-0.47019967436790466,5.009253025054932
1701857773748337400,3.06833740234375,5.88108491897583,-1.288735032081604,4.194382667541504
1701857773757930800,3.0779306640625,5.837103843688965,-2.1514041423797607,3.269559860229492
1701857773767524900,3.08752490234375,5.805339813232422,-2.065885543823242,2.8835043907165527
1701857773777118000,3.097117919921875,5.8505425453186035,-1.59415864944458,2.80898118019104
1701857773786710500,3.10671044921875,5.916513919830322,-1.3718101978302002,2.7405662536621094
1701857773796304000,3.116303955078125,5.896966934204102,-1.3314943313598633,2.6635994911193848
1701857773805897700,3.125897705078125,5.78945779800415,-1.358371615409851,2.655047655105591
1701857773815491000,3.135490966796875,5.690347671508789,-1.4658807516098022,2.7210190296173096
1701857773825083600,3.145083740234375,5.6512532234191895,-1.6650168895721436,2.8285281658172607
1701857773834677000,3.154677001953125,5.586503505706787,-1.919282078742981,2.9409241676330566
1701857773844270800,3.164270751953125,3.706315755844116,-3.062788248062134,2.3251900672912598
1701857773853864200,3.1738642578125,1.948297381401062,-3.485494375228882,1.6666967868804932
1701857773863456500,3.18345654296875,3.6403441429138184,-2.1123099327087402,2.271435499191284
1701857773873049900,3.1930498046875,4.62380838394165,-0.7255338430404663,2.525547981262207
1701857773882644000,3.20264404296875,4.050833702087402,0.35444411635398865,1.8511725664138794
1701857773892237300,3.2122373046875,3.0270535945892334,0.0978882759809494,0.337340384721756
1701857773901829600,3.22182958984375,2.4052109718322754,-0.4506525695323944,-1.1152544021606445
1701857773911423000,3.231423095703125,1.9641793966293335,0.04291202127933502,-1.7468703985214233
1701857773921017000,3.24101708984375,0.9843803644180298,1.6567704677581787,-1.5257437229156494
1701857773930610400,3.2506103515625,0.4847072958946228,2.857696294784546,-1.2264286279678345
1701857773940202800,3.26020263671875,0.7571451663970947,2.823488712310791,-1.4475553035736084
1701857773949796000,3.269796142578125,0.9978190064430237,2.193094253540039,-1.8042900562286377
1701857773959390200,3.27939013671875,0.8389987349510193,1.7068599462509155,-1.7896296977996826
1701857773968983600,3.288983642578125,0.7363763451576233,1.2462811470031738,-1.4487769603729248
1701857773978576000,3.298575927734375,0.8548807501792908,0.6867450475692749,-0.9429954290390015
1701857773988169200,3.308169189453125,1.1822948455810547,0.049020491540431976,-0.4494308829307556
1701857773997763300,3.317763427734375,1.5817890167236328,-0.5679352283477783,-0.10369132459163666
1701857774007356400,3.3273564453125,1.9397454261779785,-1.1128109693527222,0.014813045971095562
1701857774016949000,3.336948974609375,2.17797589302063,-1.533073902130127,-0.03894151374697685
1701857774026542300,3.346542236328125,2.1168911457061768,-1.8985133171081543,-0.010842538438737392
1701857774036136400,3.356136474609375,2.0606932640075684,-2.2063803672790527,0.06612421572208405
1701857774045729500,3.3657294921875,2.374668836593628,-2.05366849899292,-0.1378987729549408
1701857774055322000,3.375322021484375,2.554257869720459,-1.80673348903656,-0.3052709102630615
1701857774064915500,3.38491552734375,2.7057478427886963,-1.56483793258667,-0.5129590034484863
1701857774074509600,3.394509521484375,2.823030710220337,-1.3388245105743408,-0.7169819474220276
1701857774084102700,3.4041025390625,2.9268746376037598,-1.335159420967102,-0.7805100679397583
1701857774093695200,3.4136953125,3.0270535945892334,-1.2264286279678345,-0.8477032780647278
1701857774103288600,3.42328857421875,3.040492296218872,-0.9979717135429382,-0.950325608253479
1701857774112882700,3.432882568359375,3.03804874420166,-0.9344435930252075,-1.0443960428237915
1701857774122475800,3.442475830078125,2.8999974727630615,-0.9613208770751953,-1.1140327453613281
1701857774132068400,3.452068359375,2.5786917209625244,-1.0773818492889404,-1.1042591333389282
1701857774141661700,3.46166162109375,2.4455270767211914,-1.478097677230835,-0.9564340710639954
1701857774151255600,3.471255615234375,2.545706033706665,-1.5355173349380493,-0.8391514420509338
1701857774160849000,3.480848876953125,2.369781970977783,-0.8770239353179932,-0.8709154725074768
1701857774170441500,3.49044140625,2.0619149208068848,-0.4091149568557739,-0.8098307251930237
1701857774180034800,3.500034912109375,1.758934736251831,-0.2515163719654083,-0.556939959526062
1701857774189628700,3.509628662109375,1.4412940740585327,-0.28694549202919006,-0.27472856640815735
1701857774199222000,3.519221923828125,1.1712995767593384,-0.3064926266670227,0.00992626789957285
1701857774208814300,3.528814453125,1.0955545902252197,-0.09147437661886215,0.17974179983139038
1701857774218407700,3.53840771484375,0.9794935584068298,0.04291202127933502,0.2041756957769394
1701857774228001800,3.548001708984375,0.47615543007850647,0.0038177953101694584,0.20784078538417816
1701857774237595100,3.55759521484375,0.1620272397994995,0.18462859094142914,0.26037365198135376
1701857774247187500,3.5671875,0.017867282032966614,0.35566580295562744,0.19806721806526184
1701857774256780800,3.57678076171875,-0.1385096162557602,0.5425850749015808,0.12843063473701477
1701857774266375000,3.586375,-0.2313583940267563,0.6867450475692749,0.149199441075325
1701857774275968300,3.59596826171875,-0.27411770820617676,0.7209524512290955,0.2530434727668762
1701857774285560600,3.605560546875,-0.19348587095737457,0.4888305068016052,0.3703261613845825
1701857774295154000,3.61515380859375,-0.10430216789245605,0.22372281551361084,0.39353835582733154
1701857774304748000,3.624748046875,-0.11529742181301117,0.1760767251253128,0.3739912211894989
1701857774314341000,3.634341064453125,0.08628217875957489,0.2017323076725006,0.22372281551361084
1701857774323933700,3.64393359375,0.5189147591590881,0.12354385852813721,-0.0328330397605896
1701857774333527000,3.653527099609375,0.9880454540252686,-0.004734066314995289,-0.3761292099952698
1701857774343121200,3.66312109375,1.336228370666504,-0.14889401197433472,-0.6033644080162048
1701857774352714200,3.67271435546875,1.6599774360656738,-0.35413870215415955,-0.6241331696510315
1701857774362306800,3.682306884765625,1.837123155593872,-0.48241662979125977,-0.48363831639289856
1701857774371900000,3.69189990234375,1.7699298858642578,-0.43232715129852295,-0.23929941654205322
1701857774381494000,3.701493896484375,1.517039179801941,-0.4249969720840454,0.025808297097682953
1701857774391087400,3.71108740234375,1.3948696851730347,-0.705986738204956,0.23838314414024353
1701857774400680000,3.720679931640625,1.493826985359192,-0.9564340710639954,0.3874298632144928
1701857774410273000,3.73027294921875,1.6050012111663818,-0.7597413063049316,0.5315898060798645
1701857774419867100,3.7398671875,1.6208832263946533,-0.476308137178421,0.6146650314331055
1701857774429460500,3.74946044921875,1.6379868984222412,-0.3993414044380188,0.5963396430015564
1701857774439053000,3.759052978515625,1.7748167514801025,-0.3968980014324188,0.49738237261772156
1701857774448646100,3.768646240234375,1.96540105342865,-0.3614688515663147,0.32756683230400085
1701857774458240300,3.778240234375,2.0619149208068848,-0.30160582065582275,0.10277505218982697
1701857774467833600,3.78783349609375,1.9617359638214111,-0.23196925222873688,-0.15378080308437347
1701857774477426000,3.797426025390625,1.664864182472229,-0.19531841576099396,-0.3981196880340576
1701857774487019300,3.807019287109375,1.2384928464889526,-0.18187977373600006,-0.5508314967155457
1701857774496613400,3.81661328125,0.7058340311050415,-0.09147437661886215,-0.5703786015510559
1701857774506206500,3.82620654296875,0.1253764033317566,-0.07070557028055191,-0.4506525695323944
1701857774515799000,3.835799072265625,-0.1898207813501358,-0.05604523420333862,-0.24907296895980835
1701857774525392400,3.845392333984375,-0.15683503448963165,-0.03161134570837021,-0.10735640674829483
1701857774534986500,3.854986572265625,-0.10308047384023666,-0.0035123717971146107,-0.04993676394224167
1701857774544579600,3.86457958984375,-0.034665580838918686,-0.08170082420110703,0.07589777559041977
1701857774554172200,3.874172119140625,0.4321744441986084,-0.22708246111869812,-0.0022906772792339325
1701857774563765500,3.883765625,0.9245173335075378,-0.41766682267189026,-0.07070557028055191
1701857774573359600,3.893359619140625,0.9037485122680664,-0.0853659063577652,0.38009971380233765
1701857774582952700,3.90295263671875,0.9330691695213318,0.06123743951320648,0.492495596408844
1701857774592545300,3.912545166015625,1.176186442375183,-0.14156384766101837,0.3984251320362091
1701857774602138400,3.922138427734375,1.3337849378585815,-0.32726141810417175,0.44729289412498474
1701857774611732500,3.931732421875,1.2922474145889282,-0.4115583300590515,0.5706840753555298
1701857774621325800,3.941325927734375,1.1871815919876099,-0.35536038875579834,0.575570821762085
1701857774630918100,3.950918212890625,1.1859599351882935,-0.07803573459386826,0.43385425209999084
1701857774640511500,3.960511474609375,1.1859599351882935,0.3446705639362335,0.20051060616970062
1701857774650105600,3.970105712890625,1.0784507989883423,0.34222719073295593,-0.03649812191724777
1701857774659698700,3.97969873046875,0.9758284687995911,0.13331741094589233,-0.48608171939849854
1701857774669291300,3.989291259765625,0.9049702286720276,-0.1904316395521164,-1.0737167596817017
1701857774678884600,3.998884521484375,0.859767496585846,-0.30404922366142273,-1.4817627668380737
1701857774688478700,4.008478759765625,0.8622109293937683,-0.09391776472330093,-1.6271443367004395
1701857774698071800,4.01807177734375,0.89764004945755,0.1382041871547699,-1.5208569765090942
1701857774707664400,4.027664306640625,0.952616274356842,0.12965233623981476,-1.288735032081604
1701857774717257700,4.0372578125,0.9562813639640808,0.149199441075325,-1.0260707139968872
1701857774726851800,4.046851806640625,0.8108997344970703,0.11499200016260147,-0.7243121266365051
1701857774736445000,4.05644482421875,0.5286883115768433,-0.013285927474498749,-0.478751540184021
1701857774746037500,4.06603759765625,0.18157434463500977,-0.13179029524326324,-0.26495498418807983
1701857774755630600,4.075630615234375,-0.010231691412627697,-0.10491301864385605,0.03680354729294777
1701857774765224700,4.085224609375,-0.07498150318861008,-0.18798823654651642,0.2286095917224884
1701857774774818000,4.094818115234375,-0.08719844371080399,-0.2686200737953186,0.3080197274684906
1701857774784410600,4.10441064453125,-0.08842013776302338,-0.30404922366142273,0.3190149664878845
1701857774794003700,4.114003662109375,-0.08964183181524277,-0.2845021188259125,0.27747735381126404
1701857774803597800,4.123597900390625,-0.10918894410133362,-0.23196925222873688,0.2298312783241272
1701857774813191200,4.133191162109375,-0.14828316867351532,-0.23319093883037567,0.21150586009025574
1701857774822783500,4.142783447265625,-0.16050012409687042,-0.19654010236263275,0.14431266486644745
1701857774832376800,4.152376953125,-0.18737739324569702,-0.12323843687772751,0.06978929787874222
1701857774841971000,4.161970947265625,-0.20692451298236847,-0.08780929446220398,0.031916771084070206
1701857774851564000,4.17156396484375,-0.19470755755901337,-0.20753535628318787,0.008704573847353458
1701857774861156600,4.181156494140625,-0.164165198802948,-0.4164451062679291,-0.009620844386518002
1701857774870750000,4.19075,-0.19348587095737457,-0.36513394117355347,-0.025502873584628105
1701857774880344000,4.200343994140625,-0.2166980654001236,-0.1635543555021286,-0.041384901851415634
1701857774889937200,4.209937255859375,-0.19959434866905212,0.02214321307837963,-0.026724567636847496
1701857774899529700,4.21952978515625,-0.188599094748497,0.10277505218982697,-0.03405473381280899
1701857774909122800,4.229122802734375,-0.18249061703681946,0.09666658192873001,-0.07070557028055191
1701857774918717000,4.238717041015625,-0.1495048701763153,0.08322793990373611,-0.07803573459386826
1701857774928310300,4.248310302734375,-0.12751436233520508,0.06734590977430344,-0.07681404054164886
1701857774937902800,4.25790283203125,-0.10918894410133362,0.013591351918876171,-0.06704048812389374
1701857774947496000,4.267495849609375,-0.11529742181301117,-0.0328330397605896,-0.05115845799446106
1701857774957090000,4.277090087890625,-0.1104106456041336,-0.042606595903635025,-0.03649812191724777
1701857774966683400,4.286683349609375,-0.09330692142248154,-0.03527642786502838,-0.019394399598240852
1701857774976275700,4.296275634765625,-0.07620319724082947,-0.041384901851415634,-0.004734066314995289
1701857774985869000,4.305869140625,-0.06154286116361618,-0.060932014137506485,0.0050394898280501366
1701857774995463200,4.315463134765625,-0.04810422286391258,-0.07803573459386826,0.00992626789957285
1701857775005056300,4.32505615234375,-0.037108972668647766,-0.08658760040998459,0.011147962883114815
1701857775014648800,4.33464892578125,-0.02733541466295719,-0.08658760040998459,0.00992626789957285
1701857775024242200,4.3442421875,-0.021226942539215088,-0.08170082420110703,0.008704573847353458
1701857775033836300,4.353836181640625,-0.01511846948415041,-0.06948387622833252,0.007482878863811493
1701857775043429400,4.363429443359375,-0.01511846948415041,-0.05360184609889984,0.008704573847353458
1701857775053022000,4.37302197265625,-0.016340164467692375,-0.03405473381280899,0.012369656935334206
1701857775062615300,4.382615234375,-0.017561858519911766,-0.014507622458040714,0.01847812905907631
1701857775072209200,4.392209228515625,-0.017561858519911766,0.00259610079228878,0.024586603045463562
1701857775081802500,4.401802490234375,-0.012675080448389053,0.012369656935334206,0.031916771084070206
1701857775091395000,4.41139501953125,-0.0065666078589856625,0.014813045971095562,0.04046862944960594
1701857775100988200,4.42098828125,-0.007788302376866341,0.027029991149902344,0.05268557742238045
1701857775110582300,4.430582275390625,-0.010231691412627697,0.04291202127933502,0.06856760382652283
1701857775120175400,4.44017529296875,-0.010231691412627697,0.049020491540431976,0.07956285774707794
1701857775129768000,4.449767822265625,-0.013896775431931019,0.049020491540431976,0.0844496339559555
1701857775139361300,4.459361328125,-0.007788302376866341,0.051463883370161057,0.0844496339559555
1701857775148955400,4.468955322265625,-0.0065666078589856625,0.06245913356542587,0.08200624585151672
1701857775158548500,4.478548583984375,-0.009009997360408306,0.07834116369485855,0.07711946964263916
1701857775168141000,4.48814111328125,-0.009009997360408306,0.08689302206039429,0.06978929787874222
1701857775177734400,4.497734375,-0.005344913341104984,0.09055810421705246,0.06245913356542587
1701857775187328500,4.50732861328125,-0.0029015245381742716,0.08811471611261368,0.05512896552681923
1701857775196921600,4.516921630859375,0.004428642801940441,0.08200624585151672,0.047798797488212585
1701857775206514200,4.52651416015625,0.008093725889921188,0.07956285774707794,0.04413371533155441
1701857775216107500,4.536107421875,0.01175880990922451,0.07589777559041977,0.04169032722711563
1701857775225701400,4.545701416015625,0.014202198944985867,0.05757235363125801,0.03924693539738655
1701857775235294700,4.555294677734375,0.016645587980747223,0.03436015918850899,0.04046862944960594
1701857775244887000,4.564886962890625,0.03374931216239929,0.03436015918850899,0.046577103435993195
1701857775254480400,4.57448046875,0.04963133856654167,0.045355409383773804,0.05635065957903862
1701857775264074500,4.584074462890625,0.06062658876180649,0.04413371533155441,0.06123743951320648
1701857775273667600,4.59366748046875,0.0716218426823616,0.031916771084070206,0.06123743951320648
1701857775283260200,4.60326025390625,0.08383878320455551,0.016034740954637527,0.0587940476834774
1701857775292853500,4.612853515625,0.0850604772567749,0.02092151902616024,0.0587940476834774
1701857775302447600,4.622447509765625,0.08139539510011673,0.03680354729294777,0.05512896552681923
1701857775312040700,4.632040771484375,0.072843536734581,0.06001574173569679,0.046577103435993195
1701857775321633300,4.64163330078125,0.0594048947095871,0.09177979826927185,0.031916771084070206
1701857775331226400,4.651226318359375,0.039857782423496246,0.12232216447591782,0.00992626789957285
1701857775340820500,4.660820556640625,0.014202198944985867,0.15408621728420258,-0.008399149402976036
1701857775350413800,4.670413818359375,-0.02244863659143448,0.14797775447368622,-0.024281177669763565
1701857775360006100,4.680006103515625,-0.07620319724082947,0.10766182839870453,-0.04016320779919624
1701857775369599500,4.689599609375,-0.09697200357913971,0.10033166408538818,-0.04871506989002228
1701857775379193600,4.699193603515625,-0.09941539168357849,0.125987246632576,-0.042606595903635025
1701857775388787000,4.708786865234375,-0.10796725004911423,0.12843063473701477,-0.041384901851415634
1701857775398379300,4.718379150390625,-0.11774080991744995,0.11377029865980148,-0.04871506989002228
1701857775407972600,4.72797265625,-0.12629267573356628,0.10033166408538818,-0.062153708189725876
1701857775417566700,4.737566650390625,-0.12873606383800507,0.08811471611261368,-0.08047912269830704
1701857775427159800,4.747159912109375,-0.14583978056907654,0.07589777559041977,-0.10124793648719788
1701857775436752400,4.75675244140625,-0.15927842259407043,0.05512896552681923,-0.12812520563602448
1701857775446345500,4.766345458984375,-0.16905197501182556,0.027029991149902344,-0.1525591015815735
1701857775455939600,4.775939697265625,-0.17027367651462555,-0.0022906772792339325,-0.17210622131824493
1701857775465533000,4.785532958984375,-0.1776038408279419,-0.03894151374697685,-0.18432316184043884
1701857775475125500,4.79512548828125,-0.18493400514125824,-0.07070557028055191,-0.18798823654651642
1701857775484718600,4.804718505859375,-0.18737739324569702,-0.09513945877552032,-0.18554484844207764
1701857775494312700,4.814312744140625,-0.1776038408279419,-0.12201674282550812,-0.18798823654651642
1701857775503906000,4.823906005859375,-0.1519482582807541,-0.14156384766101837,-0.1916533261537552
1701857775513498400,4.833498291015625,-0.12262758612632751,-0.16966283321380615,-0.1916533261537552
1701857775523091700,4.843091796875,-0.08353336155414581,-0.20020519196987152,-0.18676654994487762
1701857775532685800,4.852685791015625,-0.0456608310341835,-0.23685602843761444,-0.18310146033763885
1701857775542279000,4.86227880859375,-0.018783552572131157,-0.27839362621307373,-0.18187977373600006
1701857775551871500,4.87187158203125,-0.004123218823224306,-0.30038413405418396,-0.1769929975271225
1701857775561464800,4.88146484375,-0.0016798300202935934,-0.3089359998703003,-0.16966283321380615
1701857775571058700,4.89105859375,-0.0016798300202935934,-0.31504446268081665,-0.16599774360656738
1701857775580652000,4.900652099609375,-0.0029015245381742716,-0.3321481943130493,-0.16844113171100616
1701857775590244600,4.91024462890625,-0.005344913341104984,-0.35291701555252075,-0.17332790791988373
1701857775599837700,4.919837646484375,-0.0065666078589856625,-0.37735089659690857,-0.17332790791988373
1701857775609431800,4.929431884765625,-0.011453386396169662,-0.39445462822914124,-0.15988926589488983
1701857775619025200,4.939025146484375,-0.017561858519911766,-0.39323291182518005,-0.1391204595565796
1701857775628617500,4.948617431640625,-0.029778804630041122,-0.3626905679702759,-0.10979979485273361
1701857775638210800,4.9582109375,-0.04932591691613197,-0.33947837352752686,-0.08292251825332642
1701857775647805000,4.967804931640625,-0.052990999072790146,-0.35169529914855957,-0.06948387622833252
1701857775657398000,4.97739794921875,-0.050547610968351364,-0.35536038875579834,-0.06459710001945496
1701857775666990600,4.986990478515625,-0.05543438717722893,-0.34314343333244324,-0.06337540596723557
1701857775676584000,4.996583984375,-0.06642963737249374,-0.32970482110977173,-0.06337540596723557
1701857775686178000,5.006177978515625,-0.07864658534526825,-0.3064926266670227,-0.06581879407167435
1701857775695771100,5.015771240234375,-0.09086353331804276,-0.2796153426170349,-0.06581879407167435
1701857775705363700,5.02536376953125,-0.10308047384023666,-0.2576248347759247,-0.059710320085287094
1701857775714957000,5.03495703125,-0.11774080991744995,-0.2429644912481308,-0.04871506989002228
1701857775724551000,5.044551025390625,-0.1372879147529602,-0.22341738641262054,-0.03771981969475746
1701857775734144300,5.054144287109375,-0.16660858690738678,-0.21242213249206543,-0.01817270554602146
1701857775743736600,5.063736572265625,-0.15805672109127045,-0.19654010236263275,-0.010842538438737392
1701857775753330000,5.073329833984375,-0.1360662281513214,-0.16966283321380615,-0.009620844386518002
1701857775762924000,5.082924072265625,-0.11529742181301117,-0.14156384766101837,-0.009620844386518002
1701857775772517400,5.092517333984375,-0.09086353331804276,-0.11346487700939178,-0.010842538438737392
1701857775782109700,5.102109619140625,-0.06398624926805496,-0.08292251825332642,-0.01695101149380207
1701857775791703000,5.111703125,-0.04077405482530594,-0.05482354015111923,-0.025502873584628105
1701857775801297200,5.121297119140625,-0.018783552572131157,-0.021837789565324783,-0.03894151374697685
1701857775810890200,5.13089013671875,0.005650337319821119,0.014813045971095562,-0.05360184609889984
1701857775820482800,5.14048291015625,0.03008422814309597,0.049020491540431976,-0.06459710001945496
1701857775830076200,5.150076171875,0.056961506605148315,0.08689302206039429,-0.07070557028055191
1701857775839670000,5.159669921875,0.0850604772567749,0.12354385852813721,-0.07681404054164886
1701857775849263400,5.169263427734375,0.11315945535898209,0.16019469499588013,-0.08170082420110703
1701857775858856000,5.17885595703125,0.14003673195838928,0.19928891956806183,-0.08170082420110703
1701857775868449000,5.188448974609375,0.1656923145055771,0.23716144263744354,-0.08047912269830704
1701857775878043100,5.198043212890625,0.1901262104511261,0.279920756816864,-0.08047912269830704
1701857775887636500,5.207636474609375,0.20967331528663635,0.32878854870796204,-0.08047912269830704
1701857775897228800,5.217228759765625,0.23166382312774658,0.38009971380233765,-0.07925742864608765
1701857775906822100,5.226822265625,0.24998924136161804,0.435075968503952,-0.07437065243721008
1701857775916416300,5.236416259765625,0.26342788338661194,0.4888305068016052,-0.06459710001945496
1701857775926009300,5.24600927734375,0.27564483880996704,0.5376983284950256,-0.04749337583780289
1701857775935602000,5.255601806640625,0.28664007782936096,0.5780141949653625,-0.025502873584628105
1701857775945195300,5.2651953125,0.2915268540382385,0.6073349118232727,-0.004734066314995289
1701857775954789400,5.274789306640625,0.2939702570438385,0.6293253898620605,0.01725643500685692
1701857775964382500,5.284382568359375,0.2964136302471161,0.6427640318870544,0.03436015918850899
1701857775973975000,5.29397509765625,0.3110739588737488,0.6525375843048096,0.047798797488212585
1701857775983568400,5.303568359375,0.32939937710762024,0.6549809575080872,0.06245913356542587
1701857775993162200,5.313162353515625,0.3465031087398529,0.6427640318870544,0.0856713280081749
1701857776002755600,5.322755615234375,0.36727190017700195,0.621995210647583,0.11621369421482086
1701857776012348000,5.332347900390625,0.39170581102371216,0.5951179265975952,0.14553436636924744
1701857776021941200,5.341941162109375,0.41018393635749817,0.5511369109153748,0.1760767251253128
1701857776031535400,5.351535400390625,0.42606595158576965,0.492495596408844,0.19562382996082306
1701857776041128400,5.36112841796875,0.4333961308002472,0.4143071472644806,0.2017323076725006
1701857776050721000,5.370720947265625,0.4333961308002472,0.3214583694934845,0.1907370537519455
1701857776060314400,5.380314453125,0.4297310411930084,0.22738789021968842,0.16874656081199646
1701857776069908500,5.389908447265625,0.42362257838249207,0.15775130689144135,0.14675605297088623
1701857776079501600,5.39950146484375,0.4002576768398285,0.125987246632576,0.14064757525920868
1701857776089094100,5.40909423828125,0.3599417507648468,0.13331741094589233,0.15286453068256378
1701857776098687500,5.4186875,0.30740886926651,0.16019469499588013,0.1772984117269516
1701857776108281300,5.42828125,0.2438807636499405,0.19684553146362305,0.2029540091753006
1701857776117874700,5.437874755859375,0.19623468816280365,0.23960483074188232,0.21883602440357208
1701857776127467300,5.44746728515625,0.17057909071445465,0.26281702518463135,0.21883602440357208
1701857776137060400,5.457060302734375,0.1632489264011383,0.256708562374115,0.20661908388137817
1701857776146654500,5.466654541015625,0.15958385169506073,0.23349636793136597,0.19562382996082306
1701857776156247600,5.47624755859375,0.15714046359062195,0.20906247198581696,0.19562382996082306
1701857776165840100,5.485840087890625,0.1510319858789444,0.1895153671503067,0.19928891956806183
1701857776175433500,5.49543359375,0.14614520967006683,0.1760767251253128,0.2017323076725006
1701857776185027600,5.505027587890625,0.14248012006282806,0.17241163551807404,0.2041756957769394
1701857776194620700,5.51462060546875,0.14003673195838928,0.16752485930919647,0.2017323076725006
1701857776204213200,5.524213134765625,0.1375933438539505,0.16874656081199646,0.2029540091753006
1701857776213806600,5.533806640625,0.1388150453567505,0.18340688943862915,0.20661908388137817
1701857776223400700,5.543400634765625,0.14858859777450562,0.2163926362991333,0.22250111401081085
1701857776232993800,5.552993896484375,0.16080553829669952,0.24937839806079865,0.2420482337474823
1701857776242586400,5.56258642578125,0.15347537398338318,0.254265159368515,0.2677038013935089
1701857776252179500,5.572179443359375,0.14248012006282806,0.279920756816864,0.28847262263298035
1701857776261773600,5.581773681640625,0.13148486614227295,0.2970244884490967,0.30435463786125183
1701857776271367000,5.591366943359375,0.11804623156785965,0.30191126465797424,0.31534990668296814
1701857776280959200,5.600959228515625,0.10582929104566574,0.305576354265213,0.3190149664878845
1701857776290552600,5.610552490234375,0.09239064902067184,0.3067980408668518,0.3214583694934845
1701857776300146700,5.620146728515625,0.07773031294345856,0.3080197274684906,0.3239017724990845
1701857776309739800,5.62973974609375,0.0594048947095871,0.3104631304740906,0.32878854870796204
1701857776319332400,5.639332275390625,0.04230117425322533,0.31412819027900696,0.3324536085128784
1701857776328925700,5.64892578125,0.02886253222823143,0.31657159328460693,0.337340384721756
1701857776338519800,5.658519775390625,0.017867282032966614,0.31290650367736816,0.34222719073295593
1701857776348113000,5.66811279296875,0.0068720318377017975,0.305576354265213,0.3483356535434723
1701857776357705500,5.67770556640625,-0.004123218823224306,0.2958027720451355,0.35200074315071106
1701857776367298600,5.687298583984375,-0.017561858519911766,0.28602921962738037,0.3471139669418335
1701857776376892700,5.696892578125,-0.032222192734479904,0.2713688910007477,0.3361186981201172
1701857776386486000,5.706486083984375,-0.04932591691613197,0.2554868757724762,0.3202366828918457
1701857776396078300,5.716078369140625,-0.06765133142471313,0.24693500995635986,0.30435463786125183
1701857776405671700,5.725671630859375,-0.08719844371080399,0.23960483074188232,0.28602921962738037
1701857776415265800,5.735265869140625,-0.11529742181301117,0.23227466642856598,0.2725905776023865
1701857776424859000,5.74485888671875,-0.1385096162557602,0.2286095917224884,0.2554868757724762
1701857776434451500,5.754451416015625,-0.15561333298683167,0.22494450211524963,0.23227466642856598
1701857776444044800,5.764044921875,-0.17149536311626434,0.22127941250801086,0.2163926362991333
1701857776453639000,5.773638916015625,-0.18371231853961945,0.2151709496974945,0.20784078538417816
1701857776463232000,5.78323193359375,-0.1910424828529358,0.21028417348861694,0.19806721806526184
1701857776472824600,5.792824462890625,-0.2020377367734909,0.19440214335918427,0.19684553146362305
1701857776482417700,5.802417724609375,-0.21303297579288483,0.18462859094142914,0.2029540091753006
1701857776492011800,5.81201171875,-0.21914145350456238,0.17485502362251282,0.20661908388137817
1701857776501605000,5.821605224609375,-0.22524993121623993,0.15775130689144135,0.2041756957769394
1701857776511197400,5.831197509765625,-0.22647161781787872,0.13453911244869232,0.19928891956806183
1701857776520790800,5.840790771484375,-0.22036315500736237,0.10277505218982697,0.18585027754306793
1701857776530385000,5.850385009765625,-0.20692451298236847,0.07101099193096161,0.17485502362251282
1701857776539978000,5.85997802734375,-0.18249061703681946,0.03924693539738655,0.16752485930919647
1701857776549570600,5.869570556640625,-0.15316994488239288,0.0038177953101694584,0.16019469499588013
1701857776559164000,5.879163818359375,-0.11774080991744995,-0.030389651656150818,0.15775130689144135
1701857776568757800,5.8887578125,-0.07986827939748764,-0.05238015204668045,0.15652960538864136
1701857776578351000,5.89835107421875,-0.04199574887752533,-0.06704048812389374,0.15286453068256378
1701857776587943700,5.907943603515625,-0.009009997360408306,-0.07437065243721008,0.14675605297088623
1701857776597536800,5.917536865234375,0.017867282032966614,-0.07437065243721008,0.13576079905033112
1701857776607131000,5.927130859375,0.039857782423496246,-0.06948387622833252,0.12843063473701477
1701857776616724200,5.93672412109375,0.05329642444849014,-0.0584886260330677,0.125987246632576
1701857776626316500,5.946316650390625,0.0594048947095871,-0.042606595903635025,0.1247655525803566
1701857776635910000,5.955909912109375,0.0594048947095871,-0.026724567636847496,0.12720894813537598
1701857776645504000,5.96550390625,0.054518118500709534,-0.014507622458040714,0.13087402284145355
1701857776655097000,5.97509716796875,0.0459662564098835,-0.004734066314995289,0.1369825005531311
1701857776664689700,5.984689697265625,0.038636088371276855,0.001374406274408102,0.14309096336364746
1701857776674283000,5.994282958984375,0.03497100621461868,0.0038177953101694584,0.14797775447368622
1701857776683877000,6.003877197265625,0.03374931216239929,0.0050394898280501366,0.15408621728420258
1701857776693470200,6.01347021484375,0.037414394319057465,-0.0010689827613532543,0.16141638159751892
1701857776703062800,6.023062744140625,0.04107947647571564,-0.005955760832875967,0.16996824741363525
1701857776712656100,6.03265625,0.04230117425322533,0.001374406274408102,0.17974179983139038
1701857776722250000,6.04225,0.04718795046210289,0.014813045971095562,0.18218518793582916
1701857776731843300,6.05184326171875,0.05085303261876106,0.03680354729294777,0.1785201132297516
1701857776741435600,6.061435546875,0.055739812552928925,0.06001574173569679,0.16874656081199646
1701857776751029000,6.071029052734375,0.06062658876180649,0.08078455179929733,0.15897299349308014
1701857776760623000,6.080623046875,0.06184828653931618,0.09422318637371063,0.149199441075325
1701857776770216200,6.09021630859375,0.06429167091846466,0.10155335813760757,0.14186927676200867
1701857776779808800,6.099808837890625,0.06551336497068405,0.11254860460758209,0.1369825005531311
1701857776789402000,6.109402099609375,0.06673506647348404,0.125987246632576,0.13576079905033112
1701857776798996200,6.118996337890625,0.06673506647348404,0.1382041871547699,0.13331741094589233
1701857776808589300,6.12858935546875,0.06795676052570343,0.14675605297088623,0.12965233623981476
1701857776818182000,6.138181884765625,0.07650861889123917,0.150421142578125,0.12232216447591782
1701857776827775200,6.147775146484375,0.072843536734581,0.16996824741363525,0.125987246632576
1701857776837369000,6.157369140625,0.0594048947095871,0.17241163551807404,0.13087402284145355
1701857776846962400,6.16696240234375,0.05085303261876106,0.16996824741363525,0.125987246632576
1701857776856554800,6.1765546875,0.0459662564098835,0.16752485930919647,0.11865708231925964
1701857776866148000,6.186148193359375,0.04474456235766411,0.1650814712047577,0.1113269105553627
1701857776875742200,6.1957421875,0.0459662564098835,0.1638597846031189,0.10521844029426575
1701857776885335300,6.205335205078125,0.05085303261876106,0.16752485930919647,0.09544488787651062
1701857776894928000,6.214927978515625,0.04840964451432228,0.15652960538864136,0.09910997003316879
1701857776904521200,6.224521240234375,0.04230117425322533,0.150421142578125,0.10888352245092392
1701857776914115300,6.234115234375,0.036192700266838074,0.150421142578125,0.11743538826704025
1701857776923708400,6.24370849609375,0.03008422814309597,0.14675605297088623,0.125987246632576
1701857776933301000,6.253301025390625,0.02764083817601204,0.14675605297088623,0.13087402284145355
1701857776942894000,6.26289404296875,0.021532366052269936,0.12965233623981476,0.14064757525920868
1701857776952488200,6.27248828125,0.014202198944985867,0.11865708231925964,0.14675605297088623
1701857776962081500,6.28208154296875,0.017867282032966614,0.10521844029426575,0.14675605297088623
1701857776971673900,6.291673828125,0.017867282032966614,0.10155335813760757,0.149199441075325
1701857776981267200,6.30126708984375,0.01175880990922451,0.10521844029426575,0.15408621728420258
1701857776990861300,6.310861328125,0.009315420873463154,0.10766182839870453,0.1516428291797638
1701857777000454400,6.320454345703125,0.001985253533348441,0.10155335813760757,0.1516428291797638
1701857777010047000,6.330046875,-0.005344913341104984,0.10033166408538818,0.14675605297088623
1701857777019640300,6.339640380859375,-0.011453386396169662,0.09544488787651062,0.1382041871547699
1701857777029234200,6.349234130859375,-0.017561858519911766,0.08933641016483307,0.125987246632576
1701857777038827500,6.35882763671875,-0.02244863659143448,0.08322793990373611,0.11621369421482086
1701857777048419800,6.368419921875,-0.028557108715176582,0.07345438003540039,0.10521844029426575
1701857777058013200,6.37801318359375,-0.03955236077308655,0.06123743951320648,0.09177979826927185
1701857777067607300,6.387607177734375,-0.04932591691613197,0.047798797488212585,0.08078455179929733
1701857777077200600,6.39720068359375,-0.06032116711139679,0.0331384651362896,0.07101099193096161
1701857777086793000,6.40679296875,-0.0713164210319519,0.01969982497394085,0.06490252166986465
1701857777096386300,6.41638623046875,-0.07864658534526825,0.0050394898280501366,0.05757235363125801
1701857777105980400,6.42598046875,-0.0859767496585846,-0.008399149402976036,0.05390727147459984
1701857777115573500,6.435573486328125,-0.09208522737026215,-0.01695101149380207,0.05512896552681923
1701857777125166000,6.445166015625,-0.0981936976313591,-0.023059483617544174,0.05512896552681923
1701857777134759200,6.45475927734375,-0.10308047384023666,-0.030389651656150818,0.05635065957903862
1701857777144353300,6.464353271484375,-0.10308047384023666,-0.03771981969475746,0.05757235363125801
1701857777153946600,6.473946533203125,-0.10185877978801727,-0.041384901851415634,0.06001574173569679
1701857777163539200,6.483539306640625,-0.09941539168357849,-0.04016320779919624,0.06123743951320648
1701857777173132300,6.49313232421875,-0.0981936976313591,-0.042606595903635025,0.05512896552681923
1701857777182726400,6.502726318359375,-0.0981936976313591,-0.05238015204668045,0.04413371533155441
1701857777192319700,6.51231982421875,-0.09452861547470093,-0.06581879407167435,0.04291202127933502
1701857777201912000,6.521912109375,-0.08842013776302338,-0.07925742864608765,0.046577103435993195
1701857777211505400,6.53150537109375,-0.08231166750192642,-0.09269607067108154,0.05635065957903862
1701857777221099500,6.541099609375,-0.07620319724082947,-0.10246963053941727,0.06978929787874222
1701857777230692600,6.550692626953125,-0.06765133142471313,-0.11712995916604996,0.0856713280081749
1701857777240285200,6.56028515625,-0.05787777900695801,-0.1244601309299469,0.09910997003316879
1701857777249878500,6.56987841796875,-0.04810422286391258,-0.1244601309299469,0.1113269105553627
1701857777259472400,6.579472412109375,-0.04199574887752533,-0.12079504877328873,0.11499200016260147
1701857777269065700,6.589065673828125,-0.033443886786699295,-0.10979979485273361,0.11010521650314331
1701857777278658000,6.598657958984375,-0.037108972668647766,-0.10857810080051422,0.09910997003316879
1701857777288251400,6.60825146484375,-0.06032116711139679,-0.10735640674829483,0.08811471611261368
1701857777297845500,6.617845458984375,-0.07498150318861008,-0.08903098851442337,0.07956285774707794
1701857777307438600,6.6274384765625,-0.08353336155414581,-0.08170082420110703,0.06612421572208405
1701857777317031200,6.63703125,-0.08719844371080399,-0.08170082420110703,0.05390727147459984
1701857777326624500,6.64662451171875,-0.0859767496585846,-0.0853659063577652,0.04291202127933502
1701857777336218600,6.656218505859375,-0.07986827939748764,-0.08658760040998459,0.03558185324072838
1701857777345811700,6.665811767578125,-0.0725381150841713,-0.0853659063577652,0.031916771084070206
1701857777355404300,6.675404296875,-0.06642963737249374,-0.0841442123055458,0.025808297097682953
1701857777364997600,6.68499755859375,-0.06032116711139679,-0.0841442123055458,0.01969982497394085
1701857777374591500,6.694591552734375,-0.052990999072790146,-0.08170082420110703,0.014813045971095562
1701857777384184800,6.704184814453125,-0.04932591691613197,-0.07681404054164886,0.00992626789957285
1701857777393777200,6.713777099609375,-0.050547610968351364,-0.06948387622833252,0.00992626789957285
1701857777403370500,6.72337060546875,-0.052990999072790146,-0.06704048812389374,0.008704573847353458
1701857777412964600,6.732964599609375,-0.06032116711139679,-0.0584886260330677,0.014813045971095562
1701857777422557700,6.7425576171875,-0.06642963737249374,-0.05115845799446106,0.02092151902616024
1701857777432150300,6.752150390625,-0.0713164210319519,-0.04871506989002228,0.024586603045463562
1701857777441743600,6.76174365234375,-0.07009471952915192,-0.05604523420333862,0.023364907130599022
1701857777451337700,6.771337646484375,-0.06765133142471313,-0.06581879407167435,0.023364907130599022
1701857777460930800,6.780930908203125,-0.06276455521583557,-0.07437065243721008,0.025808297097682953
1701857777470523400,6.7905234375,-0.05787777900695801,-0.08292251825332642,0.025808297097682953
1701857777480116500,6.800116455078125,-0.051769305020570755,-0.09025268256664276,0.023364907130599022
1701857777489710600,6.809710693359375,-0.04443913698196411,-0.09147437661886215,0.02214321307837963
1701857777499304000,6.819303955078125,-0.028557108715176582,-0.08903098851442337,0.01847812905907631
1701857777508896300,6.828896240234375,-0.02489202655851841,-0.09147437661886215,0.02214321307837963
1701857777518489600,6.838489501953125,-0.0261137206107378,-0.07925742864608765,0.023364907130599022
1701857777528083700,6.848083740234375,-0.0261137206107378,-0.062153708189725876,0.023364907130599022
1701857777537676800,6.8576767578125,-0.02244863659143448,-0.05482354015111923,0.02214321307837963
1701857777547269400,6.867269287109375,-0.016340164467692375,-0.059710320085287094,0.01969982497394085
1701857777556862500,6.876862548828125,-0.011453386396169662,-0.06826218217611313,0.025808297097682953
1701857777566456600,6.88645654296875,-0.007788302376866341,-0.07681404054164886,0.030695075169205666
1701857777576050000,6.8960498046875,-0.0065666078589856625,-0.0841442123055458,0.027029991149902344
1701857777585642200,6.905642333984375,-0.005344913341104984,-0.08658760040998459,0.023364907130599022
1701857777595235600,6.915235595703125,-0.009009997360408306,-0.08170082420110703,0.02092151902616024
1701857777604829700,6.92482958984375,-0.01511846948415041,-0.06948387622833252,0.014813045971095562
1701857777614422800,6.9344228515625,-0.018783552572131157,-0.059710320085287094,0.008704573847353458
1701857777624015400,6.944015380859375,-0.02244863659143448,-0.05115845799446106,0.0038177953101694584
1701857777633608700,6.953608642578125,-0.02489202655851841,-0.04504998400807381,0.00015271181473508477
1701857777643202800,6.963202880859375,-0.02244863659143448,-0.03894151374697685,-0.0010689827613532543
1701857777652796000,6.9727958984375,-0.018783552572131157,-0.03527642786502838,-0.007177455350756645
1701857777662388500,6.982388427734375,-0.012675080448389053,-0.0328330397605896,-0.01572931744158268
1701857777671981600,6.991981689453125,-0.009009997360408306,-0.026724567636847496,-0.021837789565324783
1701857777681575700,7.00157568359375,-0.0065666078589856625,-0.019394399598240852,-0.029167955741286278
1701857777691169000,7.0111689453125,-0.0029015245381742716,-0.012064233422279358,-0.03405473381280899
1701857777700761300,7.02076123046875,0.001985253533348441,-0.007177455350756645,-0.03649812191724777
1701857777710354700,7.030354736328125,0.009315420873463154,-0.004734066314995289,-0.0328330397605896
1701857777719948800,7.03994873046875,0.015423892997205257,0.0038177953101694584,-0.026724567636847496
1701857777729542000,7.0495419921875,0.017867282032966614,0.01969982497394085,-0.014507622458040714
1701857777739134500,7.059134521484375,0.020310672000050545,0.03558185324072838,-0.0022906772792339325
1701857777748727600,7.0687275390625,0.02886253222823143,0.04291202127933502,0.0038177953101694584
1701857777758321700,7.07832177734375,0.04107947647571564,0.047798797488212585,0.00992626789957285
1701857777767915000,7.0879150390625,0.05085303261876106,0.05635065957903862,0.014813045971095562
1701857777777507600,7.097507568359375,0.058183200657367706,0.06856760382652283,0.01725643500685692
1701857777787100700,7.1071005859375,0.06184828653931618,0.08078455179929733,0.014813045971095562
1701857777796694800,7.11669482421875,0.06306997686624527,0.08933641016483307,0.00992626789957285
1701857777806288000,7.126287841796875,0.06306997686624527,0.09666658192873001,0.00015271181473508477
1701857777815880400,7.13588037109375,0.06184828653931618,0.10277505218982697,-0.009620844386518002
1701857777825473800,7.145473876953125,0.0594048947095871,0.10888352245092392,-0.01572931744158268
1701857777835068000,7.15506787109375,0.054518118500709534,0.11377029865980148,-0.024281177669763565
1701857777844661000,7.164660888671875,0.05085303261876106,0.11743538826704025,-0.030389651656150818
1701857777854253600,7.174253662109375,0.04718795046210289,0.12110047042369843,-0.03527642786502838
1701857777863846700,7.1838466796875,0.04474456235766411,0.125987246632576,-0.03527642786502838
1701857777873440800,7.193440673828125,0.037414394319057465,0.13453911244869232,-0.03771981969475746
1701857777883034000,7.2030341796875,0.03130592033267021,0.14431266486644745,-0.03894151374697685
1701857777892626400,7.21262646484375,0.02641914412379265,0.15530791878700256,-0.03894151374697685
1701857777902219800,7.2222197265625,0.023975754156708717,0.16752485930919647,-0.03527642786502838
1701857777911814000,7.23181396484375,0.021532366052269936,0.1772984117269516,-0.030389651656150818
1701857777921407000,7.241406982421875,0.021532366052269936,0.18707197904586792,-0.024281177669763565
1701857777930999600,7.25099951171875,0.020310672000050545,0.19440214335918427,-0.01817270554602146
1701857777940593000,7.260593017578125,0.019088976085186005,0.19318044185638428,-0.013285927474498749
1701857777950187000,7.27018701171875,0.019088976085186005,0.19318044185638428,-0.007177455350756645
1701857777959780000,7.279780029296875,0.015423892997205257,0.18707197904586792,-0.0035123717971146107
1701857777969372700,7.28937255859375,0.012980503961443901,0.1650814712047577,-0.0035123717971146107
1701857777978965800,7.2989658203125,0.010537114925682545,0.1638597846031189,-0.004734066314995289
1701857777988560000,7.308559814453125,0.008093725889921188,0.16019469499588013,-0.008399149402976036
1701857777998153000,7.318153076171875,0.0068720318377017975,0.150421142578125,-0.013285927474498749
1701857778007745500,7.32774560546875,0.004428642801940441,0.14675605297088623,-0.019394399598240852
1701857778017339000,7.3373388671875,0.0032069480512291193,0.14431266486644745,-0.026724567636847496
1701857778026933000,7.34693310546875,0.004428642801940441,0.14431266486644745,-0.030389651656150818
1701857778036526000,7.356526123046875,0.0068720318377017975,0.14431266486644745,-0.03161134570837021
1701857778046118700,7.36611865234375,0.010537114925682545,0.1382041871547699,-0.03161134570837021
1701857778055712000,7.3757119140625,0.017867282032966614,0.13331741094589233,-0.027946261689066887
1701857778065305900,7.385305908203125,0.02764083817601204,0.12354385852813721,-0.019394399598240852
1701857778074899200,7.394899169921875,0.036192700266838074,0.10888352245092392,-0.009620844386518002
1701857778084491500,7.404491455078125,0.04352286830544472,0.09055810421705246,0.0038177953101694584
1701857778094084900,7.4140849609375,0.05207473039627075,0.072232685983181,0.01969982497394085
1701857778103679000,7.423678955078125,0.058183200657367706,0.049020491540431976,0.03558185324072838
1701857778113272300,7.433272216796875,0.06551336497068405,0.02214321307837963,0.051463883370161057
1701857778122864600,7.44286474609375,0.0716218426823616,-0.007177455350756645,0.06490252166986465
1701857778132458000,7.4524580078125,0.08017370104789734,-0.03894151374697685,0.07834116369485855
1701857778142052000,7.462052001953125,0.08750387281179428,-0.06948387622833252,0.09055810421705246
1701857778151645200,7.471645263671875,0.09605573117733002,-0.10735640674829483,0.0978882759809494
1701857778161237800,7.48123779296875,0.10582929104566574,-0.1244601309299469,0.10521844029426575
1701857778170830800,7.490830810546875,0.10338589549064636,-0.11835165321826935,0.10888352245092392
1701857778180425000,7.500425048828125,0.10216420143842697,-0.12201674282550812,0.10399674624204636
1701857778190018300,7.510018310546875,0.10338589549064636,-0.12323843687772751,0.09544488787651062
1701857778199610600,7.519610595703125,0.10094250738620758,-0.11590826511383057,0.08322793990373611
1701857778209204000,7.529203857421875,0.09361234307289124,-0.0988045409321785,0.07101099193096161
1701857778218798000,7.538798095703125,0.08383878320455551,-0.0719272643327713,0.06001574173569679
1701857778228391200,7.54839111328125,0.07406523078680038,-0.041384901851415634,0.049020491540431976
1701857778237983700,7.557983642578125,0.056961506605148315,-0.0022906772792339325,0.04046862944960594
1701857778247577000,7.5675771484375,0.04230117425322533,0.04046862944960594,0.03680354729294777
1701857778257171200,7.577171142578125,0.02641914412379265,0.07956285774707794,0.031916771084070206
1701857778266764300,7.586764404296875,0.01175880990922451,0.1113269105553627,0.027029991149902344
1701857778276356900,7.59635693359375,-0.0016798300202935934,0.14064757525920868,0.025808297097682953
1701857778285950200,7.6059501953125,-0.011453386396169662,0.1626380831003189,0.025808297097682953
1701857778295544000,7.6155439453125,-0.017561858519911766,0.16874656081199646,0.024586603045463562
1701857778305137400,7.625137451171875,-0.020005248486995697,0.17118994891643524,0.028251685202121735
1701857778314730000,7.63472998046875,-0.02367033064365387,0.17118994891643524,0.030695075169205666
1701857778324323000,7.644322998046875,-0.020005248486995697,0.1650814712047577,0.03558185324072838
1701857778333917200,7.653917236328125,-0.012675080448389053,0.13942588865756989,0.051463883370161057
1701857778343510300,7.66351025390625,-0.012675080448389053,0.13209572434425354,0.07101099193096161
1701857778353102800,7.673102783203125,-0.009009997360408306,0.13331741094589233,0.08689302206039429
1701857778362696200,7.6826962890625,-0.005344913341104984,0.12965233623981476,0.10277505218982697
1701857778372290300,7.692290283203125,0.005650337319821119,0.12354385852813721,0.11743538826704025
1701857778381883400,7.70188330078125,0.019088976085186005,0.1113269105553627,0.13209572434425354
1701857778391476000,7.71147607421875,0.03497100621461868,0.09544488787651062,0.14309096336364746
1701857778401069300,7.7210693359375,0.04963133856654167,0.08322793990373611,0.150421142578125
1701857778410663200,7.7306630859375,0.06184828653931618,0.07345438003540039,0.1516428291797638
1701857778420256500,7.740256591796875,0.07040014863014221,0.06612421572208405,0.14797775447368622
1701857778429849000,7.74984912109375,0.07650861889123917,0.05635065957903862,0.13942588865756989
1701857778439442200,7.759442138671875,0.08261708915233612,0.045355409383773804,0.12720894813537598
1701857778449036300,7.769036376953125,0.08628217875957489,0.03558185324072838,0.11621369421482086
1701857778458629400,7.77862939453125,0.08750387281179428,0.023364907130599022,0.10766182839870453
1701857778468222000,7.788221923828125,0.08750387281179428,0.016034740954637527,0.10399674624204636
1701857778477815300,7.797815185546875,0.08628217875957489,0.012369656935334206,0.10399674624204636
1701857778487409400,7.807409423828125,0.08139539510011673,0.00992626789957285,0.10399674624204636
1701857778497002500,7.81700244140625,0.07406523078680038,0.011147962883114815,0.10644013434648514
1701857778506595000,7.826594970703125,0.06795676052570343,0.013591351918876171,0.10521844029426575
1701857778516188400,7.8361884765625,0.0594048947095871,0.01725643500685692,0.10155335813760757
1701857778525782500,7.845782470703125,0.05085303261876106,0.025808297097682953,0.09666658192873001
1701857778535375600,7.855375732421875,0.04107947647571564,0.03924693539738655,0.08811471611261368
1701857778544968200,7.86496826171875,0.02886253222823143,0.05512896552681923,0.07467607408761978
1701857778554561300,7.874561279296875,0.021532366052269936,0.06734590977430344,0.051463883370161057
1701857778564155400,7.8841552734375,0.012980503961443901,0.07711946964263916,0.02092151902616024
1701857778573748700,7.893748779296875,-0.0029015245381742716,0.11254860460758209,-0.009620844386518002
1701857778583341000,7.903341064453125,-0.017561858519911766,0.14186927676200867,-0.03771981969475746
1701857778592934400,7.912934326171875,-0.032222192734479904,0.15408621728420258,-0.06704048812389374
1701857778602528500,7.922528564453125,-0.04688252881169319,0.1650814712047577,-0.09391776472330093
1701857778612121600,7.93212158203125,-0.06520794332027435,0.17118994891643524,-0.1122431829571724
1701857778621714200,7.941714111328125,-0.08231166750192642,0.16874656081199646,-0.1256818175315857
1701857778631307500,7.9513076171875,-0.09697200357913971,0.15775130689144135,-0.13056860864162445
1701857778640901600,7.960901611328125,-0.1104106456041336,0.14675605297088623,-0.12812520563602448
1701857778650494700,7.97049462890625,-0.12018419802188873,0.13576079905033112,-0.11590826511383057
1701857778660087300,7.98008740234375,-0.1238492801785469,0.125987246632576,-0.09513945877552032
1701857778669680600,7.9896806640625,-0.12018419802188873,0.11499200016260147,-0.06826218217611313
1701857778679274500,7.9992744140625,-0.1104106456041336,0.0978882759809494,-0.0462716780602932
1701857778688867800,8.008867919921874,-0.09575030952692032,0.0844496339559555,-0.025502873584628105
1701857778698460200,8.018460205078124,-0.07498150318861008,0.07101099193096161,-0.0035123717971146107
1701857778708053500,8.028053466796875,-0.051769305020570755,0.06001574173569679,0.01725643500685692
1701857778717647600,8.037647705078125,-0.02733541466295719,0.05390727147459984,0.03924693539738655
1701857778727241000,8.047240966796876,-0.005344913341104984,0.049020491540431976,0.05635065957903862
1701857778736833300,8.056833251953124,0.014202198944985867,0.046577103435993195,0.06368082761764526
1701857778746426600,8.066426513671875,0.03130592033267021,0.047798797488212585,0.06490252166986465
1701857778756020700,8.076020751953125,0.0459662564098835,0.05268557742238045,0.06368082761764526
1701857778765613800,8.08561376953125,0.055739812552928925,0.05512896552681923,0.06001574173569679
1701857778775206400,8.095206298828124,0.06306997686624527,0.05512896552681923,0.046577103435993195
1701857778784799700,8.1047998046875,0.06673506647348404,0.05390727147459984,0.030695075169205666
1701857778794393600,8.1143935546875,0.06917845457792282,0.046577103435993195,0.012369656935334206
1701857778803987000,8.123987060546876,0.06795676052570343,0.03924693539738655,-0.005955760832875967
1701857778813579500,8.13357958984375,0.06429167091846466,0.031916771084070206,-0.020616095513105392
1701857778823172600,8.143172607421874,0.06062658876180649,0.023364907130599022,-0.03161134570837021
1701857778832766700,8.1527666015625,0.054518118500709534,0.01969982497394085,-0.03894151374697685
1701857778842360000,8.162360107421875,0.0459662564098835,0.02092151902616024,-0.04016320779919624
1701857778851952400,8.171952392578126,0.036192700266838074,0.027029991149902344,-0.043828289955854416
1701857778861545700,8.181545654296874,0.02764083817601204,0.03924693539738655,-0.04749337583780289
1701857778871139800,8.191139892578125,0.020310672000050545,0.05635065957903862,-0.05115845799446106
1701857778880733000,8.20073291015625,0.014202198944985867,0.07101099193096161,-0.059710320085287094
1701857778890325500,8.210325439453126,0.008093725889921188,0.08322793990373611,-0.07314895838499069
1701857778899918800,8.2199189453125,0.0007635590736754239,0.09422318637371063,-0.08658760040998459
1701857778909513000,8.229512939453125,-0.009009997360408306,0.10277505218982697,-0.09636115282773972
1701857778919106000,8.23910595703125,-0.02244863659143448,0.10766182839870453,-0.10369132459163666
1701857778928698600,8.24869873046875,-0.03588727489113808,0.10766182839870453,-0.111021488904953
1701857778938292000,8.2582919921875,-0.04810422286391258,0.09666658192873001,-0.11957334727048874
1701857778947886000,8.267885986328125,-0.05665608495473862,0.08078455179929733,-0.1256818175315857
1701857778957479200,8.277479248046875,-0.06032116711139679,0.06368082761764526,-0.12812520563602448
1701857778967071700,8.28707177734375,-0.0590994730591774,0.045355409383773804,-0.1244601309299469
1701857778976665000,8.2966650390625,-0.050547610968351364,0.028251685202121735,-0.11712995916604996
1701857778986259000,8.306259033203125,-0.03955236077308655,0.01725643500685692,-0.10735640674829483
1701857778995852300,8.315852294921875,-0.02489202655851841,0.012369656935334206,-0.09636115282773972
1701857779005444600,8.325444580078125,-0.011453386396169662,0.012369656935334206,-0.0853659063577652
1701857779015038000,8.335037841796876,0.001985253533348441,0.01969982497394085,-0.07070557028055191
1701857779024632000,8.344632080078124,0.016645587980747223,0.024586603045463562,-0.0584886260330677
1701857779034225200,8.35422509765625,0.02764083817601204,0.029473381116986275,-0.04871506989002228
1701857779043817700,8.363817626953125,0.038636088371276855,0.030695075169205666,-0.03894151374697685
1701857779053411000,8.3734111328125,0.05085303261876106,0.025808297097682953,-0.03161134570837021
1701857779063005200,8.383005126953124,0.0594048947095871,0.024586603045463562,-0.024281177669763565
1701857779072598300,8.392598388671875,0.06551336497068405,0.02214321307837963,-0.021837789565324783
1701857779082190800,8.40219091796875,0.07040014863014221,0.01725643500685692,-0.025502873584628105
1701857779091784200,8.4117841796875,0.0716218426823616,0.016034740954637527,-0.0328330397605896
1701857779101378300,8.42137841796875,0.07528692483901978,0.012369656935334206,-0.043828289955854416
1701857779110971400,8.430971435546875,0.07650861889123917,0.008704573847353458,-0.0584886260330677
1701857779120564000,8.44056396484375,0.08261708915233612,0.0038177953101694584,-0.07437065243721008
1701857779130157300,8.4501572265625,0.08383878320455551,-0.0022906772792339325,-0.08780929446220398
1701857779139751200,8.459751220703126,0.08139539510011673,-0.005955760832875967,-0.10002623498439789
1701857779149344500,8.469344482421874,0.07528692483901978,-0.004734066314995289,-0.11590826511383057
1701857779158936800,8.478936767578125,0.06917845457792282,-0.0035123717971146107,-0.13301199674606323
1701857779168530200,8.4885302734375,0.06917845457792282,-0.007177455350756645,-0.1501157134771347
1701857779178124300,8.498124267578126,0.0716218426823616,-0.0035123717971146107,-0.16111096739768982
1701857779187717600,8.507717529296874,0.08017370104789734,-0.0010689827613532543,-0.16111096739768982
1701857779197310000,8.51731005859375,0.08872556686401367,0.0038177953101694584,-0.15866757929325104
1701857779206903300,8.5269033203125,0.09972081333398819,0.00992626789957285,-0.15378080308437347
1701857779216497400,8.536497314453126,0.11315945535898209,0.02214321307837963,-0.14767232537269592
1701857779226090500,8.546090576171874,0.12659808993339539,0.04291202127933502,-0.1378987729549408
1701857779235683000,8.55568310546875,0.1375933438539505,0.06978929787874222,-0.1244601309299469
1701857779245276400,8.5652763671875,0.14492350816726685,0.09544488787651062,-0.11346487700939178
1701857779254870300,8.574870361328125,0.1498102843761444,0.11499200016260147,-0.111021488904953
1701857779264463600,8.584463623046876,0.1510319858789444,0.12232216447591782,-0.11468657106161118
1701857779274056200,8.59405615234375,0.15591876208782196,0.12354385852813721,-0.12201674282550812
1701857779283649500,8.6036494140625,0.1644706279039383,0.12110047042369843,-0.1256818175315857
1701857779293243400,8.613243408203125,0.1766875684261322,0.12232216447591782,-0.12812520563602448
1701857779302836700,8.622836669921876,0.1901262104511261,0.13209572434425354,-0.12934690713882446
1701857779312429000,8.632428955078124,0.20234315097332,0.15286453068256378,-0.13179029524326324
1701857779322022400,8.6420224609375,0.2170034945011139,0.17974179983139038,-0.13423368334770203
1701857779331616500,8.651616455078125,0.2304421216249466,0.2017323076725006,-0.13545538485050201
1701857779341209900,8.6612099609375,0.24021568894386292,0.2176143378019333,-0.14156384766101837
1701857779350802200,8.67080224609375,0.2438807636499405,0.23593975603580475,-0.1501157134771347
1701857779360395500,8.6803955078125,0.2426590770483017,0.254265159368515,-0.15744587779045105
1701857779369989600,8.68998974609375,0.23655059933662415,0.2677038013935089,-0.16599774360656738
1701857779379582700,8.699582763671875,0.2279987335205078,0.27381229400634766,-0.1769929975271225
1701857779389175300,8.70917529296875,0.22066856920719147,0.2835858464241028,-0.19287502765655518
1701857779398768600,8.7187685546875,0.2145601063966751,0.29946786165237427,-0.20753535628318787
1701857779408362800,8.72836279296875,0.20845162868499756,0.31290650367736816,-0.22219568490982056
1701857779417955800,8.737955810546875,0.20234315097332,0.32634514570236206,-0.23441264033317566
1701857779427548400,8.74754833984375,0.19623468816280365,0.34222719073295593,-0.23929941654205322
1701857779437141800,8.757141845703124,0.18768282234668732,0.3568875193595886,-0.23929941654205322
1701857779446736000,8.76673583984375,0.1766875684261322,0.3617742955684662,-0.23685602843761444
1701857779456329000,8.776328857421875,0.1620272397994995,0.3593308925628662,-0.2283041626214981
1701857779465921500,8.785921630859375,0.14736689627170563,0.3458922505378723,-0.2148655205965042
1701857779475515000,8.795514892578124,0.13270656764507294,0.3190149664878845,-0.20753535628318787
1701857779485108700,8.805108642578125,0.11926792562007904,0.2921377122402191,-0.20509196817874908
1701857779494702000,8.8147021484375,0.10949437320232391,0.27503398060798645,-0.19776180386543274
1701857779504294400,8.82429443359375,0.1119377613067627,0.2579302489757538,-0.18065807223320007
1701857779513887700,8.8338876953125,0.12659808993339539,0.23593975603580475,-0.16599774360656738
1701857779523481900,8.84348193359375,0.14370182156562805,0.20784078538417816,-0.17943638563156128
1701857779533075000,8.853074951171875,0.16080553829669952,0.18096350133419037,-0.20020519196987152
1701857779542667500,8.86266748046875,0.17913095653057098,0.15775130689144135,-0.2160872220993042
1701857779552260900,8.8722607421875,0.20600824058055878,0.13331741094589233,-0.21853061020374298
1701857779561855000,8.88185498046875,0.24876753985881805,0.09910997003316879,-0.20509196817874908
1701857779571448000,8.891447998046875,0.30985227227211,0.06123743951320648,-0.20753535628318787
1701857779581040600,8.90104052734375,0.3843756318092346,0.027029991149902344,-0.23196925222873688
1701857779590634000,8.910634033203126,0.46516019105911255,-0.013285927474498749,-0.2673983871936798
1701857779600228000,8.92022802734375,0.5506787896156311,-0.05238015204668045,-0.29061058163642883
1701857779609821200,8.9298212890625,0.6423059105873108,-0.08170082420110703,-0.2954973578453064
1701857779619413800,8.939413818359375,0.7559235095977783,-0.10857810080051422,-0.3187095522880554
1701857779629007000,8.949007080078125,0.874427855014801,-0.07681404054164886,-0.36513394117355347
1701857779638601000,8.95860107421875,0.948951244354248,0.028251685202121735,-0.4396573007106781
1701857779648194300,8.9681943359375,0.9880454540252686,0.1650814712047577,-0.4897467792034149
1701857779657786600,8.97778662109375,0.9953756332397461,0.3483356535434723,-0.5471664071083069
1701857779667380000,8.9873798828125,1.0198094844818115,0.6488724946975708,-0.6241331696510315
1701857779676974000,8.99697412109375,1.1407572031021118,1.0642486810684204,-0.6986565589904785
1701857779686567400,9.0065673828125,1.3117945194244385,1.5480396747589111,-0.7634063363075256
1701857779696159700,9.01615966796875,1.452289342880249,2.102689027786255,-0.8415948152542114
1701857779705753000,9.025753173828125,1.4486242532730103,2.766069173812866,-0.8611419200897217
1701857779715347200,9.03534716796875,1.3753225803375244,3.24252986907959,-0.5838172435760498
1701857779724940300,9.044940185546874,1.262926697731018,3.4208972454071045,-0.16599774360656738
1701857779734532900,9.054532958984375,1.0857809782028198,3.390355110168457,0.15530791878700256
1701857779744126200,9.064126220703125,0.9452861547470093,3.1802234649658203,0.32878854870796204
1701857779753720300,9.07372021484375,0.6862868666648865,3.0336201190948486,0.6146650314331055
1701857779763313400,9.0833134765625,0.012980503961443901,3.117917060852051,0.7453863620758057
1701857779772906000,9.092906005859374,-0.894738495349884,3.2034356594085693,0.4106420576572418
1701857779782499300,9.102499267578125,-1.7584764957427979,2.9028987884521484,-0.2539597451686859
1701857779792093200,9.11209326171875,-2.3742105960845947,2.252957344055176,-0.9136747717857361
1701857779801686500,9.1216865234375,-2.5525779724121094,1.486954927444458,-1.3913573026657104
1701857779811279000,9.131279052734374,-2.363215446472168,0.6513158679008484,-1.539182424545288
1701857779820872400,9.14087255859375,-1.8244481086730957,-0.2576248347759247,-1.478097677230835
1701857779830466300,9.15046630859375,-0.982700526714325,-0.9222266674041748,-1.310725450515747
1701857779840059600,9.1600595703125,-0.2948864996433258,-1.2215417623519897,-1.029735803604126
1701857779849652200,9.16965234375,0.05329642444849014,-1.2704095840454102,-0.5435013771057129
1701857779859245300,9.179245361328125,0.12048961967229843,-1.2924001216888428,0.20051060616970062
1701857779868839400,9.18883935546875,0.04840964451432228,-0.872137188911438,0.9860602021217346
1701857779878432800,9.198432861328126,0.13270656764507294,-0.28694549202919006,1.6825788021087646
1701857779888025000,9.208025146484376,0.3489464819431305,0.2848075330257416,1.9696769714355469
1701857779897618400,9.217618408203125,0.4688252806663513,0.7869240045547485,1.6129422187805176
1701857779907212500,9.227212646484375,0.35505497455596924,0.9274188280105591,0.9469659924507141
1701857779916805600,9.2368056640625,-0.029778804630041122,0.7588250041007996,0.5340332388877869
1701857779926398200,9.246398193359376,-0.3877353072166443,0.282364159822464,0.29946786165237427
1701857779935991600,9.255991455078124,-0.7114843726158142,-0.0328330397605896,0.22372281551361084
1701857779945585700,9.265585693359375,-0.9753703474998474,-0.1782146841287613,0.5059342384338379
1701857779955178800,9.2751787109375,-0.9203941226005554,-0.10369132459163666,1.2646065950393677
1701857779964771300,9.284771240234376,-0.6455128192901611,0.5548020005226135,1.7974181175231934
1701857779974364700,9.29436474609375,-0.42194274067878723,0.4265241026878357,1.7656539678573608
1701857779983958800,9.303958740234375,-0.5477772951126099,-0.01817270554602146,1.148545503616333
1701857779993552000,9.3135517578125,-1.0279031991958618,-0.48608171939849854,0.18462859094142914
1701857780003144400,9.32314453125,-1.4787085056304932,-1.2056597471237183,-0.7695148587226868
1701857780012737800,9.33273779296875,-1.4530528783798218,-1.6088190078735352,-1.2044380903244019
1701857780022331600,9.34233154296875,-1.2734638452529907,-1.8653748035430908,-1.0590564012527466
1701857780031925000,9.351925048828125,-1.2197092771530151,-2.1904983520507812,-0.6620057225227356
1701857780041517300,9.361517333984375,-1.2013838291168213,-2.3297715187072754,-0.3199312388896942
1701857780051110700,9.371110595703126,-0.8690829277038574,-2.3554270267486572,-0.07681404054164886
1701857780060704800,9.380704833984375,-0.38162681460380554,-2.2845687866210938,-0.0022906772792339325
1701857780070297900,9.3902978515625,-0.01511846948415041,-2.144073963165283,-0.059710320085287094
1701857780079890400,9.399890380859375,0.29030516743659973,-2.203936815261841,-0.27717193961143494
1701857780089483800,9.40948388671875,0.587329626083374,-2.4983654022216797,-0.7756233215332031
1701857780099078000,9.419077880859374,0.8487722873687744,-2.8135623931884766,-1.4170129299163818
1701857780108671000,9.4286708984375,1.0149227380752563,-2.9112980365753174,-1.972883939743042
1701857780118263600,9.438263671875,1.0808942317962646,-2.817227602005005,-2.4016988277435303
1701857780127857000,9.44785693359375,1.1603044271469116,-2.5533416271209717,-2.736443042755127
1701857780137451000,9.457450927734374,1.2849172353744507,-2.273573398590088,-2.9697866439819336
1701857780147044000,9.467044189453125,1.3789876699447632,-1.878966212272644,-3.063857078552246
1701857780156636700,9.47663671875,1.4559544324874878,-1.6430264711380005,-2.97100830078125
1701857780166230000,9.48622998046875,1.4718364477157593,-1.3913573026657104,-2.843952178955078
1701857780175824000,9.495823974609374,1.4412940740585327,-1.2545275688171387,-2.841508626937866
1701857780185417200,9.505417236328125,1.4693931341171265,-1.1201411485671997,-2.9929988384246826
1701857780195009800,9.515009765625,1.5878974199295044,-0.9491039514541626,-3.1579275131225586
1701857780204603000,9.524602783203125,1.7308356761932373,-0.8134958148002625,-3.309417724609375
1701857780214197000,9.534197021484376,1.8725522756576538,-0.7463026642799377,-3.4267003536224365
1701857780223790300,9.543790283203125,2.021599054336548,-0.6473453640937805,-3.3546204566955566
1701857780233382700,9.553382568359375,2.1596505641937256,-0.5630484819412231,-3.1310503482818604
1701857780242976000,9.56297607421875,2.2830417156219482,-0.5948125123977661,-2.9441311359405518
1701857780252570000,9.572570068359376,2.372225284576416,-0.6461237072944641,-2.8720510005950928
1701857780262163500,9.58216357421875,2.3648951053619385,-0.6583406329154968,-2.953904628753662
1701857780271755800,9.591755859375,2.2439475059509277,-0.5960342288017273,-3.110281467437744
1701857780281349000,9.60134912109375,2.071688413619995,-0.44698747992515564,-3.3766109943389893
1701857780290943200,9.610943115234376,1.8151326179504395,-0.6925480961799622,-3.518327474594116
1701857780300536300,9.620536376953124,1.5659070014953613,-0.6815528273582458,-3.506110668182373
1701857780310129000,9.63012890625,1.3264548778533936,-0.6387935280799866,-3.364393949508667
1701857780319722200,9.63972216796875,1.1822948455810547,-0.7646280527114868,-3.135937213897705
1701857780329316000,9.649316162109375,1.2983558177947998,-0.973537802696228,-2.8769378662109375
1701857780338909400,9.658909423828124,1.5976710319519043,-0.9796462655067444,-2.5324199199676514
1701857780348502000,9.668501953125,1.877439022064209,-0.8269344568252563,-2.152472972869873
1701857780358095400,9.678095458984375,2.0289292335510254,-0.8855758309364319,-1.9533368349075317
1701857780367689200,9.687689208984375,2.019155502319336,-0.8977927565574646,-1.893473744392395
1701857780377282600,9.697282470703126,1.9043163061141968,-0.8916842937469482,-1.9460066556930542
1701857780386875100,9.706875244140624,1.7858120203018188,-0.8709154725074768,-2.062067747116089
1701857780396468200,9.71646826171875,1.697849988937378,-0.8733588457107544,-2.239213228225708
1701857780406062300,9.726062255859375,1.64165198802948,-0.8574768304824829,-2.4688918590545654
1701857780415655700,9.73565576171875,1.6037794351577759,-0.8635852932929993,-2.69612717628479
1701857780425248000,9.745248046875,1.5561333894729614,-0.9087880253791809,-2.8879330158233643
1701857780434841300,9.75484130859375,1.507265567779541,-0.9210049510002136,-3.0162110328674316
1701857780444435500,9.764435546875,1.4706147909164429,-0.8929060101509094,-3.1029512882232666
1701857780454028500,9.774028564453126,1.4339638948440552,-0.8586985468864441,-3.1689229011535645
1701857780463621000,9.78362109375,1.374100923538208,-0.8134958148002625,-3.205573797225952
1701857780473214500,9.79321435546875,1.2788087129592896,-0.7585195899009705,-3.176253080368042
1701857780482808600,9.80280859375,1.161526083946228,-0.7157602906227112,-3.049196720123291
1701857780492401700,9.812401611328125,1.0479084253311157,-0.6839962005615234,-2.8341786861419678
1701857780501994200,9.821994140625,0.9391776323318481,-0.6204680800437927,-2.5812878608703613
1701857780511587600,9.831587646484374,0.8646543025970459,-0.4885250926017761,-2.325953722000122
1701857780521181400,9.841181396484375,0.8255600929260254,-0.31260108947753906,-2.076727867126465
1701857780530774800,9.85077490234375,0.7828007340431213,-0.13179029524326324,-1.8177287578582764
1701857780540367400,9.860367431640626,0.7424848675727844,0.09422318637371063,-1.547734260559082
1701857780549960400,9.86996044921875,0.7510367035865784,0.3898732662200928,-1.28018319606781
1701857780559554600,9.879554443359375,0.8328902125358582,0.7881456613540649,-1.0724951028823853
1701857780569148000,9.88914794921875,0.8915315866470337,1.1803096532821655,-0.9637642502784729
1701857780578740200,9.898740234375,0.9501729011535645,1.2768235206604004,-0.8379297256469727
1701857780588333600,9.90833349609375,1.0418000221252441,1.268271565437317,-0.6473453640937805
1701857780597927700,9.917927734375,1.146865725517273,1.370893955230713,-0.42011019587516785
1701857780607520800,9.927520751953125,1.1945117712020874,1.4515258073806763,-0.18065807223320007
1701857780617113300,9.93711328125,1.1688562631607056,1.398992896080017,0.07711946964263916
1701857780626706700,9.946706787109376,1.1175450086593628,1.186418056488037,0.3568875193595886
1701857780636300800,9.95630078125,1.0894460678100586,1.0373713970184326,0.598783016204834
1701857780645894000,9.965893798828125,1.073564052581787,0.8565605878829956,0.7869240045547485
1701857780655486500,9.975486572265625,1.067455530166626,0.6757497787475586,0.9066500663757324
1701857780665079600,9.98507958984375,1.036913275718689,0.6158867478370667,0.9665130972862244
1701857780674673700,9.994673583984374,0.957503080368042,0.6171084642410278,0.9958337545394897
1701857780684267000,10.00426708984375,0.8365553021430969,0.6171084642410278,1.0214893817901611
1701857780693859300,10.013859375,0.7094991207122803,0.5829010009765625,1.0813523530960083
1701857780703452700,10.02345263671875,0.5995466113090515,0.5877877473831177,1.194969892501831
1701857780713046800,10.033046875,0.5164713859558105,0.5938962697982788,1.3745590448379517
1701857780722640100,10.04264013671875,0.4749337434768677,0.5926745533943176,1.5736953020095825
1701857780732232400,10.052232421875,0.4749337434768677,0.5841227173805237,1.7363333702087402
1701857780741825800,10.06182568359375,0.509141206741333,0.5548020005226135,1.8194085359573364
1701857780751420000,10.071419921875,0.5494571328163147,0.4631749391555786,1.7790926694869995
1701857780761013000,10.081012939453124,0.5433486104011536,0.39231663942337036,1.5810253620147705
1701857780770605600,10.09060546875,0.4187358021736145,0.2408265322446823,1.1986349821090698
1701857780780199000,10.100198974609375,0.18157434463500977,0.05268557742238045,0.6415423154830933
1701857780789793000,10.10979296875,-0.04810422286391258,-0.10124793648719788,-0.0010689827613532543
1701857780799386000,10.11938623046875,-0.14706148207187653,-0.2576248347759247,-0.5728220343589783
1701857780808978700,10.128978759765625,-0.1238492801785469,-0.3981196880340576,-0.9429954290390015
1701857780818572000,10.138572021484375,-0.10674555599689484,-0.49952033162117004,-1.0871554613113403
1701857780828166000,10.148165771484376,-0.164165198802948,-0.5654918551445007,-1.1103676557540894
1701857780837759200,10.15775927734375,-0.20814619958400726,-0.6265766024589539,-1.0798252820968628
1701857780847351800,10.167351806640625,-0.33886751532554626,-0.5996993184089661,-1.0321791172027588
1701857780856945000,10.17694482421875,-0.5502206683158875,-0.5838172435760498,-1.0187405347824097
1701857780866539000,10.1865390625,-0.742026686668396,-0.5948125123977661,-0.9943066239356995
1701857780876132000,10.196132080078126,-0.8703046441078186,-0.6045860648155212,-0.9454388618469238
1701857780885724700,10.205724609375,-0.9655967950820923,-0.6070294380187988,-0.8733588457107544
1701857780895318000,10.215318115234375,-1.057223916053772,-0.5667135715484619,-0.8086090683937073
1701857780904912100,10.224912109375,-1.1329689025878906,-0.5435013771057129,-0.7511894106864929
1701857780914505200,10.234505126953126,-1.1720632314682007,-0.4799732267856598,-0.6852179169654846
1701857780924097800,10.244097900390624,-1.1659547090530396,-0.429883748292923,-0.5716003179550171
1701857780933691000,10.25369091796875,-1.1366339921951294,-0.41766682267189026,-0.4152234196662903
1701857780943285000,10.263284912109375,-1.1012048721313477,-0.4262186884880066,-0.266176700592041
1701857780952878300,10.27287841796875,-1.0498937368392944,-0.4237752854824066,-0.1501157134771347
1701857780962471000,10.282470947265624,-0.9802571535110474,-0.429883748292923,-0.07437065243721008
1701857780972064300,10.292064208984375,-0.9326110482215881,-0.44332239031791687,-0.060932014137506485
1701857780981658000,10.301658203125,-0.894738495349884,-0.4237752854824066,-0.05604523420333862
1701857780991251500,10.31125146484375,-0.8556442856788635,-0.3736858069896698,-0.025502873584628105
1701857781000843800,10.32084375,-0.8141067028045654,-0.3345915973186493,0.028251685202121735
1701857781010437000,10.33043701171875,-0.7664605975151062,-0.32970482110977173,0.08689302206039429
1701857781020031200,10.34003125,-0.7053758502006531,-0.35169529914855957,0.14309096336364746
1701857781029624300,10.349624267578125,-0.6503996253013611,-0.3602471649646759,0.1895153671503067
1701857781039217000,10.359216796875,-0.6051968932151794,-0.35413870215415955,0.21883602440357208
1701857781048810200,10.368810302734374,-0.5709894895553589,-0.3211529552936554,0.21883602440357208
1701857781058404400,10.378404296875,-0.529451847076416,-0.31504446268081665,0.20539739727973938
1701857781067997400,10.38799755859375,-0.4671454429626465,-0.3248180150985718,0.1907370537519455
1701857781077590000,10.397590087890626,-0.41949936747550964,-0.36635565757751465,0.15530791878700256
1701857781087183000,10.40718310546875,-0.38162681460380554,-0.39445462822914124,0.06368082761764526
1701857781096777200,10.416777099609375,-0.3571929335594177,-0.3834593594074249,-0.030389651656150818
1701857781106370600,10.42637060546875,-0.3596363365650177,-0.34314343333244324,-0.07437065243721008
1701857781115963000,10.435962890625,-0.3730749487876892,-0.30404922366142273,-0.05482354015111923
1701857781125556200,10.44555615234375,-0.3828485310077667,-0.2698417901992798,0.00992626789957285
1701857781135150300,10.455150390625,-0.3718532621860504,-0.2539597451686859,0.08689302206039429
1701857781144743700,10.46474365234375,-0.3608580231666565,-0.26495498418807983,0.14186927676200867
1701857781154336000,10.4743359375,-0.32665055990219116,-0.27472856640815735,0.1638597846031189
1701857781163929300,10.483929443359376,-0.27411770820617676,-0.2796153426170349,0.149199441075325
1701857781173523500,10.4935234375,-0.21791976690292358,-0.2808370292186737,0.08689302206039429
1701857781183116500,10.503116455078125,-0.18615570664405823,-0.2845021188259125,-0.005955760832875967
1701857781192709000,10.512709228515625,-0.17027367651462555,-0.2576248347759247,-0.08903098851442337
1701857781202302200,10.52230224609375,-0.17149536311626434,-0.2148655205965042,-0.12690351903438568
1701857781211896300,10.531896240234374,-0.18126893043518066,-0.16111096739768982,-0.10491301864385605
1701857781221489700,10.54148974609375,-0.188599094748497,-0.09513945877552032,-0.025502873584628105
1701857781231082000,10.55108203125,-0.1898207813501358,-0.03771981969475746,0.07589777559041977
1701857781240675300,10.56067529296875,-0.2032594233751297,-0.008399149402976036,0.16996824741363525
1701857781250269400,10.57026953125,-0.19715094566345215,0.00015271181473508477,0.22494450211524963
1701857781259862800,10.57986279296875,-0.18371231853961945,0.006261184345930815,0.22616620361804962
1701857781269455000,10.589455078125,-0.1776038408279419,0.0038177953101694584,0.16874656081199646
1701857781279048400,10.59904833984375,-0.18493400514125824,-0.0022906772792339325,0.06245913356542587
1701857781288642600,10.608642578125,-0.188599094748497,0.01725643500685692,-0.042606595903635025
1701857781298235600,10.618235595703124,-0.18493400514125824,0.05024218559265137,-0.10613471269607544
1701857781307828200,10.627828125,-0.17271706461906433,0.08933641016483307,-0.13423368334770203
1701857781317421600,10.637421630859375,-0.14828316867351532,0.11865708231925964,-0.13423368334770203
1701857781327015400,10.647015380859376,-0.11651911586523056,0.12720894813537598,-0.11835165321826935
1701857781336608800,10.65660888671875,-0.07620319724082947,0.16874656081199646,-0.10369132459163666
1701857781346201000,10.666201171875,-0.02489202655851841,0.19195875525474548,-0.10735640674829483
1701857781355794400,10.67579443359375,0.001985253533348441,0.15530791878700256,-0.11346487700939178
1701857781365388500,10.685388427734376,0.009315420873463154,0.1247655525803566,-0.10491301864385605
1701857781374981600,10.694981689453124,0.017867282032966614,0.10644013434648514,-0.09147437661886215
1701857781384574200,10.70457421875,0.04230117425322533,0.09910997003316879,-0.07925742864608765
1701857781394167600,10.71416748046875,0.06551336497068405,0.09055810421705246,-0.07681404054164886
1701857781403761700,10.72376171875,0.06551336497068405,0.0856713280081749,-0.07437065243721008
1701857781413354800,10.733354736328126,0.04718795046210289,0.08078455179929733,-0.07070557028055191
1701857781422947300,10.742947265625,0.022754060104489326,0.06856760382652283,-0.062153708189725876
1701857781432540700,10.752540771484375,0.01175880990922451,0.049020491540431976,-0.04504998400807381
1701857781442134500,10.762134521484375,0.019088976085186005,0.028251685202121735,-0.01817270554602146
1701857781451728000,10.771727783203126,0.0325276181101799,0.007482878863811493,0.0038177953101694584
1701857781461320200,10.7813203125,0.04107947647571564,-0.013285927474498749,0.012369656935334206
1701857781470913500,10.79091357421875,0.038636088371276855,-0.03161134570837021,0.008704573847353458
1701857781480507600,10.800507568359375,0.02886253222823143,-0.043828289955854416,-0.005955760832875967
1701857781490100700,10.810100830078126,0.019088976085186005,-0.05360184609889984,-0.01817270554602146
1701857781499693300,10.819693359375,0.004428642801940441,-0.06704048812389374,-0.024281177669763565
1701857781509286700,10.82928662109375,-0.011453386396169662,-0.07925742864608765,-0.01817270554602146
1701857781518880800,10.838880859375,-0.0261137206107378,-0.09269607067108154,-0.014507622458040714
1701857781528473900,10.848473876953125,-0.03588727489113808,-0.10124793648719788,-0.01572931744158268
1701857781538066400,10.85806640625,-0.04688252881169319,-0.11346487700939178,-0.01817270554602146
1701857781547659500,10.867659423828124,-0.06032116711139679,-0.12201674282550812,-0.023059483617544174
1701857781557253600,10.877253662109375,-0.0713164210319519,-0.12690351903438568,-0.025502873584628105
1701857781566847000,10.886846923828125,-0.08353336155414581,-0.12934690713882446,-0.025502873584628105
1701857781576439300,10.896439208984376,-0.08719844371080399,-0.12690351903438568,-0.01695101149380207
1701857781586032600,10.90603271484375,-0.0847550556063652,-0.13056860864162445,0.00015271181473508477
1701857781595626800,10.915626708984375,-0.08231166750192642,-0.13056860864162445,0.028251685202121735
1701857781605219800,10.9252197265625,-0.08231166750192642,-0.12934690713882446,0.06978929787874222
1701857781614812400,10.9348125,-0.08353336155414581,-0.13301199674606323,0.11254860460758209
1701857781624405800,10.94440576171875,-0.08964183181524277,-0.13423368334770203,0.14553436636924744
1701857781634000000,10.953999755859375,-0.10063708573579788,-0.1378987729549408,0.17118994891643524
1701857781643593000,10.963593017578125,-0.12262758612632751,-0.1391204595565796,0.18340688943862915
1701857781653185500,10.973185546875,-0.14583978056907654,-0.13423368334770203,0.1907370537519455
1701857781662779000,10.98277880859375,-0.1629435122013092,-0.1244601309299469,0.19195875525474548
1701857781672372700,10.992372802734375,-0.16905197501182556,-0.11835165321826935,0.19440214335918427
1701857781681966000,11.001966064453125,-0.18126893043518066,-0.1122431829571724,0.1882936656475067
1701857781691558400,11.011558349609375,-0.1910424828529358,-0.10002623498439789,0.18096350133419037
1701857781701151700,11.02115185546875,-0.19592925906181335,-0.08047912269830704,0.18218518793582916
1701857781710745900,11.030745849609374,-0.19959434866905212,-0.06459710001945496,0.1907370537519455
1701857781720339000,11.0403388671875,-0.19837264716625214,-0.05482354015111923,0.2017323076725006
1701857781729931500,11.049931640625,-0.18249061703681946,-0.026724567636847496,0.22372281551361084
1701857781739524900,11.05952490234375,-0.15805672109127045,-0.025502873584628105,0.24815669655799866
1701857781749119000,11.069118896484374,-0.14095300436019897,-0.041384901851415634,0.26281702518463135
1701857781758712000,11.078712158203125,-0.11774080991744995,-0.03527642786502838,0.2701472043991089
1701857781768304600,11.0883046875,-0.09575030952692032,-0.03527642786502838,0.2701472043991089
1701857781777897700,11.097897705078125,-0.0847550556063652,-0.041384901851415634,0.26037365198135376
1701857781787491800,11.107491943359374,-0.08719844371080399,-0.059710320085287094,0.22738789021968842
1701857781797085200,11.117085205078125,-0.08108997344970703,-0.0584886260330677,0.19318044185638428
1701857781806677500,11.126677490234375,-0.04688252881169319,-0.04993676394224167,0.17363333702087402
1701857781816270800,11.136270751953125,-0.01511846948415041,-0.05115845799446106,0.1650814712047577
1701857781825865000,11.145864990234376,0.0032069480512291193,-0.0462716780602932,0.16141638159751892
1701857781835458000,11.1554580078125,0.023975754156708717,-0.020616095513105392,0.16630317270755768
1701857781845050600,11.165050537109375,0.04840964451432228,0.008704573847353458,0.1907370537519455
1701857781854644000,11.17464404296875,0.08872556686401367,0.04046862944960594,0.23838314414024353
1701857781864237800,11.18423779296875,0.1388150453567505,0.06123743951320648,0.2958027720451355
1701857781873831200,11.1938310546875,0.18768282234668732,0.06734590977430344,0.33856210112571716
1701857781883423500,11.203423583984375,0.2292204350233078,0.07345438003540039,0.38009971380233765
1701857781893016800,11.213016845703125,0.25976279377937317,0.08200624585151672,0.42041563987731934
1701857781902611000,11.22261083984375,0.284196674823761,0.09422318637371063,0.45828816294670105
1701857781912204300,11.232204345703124,0.28908345103263855,0.0856713280081749,0.4802786707878113
1701857781921796600,11.241796630859374,0.27686652541160583,0.05635065957903862,0.4815003573894501
1701857781931390000,11.251389892578125,0.24876753985881805,0.024586603045463562,0.45950984954833984
1701857781940984000,11.260984130859375,0.21944688260555267,0.016034740954637527,0.4228590130805969
1701857781950577200,11.2705771484375,0.21211670339107513,0.01725643500685692,0.388651579618454
1701857781960169700,11.280169677734374,0.2414373755455017,0.00992626789957285,0.3727695345878601
1701857781969762800,11.2897626953125,0.27686652541160583,-0.013285927474498749,0.36788275837898254
1701857781979357000,11.29935693359375,0.3184041380882263,-0.023059483617544174,0.3752129375934601
1701857781988950300,11.3089501953125,0.3452814221382141,-0.05115845799446106,0.39231663942337036
1701857781998542800,11.31854296875,0.32939937710762024,-0.0853659063577652,0.411863774061203
1701857782008136000,11.328135986328125,0.27320143580436707,-0.0988045409321785,0.4143071472644806
1701857782017730000,11.33772998046875,0.17424418032169342,-0.10491301864385605,0.39109495282173157
1701857782027323100,11.3473232421875,0.06184828653931618,-0.0975828468799591,0.3348970115184784
1701857782036915700,11.356915771484376,-0.06276455521583557,-0.09025268256664276,0.23838314414024353
1701857782046509000,11.366509033203124,-0.1519482582807541,-0.09636115282773972,0.11743538826704025
1701857782056103200,11.376103271484375,-0.1385096162557602,-0.1122431829571724,0.023364907130599022
1701857782065696300,11.3856962890625,-0.051769305020570755,-0.12079504877328873,-0.025502873584628105
1701857782075288800,11.395288818359376,0.05085303261876106,-0.13056860864162445,-0.03527642786502838
1701857782084882200,11.404882080078124,0.12659808993339539,-0.1525591015815735,-0.01817270554602146
1701857782094476000,11.41447607421875,0.16691401600837708,-0.1525591015815735,0.013591351918876171
1701857782104069400,11.4240693359375,0.18768282234668732,-0.14522893726825714,0.047798797488212585
1701857782113661700,11.43366162109375,0.1913478970527649,-0.13423368334770203,0.06490252166986465
1701857782123255000,11.443255126953124,0.21333840489387512,-0.11468657106161118,0.09300149232149124
1701857782132849200,11.45284912109375,0.23532891273498535,-0.12201674282550812,0.12965233623981476
1701857782142442200,11.462442138671875,0.23288552463054657,-0.12812520563602448,0.14675605297088623
1701857782152034800,11.472034912109375,0.20967331528663635,-0.1244601309299469,0.13576079905033112
1701857782161628200,11.481628173828126,0.19623468816280365,-0.1122431829571724,0.10888352245092392
1701857782171222300,11.49122216796875,0.17913095653057098,-0.11712995916604996,0.08689302206039429
1701857782180815400,11.5008154296875,0.1363716572523117,-0.12812520563602448,0.0587940476834774
1701857782190408000,11.510407958984375,0.0984991192817688,-0.1378987729549408,0.03802524134516716
1701857782200001000,11.5200009765625,0.10582929104566574,-0.1501157134771347,0.046577103435993195
1701857782209595100,11.52959521484375,0.1522536724805832,-0.10491301864385605,0.07345438003540039
1701857782219188500,11.5391884765625,0.18035265803337097,-0.10735640674829483,0.11010521650314331
1701857782228780800,11.54878076171875,0.18523943424224854,-0.18432316184043884,0.1369825005531311
1701857782238374100,11.5583740234375,0.2414373755455017,-0.19409671425819397,0.13209572434425354
1701857782247968300,11.56796826171875,0.2670929729938507,-0.2026485800743103,0.10766182839870453
1701857782257561600,11.5775615234375,0.2585411071777344,-0.18432316184043884,0.08689302206039429
1701857782267154000,11.58715380859375,0.24876753985881805,-0.14034216105937958,0.08933641016483307
1701857782276747300,11.596747314453125,0.22066856920719147,-0.11468657106161118,0.08811471611261368
1701857782286341400,11.60634130859375,0.18035265803337097,-0.111021488904953,0.07345438003540039
1701857782295934500,11.6159345703125,0.13270656764507294,-0.08780929446220398,0.04169032722711563
1701857782305527000,11.625527099609375,0.06184828653931618,-0.05604523420333862,-0.007177455350756645
1701857782315120400,11.635120361328125,-0.01511846948415041,-0.04749337583780289,-0.059710320085287094
1701857782324714200,11.64471435546875,-0.06520794332027435,-0.04993676394224167,-0.10735640674829483
1701857782334307600,11.6543076171875,-0.10918894410133362,-0.0584886260330677,-0.15378080308437347
1701857782343900000,11.66389990234375,-0.13362284004688263,-0.05482354015111923,-0.1769929975271225
1701857782353493200,11.6734931640625,-0.15316994488239288,-0.04749337583780289,-0.1782146841287613
1701857782363087400,11.68308740234375,-0.17027367651462555,-0.03649812191724777,-0.17454960942268372
1701857782372680400,11.692680419921874,-0.19348587095737457,-0.03649812191724777,-0.1757712960243225
1701857782382273000,11.70227294921875,-0.22280654311180115,-0.03894151374697685,-0.1892099380493164
1701857782391866400,11.711866455078125,-0.24601873755455017,-0.05238015204668045,-0.2148655205965042
1701857782401460500,11.72146044921875,-0.2692309319972992,-0.08047912269830704,-0.2527380585670471
1701857782411053600,11.731053466796874,-0.2912214398384094,-0.10369132459163666,-0.30160582065582275
1701857782420646100,11.740646240234375,-0.2985515892505646,-0.09636115282773972,-0.3370349705219269
1701857782430239200,11.7502392578125,-0.2948864996433258,-0.09391776472330093,-0.35291701555252075
1701857782439833300,11.759833251953125,-0.2814478874206543,-0.0853659063577652,-0.34070006012916565
1701857782449426700,11.7694267578125,-0.2655658423900604,-0.07559234648942947,-0.3101576864719391
1701857782459019000,11.77901904296875,-0.24479703605175018,-0.059710320085287094,-0.26495498418807983
1701857782468612400,11.7886123046875,-0.2154763638973236,-0.07681404054164886,-0.2429644912481308
1701857782478206500,11.79820654296875,-0.1910424828529358,-0.0841442123055458,-0.24540787935256958
1701857782487799600,11.807799560546876,-0.1763821393251419,-0.09391776472330093,-0.2686200737953186
1701857782497392000,11.81739208984375,-0.18004722893238068,-0.13179029524326324,-0.323596328496933
1701857782506985200,11.826985107421875,-0.18371231853961945,-0.08170082420110703,-0.35536038875579834
1701857782516579300,11.836579345703125,-0.16660858690738678,-0.0010689827613532543,-0.3248180150985718
1701857782526172700,11.846172607421876,-0.14461809396743774,0.05635065957903862,-0.24907296895980835
1701857782535765000,11.855764892578126,-0.1238492801785469,0.07101099193096161,-0.1623326539993286
1701857782545358300,11.8653583984375,-0.10552386194467545,0.02214321307837963,-0.12812520563602448
1701857782554952400,11.874952392578125,-0.09941539168357849,0.03436015918850899,-0.10613471269607544
1701857782564545500,11.884545654296875,-0.09330692142248154,0.049020491540431976,-0.08658760040998459
1701857782574138000,11.89413818359375,-0.09330692142248154,0.051463883370161057,-0.07314895838499069
1701857782583731500,11.9037314453125,-0.09941539168357849,0.045355409383773804,-0.07314895838499069
