time,seconds_elapsed,z,y,x
1701864963884271400,0.158271240234375,-1.2927055358886719,-2.120556354522705,0.14904673397541046
1701864963893864000,0.167864013671875,-1.3012573719024658,-2.0985658168792725,0.062306419014930725
1701864963903457300,0.177457275390625,-1.1045645475387573,-1.862778663635254,-0.2029540091753006
1701864963913049900,0.1870498046875,-0.8553388714790344,-1.1039537191390991,-0.4656183123588562
1701864963922641700,0.1966416015625,-0.6281036734580994,-0.4674508571624756,-0.5462501645088196
1701864963932234200,0.206234130859375,-0.43736663460731506,-0.27197974920272827,-0.5975613594055176
1701864963941827600,0.21582763671875,-0.32374903559684753,-0.543195903301239,-0.6464291214942932
1701864963951420200,0.225420166015625,-0.284654825925827,-1.0330954790115356,-0.5816792845726013
1701864963961011700,0.23501171875,-0.31886225938796997,-1.3544011116027832,-0.4106420576572418
1701864963970604500,0.2446044921875,-0.3115321099758148,-1.5805672407150269,-0.19684553146362305
1701864963980198000,0.254197998046875,-0.12339114397764206,-1.862778663635254,0.04886778071522713
1701864963989790500,0.26379052734375,0.03298575058579445,-2.10589599609375,0.3115321099758148
1701864963999382000,0.273382080078125,0.05375456064939499,-2.273267984390259,0.5412106513977051
1701864964008974600,0.282974609375,-0.01954711228609085,-2.3648951053619385,0.7232431769371033
1701864964018568000,0.29256787109375,-0.13316470384597778,-2.395437479019165,0.8661814332008362
1701864964028160500,0.302160400390625,-0.2480039894580841,-2.3392395973205566,0.9553651213645935
1701864964037752300,0.31175244140625,-0.3542914092540741,-2.1743109226226807,0.9663603901863098
1701864964047345000,0.321344970703125,-0.4422534108161926,-1.8933210372924805,0.864959716796875
1701864964056938200,0.330938232421875,-0.4703523814678192,-1.538877010345459,0.6597150564193726
1701864964066530800,0.34053076171875,-0.39949411153793335,-1.1723686456680298,0.41048935055732727
1701864964076122600,0.35012255859375,-0.25533416867256165,-0.807081937789917,0.1710372269153595
1701864964085715200,0.359715087890625,-0.1050657257437706,-0.4149180054664612,-0.0331384651362896
1701864964095308500,0.36930859375,0.01588202826678753,0.021226942539215088,-0.20539739727973938
1701864964104901000,0.378901123046875,0.10140064358711243,0.3242071866989136,-0.3336753249168396
1701864964114493000,0.388492919921875,0.1185043677687645,0.3865135908126831,-0.4008685052394867
1701864964124085500,0.39808544921875,0.06352811306715012,0.2667875289916992,-0.4240806996822357
1701864964133678800,0.407678955078125,0.021990500390529633,0.009009997360408306,-0.411863774061203
1701864964143271400,0.417271484375,0.042759306728839874,-0.35138988494873047,-0.36666107177734375
1701864964152863000,0.426863037109375,0.07452336698770523,-0.7411104440689087,-0.30313295125961304
1701864964162455800,0.436455810546875,0.0916270911693573,-0.9927794933319092,-0.23716144263744354
1701864964172049200,0.446049072265625,0.11117420345544815,-1.034317135810852,-0.1785201132297516
1701864964181641700,0.455641845703125,0.12094775587320328,-0.9426900148391724,-0.13453911244869232
1701864964191233300,0.4652333984375,0.12216944992542267,-0.8657232522964478,-0.11377029865980148
1701864964200826000,0.474826171875,0.1172826737165451,-0.8510629534721375,-0.1113269105553627
1701864964210419500,0.48441943359375,0.09284878522157669,-0.8559496998786926,-0.11621369421482086
1701864964220011800,0.49401171875,0.06352811306715012,-0.8645015954971313,-0.11865708231925964
1701864964229603600,0.503603515625,0.03665083646774292,-0.904817521572113,-0.1247655525803566
1701864964239196200,0.513196044921875,0.028098974376916885,-0.9854493141174316,-0.13209572434425354
1701864964248789500,0.52278955078125,0.04031591862440109,-1.0636377334594727,-0.1382041871547699
1701864964258382000,0.532382080078125,0.06352811306715012,-1.1271659135818481,-0.13331741094589233
1701864964267974000,0.541973876953125,0.10384403169155121,-1.1564866304397583,-0.11254860460758209
1701864964277566500,0.55156640625,0.1698155403137207,-1.1283875703811646,-0.072232685983181
1701864964287159800,0.561159912109375,0.258999228477478,-1.0477557182312012,-0.02092151902616024
1701864964296752400,0.57075244140625,0.3530697226524353,-0.9219212532043457,0.030542362481355667
1701864964306344200,0.58034423828125,0.43981003761291504,-0.7728744745254517,0.0659715011715889
1701864964315936800,0.589936767578125,0.5167768001556396,-0.6519267559051514,0.062306419014930725
1701864964325530000,0.599530029296875,0.5656445622444153,-0.6042806506156921,0.009620844386518002
1701864964335122700,0.609122802734375,0.5961869359016418,-0.6922426819801331,-0.06001574173569679
1701864964344714500,0.618714599609375,0.629172682762146,-0.8156337738037109,-0.10888352245092392
1701864964354307000,0.62830712890625,0.6462764143943787,-0.8400676846504211,-0.1369825005531311
1701864964363900400,0.637900390625,0.6413896083831787,-0.7459971904754639,-0.15652960538864136
1701864964373493000,0.647492919921875,0.6193991303443909,-0.594507098197937,-0.16752485930919647
1701864964383084500,0.65708447265625,0.5864133834838867,-0.42224815487861633,-0.16019469499588013
1701864964392677400,0.666677490234375,0.5558710098266602,-0.26342788338661194,-0.13453911244869232
1701864964402270500,0.6762705078125,0.5424323678016663,-0.13392825424671173,-0.08933641016483307
1701864964411863000,0.685863037109375,0.5436540842056274,-0.039857782423496246,-0.03802524134516716
1701864964421454800,0.695454833984375,0.5558710098266602,0.02367033064365387,0.013285927474498749
1701864964431047400,0.70504736328125,0.5644228458404541,0.07742489129304886,0.06352811306715012
1701864964440640800,0.714640869140625,0.5632011890411377,0.11774080991744995,0.11117420345544815
1701864964450233300,0.7242333984375,0.5522059202194214,0.14461809396743774,0.14904673397541046
1701864964459825200,0.7338251953125,0.53143709897995,0.16905197501182556,0.17225892841815948
1701864964469417700,0.743417724609375,0.5094466209411621,0.2020377367734909,0.1820324808359146
1701864964479011000,0.753010986328125,0.48989951610565186,0.2545706033706665,0.1698155403137207
1701864964488603600,0.762603759765625,0.47890424728393555,0.3571929335594177,0.13682979345321655
1701864964498195500,0.772195556640625,0.4850127100944519,0.529451847076416,0.09773556143045425
1701864964507788000,0.7817880859375,0.5241069197654724,0.7249229550361633,0.10750912129878998
1701864964517381400,0.79138134765625,0.5717530250549316,0.6723901033401489,0.0781884491443634
1701864964526974000,0.800973876953125,0.6035171151161194,0.6467345356941223,0.0390942245721817
1701864964536565800,0.810565673828125,0.5998520255088806,0.6784985661506653,0.0035123717971146107
1701864964546158300,0.820158447265625,0.5913001298904419,0.6540647149085999,-0.0331384651362896
1701864964555751700,0.829751708984375,0.5876350402832031,0.5844281315803528,-0.06978929787874222
1701864964565344000,0.839343994140625,0.5790832042694092,0.5001311898231506,-0.10277505218982697
1701864964574935800,0.848935791015625,0.5570927262306213,0.40483900904655457,-0.12354385852813721
1701864964584528400,0.8585283203125,0.522885262966156,0.31321191787719727,-0.12965233623981476
1701864964594121700,0.868121826171875,0.47890424728393555,0.24846212565898895,-0.12843063473701477
1701864964603714300,0.87771435546875,0.43614494800567627,0.21303297579288483,-0.11865708231925964
1701864964613306000,0.88730615234375,0.39949411153793335,0.18493400514125824,-0.10521844029426575
1701864964622898700,0.896898681640625,0.367730051279068,0.1629435122013092,-0.09666658192873001
1701864964632492000,0.906491943359375,0.33474430441856384,0.14217470586299896,-0.10033166408538818
1701864964642084600,0.916084716796875,0.3017585575580597,0.12018419802188873,-0.11377029865980148
1701864964651676400,0.925676513671875,0.2748812735080719,0.11285403370857239,-0.13453911244869232
1701864964661269000,0.93526904296875,0.2736595869064331,0.12873606383800507,-0.150421142578125
1701864964670862300,0.9448623046875,0.2919849753379822,0.16905197501182556,-0.15652960538864136
1701864964680455000,0.954454833984375,0.3115321099758148,0.23380178213119507,-0.150421142578125
1701864964690046700,0.964046630859375,0.3286358118057251,0.30099499225616455,-0.12965233623981476
1701864964699639300,0.973639404296875,0.33718767762184143,0.3584146201610565,-0.10033166408538818
1701864964709232600,0.983232666015625,0.3384093940258026,0.39140036702156067,-0.06734590977430344
1701864964718825200,0.9928251953125,0.33230090141296387,0.3962871730327606,-0.03924693539738655
1701864964728416800,1.002416748046875,0.32374903559684753,0.3718532621860504,-0.01847812905907631
1701864964738009300,1.01200927734375,0.30908870697021484,0.32909396290779114,-0.006261184345930815
1701864964747602700,1.021602783203125,0.2907632887363434,0.2924431264400482,0.005955760832875967
1701864964757195300,1.0311953125,0.28343313932418823,0.26190075278282166,0.023212196305394173
1701864964766787000,1.040787109375,0.2980934679508209,0.22280654311180115,0.04886778071522713
1701864964776379600,1.050379638671875,0.3164188861846924,0.16905197501182556,0.08429691940546036
1701864964785973000,1.059972900390625,0.31886225938796997,0.13484452664852142,0.12705622613430023
1701864964795565600,1.069565673828125,0.3005368411540985,0.12873606383800507,0.16859383881092072
1701864964805157400,1.079157470703125,0.27854636311531067,0.12018419802188873,0.2089097648859024
1701864964814750000,1.08875,0.261442631483078,0.10674555599689484,0.23823043704032898
1701864964824343300,1.09834326171875,0.2492256760597229,0.10430216789245605,0.25289076566696167
1701864964833936000,1.107935791015625,0.24678228795528412,0.10552386194467545,0.25289076566696167
1701864964843527700,1.117527587890625,0.25289076566696167,0.09330692142248154,0.24189551174640656
1701864964853120300,1.127120361328125,0.2651077210903168,0.07498150318861008,0.22479179501533508
1701864964862713600,1.136713623046875,0.26755109429359436,0.05421269312500954,0.2101314514875412
1701864964872306200,1.14630615234375,0.258999228477478,0.028557108715176582,0.20157960057258606
1701864964881897700,1.155897705078125,0.24556060135364532,0.010231691412627697,0.19913621246814728
1701864964891490300,1.165490234375,0.2345653474330902,0.018783552572131157,0.20402298867702484
1701864964901083600,1.175083740234375,0.22967857122421265,0.05787777900695801,0.2113531529903412
1701864964910676200,1.18467626953125,0.22967857122421265,0.1104106456041336,0.21623992919921875
1701864964920268000,1.19426806640625,0.23212195932865143,0.1507265567779541,0.2089097648859024
1701864964929860600,1.203860595703125,0.22967857122421265,0.17393875122070312,0.18569757044315338
1701864964939454000,1.213453857421875,0.2235700935125351,0.19226416945457458,0.14660334587097168
1701864964949046500,1.223046630859375,0.21623992919921875,0.2044811248779297,0.0916270911693573
1701864964958638300,1.232638427734375,0.21746163070201874,0.20692451298236847,0.03298575058579445
1701864964968231000,1.24223095703125,0.22601348161697388,0.21181128919124603,-0.02214321307837963
1701864964977824300,1.25182421875,0.24189551174640656,0.2313583940267563,-0.06734590977430344
1701864964987416800,1.261416748046875,0.2626643180847168,0.2411319613456726,-0.09055810421705246
1701864964997008600,1.271008544921875,0.27976804971694946,0.23502348363399506,-0.09055810421705246
1701864965006601200,1.280601318359375,0.2883199155330658,0.2313583940267563,-0.06856760382652283
1701864965016194600,1.290194580078125,0.284654825925827,0.2289150059223175,-0.027029991149902344
1701864965025787100,1.299787109375,0.2748812735080719,0.21425467729568481,0.028098974376916885
1701864965035378700,1.309378662109375,0.25411245226860046,0.18371231853961945,0.08796200156211853
1701864965044971500,1.318971435546875,0.2211267054080963,0.15316994488239288,0.15026842057704926
1701864965054564900,1.32856494140625,0.19058434665203094,0.1385096162557602,0.20524467527866364
1701864965064157200,1.3381572265625,0.18569757044315338,0.13117945194244385,0.24189551174640656
1701864965073749000,1.3477490234375,0.20280128717422485,0.11285403370857239,0.25289076566696167
1701864965083341600,1.357341552734375,0.22723518311977386,0.09575030952692032,0.2357870489358902
1701864965092935000,1.366934814453125,0.24433889985084534,0.0847550556063652,0.20035789906978607
1701864965102527500,1.376527587890625,0.25411245226860046,0.07620319724082947,0.16004198789596558
1701864965112119300,1.386119384765625,0.2626643180847168,0.06276455521583557,0.12705622613430023
1701864965121711900,1.3957119140625,0.2761029601097107,0.051769305020570755,0.10995250940322876
1701864965131305200,1.40530517578125,0.2919849753379822,0.05543438717722893,0.10995250940322876
1701864965140897800,1.414897705078125,0.3115321099758148,0.09208522737026215,0.12461283802986145
1701864965150489600,1.424489501953125,0.33352261781692505,0.1507265567779541,0.1453816443681717
1701864965160082200,1.434082275390625,0.35795649886131287,0.20692451298236847,0.16126367449760437
1701864965169675500,1.443675537109375,0.3811686933040619,0.24479703605175018,0.16492876410484314
1701864965179268000,1.45326806640625,0.40071579813957214,0.25212720036506653,0.15271180868148804
1701864965188859600,1.462859619140625,0.41171106696128845,0.23746687173843384,0.13316470384597778
1701864965198452500,1.472452392578125,0.4080459773540497,0.2289150059223175,0.1172826737165451
1701864965208045600,1.482045654296875,0.4068242609500885,0.2301367074251175,0.11117420345544815
1701864965217638100,1.49163818359375,0.41415444016456604,0.21425467729568481,0.1185043677687645
1701864965227230000,1.50122998046875,0.416597843170166,0.18737739324569702,0.13316470384597778
1701864965236822500,1.510822509765625,0.41048935055732727,0.16538690030574799,0.15026842057704926
1701864965246416000,1.520415771484375,0.3897205591201782,0.13484452664852142,0.16248537600040436
1701864965256008400,1.530008544921875,0.3567348122596741,0.07498150318861008,0.16859383881092072
1701864965265600300,1.539600341796875,0.32008397579193115,-0.0007635590736754239,0.1710372269153595
1701864965275192800,1.54919287109375,0.28343313932418823,-0.058183200657367706,0.17470231652259827
1701864965284786200,1.5587861328125,0.258999228477478,-0.08750387281179428,0.18569757044315338
1701864965294378800,1.568378662109375,0.2504473626613617,-0.09483403712511063,0.20157960057258606
1701864965303970300,1.57797021484375,0.25289076566696167,-0.08261708915233612,0.2235700935125351
1701864965313563100,1.587563232421875,0.26755109429359436,-0.06795676052570343,0.2492256760597229
1701864965323156500,1.597156494140625,0.2895416021347046,-0.04718795046210289,0.2761029601097107
1701864965332749000,1.6067490234375,0.30786702036857605,-0.02641914412379265,0.3017585575580597
1701864965342340600,1.616340576171875,0.3164188861846924,-0.010537114925682545,0.32130566239356995
1701864965351933200,1.62593310546875,0.31886225938796997,-0.016645587980747223,0.3310792148113251
1701864965361526500,1.635526611328125,0.31886225938796997,-0.03374931216239929,0.33352261781692505
1701864965371119000,1.645119140625,0.3164188861846924,-0.04352286830544472,0.3310792148113251
1701864965380711000,1.6547109375,0.32130566239356995,-0.04840964451432228,0.3286358118057251
1701864965390303500,1.664303466796875,0.3432961702346802,-0.056961506605148315,0.3274141252040863
1701864965399896800,1.673896728515625,0.3689517378807068,-0.08139539510011673,0.32374903559684753
1701864965409489400,1.683489501953125,0.3823903799057007,-0.08750387281179428,0.3139754831790924
1701864965419081200,1.693081298828125,0.38605546951293945,-0.08261708915233612,0.29565006494522095
1701864965428673800,1.702673828125,0.3946073353290558,-0.08628217875957489,0.26999449729919434
1701864965438267100,1.71226708984375,0.4178195297718048,-0.08139539510011673,0.237008735537529
1701864965447859700,1.721859619140625,0.45202696323394775,-0.04963133856654167,0.20035789906978607
1701864965457451500,1.731451416015625,0.4984513521194458,-0.005650337319821119,0.16370706260204315
1701864965467044000,1.741044189453125,0.5509842038154602,0.04810422286391258,0.12216944992542267
1701864965476637400,1.750637451171875,0.601073682308197,0.10796725004911423,0.0781884491443634
1701864965486230000,1.76022998046875,0.6511631608009338,0.14828316867351532,0.03665083646774292
1701864965495821600,1.769821533203125,0.7012526392936707,0.16783028841018677,0.0010689827613532543
1701864965505414100,1.7794140625,0.7525638341903687,0.18126893043518066,-0.02092151902616024
1701864965515007500,1.789007568359375,0.8002098798751831,0.19348587095737457,-0.024586603045463562
1701864965524600000,1.79860009765625,0.8490777015686035,0.1910424828529358,-0.006261184345930815
1701864965534191900,1.80819189453125,0.8991671800613403,0.164165198802948,0.03542914241552353
1701864965543784400,1.817784423828125,0.9468132257461548,0.10063708573579788,0.09773556143045425
1701864965553377800,1.827377685546875,0.9883508682250977,0.0016798300202935934,0.1844758689403534
1701864965562970400,1.836970458984375,1.012784719467163,-0.09239064902067184,0.2858765125274658
1701864965572562200,1.846562255859375,1.0188932418823242,-0.17180079221725464,0.3958290219306946
1701864965582154800,1.85615478515625,1.0103414058685303,-0.252432644367218,0.5118899941444397
1701864965591748000,1.865748046875,0.9895725846290588,-0.3232909142971039,0.6206207871437073
1701864965601340700,1.875340576171875,0.9578084945678711,-0.36971530318260193,0.7098045349121094
1701864965610932500,1.884932373046875,0.9223793745040894,-0.4027010500431061,0.763559103012085
1701864965620525000,1.894525146484375,0.896723747253418,-0.4271349310874939,0.7831062078475952
1701864965630118400,1.904118408203125,0.8906152844429016,-0.44668206572532654,0.7794411182403564
1701864965639710700,1.913710693359375,0.9126058220863342,-0.45523393154144287,0.7660024762153625
1701864965649302500,1.923302490234375,0.9602518677711487,-0.4491254389286041,0.7550072073936462
1701864965658895000,1.93289501953125,1.0091196298599243,-0.4491254389286041,0.7550072073936462
1701864965668488400,1.942488525390625,1.0286667346954346,-0.43446511030197144,0.7660024762153625
1701864965678081000,1.9520810546875,1.0152281522750854,-0.39292749762535095,0.7941014170646667
1701864965687672800,1.9616728515625,0.9797990322113037,-0.35138988494873047,0.833195686340332
1701864965697265400,1.971265380859375,0.9223793745040894,-0.31351736187934875,0.8674030900001526
1701864965706858800,1.980858642578125,0.8527427911758423,-0.27442312240600586,0.8857285380363464
1701864965716451300,1.990451416015625,0.7928797602653503,-0.24754585325717926,0.8869501948356628
1701864965726043100,2.000043212890625,0.7537854909896851,-0.2414373755455017,0.8710681796073914
1701864965735635700,2.0096357421875,0.758672297000885,-0.2304421216249466,0.8478559851646423
1701864965745229000,2.01922900390625,0.8307522535324097,-0.20967331528663635,0.8246437907218933
1701864965754821600,2.028821533203125,0.9688037633895874,-0.21333840489387512,0.8124268651008606
1701864965764413200,2.0384130859375,1.138619303703308,-0.26342788338661194,0.818535327911377
1701864965774006000,2.048006103515625,1.3157650232315063,-0.3868190348148346,0.8515210747718811
1701864965783599000,2.05759912109375,1.4965758323669434,-0.6091674566268921,0.9199360013008118
1701864965793191700,2.067191650390625,1.6639479398727417,-0.9292513728141785,1.035996913909912
1701864965802783500,2.076783447265625,1.7812305688858032,-1.2798776626586914,1.1984822750091553
1701864965812376000,2.0863759765625,1.786117434501648,-1.5622419118881226,1.391510009765625
1701864965821969400,2.095969482421875,1.6761648654937744,-1.7173970937728882,1.5894246101379395
1701864965831562000,2.10556201171875,1.5014625787734985,-1.7381658554077148,1.761683464050293
1701864965841153800,2.11515380859375,1.3194301128387451,-1.6489821672439575,1.8862963914871216
1701864965850746400,2.124746337890625,1.1813786029815674,-1.5010044574737549,1.951046109199524
1701864965860339700,2.134339599609375,1.1227372884750366,-1.3287454843521118,1.9522678852081299
1701864965869932300,2.143932373046875,1.1422843933105469,-1.1515997648239136,1.8985133171081543
1701864965879524000,2.153524169921875,1.1948171854019165,-0.9695672988891602,1.799556016921997
1701864965889116700,2.16311669921875,1.2644537687301636,-0.7533273696899414,1.6700564622879028
1701864965898710000,2.1727099609375,1.3487507104873657,-0.5309789776802063,1.5246747732162476
1701864965908302300,2.18230224609375,1.430604338645935,-0.3489464819431305,1.382958173751831
1701864965917894100,2.19189404296875,1.4684767723083496,-0.21333840489387512,1.2510151863098145
1701864965927486700,2.20148681640625,1.447708010673523,-0.11315945535898209,1.1435060501098633
1701864965937080000,2.211080078125,1.4037270545959473,-0.06062658876180649,1.0653176307678223
1701864965946672600,2.220672607421875,1.3756279945373535,-0.036192700266838074,1.0201148986816406
1701864965956264400,2.230264404296875,1.391510009765625,-0.0325276181101799,1.0188932418823242
1701864965965857000,2.23985693359375,1.4684767723083496,-0.05207473039627075,1.0616525411605835
1701864965975450400,2.249450439453125,1.6065282821655273,-0.09361234307289124,1.1447277069091797
1701864965985043000,2.25904296875,1.7726787328720093,-0.1644706279039383,1.2607887983322144
1701864965994634800,2.268634765625,1.9327207803726196,-0.2793098986148834,1.40617036819458
1701864966004227300,2.278227294921875,2.0500032901763916,-0.4808894991874695,1.5674340724945068
1701864966013820700,2.287820556640625,2.0756590366363525,-0.7679877281188965,1.7494665384292603
1701864966023413200,2.297413330078125,2.0084657669067383,-1.0416473150253296,1.9376075267791748
1701864966033004800,2.3070048828125,1.9168386459350586,-1.2395617961883545,2.1098663806915283
1701864966042597400,2.316597412109375,1.8704142570495605,-1.3690614700317383,2.2552480697631836
1701864966052190700,2.326190673828125,1.8936264514923096,-1.436254620552063,2.3737523555755615
1701864966061783300,2.335783203125,1.9644848108291626,-1.4411413669586182,2.470266342163086
1701864966071375000,2.345375,2.03412127494812,-1.381278395652771,2.5594499111175537
1701864966080967700,2.3549677734375,2.0817675590515137,-1.2957597970962524,2.647412061691284
1701864966090561000,2.36456103515625,2.0952060222625732,-1.1760337352752686,2.7353739738464355
1701864966100153600,2.374153564453125,2.08298921585083,-1.0367605686187744,2.8074541091918945
1701864966109745400,2.383745361328125,2.0585553646087646,-0.9378032684326172,2.8453264236450195
1701864966119338000,2.393337890625,2.0438950061798096,-0.9145910739898682,2.846548318862915
1701864966128931300,2.402931396484375,2.03412127494812,-0.9084826111793518,2.8074541091918945
1701864966138524000,2.41252392578125,2.021904468536377,-0.8950439691543579,2.7268221378326416
1701864966148115500,2.422115478515625,2.030456304550171,-0.8632798790931702,2.614426374435425
1701864966157708300,2.431708251953125,2.0952060222625732,-0.8229639530181885,2.470266342163086
1701864966167301600,2.441301513671875,2.224705696105957,-0.7765395641326904,2.3065593242645264
1701864966176894000,2.45089404296875,2.3823041915893555,-0.7191199064254761,2.1367437839508057
1701864966186485800,2.46048583984375,2.5215775966644287,-0.6641436815261841,1.9681499004364014
1701864966196078300,2.470078369140625,2.5997660160064697,-0.6336013078689575,1.808107852935791
1701864966205671700,2.479671630859375,2.6046526432037354,-0.6629219651222229,1.6553961038589478
1701864966215264300,2.48926416015625,2.5496764183044434,-0.7301151752471924,1.508792757987976
1701864966224856000,2.49885595703125,2.476374864578247,-0.7692093849182129,1.3573026657104492
1701864966234448600,2.50844873046875,2.4226202964782715,-0.7875348329544067,1.2192511558532715
1701864966244042000,2.5180419921875,2.3908562660217285,-0.7997517585754395,1.1044118404388428
1701864966253634600,2.527634521484375,2.360313892364502,-0.8205205798149109,1.0201148986816406
1701864966263226000,2.53722607421875,2.296785593032837,-0.8510629534721375,0.9761339426040649
1701864966272819000,2.54681884765625,2.1648426055908203,-0.8571714162826538,0.9614735841751099
1701864966282412300,2.556412353515625,1.974258303642273,-0.7911999225616455,0.9639169573783875
1701864966292004900,2.5660048828125,1.7714570760726929,-0.669030487537384,0.9602518677711487
1701864966301596400,2.575596435546875,1.5894246101379395,-0.5517477989196777,0.9272661209106445
1701864966311189000,2.58518896484375,1.0066763162612915,-0.7973083853721619,0.6120689511299133
1701864966320782300,2.5947822265625,-0.01832541823387146,-1.4411413669586182,-0.00015271181473508477
1701864966330375000,2.604375,-0.1050657257437706,-1.6147747039794922,-0.17241163551807404
1701864966339966700,2.613966796875,0.2345653474330902,-1.1613733768463135,-0.09300149232149124
1701864966349559300,2.623559326171875,0.4618005156517029,-0.4100312292575836,-0.03436015918850899
1701864966359152600,2.633152587890625,0.5619794726371765,0.16050012409687042,-0.09422318637371063
1701864966368745200,2.6427451171875,0.6108472347259521,0.425607830286026,-0.19562382996082306
1701864966378337000,2.6523369140625,0.5619794726371765,0.5795413255691528,-0.20661908388137817
1701864966387929600,2.6619296875,0.49112120270729065,0.7041541934013367,-0.06123743951320648
1701864966397523000,2.67152294921875,0.497229665517807,0.7065975666046143,0.08429691940546036
1701864966407115500,2.681115478515625,0.5338805317878723,0.5599942207336426,0.11117420345544815
1701864966416707000,2.69070703125,0.6096255779266357,0.2948864996433258,0.046424392610788345
1701864966426299600,2.700299560546875,0.6804838180541992,-0.0068720318377017975,-0.007482878863811493
1701864966435893000,2.70989306640625,0.6878139972686768,-0.3477247953414917,0.03542914241552353
1701864966445485600,2.719485595703125,0.6022953987121582,-0.783869743347168,0.1441599577665329
1701864966455077400,2.729077392578125,0.4886777997016907,-1.1186140775680542,0.2919849753379822
1701864966464670000,2.738669921875,0.39827242493629456,-1.2077977657318115,0.4031592011451721
1701864966474263300,2.74826318359375,0.3555130958557129,-0.9891144037246704,0.44958359003067017
1701864966483856000,2.75785595703125,0.32252734899520874,-0.44423866271972656,0.49112120270729065
1701864966493447700,2.76744775390625,0.2919849753379822,0.19715094566345215,0.5815265774726868
1701864966503040300,2.777040283203125,0.2089097648859024,0.6137487888336182,0.6511631608009338
1701864966512633600,2.786633544921875,0.03298575058579445,0.7518002390861511,0.5864133834838867
1701864966522226200,2.79622607421875,-0.17592400312423706,0.7725690603256226,0.39949411153793335
1701864966531817700,2.805817626953125,-0.33474430441856384,0.7970029711723328,0.20035789906978607
1701864966541410300,2.815410400390625,-0.3958290219306946,0.8519791960716248,0.0647498071193695
1701864966551003600,2.825003662109375,-0.34940463304519653,0.9436063170433044,-0.025808297097682953
1701864966560596200,2.83459619140625,-0.23212195932865143,1.0230164527893066,-0.10644013434648514
1701864966570188000,2.84418798828125,-0.10017894953489304,0.9936957955360413,-0.20051060616970062
1701864966579780600,2.853780517578125,0.05741964280605316,0.8287670016288757,-0.2945810854434967
1701864966589374000,2.8633740234375,0.29320669174194336,0.6051968932151794,-0.3642176687717438
1701864966598966500,2.872966552734375,0.6206207871437073,0.3877353072166443,-0.4362976551055908
1701864966608558300,2.882558349609375,0.9736905097961426,0.20936790108680725,-0.6366555690765381
1701864966618151000,2.89215087890625,1.4025052785873413,-0.020310672000050545,-0.9371923804283142
1701864966627744300,2.901744140625,1.9498244524002075,-0.17302247881889343,-1.1619842052459717
1701864966637336800,2.9113369140625,2.5240209102630615,-0.072843536734581,-1.2120736837387085
1701864966646928400,2.920928466796875,2.6400818824768066,0.5172349214553833,-0.7404996156692505
1701864966656521200,2.930521240234375,1.910730242729187,1.3602041006088257,0.36284327507019043
1701864966666114600,2.940114501953125,1.1972606182098389,2.1078810691833496,1.258345365524292
1701864966675707000,2.949706787109375,1.170383334159851,2.6918511390686035,1.4501514434814453
1701864966685298700,2.959298583984375,1.793447494506836,2.948406934738159,0.9895725846290588
1701864966694891300,2.968891357421875,2.3713090419769287,3.245278835296631,0.393385648727417
1701864966704484600,2.978484619140625,2.019461154937744,3.040034055709839,0.37506023049354553
1701864966714077200,2.9880771484375,1.4220523834228516,1.8733158111572266,0.6597150564193726
1701864966723669000,2.9976689453125,1.4574815034866333,0.7004891037940979,0.3640649616718292
1701864966733261600,3.007261474609375,1.51734459400177,-0.1253764033317566,0.010842538438737392
1701864966742855000,3.01685498046875,1.5295615196228027,-0.4124746024608612,-0.2554868757724762
1701864966752447500,3.026447509765625,1.5784293413162231,-0.333064466714859,-0.42163732647895813
1701864966762039300,3.036039306640625,1.6688346862792969,-0.2279987335205078,-0.538919985294342
1701864966771631900,3.0456318359375,1.7555750608444214,-0.28664007782936096,-0.6476507782936096
1701864966781225200,3.05522509765625,1.817881464958191,-0.4491254389286041,-0.7478297352790833
1701864966790817800,3.06481787109375,1.864305853843689,-0.5358657836914062,-0.8150229454040527
1701864966800409300,3.074409423828125,1.9266122579574585,-0.44790375232696533,-0.8504521250724792
1701864966810002000,3.084001953125,2.1281919479370117,-0.26098448038101196,-0.8590039610862732
1701864966819595300,3.09359521484375,2.8660953044891357,-0.2292204350233078,-0.6928535103797913
1701864966829187800,3.103187744140625,3.330339193344116,-0.45645561814308167,-0.1626380831003189
1701864966838779600,3.112779541015625,3.1666321754455566,-1.2603305578231812,0.7159129977226257
1701864966848372200,3.122372314453125,2.7231571674346924,-1.9275285005569458,1.327981948852539
1701864966857965600,3.131965576171875,2.5533416271209717,-1.868887186050415,1.3499724864959717
1701864966867558100,3.14155810546875,2.4055166244506836,-1.1039537191390991,1.0115630626678467
1701864966877149700,3.151149658203125,2.013352632522583,-0.37704548239707947,0.4312581717967987
1701864966886742500,3.160742431640625,1.4648116827011108,-0.019088976085186005,-0.08078455179929733
1701864966896335600,3.170335693359375,1.086086392402649,0.1519482582807541,-0.22738789021968842
1701864966905928400,3.179928466796875,0.9272661209106445,0.17149536311626434,-0.18585027754306793
1701864966915520000,3.18952001953125,0.7488987445831299,0.0029015245381742716,-0.14553436636924744
1701864966925112600,3.199112548828125,0.6389462351799011,-0.16813570261001587,-0.11377029865980148
1701864966934706000,3.208705810546875,0.629172682762146,-0.25121092796325684,-0.14309096336364746
1701864966944298500,3.218298583984375,0.6572716236114502,-0.27686652541160583,-0.22494450211524963
1701864966953890300,3.227890380859375,0.7098045349121094,-0.2805316150188446,-0.27625566720962524
1701864966963483000,3.23748291015625,0.7941014170646667,-0.3049654960632324,-0.2945810854434967
1701864966973076200,3.247076171875,0.8991671800613403,-0.3489464819431305,-0.27381229400634766
1701864966982668800,3.256668701171875,0.9895725846290588,-0.3953709006309509,-0.23838314414024353
1701864966992260400,3.26626025390625,1.0286667346954346,-0.462564080953598,-0.23716144263744354
1701864967001853200,3.275853271484375,1.0408837795257568,-0.5322006940841675,-0.26403874158859253
1701864967011446500,3.285446533203125,1.0506572723388672,-0.5309789776802063,-0.30191126465797424
1701864967021038800,3.295038818359375,1.0115630626678467,-0.5505260825157166,-0.3605526089668274
1701864967030630700,3.304630615234375,0.9260444641113281,-0.6507050395011902,-0.386208176612854
1701864967040223200,3.31422314453125,0.7501204609870911,-0.8217422962188721,-0.30435463786125183
1701864967049816600,3.323816650390625,0.5302154421806335,-0.9219212532043457,-0.24449162185192108
1701864967059409200,3.3334091796875,0.258999228477478,-0.8473978638648987,-0.24693500995635986
1701864967069001000,3.3430009765625,-0.05741964280605316,-0.7533273696899414,-0.23105297982692719
1701864967078593500,3.352593505859375,-0.3762819170951843,-0.6971294283866882,-0.15652960538864136
1701864967088187000,3.362186767578125,-0.7502731680870056,-0.4894413650035858,-0.07467607408761978
1701864967097779500,3.371779541015625,-1.0447015762329102,-0.3379512429237366,0.0390942245721817
1701864967107371300,3.381371337890625,-1.1766445636749268,0.3620797097682953,0.24311721324920654
1701864967116963800,3.3909638671875,-1.0996778011322021,1.631420373916626,0.24433889985084534
1701864967126557200,3.40055712890625,-0.3054236173629761,2.0895557403564453,0.07330167293548584
1701864967136149800,3.410149658203125,0.40193748474121094,1.9967069625854492,-0.007482878863811493
1701864967145741300,3.4197412109375,0.8270871639251709,1.6680711507797241,0.05375456064939499
1701864967155334000,3.429333984375,1.115407109260559,1.236812949180603,0.13927318155765533
1701864967164927200,3.43892724609375,1.266897201538086,0.7249229550361633,0.14904673397541046
1701864967174519800,3.448519775390625,1.1874871253967285,0.19715094566345215,0.13805148005485535
1701864967184111600,3.458111572265625,0.8380824327468872,-0.21822518110275269,0.20768806338310242
1701864967193704200,3.4677041015625,0.3921639323234558,-0.008093725889921188,0.2211267054080963
1701864967203297500,3.477297607421875,-0.09040539711713791,0.44515493512153625,0.014507622458040714
1701864967212890000,3.48689013671875,-0.42759308218955994,0.2557922899723053,-0.20051060616970062
1701864967222482000,3.49648193359375,-0.5741963982582092,-0.08139539510011673,-0.32878854870796204
1701864967232074500,3.506074462890625,-0.6354338526725769,-0.17424418032169342,-0.46073153614997864
1701864967241667800,3.515667724609375,-0.6757497787475586,-0.08628217875957489,-0.621995210647583
1701864967251260400,3.525260498046875,-0.7148439884185791,-0.017867282032966614,-0.779593825340271
1701864967260852000,3.53485205078125,-0.774707019329071,0.02367033064365387,-0.9042066335678101
1701864967270444500,3.544444580078125,-0.8296833038330078,0.03588727489113808,-0.968956470489502
1701864967280038000,3.554037841796875,-0.8687775135040283,0.12018419802188873,-0.9591829180717468
1701864967289630500,3.56363037109375,-0.8919897079467773,0.20570281147956848,-0.8871029615402222
1701864967299222300,3.57322216796875,-0.9066500663757324,0.26312246918678284,-0.7637118101119995
1701864967308814800,3.58281494140625,-0.9103151559829712,0.2716743052005768,-0.6036698222160339
1701864967318408200,3.592408203125,-0.8846595287322998,0.30221667885780334,-0.43018919229507446
1701864967328000800,3.602000732421875,-0.8101361989974976,0.3205420970916748,-0.2848075330257416
1701864967337592600,3.611592529296875,-0.8211314082145691,-0.08383878320455551,-0.4619532525539398
1701864967347185200,3.62118505859375,-0.6879667043685913,-0.5053234100341797,-0.9604045748710632
1701864967356778500,3.630778564453125,-0.5106683373451233,-0.5175403356552124,-1.4771814346313477
1701864967366371000,3.64037109375,-0.5754181146621704,-0.35383328795433044,-1.8180341720581055
1701864967375962600,3.649962646484375,-0.7160657048225403,-0.32573428750038147,-1.8962225914001465
1701864967385555200,3.65955517578125,-0.6904101371765137,-0.335507869720459,-1.8326945304870605
1701864967395148500,3.6691484375,-0.47890424728393555,-0.17913095653057098,-1.7154117822647095
1701864967404741000,3.6787412109375,-0.18936264514923096,-0.08872556686401367,-1.5993508100509644
1701864967414333000,3.6883330078125,0.129499614238739,-0.04352286830544472,-1.4893983602523804
1701864967423925500,3.697925537109375,0.43736663460731506,0.04810422286391258,-1.3684505224227905
1701864967433518800,3.707518798828125,0.7281299233436584,0.20081603527069092,-1.1790878772735596
1701864967443111400,3.717111328125,1.022558331489563,0.32909396290779114,-0.8968765139579773
1701864967452703200,3.726703125,1.382958173751831,0.3474193811416626,-0.5047125220298767
1701864967462295800,3.7362958984375,1.8032211065292358,0.3229855000972748,-0.05512896552681923
1701864967471889200,3.74588916015625,2.252804756164551,0.31321191787719727,0.3274141252040863
1701864967481481700,3.755481689453125,2.655963897705078,0.35230615735054016,0.6022953987121582
1701864967491073300,3.7650732421875,2.918628215789795,0.399952232837677,0.7134696245193481
1701864967500665900,3.774665771484375,2.9210715293884277,0.23502348363399506,0.5632011890411377
1701864967510259200,3.78425927734375,2.869760513305664,0.10430216789245605,0.3823903799057007
1701864967519851800,3.793851806640625,2.8734254837036133,0.04077405482530594,0.1954711228609085
1701864967529443600,3.803443603515625,2.947948932647705,-0.06795676052570343,0.15026842057704926
1701864967539036200,3.8130361328125,2.7756898403167725,-0.25976279377937317,0.19180603325366974
1701864967548629500,3.82262939453125,2.444610834121704,-0.3953709006309509,0.1453816443681717
1701864967558222000,3.83222216796875,2.1966066360473633,-0.40514445304870605,0.0390942245721817
1701864967567814000,3.84181396484375,2.0084657669067383,-0.3196258246898651,-0.09544488787651062
1701864967577406500,3.851406494140625,1.872857689857483,-0.1107160672545433,-0.16630317270755768
1701864967586999800,3.860999755859375,1.832541823387146,-0.08139539510011673,-0.3239017724990845
1701864967596592400,3.87059228515625,1.698155403137207,-0.12171131372451782,-0.5596888065338135
1701864967606184000,3.880183837890625,1.62851881980896,-0.37704548239707947,-0.7356128096580505
1701864967615776500,3.889776611328125,1.5759859085083008,-0.677582323551178,-0.4631749391555786
1701864967625369900,3.899369873046875,1.2852226495742798,-0.5822901725769043,-0.025808297097682953
1701864967634962400,3.90896240234375,0.8845068216323853,-0.21089501678943634,0.14904673397541046
1701864967644554200,3.91855419921875,0.5534276366233826,0.0713164210319519,0.1710372269153595
1701864967654146800,3.928146728515625,0.2736595869064331,0.18249061703681946,0.16248537600040436
1701864967663740200,3.937740234375,0.01710372418165207,0.14217470586299896,0.17836740612983704
1701864967673332700,3.947332763671875,-0.10873081535100937,0.06154286116361618,0.2748812735080719
1701864967682924500,3.956924560546875,-0.16004198789596558,0.2313583940267563,0.3555130958557129
1701864967692517000,3.96651708984375,-0.23334364593029022,0.3217637836933136,0.3897205591201782
1701864967702110500,3.9761103515625,-0.45447036623954773,-0.11804623156785965,0.24067382514476776
1701864967711703000,3.985703125,-0.6794148683547974,-0.700794517993927,0.10628741979598999
1701864967721294600,3.995294677734375,-0.6537593007087708,-0.6164975762367249,0.25655585527420044
1701864967730887200,4.00488720703125,-0.44103172421455383,-0.4527905285358429,0.15149012207984924
1701864967740480500,4.01448046875,-0.14171656966209412,-0.29030516743659973,-0.08200624585151672
1701864967750073000,4.024072998046875,0.0024433890357613564,-0.2047865390777588,-0.2163926362991333
1701864967759665000,4.033664794921875,-0.006108472589403391,-0.19745637476444244,-0.23105297982692719
1701864967769257500,4.043257568359375,-0.03176405653357506,-0.30252209305763245,-0.28602921962738037
1701864967778850800,4.052850830078125,-0.025655584409832954,-0.18768282234668732,-0.24815669655799866
1701864967788443400,4.062443359375,-0.01954711228609085,-0.02764083817601204,-0.18462859094142914
1701864967798035200,4.07203515625,-0.026877280324697495,0.0261137206107378,-0.15408621728420258
1701864967807627800,4.081627685546875,-0.01954711228609085,0.032222192734479904,-0.13087402284145355
1701864967817221000,4.09122119140625,-0.010995250195264816,0.0016798300202935934,-0.10644013434648514
1701864967826813700,4.100813720703125,0.07696675509214401,-0.6812474131584167,0.03665083646774292
1701864967836405200,4.1104052734375,0.28098973631858826,-1.5903408527374268,0.2223484069108963
1701864967845997800,4.119997802734375,0.45080527663230896,-1.5364335775375366,0.23823043704032898
1701864967855591200,4.129591064453125,0.4337015450000763,-0.20722992718219757,-0.08811471611261368
1701864967865183700,4.139183837890625,0.2883199155330658,0.12751436233520508,-0.26281702518463135
1701864967874775600,4.148775634765625,0.13438639044761658,-0.08017370104789734,-0.18218518793582916
1701864967884368100,4.1583681640625,-0.03420744836330414,0.03588727489113808,-0.11865708231925964
1701864967893961500,4.16796142578125,-0.14049486815929413,0.16905197501182556,-0.08078455179929733
1701864967903554000,4.177553955078125,-0.16492876410484314,0.19592925906181335,-0.072232685983181
1701864967913145900,4.187145751953125,-0.16004198789596558,0.16050012409687042,-0.09910997003316879
1701864967922738400,4.196738525390625,-0.15026842057704926,0.1104106456041336,-0.1382041871547699
1701864967932331800,4.206331787109375,-0.13805148005485535,0.07375980913639069,-0.1882936656475067
1701864967941924400,4.21592431640625,-0.11972606182098389,0.06154286116361618,-0.23716144263744354
1701864967951516000,4.225515869140625,-0.09773556143045425,0.06398624926805496,-0.2725905776023865
1701864967961108500,4.2351083984375,-0.08307522535324097,0.08719844371080399,-0.2958027720451355
1701864967970701800,4.244701904296875,-0.08185353130102158,0.11896250396966934,-0.31290650367736816
1701864967980294400,4.25429443359375,-0.08918370306491852,0.13484452664852142,-0.3226800560951233
1701864967989886200,4.26388623046875,-0.09895725548267365,0.15561333298683167,-0.31657159328460693
1701864967999478800,4.273478759765625,-0.10750912129878998,0.16660858690738678,-0.30191126465797424
1701864968009072000,4.283072021484375,-0.1172826737165451,0.17271706461906433,-0.2848075330257416
1701864968018664700,4.292664794921875,-0.12339114397764206,0.1776038408279419,-0.2677038013935089
1701864968028256500,4.302256591796875,-0.12705622613430023,0.1776038408279419,-0.256708562374115
1701864968037849000,4.31184912109375,-0.129499614238739,0.18371231853961945,-0.24571330845355988
1701864968047442400,4.3214423828125,-0.12705622613430023,0.18004722893238068,-0.2298312783241272
1701864968057035000,4.331034912109375,-0.12094775587320328,0.16660858690738678,-0.21394924819469452
1701864968066626600,4.34062646484375,-0.11361759155988693,0.14339639246463776,-0.19806721806526184
1701864968076219100,4.35021923828125,-0.10628741979598999,0.11651911586523056,-0.1760767251253128
1701864968085812500,4.3598125,-0.10140064358711243,0.08719844371080399,-0.15286453068256378
1701864968095405000,4.369405029296875,-0.09895725548267365,0.06765133142471313,-0.12354385852813721
1701864968104996900,4.378996826171875,-0.09651386737823486,0.04932591691613197,-0.09544488787651062
1701864968114589400,4.38858935546875,-0.09529217332601547,0.0261137206107378,-0.07711946964263916
1701864968124182800,4.398182861328125,-0.09407047927379608,0.005344913341104984,-0.06123743951320648
1701864968133775400,4.407775390625,-0.09284878522157669,-0.015423892997205257,-0.049020491540431976
1701864968143367200,4.4173671875,-0.0916270911693573,-0.037414394319057465,-0.04046862944960594
1701864968152959700,4.426959716796875,-0.08796200156211853,-0.06062658876180649,-0.030695075169205666
1701864968162553000,4.436552978515625,-0.08551861345767975,-0.08750387281179428,-0.02214321307837963
1701864968172145400,4.4461455078125,-0.08307522535324097,-0.12293300777673721,-0.013591351918876171
1701864968181737200,4.4557373046875,-0.08063183724880219,-0.1498102843761444,-0.008704573847353458
1701864968191329800,4.465329833984375,-0.08063183724880219,-0.1901262104511261,0.007177455350756645
1701864968200923100,4.474923095703125,-0.0781884491443634,-0.22677704691886902,0.026877280324697495
1701864968210515700,4.484515625,-0.07207997888326645,-0.2560977041721344,0.04031591862440109
1701864968220107500,4.494107421875,-0.06841489672660828,-0.2793098986148834,0.047646086663007736
1701864968229700000,4.5037001953125,-0.0659715011715889,-0.2964136302471161,0.0525328628718853
1701864968239293400,4.51329345703125,-0.0659715011715889,-0.3049654960632324,0.05497625470161438
1701864968248886000,4.522885986328125,-0.06352811306715012,-0.31351736187934875,0.05619794875383377
1701864968258477600,4.5324775390625,-0.061084724962711334,-0.30985227227211,0.061084724962711334
1701864968268070400,4.5420703125,-0.04886778071522713,-0.31351736187934875,0.06841489672660828
1701864968277663500,4.55166357421875,-0.03542914241552353,-0.31596073508262634,0.07207997888326645
1701864968287256300,4.56125634765625,-0.03787253051996231,-0.3110739588737488,0.0794101431965828
1701864968296848000,4.570847900390625,-0.04153761267662048,-0.30252209305763245,0.08918370306491852
1701864968306440400,4.5804404296875,-0.03176405653357506,-0.30374380946159363,0.08796200156211853
1701864968316033800,4.59003369140625,-0.025655584409832954,-0.28786176443099976,0.08063183724880219
1701864968325626400,4.59962646484375,-0.012216945178806782,-0.26220619678497314,0.07696675509214401
1701864968335218200,4.60921826171875,-0.01588202826678753,-0.24754585325717926,0.0781884491443634
1701864968344810800,4.618810791015625,-0.024433890357613564,-0.2438807636499405,0.08307522535324097
1701864968354404000,4.628404052734375,-0.023212196305394173,-0.23166382312774658,0.08551861345767975
1701864968363996700,4.63799658203125,-0.021990500390529633,-0.22677704691886902,0.08918370306491852
1701864968373588200,4.647588134765625,-0.021990500390529633,-0.2304421216249466,0.09284878522157669
1701864968383181000,4.65718115234375,-0.021990500390529633,-0.23777230083942413,0.10017894953489304
1701864968392774400,4.6667744140625,-0.02076880633831024,-0.24754585325717926,0.10873081535100937
1701864968402366700,4.67636669921875,-0.01832541823387146,-0.2573194205760956,0.1185043677687645
1701864968411958500,4.68595849609375,-0.013438640162348747,-0.2658712565898895,0.12705622613430023
1701864968421551000,4.695551025390625,-0.006108472589403391,-0.2707580327987671,0.13560809195041656
1701864968431144400,4.70514453125,-0.0012216945178806782,-0.27564483880996704,0.14171656966209412
1701864968440737000,4.714737060546875,0.0036650835536420345,-0.2793098986148834,0.1429382562637329
1701864968450328800,4.724328857421875,0.009773556143045425,-0.28786176443099976,0.13927318155765533
1701864968459921400,4.73392138671875,0.01588202826678753,-0.30007871985435486,0.130721315741539
1701864968469514800,4.7435146484375,0.02076880633831024,-0.30130040645599365,0.12094775587320328
1701864968479107300,4.753107421875,0.025655584409832954,-0.29885703325271606,0.11239589750766754
1701864968488699000,4.762698974609375,0.03542914241552353,-0.3489464819431305,0.10017894953489304
1701864968498291500,4.77229150390625,0.03665083646774292,-0.36971530318260193,0.08796200156211853
1701864968507884800,4.781884765625,0.0390942245721817,-0.3843756318092346,0.0781884491443634
1701864968517477400,4.791477294921875,0.04153761267662048,-0.3953709006309509,0.07085828483104706
1701864968527069200,4.801069091796875,0.0390942245721817,-0.40514445304870605,0.06352811306715012
1701864968536661800,4.810661865234375,0.03420744836330414,-0.41736137866973877,0.05497625470161438
1701864968546255000,4.820255126953125,0.026877280324697495,-0.4124746024608612,0.04886778071522713
1701864968555847700,4.82984765625,0.029320668429136276,-0.4491254389286041,0.04153761267662048
1701864968565439500,4.839439453125,0.026877280324697495,-0.4906630516052246,0.030542362481355667
1701864968575032000,4.849031982421875,0.01588202826678753,-0.5150969624519348,0.03176405653357506
1701864968584625400,4.85862548828125,0.01588202826678753,-0.5407525300979614,0.03420744836330414
1701864968594218000,4.868218017578125,0.01832541823387146,-0.5505260825157166,0.03420744836330414
1701864968603809500,4.8778095703125,0.0024433890357613564,-0.5651864409446716,0.03665083646774292
1701864968613402400,4.88740234375,-0.012216945178806782,-0.5932853817939758,0.04031591862440109
1701864968622995500,4.896995361328125,-0.025655584409832954,-0.603058934211731,0.045202698558568954
1701864968632588000,4.906588134765625,-0.03542914241552353,-0.6067240238189697,0.0525328628718853
1701864968642179800,4.916179931640625,-0.042759306728839874,-0.6067240238189697,0.05864133685827255
1701864968651772400,4.9257724609375,-0.045202698558568954,-0.5871769189834595,0.06352811306715012
1701864968661365800,4.93536572265625,-0.043981000781059265,-0.5602996349334717,0.06841489672660828
1701864968670958300,4.944958251953125,-0.042759306728839874,-0.5370874404907227,0.06719319522380829
1701864968680550100,4.954550048828125,-0.05008947476744652,-0.5212054252624512,0.06841489672660828
1701864968690142700,4.964142822265625,-0.047646086663007736,-0.5028799772262573,0.07207997888326645
1701864968699736000,4.973736083984375,-0.042759306728839874,-0.4796678125858307,0.07574506103992462
1701864968709328600,4.98332861328125,-0.04031591862440109,-0.46012070775032043,0.0794101431965828
1701864968718920200,4.992920166015625,-0.03787253051996231,-0.439351886510849,0.08429691940546036
1701864968728512800,5.0025126953125,-0.03420744836330414,-0.4259132444858551,0.08674030750989914
1701864968738106000,5.012106201171875,-0.030542362481355667,-0.40758782625198364,0.08674030750989914
1701864968747698700,5.02169873046875,-0.026877280324697495,-0.3831539452075958,0.08429691940546036
1701864968757290500,5.03129052734375,-0.023212196305394173,-0.3501681983470917,0.08063183724880219
1701864968766883000,5.040883056640625,-0.01832541823387146,-0.31229567527770996,0.07696675509214401
1701864968776476400,5.050476318359375,-0.009773556143045425,-0.27564483880996704,0.07330167293548584
1701864968786069000,5.060069091796875,-0.004886778071522713,-0.23410721123218536,0.06841489672660828
1701864968795660800,5.069660888671875,0.0012216945178806782,-0.19501298666000366,0.06352811306715012
1701864968805253400,5.07925341796875,0.0012216945178806782,-0.15714046359062195,0.05864133685827255
1701864968814846700,5.0888466796875,-0.0024433890357613564,-0.11560284346342087,0.05497625470161438
1701864968824439300,5.098439208984375,-0.010995250195264816,-0.07773031294345856,0.05375456064939499
1701864968834030800,5.10803076171875,-0.02076880633831024,-0.058183200657367706,0.05375456064939499
1701864968843623400,5.11762353515625,-0.026877280324697495,-0.04840964451432228,0.04886778071522713
1701864968853216800,5.127216796875,-0.026877280324697495,-0.04107947647571564,0.042759306728839874
1701864968862809300,5.136809326171875,-0.024433890357613564,-0.0325276181101799,0.03787253051996231
1701864968872401200,5.146401123046875,-0.02076880633831024,-0.02641914412379265,0.0390942245721817
1701864968881993700,5.15599365234375,-0.01710372418165207,-0.01175880990922451,0.043981000781059265
1701864968891587000,5.165587158203125,-0.013438640162348747,0.0029015245381742716,0.05131116881966591
1701864968901179600,5.1751796875,-0.008551862090826035,0.012675080448389053,0.05864133685827255
1701864968910771200,5.184771240234375,-0.0012216945178806782,0.021226942539215088,0.05864133685827255
1701864968920364000,5.194364013671875,0.008551862090826035,0.028557108715176582,0.05497625470161438
1701864968929957400,5.203957275390625,0.02076880633831024,0.02367033064365387,0.045202698558568954
1701864968939549700,5.2135498046875,0.03665083646774292,0.0016798300202935934,0.03542914241552353
1701864968949141500,5.2231416015625,0.05497625470161438,-0.03130592033267021,0.025655584409832954
1701864968958734000,5.232734130859375,0.07207997888326645,-0.06673506647348404,0.019394399598240852
1701864968968327400,5.242327392578125,0.08429691940546036,-0.09727742522954941,0.024433890357613564
1701864968977920000,5.251919921875,0.09284878522157669,-0.12293300777673721,0.03665083646774292
1701864968987511800,5.26151171875,0.09651386737823486,-0.13514995574951172,0.05375456064939499
1701864968997104400,5.2711044921875,0.09773556143045425,-0.1375933438539505,0.07452336698770523
1701864969006697700,5.28069775390625,0.09529217332601547,-0.13514995574951172,0.0916270911693573
1701864969016290300,5.290290283203125,0.09040539711713791,-0.13026317954063416,0.10750912129878998
1701864969025882000,5.299882080078125,0.08429691940546036,-0.12048961967229843,0.11972606182098389
1701864969035474700,5.309474609375,0.07330167293548584,-0.07773031294345856,0.13438639044761658
1701864969045068000,5.319068115234375,0.07452336698770523,-0.09727742522954941,0.13682979345321655
1701864969054660400,5.328660400390625,0.06963659077882767,-0.10338589549064636,0.12583453953266144
1701864969064252200,5.338252197265625,0.06352811306715012,-0.09483403712511063,0.12094775587320328
1701864969073844700,5.3478447265625,0.05864133685827255,-0.08872556686401367,0.1172826737165451
1701864969083438000,5.35743798828125,0.05375456064939499,-0.08383878320455551,0.11361759155988693
1701864969093030700,5.36703076171875,0.047646086663007736,-0.07895200699567795,0.11606097966432571
1701864969102622500,5.37662255859375,0.042759306728839874,-0.06795676052570343,0.12094775587320328
1701864969112215000,5.386215087890625,0.03665083646774292,-0.055739812552928925,0.12705622613430023
1701864969121808400,5.395808349609375,0.03298575058579445,-0.03130592033267021,0.130721315741539
1701864969131401000,5.40540087890625,0.030542362481355667,-0.001985253533348441,0.129499614238739
1701864969140992500,5.414992431640625,0.030542362481355667,0.03833066672086716,0.12094775587320328
1701864969150585300,5.42458544921875,0.03176405653357506,0.08108997344970703,0.10873081535100937
1701864969160178400,5.434178466796875,0.03298575058579445,0.12018419802188873,0.08918370306491852
1701864969169771000,5.44377099609375,0.03542914241552353,0.15561333298683167,0.0659715011715889
1701864969179362800,5.45336279296875,0.03787253051996231,0.18249061703681946,0.045202698558568954
1701864969188955400,5.462955322265625,0.04031591862440109,0.2020377367734909,0.028098974376916885
1701864969198548700,5.472548828125,0.04153761267662048,0.2166980654001236,0.01817270554602146
1701864969208141300,5.482141357421875,0.045202698558568954,0.2301367074251175,0.01572931744158268
1701864969217733000,5.491733154296875,0.05008947476744652,0.2435753494501114,0.01695101149380207
1701864969227325700,5.50132568359375,0.05131116881966591,0.24968381226062775,0.020616095513105392
1701864969236919000,5.5109189453125,0.05131116881966591,0.2582356929779053,0.023212196305394173
1701864969246511600,5.52051171875,0.05131116881966591,0.26312246918678284,0.024433890357613564
1701864969256103200,5.530103271484375,0.0525328628718853,0.2655658423900604,0.024433890357613564
1701864969265695700,5.53969580078125,0.0525328628718853,0.26312246918678284,0.023212196305394173
1701864969275289000,5.5492890625,0.05131116881966591,0.25945737957954407,0.023212196305394173
1701864969284881700,5.558881591796875,0.05008947476744652,0.26067906618118286,0.025655584409832954
1701864969294473500,5.568473388671875,0.046424392610788345,0.26067906618118286,0.03298575058579445
1701864969304066000,5.578066162109375,0.04153761267662048,0.26067906618118286,0.042759306728839874
1701864969313659400,5.587659423828125,0.04031591862440109,0.2557922899723053,0.05008947476744652
1701864969323252000,5.597251953125,0.043981000781059265,0.25090551376342773,0.05131116881966591
1701864969332843800,5.60684375,0.05131116881966591,0.25212720036506653,0.043981000781059265
1701864969342436400,5.616436279296875,0.05986303091049194,0.25945737957954407,0.029320668429136276
1701864969352029700,5.62602978515625,0.0647498071193695,0.2680092453956604,0.009620844386518002
1701864969361622300,5.635622314453125,0.0647498071193695,0.27533939480781555,-0.014813045971095562
1701864969371213800,5.6452138671875,0.05864133685827255,0.28999972343444824,-0.04169032722711563
1701864969380806400,5.654806396484375,0.047646086663007736,0.3071034550666809,-0.06734590977430344
1701864969390399700,5.664399658203125,0.03298575058579445,0.32909396290779114,-0.08933641016483307
1701864969399992300,5.673992431640625,0.01832541823387146,0.3486410677433014,-0.10644013434648514
1701864969409584000,5.683584228515625,0.0024433890357613564,0.36574479937553406,-0.11499200016260147
1701864969419176700,5.6931767578125,-0.013438640162348747,0.37796175479888916,-0.11865708231925964
1701864969428770000,5.70277001953125,-0.028098974376916885,0.3865135908126831,-0.11621369421482086
1701864969438362600,5.712362548828125,-0.04031591862440109,0.3865135908126831,-0.10644013434648514
1701864969447954200,5.7219541015625,-0.05008947476744652,0.3840702176094055,-0.09300149232149124
1701864969457547000,5.731547119140625,-0.05619794875383377,0.376740038394928,-0.07711946964263916
1701864969467140000,5.74114013671875,-0.05986303091049194,0.3620797097682953,-0.06368082761764526
1701864969476733000,5.75073291015625,-0.061084724962711334,0.34008920192718506,-0.05024218559265137
1701864969486324500,5.760324462890625,-0.05864133685827255,0.31565532088279724,-0.04046862944960594
1701864969495917000,5.7699169921875,-0.05375456064939499,0.2838912606239319,-0.03558185324072838
1701864969505510400,5.779510498046875,-0.04886778071522713,0.24968381226062775,-0.030695075169205666
1701864969515103000,5.78910302734375,-0.045202698558568954,0.21425467729568481,-0.027029991149902344
1701864969524694800,5.79869482421875,-0.042759306728839874,0.18004722893238068,-0.025808297097682953
1701864969534287400,5.808287353515625,-0.042759306728839874,0.14461809396743774,-0.024586603045463562
1701864969543880700,5.817880615234375,-0.04153761267662048,0.10796725004911423,-0.023364907130599022
1701864969553473300,5.827473388671875,-0.042759306728839874,0.06887302547693253,-0.01969982497394085
1701864969563064800,5.83706494140625,-0.04031591862440109,0.031000498682260513,-0.01725643500685692
1701864969572657700,5.84665771484375,-0.03665083646774292,-0.008093725889921188,-0.012369656935334206
1701864969582251000,5.8562509765625,-0.03176405653357506,-0.04352286830544472,-0.006261184345930815
1701864969591843300,5.86584326171875,-0.023212196305394173,-0.072843536734581,0.0010689827613532543
1701864969601435100,5.87543505859375,-0.01710372418165207,-0.09972081333398819,0.007177455350756645
1701864969611027700,5.88502783203125,-0.012216945178806782,-0.12293300777673721,0.012064233422279358
1701864969620621000,5.89462109375,-0.008551862090826035,-0.14370182156562805,0.01572931744158268
1701864969630213600,5.904213623046875,-0.007330167107284069,-0.15958385169506073,0.020616095513105392
1701864969639805400,5.913805419921875,-0.006108472589403391,-0.17180079221725464,0.025655584409832954
1701864969649398000,5.92339794921875,-0.004886778071522713,-0.1779092699289322,0.029320668429136276
1701864969658991400,5.932991455078125,-0.007330167107284069,-0.18035265803337097,0.03542914241552353
1701864969668584000,5.942583984375,-0.009773556143045425,-0.18035265803337097,0.04153761267662048
1701864969678175500,5.952175537109375,-0.013438640162348747,-0.17913095653057098,0.046424392610788345
1701864969687768000,5.96176806640625,-0.01710372418165207,-0.1754658818244934,0.05131116881966591
1701864969697361400,5.971361328125,-0.01954711228609085,-0.17424418032169342,0.05375456064939499
1701864969706954000,5.9809541015625,-0.021990500390529633,-0.1754658818244934,0.05741964280605316
1701864969716545800,5.9905458984375,-0.023212196305394173,-0.1754658818244934,0.05986303091049194
1701864969726138400,6.000138427734375,-0.023212196305394173,-0.17424418032169342,0.061084724962711334
1701864969735731700,6.009731689453125,-0.021990500390529633,-0.17302247881889343,0.05986303091049194
1701864969745324300,6.01932421875,-0.02076880633831024,-0.17180079221725464,0.05864133685827255
1701864969754916000,6.028916015625,-0.01832541823387146,-0.1644706279039383,0.05497625470161438
1701864969764508700,6.0385087890625,-0.01588202826678753,-0.15836215019226074,0.0525328628718853
1701864969774102000,6.04810205078125,-0.013438640162348747,-0.1510319858789444,0.04886778071522713
1701864969783694600,6.057694580078125,-0.010995250195264816,-0.14492350816726685,0.045202698558568954
1701864969793286100,6.0672861328125,-0.010995250195264816,-0.1388150453567505,0.04153761267662048
1701864969802878700,6.076878662109375,-0.008551862090826035,-0.13148486614227295,0.04031591862440109
1701864969812472000,6.08647216796875,-0.008551862090826035,-0.12659808993339539,0.03787253051996231
1701864969822064600,6.096064697265625,-0.008551862090826035,-0.12171131372451782,0.03665083646774292
1701864969831656400,6.105656494140625,-0.007330167107284069,-0.11438114941120148,0.03665083646774292
1701864969841249000,6.1152490234375,-0.007330167107284069,-0.10705098509788513,0.03665083646774292
1701864969850842400,6.12484228515625,-0.006108472589403391,-0.0984991192817688,0.03665083646774292
1701864969860435000,6.13443505859375,-0.004886778071522713,-0.08994726091623306,0.03665083646774292
1701864969870026800,6.14402685546875,-0.0012216945178806782,-0.08139539510011673,0.03665083646774292
1701864969879619300,6.153619384765625,0.0024433890357613564,-0.0716218426823616,0.0390942245721817
1701864969889212700,6.163212646484375,-0.0012216945178806782,-0.08139539510011673,0.042759306728839874
1701864969898805000,6.172804931640625,0.0024433890357613564,-0.07650861889123917,0.045202698558568954
1701864969908396800,6.182396728515625,0.006108472589403391,-0.07406523078680038,0.047646086663007736
1701864969917989400,6.1919892578125,0.010995250195264816,-0.07040014863014221,0.05008947476744652
1701864969927582700,6.201582763671875,0.01588202826678753,-0.06795676052570343,0.0525328628718853
1701864969937175300,6.21117529296875,0.01832541823387146,-0.06673506647348404,0.05375456064939499
1701864969946767000,6.22076708984375,0.021990500390529633,-0.06551336497068405,0.05741964280605316
1701864969956359700,6.230359619140625,0.024433890357613564,-0.06184828653931618,0.05864133685827255
1701864969965953000,6.239953125,0.025655584409832954,-0.058183200657367706,0.05986303091049194
1701864969975545600,6.249545654296875,0.026877280324697495,-0.056961506605148315,0.05986303091049194
1701864969985137200,6.25913720703125,0.025655584409832954,-0.056961506605148315,0.05986303091049194
1701864969994729700,6.268729736328125,0.024433890357613564,-0.056961506605148315,0.05864133685827255
1701864970004323000,6.278322998046875,0.023212196305394173,-0.058183200657367706,0.05619794875383377
1701864970013915600,6.28791552734375,0.021990500390529633,-0.0594048947095871,0.05375456064939499
1701864970023507500,6.297507568359375,0.021990500390529633,-0.06184828653931618,0.0525328628718853
1701864970033100000,6.30710009765625,0.023212196305394173,-0.06184828653931618,0.05131116881966591
1701864970042693400,6.316693359375,0.024433890357613564,-0.06429167091846466,0.04886778071522713
1701864970052286000,6.326285888671875,0.023212196305394173,-0.06673506647348404,0.04886778071522713
1701864970061877800,6.335877685546875,0.021990500390529633,-0.06917845457792282,0.04886778071522713
1701864970071470300,6.34547021484375,0.01954711228609085,-0.07040014863014221,0.0525328628718853
1701864970081063700,6.355063720703125,0.01710372418165207,-0.07040014863014221,0.05619794875383377
1701864970090656300,6.36465625,0.014660334214568138,-0.07040014863014221,0.062306419014930725
1701864970100247800,6.374247802734375,0.013438640162348747,-0.072843536734581,0.06719319522380829
1701864970109840400,6.38384033203125,0.012216945178806782,-0.07650861889123917,0.07207997888326645
1701864970119433700,6.393433837890625,0.014660334214568138,-0.08017370104789734,0.07452336698770523
1701864970129026300,6.4030263671875,0.01588202826678753,-0.08628217875957489,0.07574506103992462
1701864970138618000,6.4126181640625,0.01710372418165207,-0.09116895496845245,0.07452336698770523
1701864970148210700,6.422210693359375,0.01954711228609085,-0.09116895496845245,0.07330167293548584
1701864970157804000,6.431803955078125,0.021990500390529633,-0.08994726091623306,0.07207997888326645
1701864970167396600,6.441396728515625,0.023212196305394173,-0.08750387281179428,0.07085828483104706
1701864970176988400,6.450988525390625,0.024433890357613564,-0.0850604772567749,0.06719319522380829
1701864970186581000,6.4605810546875,0.025655584409832954,-0.08261708915233612,0.06352811306715012
1701864970196174300,6.47017431640625,0.026877280324697495,-0.08139539510011673,0.061084724962711334
1701864970205766700,6.4797666015625,0.028098974376916885,-0.08017370104789734,0.05864133685827255
1701864970215358500,6.4893583984375,0.03176405653357506,-0.08139539510011673,0.05864133685827255
1701864970224951000,6.498950927734375,0.03542914241552353,-0.08139539510011673,0.05864133685827255
1701864970234544400,6.50854443359375,0.03665083646774292,-0.08017370104789734,0.05864133685827255
1701864970244137000,6.518136962890625,0.0390942245721817,-0.08017370104789734,0.05986303091049194
1701864970253728800,6.527728759765625,0.042759306728839874,-0.07895200699567795,0.062306419014930725
1701864970263321300,6.5373212890625,0.043981000781059265,-0.07895200699567795,0.0659715011715889
1701864970272914700,6.546914794921875,0.046424392610788345,-0.07773031294345856,0.06841489672660828
1701864970282507300,6.55650732421875,0.047646086663007736,-0.072843536734581,0.07207997888326645
1701864970292099000,6.56609912109375,0.05008947476744652,-0.06673506647348404,0.07452336698770523
1701864970301691600,6.575691650390625,0.0525328628718853,-0.0594048947095871,0.07574506103992462
1701864970311285000,6.585284912109375,0.05375456064939499,-0.054518118500709534,0.07574506103992462
1701864970320877600,6.594877685546875,0.05497625470161438,-0.04718795046210289,0.07574506103992462
1701864970330469000,6.60446923828125,0.05497625470161438,-0.04107947647571564,0.07574506103992462
1701864970340061700,6.614061767578125,0.05619794875383377,-0.03374931216239929,0.07696675509214401
1701864970349655000,6.623655029296875,0.05619794875383377,-0.02886253222823143,0.07696675509214401
1701864970359247600,6.63324755859375,0.05864133685827255,-0.025197450071573257,0.07452336698770523
1701864970368839400,6.64283935546875,0.05986303091049194,-0.021532366052269936,0.07207997888326645
1701864970378432000,6.652431884765625,0.062306419014930725,-0.017867282032966614,0.07207997888326645
1701864970388025300,6.662025390625,0.0647498071193695,-0.014202198944985867,0.07085828483104706
1701864970397618000,6.671617919921875,0.0659715011715889,-0.012980503961443901,0.07207997888326645
1701864970407209500,6.68120947265625,0.0659715011715889,-0.012980503961443901,0.07574506103992462
1701864970416802300,6.69080224609375,0.06719319522380829,-0.009315420873463154,0.0794101431965828
1701864970426395600,6.700395751953125,0.0659715011715889,-0.0068720318377017975,0.08307522535324097
1701864970435988000,6.709988037109375,0.0659715011715889,-0.0032069480512291193,0.08674030750989914
1701864970445579800,6.719579833984375,0.0659715011715889,0.0029015245381742716,0.08796200156211853
1701864970455172400,6.72917236328125,0.06719319522380829,0.005344913341104984,0.08796200156211853
1701864970464765700,6.738765625,0.06719319522380829,0.0065666078589856625,0.08429691940546036
1701864970474358300,6.748358154296875,0.07085828483104706,0.007788302376866341,0.08185353130102158
1701864970483950000,6.7579501953125,0.07207997888326645,0.0065666078589856625,0.0781884491443634
1701864970493542700,6.767542724609375,0.07330167293548584,0.0065666078589856625,0.0781884491443634
1701864970503136000,6.777135986328125,0.07452336698770523,0.010231691412627697,0.07696675509214401
1701864970512728600,6.786728515625,0.07452336698770523,0.012675080448389053,0.0794101431965828
1701864970522320100,6.796320068359375,0.07452336698770523,0.01511846948415041,0.08063183724880219
1701864970531912700,6.80591259765625,0.07452336698770523,0.017561858519911766,0.08063183724880219
1701864970541506000,6.815506103515625,0.07330167293548584,0.017561858519911766,0.08063183724880219
1701864970551098600,6.8250986328125,0.07207997888326645,0.018783552572131157,0.08063183724880219
1701864970560690400,6.8346904296875,0.07085828483104706,0.021226942539215088,0.08185353130102158
1701864970570283000,6.844282958984375,0.07085828483104706,0.02244863659143448,0.08307522535324097
1701864970579876400,6.85387646484375,0.07207997888326645,0.02244863659143448,0.08674030750989914
1701864970589469000,6.863468994140625,0.07574506103992462,0.016340164467692375,0.09040539711713791
1701864970599060700,6.873060791015625,0.08063183724880219,0.011453386396169662,0.09651386737823486
1701864970608653300,6.8826533203125,0.08551861345767975,0.0016798300202935934,0.1050657257437706
1701864970618246700,6.89224658203125,0.0916270911693573,-0.005650337319821119,0.11483928561210632
1701864970627839200,6.901839111328125,0.09651386737823486,-0.016645587980747223,0.12461283802986145
1701864970637430800,6.9114306640625,0.10262233763933182,-0.02886253222823143,0.13316470384597778
1701864970647023400,6.9210234375,0.10995250940322876,-0.04230117425322533,0.13927318155765533
1701864970656616700,6.93061669921875,0.11483928561210632,-0.055739812552928925,0.14049486815929413
1701864970666209300,6.940209228515625,0.11606097966432571,-0.07040014863014221,0.14171656966209412
1701864970675801000,6.949801025390625,0.11483928561210632,-0.08017370104789734,0.1429382562637329
1701864970685393700,6.9593935546875,0.11117420345544815,-0.08383878320455551,0.14660334587097168
1701864970694987000,6.968987060546875,0.1050657257437706,-0.08750387281179428,0.1429382562637329
1701864970704579600,6.97857958984375,0.0916270911693573,-0.08872556686401367,0.12827792763710022
1701864970714171100,6.988171142578125,0.0794101431965828,-0.08994726091623306,0.10262233763933182
1701864970723764000,6.997763916015625,0.0659715011715889,-0.09361234307289124,0.07085828483104706
1701864970733357300,7.007357421875,0.04153761267662048,-0.09483403712511063,0.04153761267662048
1701864970742949600,7.01694970703125,0.004886778071522713,-0.09605573117733002,0.009620844386518002
1701864970752541400,7.02654150390625,-0.04031591862440109,-0.09361234307289124,-0.028251685202121735
1701864970762134000,7.036134033203125,-0.07330167293548584,-0.07650861889123917,-0.07345438003540039
1701864970771727400,7.045727294921875,-0.11606097966432571,-0.05207473039627075,-0.11499200016260147
1701864970781320000,7.05531982421875,-0.16370706260204315,-0.014202198944985867,-0.13209572434425354
1701864970790911700,7.064911865234375,-0.20768806338310242,0.034665580838918686,-0.12720894813537598
1701864970800504300,7.07450439453125,-0.25655585527420044,0.0847550556063652,-0.11621369421482086
1701864970810097700,7.08409765625,-0.3115321099758148,0.1372879147529602,-0.1113269105553627
1701864970819690200,7.093690185546875,-0.3689517378807068,0.17882554233074188,-0.13331741094589233
1701864970829281800,7.10328173828125,-0.45202696323394775,0.19592925906181335,-0.1785201132297516
1701864970838874400,7.112874267578125,-0.5632011890411377,0.12140589207410812,-0.2041756957769394
1701864970848467700,7.1224677734375,-0.6586460471153259,0.05787777900695801,-0.2432699203491211
1701864970858060300,7.132060302734375,-0.728282630443573,-0.03008422814309597,-0.282364159822464
1701864970867652000,7.141652099609375,-0.7832589149475098,-0.054518118500709534,-0.3067980408668518
1701864970877244700,7.15124462890625,-0.8235748410224915,0.0004581354442052543,-0.2982461750507355
1701864970886838000,7.160838134765625,-0.8761076927185059,0.07986827939748764,-0.25060009956359863
1701864970896430600,7.1704306640625,-0.9335273504257202,0.19959434866905212,-0.18707197904586792
1701864970906022400,7.1800224609375,-0.9579612016677856,0.3364241421222687,-0.1247655525803566
1701864970915615000,7.189614990234375,-0.8968765139579773,0.448820024728775,-0.06368082761764526
1701864970925208300,7.199208251953125,-0.7356128096580505,0.5318952798843384,-0.024586603045463562
1701864970934801000,7.20880078125,-0.5241069197654724,0.5037962794303894,0.005955760832875967
1701864970944392400,7.218392333984375,-0.30664533376693726,0.3498627543449402,0.05008947476744652
1701864970953985000,7.227985107421875,-0.12094775587320328,0.09941539168357849,0.13682979345321655
1701864970963578400,7.237578369140625,0.04031591862440109,-0.2047865390777588,0.2895416021347046
1701864970973171000,7.2471708984375,0.1954711228609085,-0.4894413650035858,0.4813476502895355
1701864970982762800,7.2567626953125,0.34573954343795776,-0.6274928450584412,0.6707102656364441
1701864970992355300,7.266355224609375,0.5106683373451233,-0.5175403356552124,0.8148702383041382
1701864971001948700,7.27594873046875,0.7488987445831299,0.009009997360408306,0.8502993583679199
1701864971011541200,7.285541259765625,1.0738694667816162,1.0816577672958374,0.7036960124969482
1701864971021132800,7.2951328125,1.439156174659729,2.498823404312134,0.3274141252040863
1701864971030725600,7.3047255859375,1.808107852935791,3.6081221103668213,-0.27381229400634766
1701864971040319000,7.314319091796875,2.0316779613494873,3.650881290435791,-0.9567395448684692
1701864971049911300,7.323911376953125,1.8985133171081543,2.0639002323150635,-1.2939271926879883
1701864971059503000,7.333503173828125,1.2168077230453491,-1.0330954790115356,-0.6855233311653137
1701864971069095700,7.343095703125,0.5057815313339233,-2.9268746376037598,-0.0856713280081749
1701864971078689000,7.35268896484375,0.2907632887363434,-3.0331621170043945,-0.3446705639362335
1701864971088281600,7.362281494140625,0.17836740612983704,-2.4076545238494873,-1.2450593709945679
1701864971097873400,7.371873291015625,0.05741964280605316,-1.0685245990753174,-1.9939581155776978
1701864971107466000,7.381466064453125,0.01588202826678753,-0.4088095426559448,-1.7801616191864014
1701864971117059300,7.391059326171875,-0.01832541823387146,-0.09727742522954941,-0.9823951125144958
1701864971126652000,7.40065185546875,-0.11483928561210632,0.35474956035614014,-0.4362976551055908
1701864971136243500,7.410243408203125,-0.15271180868148804,0.5160132050514221,-0.22372281551361084
1701864971145836000,7.4198359375,-0.16004198789596558,0.38162681460380554,-0.09055810421705246
1701864971155429400,7.429429443359375,-0.15515519678592682,0.16660858690738678,0.09651386737823486
1701864971165022000,7.43902197265625,-0.13438639044761658,-0.1388150453567505,0.2761029601097107
1701864971174613800,7.44861376953125,-0.0794101431965828,-0.46012070775032043,0.3176405727863312
1701864971184206300,7.458206298828125,0.03542914241552353,-0.7569924592971802,0.15393351018428802
1701864971193799700,7.467799560546875,0.13438639044761658,-0.9842276573181152,-0.18585027754306793
1701864971203392300,7.477392333984375,0.24433889985084534,-1.1980241537094116,-0.5657972693443298
1701864971212984000,7.486984130859375,0.3396310806274414,-1.325080394744873,-0.8419002294540405
1701864971222576600,7.49657666015625,0.28221142292022705,-1.3238587379455566,-0.968956470489502
1701864971232170000,7.506169921875,0.20035789906978607,-1.2749909162521362,-1.0495883226394653
1701864971241762600,7.515762451171875,0.20035789906978607,-1.4081556797027588,-1.2878187894821167
1701864971251354000,7.52535400390625,0.1844758689403534,-1.097845196723938,-1.1302201747894287
1701864971260946700,7.53494677734375,0.11606097966432571,-0.983005940914154,-0.8907679915428162
1701864971270540000,7.5445400390625,0.1172826737165451,-0.9170344471931458,-0.6757497787475586
1701864971280132600,7.554132568359375,0.1979145109653473,-0.7545490860939026,-0.5474718809127808
1701864971289724400,7.563724365234375,0.3567348122596741,-0.4503471553325653,-0.5926745533943176
1701864971299317000,7.57331689453125,0.5143333673477173,-0.19623468816280365,-0.6891884207725525
1701864971308910300,7.582910400390625,0.5485408306121826,-0.1107160672545433,-0.7026270627975464
1701864971318503000,7.5925029296875,0.4825693368911743,-0.15714046359062195,-0.6586460471153259
1701864971328094700,7.6020947265625,0.43858832120895386,-0.36849361658096313,-0.6122216582298279
1701864971337687300,7.611687255859375,0.4825693368911743,-0.6409314870834351,-0.5095993280410767
1701864971347280600,7.62128076171875,0.6132906675338745,-0.6287145614624023,-0.2982461750507355
1701864971356873000,7.630873046875,0.7989882230758667,-0.18157434463500977,0.06719319522380829
1701864971366464800,7.64046484375,1.0164498090744019,0.4414898455142975,0.5143333673477173
1701864971376057300,7.650057373046875,1.1935955286026,1.0498937368392944,0.8014315962791443
1701864971385650700,7.659650634765625,1.2045907974243164,1.5556752681732178,0.7562289237976074
1701864971395243300,7.6692431640625,1.123958945274353,1.8366650342941284,0.5021164417266846
1701864971404835000,7.6788349609375,1.1166287660598755,1.8549903631210327,0.23090025782585144
1701864971414427600,7.688427734375,1.249793529510498,1.7535897493362427,0.04153761267662048
1701864971424021000,7.69802099609375,1.4892456531524658,1.6644060611724854,-0.007482878863811493
1701864971433613600,7.707613525390625,1.784895658493042,1.6668494939804077,0.05008947476744652
1701864971443205000,7.717205078125,2.0524468421936035,1.7865755558013916,0.21990501880645752
1701864971452797700,7.726797607421875,2.224705696105957,1.9759382009506226,0.46668729186058044
1701864971462391000,7.73639111328125,2.340766668319702,1.9698296785354614,0.7391251921653748
1701864971471983600,7.745983642578125,2.3395450115203857,1.8537687063217163,1.007897973060608
1701864971481575400,7.755575439453125,2.3713090419769287,1.7071653604507446,1.2216944694519043
1701864971491168000,7.76516796875,2.4568276405334473,1.6277552843093872,1.4428212642669678
1701864971500761300,7.77476123046875,2.58021879196167,1.6582975387573242,1.641957402229309
1701864971510354000,7.78435400390625,2.7439258098602295,1.7144955396652222,1.7311410903930664
1701864971519945700,7.79394580078125,2.93328857421875,1.7230473756790161,1.6761648654937744
1701864971529538300,7.803538330078125,3.0786702632904053,1.6754013299942017,1.549108624458313
1701864971539131600,7.813131591796875,3.1397550106048584,1.5947694778442383,1.4464863538742065
1701864971548724200,7.82272412109375,3.112877607345581,1.5153592824935913,1.3951750993728638
1701864971558315800,7.832315673828125,3.0212504863739014,1.4115153551101685,1.3817365169525146
1701864971567908400,7.841908447265625,2.901524543762207,1.2722420692443848,1.3841798305511475
1701864971577502000,7.851501953125,2.780576705932617,1.1293038129806519,1.3902883529663086
1701864971587094300,7.86109423828125,2.6620724201202393,0.9631534218788147,1.382958173751831
1701864971596686000,7.87068603515625,2.520355701446533,0.7664605975151062,1.351194143295288
1701864971606278700,7.880278564453125,2.345653533935547,0.5380037426948547,1.3194301128387451
1701864971615872000,7.8898720703125,2.126970052719116,0.30221667885780334,1.3035480976104736
1701864971625464600,7.899464599609375,1.8948482275009155,0.08353336155414581,1.2717839479446411
1701864971635056400,7.909056396484375,1.6627262830734253,-0.1119377613067627,1.220472812652588
1701864971644649000,7.91864892578125,1.4318259954452515,-0.3049654960632324,1.155722975730896
1701864971654242300,7.9282421875,1.2241379022598267,-0.5004366040229797,1.0897514820098877
1701864971663834600,7.937834716796875,1.0640959739685059,-0.6299362182617188,1.0396620035171509
1701864971673426400,7.947426513671875,0.9614735841751099,-0.6739172339439392,1.0066763162612915
1701864971683019000,7.95701904296875,0.8869501948356628,-0.7313368916511536,0.9614735841751099
1701864971692612400,7.9666123046875,0.8319739699363708,-0.8681666851043701,0.9138274788856506
1701864971702205000,7.976204833984375,0.8124268651008606,-1.052642583847046,0.9077190160751343
1701864971711796700,7.985796630859375,0.8295305967330933,-1.223679780960083,0.9407047629356384
1701864971721389300,7.995389404296875,0.8747332692146301,-1.366618037223816,1.022558331489563
1701864971730982700,8.004982666015625,0.9236010313034058,-1.499782681465149,1.1545013189315796
1701864971740575200,8.0145751953125,1.0005677938461304,-1.5927842855453491,1.3059914112091064
1701864971750167000,8.0241669921875,1.1178505420684814,-1.633100152015686,1.4452645778656006
1701864971759759600,8.033759521484376,1.2009257078170776,-1.601336121559143,1.5332266092300415
1701864971769352700,8.043352783203124,1.2387982606887817,-1.5205515623092651,1.5649906396865845
1701864971778945500,8.052945556640625,1.2216944694519043,-1.4105989933013916,1.5857595205307007
1701864971788537000,8.062537109375,1.1520578861236572,-1.2823210954666138,1.6138584613800049
1701864971798129700,8.072129638671875,1.0103414058685303,-1.1418262720108032,1.6236320734024048
1701864971807723000,8.081722900390625,0.813648521900177,-0.9720106720924377,1.5662124156951904
1701864971817315600,8.091315673828126,0.6462764143943787,-0.8119687438011169,1.4635900259017944
1701864971826907400,8.100907470703126,0.5448757410049438,-0.8791618943214417,1.3780714273452759
1701864971836500000,8.1105,0.5106683373451233,-1.1528215408325195,1.3292036056518555
1701864971846093300,8.12009326171875,0.4813476502895355,-1.3947169780731201,1.3401988744735718
1701864971855686000,8.129685791015625,0.3921639323234558,-1.4948959350585938,1.3768497705459595
1701864971865277400,8.13927734375,0.26877278089523315,-1.436254620552063,1.3963968753814697
1701864971874870300,8.148870361328125,0.14171656966209412,-1.3629529476165771,1.3646327257156372
1701864971884463400,8.15846337890625,0.04886778071522713,-1.3128634691238403,1.281557559967041
1701864971894056000,8.168055908203126,0.0036650835536420345,-1.209019422531128,1.1606098413467407
1701864971903647700,8.177647705078124,0.009773556143045425,-1.1051753759384155,1.0323318243026733
1701864971913240300,8.187240234375,0.05986303091049194,-0.9805625677108765,0.9248227477073669
1701864971922833700,8.196833740234375,0.14171656966209412,-0.8742751479148865,0.8454126119613647
1701864971932426200,8.20642626953125,0.20280128717422485,-0.7936432957649231,0.7928797602653503
1701864971942018000,8.21601806640625,0.19424942135810852,-0.695907711982727,0.7611156702041626
1701864971951610600,8.225610595703126,0.13682979345321655,-0.5529694557189941,0.7281299233436584
1701864971961204000,8.235203857421874,0.08551861345767975,-0.41980478167533875,0.675597071647644
1701864971970796500,8.244796630859375,0.05864133685827255,-0.33917292952537537,0.6071822047233582
1701864971980388000,8.25438818359375,0.042759306728839874,-0.3208475112915039,0.5399889945983887
1701864971989980700,8.263980712890625,0.03665083646774292,-0.3599417507648468,0.49356457591056824
1701864971999574000,8.273573974609375,0.043981000781059265,-0.4405735731124878,0.4703523814678192
1701864972009166600,8.28316650390625,0.06719319522380829,-0.5468609929084778,0.4618005156517029
1701864972018758400,8.29275830078125,0.10628741979598999,-0.669030487537384,0.4593571424484253
1701864972028351000,8.30235107421875,0.14782503247261047,-0.8009734749794006,0.4593571424484253
1701864972037944300,8.3119443359375,0.17592400312423706,-0.9316948056221008,0.4556920528411865
1701864972047537000,8.321536865234375,0.16859383881092072,-1.0172133445739746,0.4556920528411865
1701864972057128700,8.331128662109375,0.1185043677687645,-1.0416473150253296,0.46668729186058044
1701864972066721300,8.34072119140625,0.06352811306715012,-1.0367605686187744,0.48012593388557434
1701864972076314400,8.350314453125,0.01710372418165207,-1.0208784341812134,0.4886777997016907
1701864972085907000,8.359906982421874,-0.029320668429136276,-0.9903361201286316,0.4850127100944519
1701864972095498800,8.369498779296874,-0.062306419014930725,-0.9316948056221008,0.474017471075058
1701864972105091300,8.37909130859375,-0.07452336698770523,-0.8620582222938538,0.45324867963790894
1701864972114684700,8.3886845703125,-0.0781884491443634,-0.8083036541938782,0.4202629029750824
1701864972124277200,8.39827734375,-0.07330167293548584,-0.775317907333374,0.3775036036968231
1701864972133869000,8.407869140625,-0.05864133685827255,-0.747218906879425,0.3151971995830536
1701864972143461600,8.417461669921876,-0.030542362481355667,-0.7203416228294373,0.23334364593029022
1701864972153055000,8.427054931640624,0.010995250195264816,-0.7142331600189209,0.13805148005485535
1701864972162647300,8.436647216796874,0.05497625470161438,-0.73255854845047,0.05986303091049194
1701864972172239000,8.446239013671875,0.08185353130102158,-0.7435538172721863,0.008399149402976036
1701864972181832000,8.45583203125,0.08674030750989914,-0.7178982496261597,-0.01969982497394085
1701864972191425000,8.465425048828125,0.0781884491443634,-0.6629219651222229,-0.04291202127933502
1701864972201017600,8.475017578125,0.05986303091049194,-0.5883986353874207,-0.06856760382652283
1701864972210609400,8.484609375,0.03420744836330414,-0.5028799772262573,-0.09177979826927185
1701864972220202000,8.494201904296874,0.0012216945178806782,-0.4234698712825775,-0.11010521650314331
1701864972229795300,8.50379541015625,-0.03176405653357506,-0.3489464819431305,-0.12232216447591782
1701864972239388000,8.513387939453125,-0.06841489672660828,-0.2829749882221222,-0.13087402284145355
1701864972248979700,8.522979736328125,-0.10628741979598999,-0.22555534541606903,-0.14064757525920868
1701864972258572300,8.532572265625,-0.14904673397541046,-0.17057909071445465,-0.1516428291797638
1701864972268165600,8.54216552734375,-0.19058434665203094,-0.12171131372451782,-0.1626380831003189
1701864972277758200,8.55175830078125,-0.22845686972141266,-0.07895200699567795,-0.1760767251253128
1701864972287349800,8.561349853515624,-0.2638860046863556,-0.0459662564098835,-0.19440214335918427
1701864972296942300,8.5709423828125,-0.29565006494522095,-0.025197450071573257,-0.21394924819469452
1701864972306535700,8.58053564453125,-0.31886225938796997,-0.0068720318377017975,-0.2286095917224884
1701864972316128300,8.590128173828125,-0.3286358118057251,0.0016798300202935934,-0.23227466642856598
1701864972325720000,8.599719970703125,-0.3261924386024475,0.0016798300202935934,-0.22127941250801086
1701864972335312600,8.609312744140626,-0.30786702036857605,-0.0068720318377017975,-0.20539739727973938
1701864972344906000,8.618906005859374,-0.27854636311531067,-0.020310672000050545,-0.1882936656475067
1701864972354498600,8.62849853515625,-0.2504473626613617,-0.03374931216239929,-0.1760767251253128
1701864972364090400,8.63809033203125,-0.2235700935125351,-0.04840964451432228,-0.16630317270755768
1701864972373683000,8.647682861328125,-0.20280128717422485,-0.07406523078680038,-0.15408621728420258
1701864972383276300,8.6572763671875,-0.17592400312423706,-0.07650861889123917,-0.13942588865756989
1701864972392868600,8.66686865234375,-0.1588202863931656,-0.07040014863014221,-0.12232216447591782
1701864972402460400,8.67646044921875,-0.15026842057704926,-0.08139539510011673,-0.10888352245092392
1701864972412053000,8.686052978515624,-0.1453816443681717,-0.0984991192817688,-0.09300149232149124
1701864972421646300,8.695646240234375,-0.14660334587097168,-0.11560284346342087,-0.07956285774707794
1701864972431239000,8.705239013671875,-0.1563768982887268,-0.13148486614227295,-0.07467607408761978
1701864972440830700,8.714830810546875,-0.1698155403137207,-0.1375933438539505,-0.08689302206039429
1701864972450423300,8.72442333984375,-0.18691925704479218,-0.1388150453567505,-0.10644013434648514
1701864972460016600,8.7340166015625,-0.20402298867702484,-0.12904147803783417,-0.1247655525803566
1701864972469609200,8.743609130859374,-0.2235700935125351,-0.11315945535898209,-0.14064757525920868
1701864972479200800,8.75320068359375,-0.24067382514476776,-0.09483403712511063,-0.15775130689144135
1701864972488793600,8.762793701171875,-0.2516690790653229,-0.07773031294345856,-0.17363333702087402
1701864972498387000,8.772386962890625,-0.25533416867256165,-0.06673506647348404,-0.18462859094142914
1701864972507979300,8.781979248046875,-0.25411245226860046,-0.05207473039627075,-0.1882936656475067
1701864972517571000,8.791571044921875,-0.25411245226860046,-0.039857782423496246,-0.1907370537519455
1701864972527163600,8.80116357421875,-0.2516690790653229,-0.023975754156708717,-0.18585027754306793
1701864972536757000,8.810757080078124,-0.2480039894580841,-0.0032069480512291193,-0.17363333702087402
1701864972546349600,8.820349609375,-0.2480039894580841,0.02244863659143448,-0.1626380831003189
1701864972555941400,8.82994140625,-0.2504473626613617,0.04443913698196411,-0.15775130689144135
1701864972565534000,8.839533935546875,-0.25533416867256165,0.06765133142471313,-0.16019469499588013
1701864972575127300,8.849127197265625,-0.26632940769195557,0.0847550556063652,-0.16630317270755768
1701864972584720000,8.858719970703126,-0.2773246467113495,0.10430216789245605,-0.17485502362251282
1701864972594311400,8.8683115234375,-0.2883199155330658,0.12140589207410812,-0.18462859094142914
1701864972603904000,8.877904052734374,-0.29320669174194336,0.14583978056907654,-0.19562382996082306
1701864972613497300,8.887497314453125,-0.29687178134918213,0.1763821393251419,-0.2017323076725006
1701864972623090000,8.89708984375,-0.29442837834358215,0.2044811248779297,-0.2029540091753006
1701864972632681700,8.906681640625,-0.2895416021347046,0.21791976690292358,-0.2029540091753006
1701864972642274300,8.9162744140625,-0.28098973631858826,0.2411319613456726,-0.2029540091753006
1701864972651867600,8.92586767578125,-0.2773246467113495,0.2655658423900604,-0.2029540091753006
1701864972661460200,8.935460205078124,-0.26877278089523315,0.2826695740222931,-0.20051060616970062
1701864972671052000,8.945052001953124,-0.261442631483078,0.296108216047287,-0.19684553146362305
1701864972680644600,8.95464453125,-0.2516690790653229,0.3083251416683197,-0.1895153671503067
1701864972690238000,8.964238037109375,-0.237008735537529,0.31321191787719727,-0.17974179983139038
1701864972699830500,8.97383056640625,-0.21868331730365753,0.31565532088279724,-0.16996824741363525
1701864972709422000,8.983422119140625,-0.20157960057258606,0.31565532088279724,-0.15530791878700256
1701864972719014700,8.9930146484375,-0.18569757044315338,0.31565532088279724,-0.14186927676200867
1701864972728608000,9.00260791015625,-0.1698155403137207,0.319320410490036,-0.12720894813537598
1701864972738200600,9.01220068359375,-0.15393351018428802,0.3205420970916748,-0.11010521650314331
1701864972747792400,9.02179248046875,-0.13805148005485535,0.3180987238883972,-0.0844496339559555
1701864972757385000,9.031385009765625,-0.11972606182098389,0.3107685446739197,-0.05024218559265137
1701864972766978300,9.040978271484375,-0.09895725548267365,0.30343836545944214,-0.012369656935334206
1701864972776571000,9.05057080078125,-0.07574506103992462,0.28999972343444824,0.020616095513105392
1701864972786162700,9.06016259765625,-0.0525328628718853,0.2692309319972992,0.045202698558568954
1701864972795755300,9.06975537109375,-0.029320668429136276,0.24846212565898895,0.0647498071193695
1701864972805348600,9.0793486328125,-0.008551862090826035,0.2313583940267563,0.08063183724880219
1701864972814941000,9.08894091796875,0.013438640162348747,0.2154763638973236,0.09651386737823486
1701864972824532700,9.09853271484375,0.03298575058579445,0.19959434866905212,0.10995250940322876
1701864972834125300,9.108125244140625,0.0525328628718853,0.18737739324569702,0.12216944992542267
1701864972843718700,9.11771875,0.06963659077882767,0.1751604527235031,0.129499614238739
1701864972853311200,9.127311279296874,0.08063183724880219,0.1629435122013092,0.13316470384597778
1701864972862903000,9.136903076171874,0.08918370306491852,0.15316994488239288,0.1319430023431778
1701864972872495600,9.14649560546875,0.09040539711713791,0.14217470586299896,0.12827792763710022
1701864972882089000,9.1560888671875,0.08796200156211853,0.12629267573356628,0.12461283802986145
1701864972891681500,9.165681640625,0.08429691940546036,0.10430216789245605,0.1172826737165451
1701864972901273000,9.175273193359375,0.0781884491443634,0.07742489129304886,0.10750912129878998
1701864972910866000,9.184865966796876,0.07085828483104706,0.05543438717722893,0.09773556143045425
1701864972920459000,9.194458984375,0.05986303091049194,0.037108972668647766,0.08918370306491852
1701864972930051600,9.204051513671875,0.05008947476744652,0.02489202655851841,0.08185353130102158
1701864972939643400,9.213643310546875,0.042759306728839874,0.013896775431931019,0.07207997888326645
1701864972949236000,9.223236083984375,0.03665083646774292,0.010231691412627697,0.06352811306715012
1701864972958829300,9.232829345703125,0.03298575058579445,0.013896775431931019,0.05619794875383377
1701864972968422000,9.242421875,0.03298575058579445,0.02489202655851841,0.05008947476744652
1701864972978013700,9.252013671875,0.03542914241552353,0.03833066672086716,0.047646086663007736
1701864972987606300,9.261606201171874,0.04031591862440109,0.050547610968351364,0.045202698558568954
1701864972997199600,9.27119970703125,0.043981000781059265,0.06032116711139679,0.042759306728839874
1701864973006792200,9.280792236328125,0.05008947476744652,0.06887302547693253,0.04031591862440109
1701864973016383700,9.2903837890625,0.05619794875383377,0.08353336155414581,0.03542914241552353
1701864973025976300,9.299976318359375,0.062306419014930725,0.10430216789245605,0.030542362481355667
1701864973035569700,9.309569580078126,0.07207997888326645,0.13117945194244385,0.028098974376916885
1701864973045162200,9.319162353515624,0.08307522535324097,0.16050012409687042,0.026877280324697495
1701864973054754000,9.328754150390624,0.09284878522157669,0.188599094748497,0.025655584409832954
1701864973064346600,9.3383466796875,0.09773556143045425,0.21791976690292358,0.024433890357613564
1701864973073940000,9.34793994140625,0.09651386737823486,0.2435753494501114,0.024433890357613564
1701864973083532500,9.357532470703125,0.08429691940546036,0.26067906618118286,0.021837789565324783
1701864973093124400,9.367124267578125,0.0647498071193695,0.2680092453956604,0.014507622458040714
1701864973102717000,9.376717041015626,0.04153761267662048,0.26434415578842163,0.007177455350756645
1701864973112310300,9.386310302734374,0.01832541823387146,0.2570139765739441,0.009620844386518002
1701864973121902600,9.395902587890625,0.0036650835536420345,0.24846212565898895,0.023212196305394173
1701864973131494400,9.405494384765625,-0.008551862090826035,0.2411319613456726,0.04886778071522713
1701864973141087000,9.4150869140625,-0.021990500390529633,0.24846212565898895,0.08185353130102158
1701864973150680300,9.424680419921875,-0.042759306728839874,0.2545706033706665,0.11117420345544815
1701864973160273000,9.43427294921875,-0.0659715011715889,0.25090551376342773,0.13438639044761658
1701864973169864700,9.44386474609375,-0.08796200156211853,0.23380178213119507,0.1563768982887268
1701864973179457300,9.453457275390624,-0.10384403169155121,0.20570281147956848,0.1820324808359146
1701864973189050600,9.463050537109375,-0.11483928561210632,0.17149536311626434,0.20768806338310242
1701864973198643200,9.472643310546875,-0.11972606182098389,0.1519482582807541,0.23090025782585144
1701864973208234800,9.48223486328125,-0.11606097966432571,0.16172181069850922,0.2504473626613617
1701864973217827600,9.49182763671875,-0.10995250940322876,0.1898207813501358,0.2602209448814392
1701864973227420700,9.501420654296876,-0.1050657257437706,0.2166980654001236,0.25533416867256165
1701864973237013200,9.51101318359375,-0.10017894953489304,0.24479703605175018,0.23945212364196777
1701864973246605000,9.52060498046875,-0.09040539711713791,0.2582356929779053,0.2235700935125351
1701864973256197600,9.53019775390625,-0.07452336698770523,0.2680092453956604,0.20402298867702484
1701864973265791000,9.539791015625,-0.05497625470161438,0.2777827978134155,0.1832541823387146
1701864973275383600,9.549383544921875,-0.026877280324697495,0.2582356929779053,0.16004198789596558
1701864973284975400,9.558975341796875,0.0036650835536420345,0.21914145350456238,0.13316470384597778
1701864973294568000,9.56856787109375,0.030542362481355667,0.18126893043518066,0.10384403169155121
1701864973304161300,9.578161376953124,0.04153761267662048,0.1519482582807541,0.07207997888326645
1701864973313753900,9.58775390625,0.046424392610788345,0.1360662281513214,0.04031591862440109
1701864973323345400,9.597345458984375,0.043981000781059265,0.12629267573356628,0.012064233422279358
1701864973332938000,9.60693798828125,0.03420744836330414,0.12140589207410812,-0.016034740954637527
1701864973342531300,9.61653125,0.023212196305394173,0.11896250396966934,-0.04046862944960594
1701864973352124000,9.6261240234375,0.012216945178806782,0.12018419802188873,-0.06001574173569679
1701864973361715700,9.6357158203125,0.0012216945178806782,0.1250709742307663,-0.07711946964263916
1701864973371308300,9.645308349609374,-0.009773556143045425,0.13117945194244385,-0.09300149232149124
1701864973380901600,9.654901611328125,-0.02076880633831024,0.13484452664852142,-0.10766182839870453
1701864973390494200,9.664494140625,-0.03176405653357506,0.1372879147529602,-0.12354385852813721
1701864973400086000,9.6740859375,-0.042759306728839874,0.1385096162557602,-0.1369825005531311
1701864973409678600,9.6836787109375,-0.0525328628718853,0.13973131775856018,-0.14675605297088623
1701864973419272000,9.69327197265625,-0.061084724962711334,0.14217470586299896,-0.15408621728420258
1701864973428864500,9.702864501953124,-0.0647498071193695,0.14461809396743774,-0.15775130689144135
1701864973438456000,9.7124560546875,-0.0659715011715889,0.14461809396743774,-0.16019469499588013
1701864973448048600,9.722048583984375,-0.062306419014930725,0.14095300436019897,-0.16019469499588013
1701864973457642000,9.73164208984375,-0.05619794875383377,0.13484452664852142,-0.15897299349308014
1701864973467234600,9.741234619140625,-0.047646086663007736,0.09086353331804276,-0.1516428291797638
1701864973476826400,9.750826416015625,-0.046424392610788345,0.0590994730591774,-0.16019469499588013
1701864973486419000,9.7604189453125,-0.03542914241552353,0.07986827939748764,-0.16874656081199646
1701864973496012300,9.77001220703125,-0.021990500390529633,0.10063708573579788,-0.1638597846031189
1701864973505604900,9.77960498046875,-0.014660334214568138,0.1238492801785469,-0.15775130689144135
1701864973515196400,9.789196533203125,-0.013438640162348747,0.13240113854408264,-0.15530791878700256
1701864973524789200,9.798789306640625,-0.010995250195264816,0.13362284004688263,-0.15897299349308014
1701864973534382300,9.80838232421875,-0.006108472589403391,0.13484452664852142,-0.1638597846031189
1701864973543975000,9.817974853515626,0,0.13117945194244385,-0.16996824741363525
1701864973553566700,9.827566650390626,0.007330167107284069,0.11896250396966934,-0.1785201132297516
1701864973563159300,9.8371591796875,0.01588202826678753,0.10552386194467545,-0.1895153671503067
1701864973572752600,9.846752685546875,0.024433890357613564,0.0859767496585846,-0.2029540091753006
1701864973582345200,9.85634521484375,0.030542362481355667,0.06642963737249374,-0.22005772590637207
1701864973591937000,9.86593701171875,0.03665083646774292,0.052990999072790146,-0.23349636793136597
1701864973601529600,9.875529541015625,0.045202698558568954,0.04932591691613197,-0.24449162185192108
1701864973611123000,9.885123046875,0.0525328628718853,0.05421269312500954,-0.25060009956359863
1701864973620715500,9.894715576171874,0.05864133685827255,0.06765133142471313,-0.254265159368515
1701864973630307000,9.90430712890625,0.061084724962711334,0.0847550556063652,-0.2591519355773926
1701864973639900000,9.91389990234375,0.05864133685827255,0.10552386194467545,-0.2664821147918701
1701864973649493200,9.9234931640625,0.05131116881966591,0.11529742181301117,-0.279920756816864
1701864973659085600,9.93308544921875,0.04153761267662048,0.11529742181301117,-0.2970244884490967
1701864973668677400,9.942677490234376,0.025655584409832954,0.10430216789245605,-0.3214583694934845
1701864973678270000,9.95227001953125,0.004886778071522713,0.08719844371080399,-0.3507790267467499
1701864973687863300,9.96186328125,-0.01832541823387146,0.06276455521583557,-0.37887802720069885
1701864973697455900,9.971455810546875,-0.045202698558568954,0.03833066672086716,-0.40331190824508667
1701864973707047700,9.981047607421875,-0.07085828483104706,0.012675080448389053,-0.4228590130805969
1701864973716640300,9.99064013671875,-0.09773556143045425,-0.0068720318377017975,-0.4362976551055908
1701864973726233600,10.000233642578126,-0.12094775587320328,-0.022754060104489326,-0.4424061179161072
1701864973735826200,10.009826171875,-0.13805148005485535,-0.03130592033267021,-0.4424061179161072
1701864973745417700,10.019417724609376,-0.15271180868148804,-0.037414394319057465,-0.4375193417072296
1701864973755010300,10.02901025390625,-0.16370706260204315,-0.03497100621461868,-0.43018919229507446
1701864973764603600,10.038603759765625,-0.17470231652259827,-0.025197450071573257,-0.4265241026878357
1701864973774196200,10.0481962890625,-0.18081079423427582,-0.010537114925682545,-0.4240806996822357
1701864973783788000,10.0577880859375,-0.1832541823387146,0.0016798300202935934,-0.4240806996822357
1701864973793380600,10.067380615234375,-0.17836740612983704,0.012675080448389053,-0.4253024160861969
1701864973802974000,10.076973876953126,-0.16615045070648193,0.02244863659143448,-0.43141087889671326
1701864973812566500,10.08656640625,-0.1429382562637329,0.031000498682260513,-0.4375193417072296
1701864973822158300,10.096158447265625,-0.11361759155988693,0.032222192734479904,-0.4362976551055908
1701864973831751000,10.1057509765625,-0.08063183724880219,0.0261137206107378,-0.43263256549835205
1701864973841344300,10.11534423828125,-0.046424392610788345,0.021226942539215088,-0.4289674758911133
1701864973850936800,10.124936767578125,-0.01588202826678753,0.018783552572131157,-0.42163732647895813
1701864973860528400,10.1345283203125,0.010995250195264816,0.013896775431931019,-0.4106420576572418
1701864973870121000,10.144120849609376,0.03298575058579445,0.0065666078589856625,-0.39598172903060913
1701864973879714300,10.15371435546875,0.05131116881966591,-0.0007635590736754239,-0.38009971380233765
1701864973889307000,10.163306884765625,0.0647498071193695,-0.004428642801940441,-0.3617742955684662
1701864973898898700,10.172898681640625,0.07330167293548584,-0.004428642801940441,-0.33978378772735596
1701864973908491300,10.1824912109375,0.07330167293548584,0.007788302376866341,-0.31534990668296814
1701864973918084600,10.192084716796876,0.06963659077882767,0.02489202655851841,-0.28847262263298035
1701864973927677200,10.20167724609375,0.06352811306715012,0.04321744292974472,-0.2689255177974701
1701864973937268700,10.211268798828126,0.0525328628718853,0.05665608495473862,-0.2579302489757538
1701864973946861600,10.220861572265624,0.04031591862440109,0.06276455521583557,-0.254265159368515
1701864973956455000,10.230454833984375,0.030542362481355667,0.06642963737249374,-0.2530434727668762
1701864973966047200,10.240047119140625,0.01954711228609085,0.07009471952915192,-0.254265159368515
1701864973975639000,10.24963916015625,0.008551862090826035,0.07498150318861008,-0.2579302489757538
1701864973985231600,10.259231689453125,0,0.0847550556063652,-0.26403874158859253
1701864973994825000,10.268824951171876,-0.007330167107284069,0.09330692142248154,-0.2725905776023865
1701864974004417500,10.27841748046875,-0.014660334214568138,0.10552386194467545,-0.279920756816864
1701864974014009300,10.28800927734375,-0.01832541823387146,0.11407572776079178,-0.28725093603134155
1701864974023602000,10.297601806640625,-0.023212196305394173,0.11651911586523056,-0.2945810854434967
1701864974033195300,10.3071953125,-0.029320668429136276,0.11407572776079178,-0.30068957805633545
1701864974042787800,10.316787841796875,-0.03420744836330414,0.10674555599689484,-0.305576354265213
1701864974052379400,10.32637939453125,-0.04153761267662048,0.09697200357913971,-0.3092414140701294
1701864974061972000,10.335971923828126,-0.04886778071522713,0.08964183181524277,-0.31168481707572937
1701864974071565300,10.3455654296875,-0.05741964280605316,0.08353336155414581,-0.3104631304740906
1701864974081158000,10.355157958984375,-0.06841489672660828,0.07742489129304886,-0.3067980408668518
1701864974090749700,10.364749755859375,-0.08063183724880219,0.06765133142471313,-0.30313295125961304
1701864974100342300,10.37434228515625,-0.09407047927379608,0.052990999072790146,-0.29946786165237427
1701864974109935600,10.383935546875,-0.10628741979598999,0.04199574887752533,-0.2945810854434967
1701864974119528200,10.393528076171876,-0.11972606182098389,0.032222192734479904,-0.2933593988418579
1701864974129120000,10.4031201171875,-0.13438639044761658,0.016340164467692375,-0.2970244884490967
1701864974138712600,10.412712646484374,-0.14660334587097168,-0.008093725889921188,-0.3080197274684906
1701864974148306000,10.422305908203125,-0.15271180868148804,-0.038636088371276855,-0.3226800560951233
1701864974157898500,10.4318984375,-0.1563768982887268,-0.07040014863014221,-0.34100547432899475
1701864974167490000,10.441489990234375,-0.15271180868148804,-0.09605573117733002,-0.3568875193595886
1701864974177083000,10.451082763671875,-0.14049486815929413,-0.11804623156785965,-0.3642176687717438
1701864974186676200,10.46067626953125,-0.12216944992542267,-0.13148486614227295,-0.3593308925628662
1701864974196268500,10.4702685546875,-0.10140064358711243,-0.14125843346118927,-0.34100547432899475
1701864974205860400,10.4798603515625,-0.07574506103992462,-0.14614520967006683,-0.31657159328460693
1701864974215453000,10.489452880859375,-0.05131116881966591,-0.1498102843761444,-0.28847262263298035
1701864974225046300,10.49904638671875,-0.029320668429136276,-0.14736689627170563,-0.26281702518463135
1701864974234638800,10.508638916015625,-0.013438640162348747,-0.1363716572523117,-0.23593975603580475
1701864974244230700,10.518230712890626,0,-0.1253764033317566,-0.21272756159305573
1701864974253823200,10.5278232421875,0.008551862090826035,-0.11315945535898209,-0.19562382996082306
1701864974263416600,10.53741650390625,0.01832541823387146,-0.10338589549064636,-0.18462859094142914
1701864974273009200,10.547009033203125,0.029320668429136276,-0.09972081333398819,-0.18096350133419037
1701864974282600700,10.5566005859375,0.04031591862440109,-0.10338589549064636,-0.1772984117269516
1701864974292193300,10.566193359375,0.0525328628718853,-0.10582929104566574,-0.1785201132297516
1701864974301786600,10.57578662109375,0.0659715011715889,-0.10827267915010452,-0.18218518793582916
1701864974311379200,10.585379150390626,0.07452336698770523,-0.10216420143842697,-0.1907370537519455
1701864974320971000,10.594970947265624,0.0781884491443634,-0.09605573117733002,-0.19928891956806183
1701864974330563600,10.6045634765625,0.07452336698770523,-0.09116895496845245,-0.21150586009025574
1701864974340157000,10.614156982421875,0.06352811306715012,-0.08872556686401367,-0.22127941250801086
1701864974349749500,10.62374951171875,0.05008947476744652,-0.08383878320455551,-0.22738789021968842
1701864974359341300,10.63334130859375,0.03542914241552353,-0.07650861889123917,-0.22738789021968842
1701864974368934000,10.642933837890626,0.02076880633831024,-0.06673506647348404,-0.22250111401081085
1701864974378527200,10.65252734375,0.008551862090826035,-0.05207473039627075,-0.21883602440357208
1701864974388119800,10.662119873046874,-0.008551862090826035,-0.02641914412379265,-0.2163926362991333
1701864974397711400,10.67171142578125,-0.023212196305394173,-0.0007635590736754239,-0.21272756159305573
1701864974407304000,10.681303955078125,-0.03787253051996231,0.017561858519911766,-0.21272756159305573
1701864974416897300,10.690897216796875,-0.04886778071522713,0.029778804630041122,-0.21883602440357208
1701864974426489900,10.70048974609375,-0.05619794875383377,0.03833066672086716,-0.22616620361804962
1701864974436081700,10.71008154296875,-0.05864133685827255,0.034665580838918686,-0.23716144263744354
1701864974445674200,10.71967431640625,-0.05864133685827255,0.0261137206107378,-0.2530434727668762
1701864974455267600,10.729267578125,-0.05864133685827255,0.010231691412627697,-0.2713688910007477
1701864974464860200,10.738860107421875,-0.05864133685827255,-0.0068720318377017975,-0.28602921962738037
1701864974474451700,10.74845166015625,-0.05619794875383377,-0.025197450071573257,-0.2958027720451355
1701864974484044500,10.75804443359375,-0.05131116881966591,-0.04107947647571564,-0.305576354265213
1701864974493638000,10.767637939453126,-0.05131116881966591,-0.03374931216239929,-0.31168481707572937
1701864974503230200,10.777230224609376,-0.05375456064939499,-0.008093725889921188,-0.32634514570236206
1701864974512822000,10.786822021484374,-0.061084724962711334,0.018783552572131157,-0.3568875193595886
1701864974522414600,10.79641455078125,-0.06963659077882767,0.050547610968351364,-0.3898732662200928
1701864974532008000,10.806008056640625,-0.0781884491443634,0.08719844371080399,-0.411863774061203
1701864974541600500,10.8156005859375,-0.08551861345767975,0.12995775043964386,-0.41797223687171936
1701864974551192300,10.8251923828125,-0.09040539711713791,0.16660858690738678,-0.4130854606628418
1701864974560785000,10.834784912109376,-0.0916270911693573,0.19226416945457458,-0.3984251320362091
1701864974570378200,10.844378173828124,-0.08551861345767975,0.2032594233751297,-0.38009971380233765
1701864974579970800,10.853970703125,-0.07330167293548584,0.19837264716625214,-0.3605526089668274
1701864974589562600,10.863562744140625,-0.0390942245721817,0.17882554233074188,-0.3324536085128784
1701864974599155200,10.8731552734375,-0.007330167107284069,0.15805672109127045,-0.2982461750507355
1701864974608748500,10.88274853515625,0.009773556143045425,0.1372879147529602,-0.2652604281902313
1701864974618340900,10.8923408203125,0.01832541823387146,0.1250709742307663,-0.23593975603580475
1701864974627932700,10.9019326171875,0.024433890357613564,0.11529742181301117,-0.20784078538417816
1701864974637525200,10.911525146484376,0.030542362481355667,0.09575030952692032,-0.19195875525474548
1701864974647118600,10.92111865234375,0.03176405653357506,0.07864658534526825,-0.18340688943862915
1701864974656711200,10.930711181640625,0.025655584409832954,0.06642963737249374,-0.1760767251253128
1701864974666303000,10.940302978515625,0.01710372418165207,0.06642963737249374,-0.16752485930919647
1701864974675895600,10.9498955078125,0.004886778071522713,0.08108997344970703,-0.15530791878700256
1701864974685489000,10.959489013671876,-0.007330167107284069,0.10185877978801727,-0.14553436636924744
1701864974695081500,10.96908154296875,-0.01710372418165207,0.11529742181301117,-0.14309096336364746
1701864974704673000,10.978673095703124,-0.023212196305394173,0.11651911586523056,-0.14797775447368622
1701864974714265900,10.988265869140625,-0.026877280324697495,0.0981936976313591,-0.15897299349308014
1701864974723859200,10.997859130859375,-0.028098974376916885,0.07009471952915192,-0.16752485930919647
1701864974733451500,11.007451416015625,-0.029320668429136276,0.04077405482530594,-0.16752485930919647
1701864974743043300,11.017043212890625,-0.028098974376916885,0.013896775431931019,-0.15530791878700256
1701864974752636000,11.026635986328126,-0.028098974376916885,-0.01175880990922451,-0.13576079905033112
1701864974762229200,11.036229248046874,-0.026877280324697495,-0.036192700266838074,-0.11743538826704025
1701864974771821800,11.04582177734375,-0.024433890357613564,-0.055739812552928925,-0.10277505218982697
1701864974781413600,11.05541357421875,-0.02076880633831024,-0.06551336497068405,-0.0978882759809494
1701864974791006200,11.065006103515625,-0.014660334214568138,-0.0716218426823616,-0.0978882759809494
1701864974800599600,11.074599609375,-0.004886778071522713,-0.07040014863014221,-0.10277505218982697
1701864974810192100,11.084192138671876,0.007330167107284069,-0.06184828653931618,-0.10766182839870453
1701864974819783700,11.09378369140625,0.01832541823387146,-0.04352286830544472,-0.1113269105553627
1701864974829376300,11.103376220703124,0.026877280324697495,-0.020310672000050545,-0.11499200016260147
1701864974838969600,11.112969482421875,0.03665083646774292,0.0029015245381742716,-0.11987877637147903
1701864974848562200,11.122562255859375,0.045202698558568954,0.02367033064365387,-0.12843063473701477
1701864974858154000,11.132154052734375,0.05375456064939499,0.037108972668647766,-0.1382041871547699
1701864974867746600,11.14174658203125,0.05741964280605316,0.052990999072790146,-0.14675605297088623
1701864974877340000,11.15133984375,0.05497625470161438,0.07375980913639069,-0.150421142578125
1701864974886932500,11.160932373046874,0.05131116881966591,0.08842013776302338,-0.15775130689144135
1701864974896524300,11.170524169921874,0.043981000781059265,0.10063708573579788,-0.16752485930919647
1701864974906116900,11.180116943359375,0.025655584409832954,0.111632339656353,-0.17974179983139038
1701864974915710200,11.189710205078125,0.026877280324697495,0.11407572776079178,-0.18462859094142914
1701864974925302800,11.199302734375,0.03298575058579445,0.11896250396966934,-0.18218518793582916
1701864974934894300,11.208894287109375,0.03176405653357506,0.1250709742307663,-0.1785201132297516
1701864974944487000,11.21848681640625,0.03298575058579445,0.13362284004688263,-0.17241163551807404
1701864974954080300,11.228080322265624,0.04153761267662048,0.13484452664852142,-0.17118994891643524
1701864974963672800,11.2376728515625,0.05131116881966591,0.13240113854408264,-0.17241163551807404
1701864974973264600,11.2472646484375,0.0647498071193695,0.12629267573356628,-0.17485502362251282
1701864974982857200,11.256857177734375,0.08429691940546036,0.11407572776079178,-0.18096350133419037
1701864974992450600,11.266450439453125,0.09651386737823486,0.10796725004911423,-0.1882936656475067
1701864975002043100,11.276043212890626,0.10750912129878998,0.10796725004911423,-0.1907370537519455
1701864975011635000,11.285635009765626,0.10873081535100937,0.11407572776079178,-0.1895153671503067
1701864975021227500,11.2952275390625,0.10262233763933182,0.12629267573356628,-0.18096350133419037
1701864975030820900,11.30482080078125,0.08918370306491852,0.13484452664852142,-0.17118994891643524
1701864975040413400,11.314413330078125,0.0659715011715889,0.14095300436019897,-0.1626380831003189
1701864975050005000,11.3240048828125,0.030542362481355667,0.13117945194244385,-0.15286453068256378
1701864975059597600,11.33359765625,0.024433890357613564,0.12140589207410812,-0.12843063473701477
1701864975069191000,11.34319091796875,0.013438640162348747,0.11285403370857239,-0.1113269105553627
1701864975078783500,11.352783447265624,0.0036650835536420345,0.0981936976313591,-0.09910997003316879
1701864975088375300,11.362375244140624,-0.0012216945178806782,0.07742489129304886,-0.08933641016483307
1701864975097967900,11.3719677734375,-0.0024433890357613564,0.05787777900695801,-0.07956285774707794
1701864975107561200,11.381561279296875,-0.006108472589403391,0.0456608310341835,-0.06856760382652283
1701864975117153800,11.39115380859375,-0.009773556143045425,0.03588727489113808,-0.05757235363125801
1701864975126745600,11.40074560546875,-0.014660334214568138,0.028557108715176582,-0.047798797488212585
1701864975136338200,11.410338134765626,-0.01954711228609085,0.020005248486995697,-0.03924693539738655
1701864975145931500,11.419931640625,-0.021990500390529633,0.017561858519911766,-0.03436015918850899
1701864975155524000,11.429524169921875,-0.024433890357613564,0.020005248486995697,-0.031916771084070206
1701864975165115600,11.43911572265625,-0.024433890357613564,0.02489202655851841,-0.029473381116986275
1701864975174708200,11.448708251953125,-0.02076880633831024,0.032222192734479904,-0.028251685202121735
1701864975184301600,11.458301513671875,-0.01710372418165207,0.04199574887752533,-0.030695075169205666
1701864975193894100,11.46789404296875,-0.010995250195264816,0.04810422286391258,-0.03802524134516716
1701864975203486000,11.47748583984375,-0.004886778071522713,0.04810422286391258,-0.049020491540431976
1701864975213078500,11.48707861328125,0,0.03955236077308655,-0.0587940476834774
1701864975222672000,11.496671875,0.0036650835536420345,0.02367033064365387,-0.06368082761764526
1701864975232264400,11.506264404296875,0.008551862090826035,0.0065666078589856625,-0.06368082761764526
1701864975241856300,11.515856201171875,0.013438640162348747,-0.004428642801940441,-0.05512896552681923
1701864975251448800,11.52544873046875,0.01954711228609085,-0.010537114925682545,-0.04169032722711563
1701864975261042000,11.5350419921875,0.026877280324697495,-0.010537114925682545,-0.027029991149902344
1701864975270634800,11.544634765625,0.03298575058579445,-0.01175880990922451,-0.013591351918876171
1701864975280226300,11.554226318359374,0.04031591862440109,-0.016645587980747223,-0.0038177953101694584
1701864975289819000,11.56381884765625,0.045202698558568954,-0.03008422814309597,0.004734066314995289
1701864975299412200,11.573412109375,0.05131116881966591,-0.04474456235766411,0.013285927474498749
1701864975309004800,11.5830048828125,0.05864133685827255,-0.0594048947095871,0.023212196305394173
1701864975318596600,11.5925966796875,0.06963659077882767,-0.07040014863014221,0.03176405653357506
1701864975328189200,11.602189208984376,0.0794101431965828,-0.07406523078680038,0.03298575058579445
1701864975337782500,11.611782470703124,0.08918370306491852,-0.06795676052570343,0.026877280324697495
1701864975347375000,11.621375,0.09895725548267365,-0.05207473039627075,0.013285927474498749
1701864975356966700,11.630966552734375,0.10384403169155121,0.018783552572131157,-0.03924693539738655
1701864975366559500,11.6405595703125,0.11361759155988693,0.0456608310341835,-0.09055810421705246
1701864975376152800,11.65015283203125,0.11239589750766754,0.03833066672086716,-0.06368082761764526
1701864975385745200,11.6597451171875,0.10995250940322876,0.05787777900695801,-0.03924693539738655
1701864975395337000,11.6693369140625,0.10140064358711243,0.0859767496585846,-0.06978929787874222
1701864975404929500,11.678929443359374,0.09773556143045425,0.10185877978801727,-0.09055810421705246
1701864975414523000,11.68852294921875,0.09407047927379608,0.10308047384023666,-0.09422318637371063
1701864975424115500,11.698115478515625,0.0916270911693573,0.10185877978801727,-0.08933641016483307
1701864975433707300,11.707707275390625,0.08674030750989914,0.09697200357913971,-0.07834116369485855
1701864975443299800,11.7172998046875,0.08674030750989914,0.0725381150841713,-0.06490252166986465
1701864975452893200,11.72689306640625,0.09529217332601547,0.03588727489113808,-0.05390727147459984
1701864975462485800,11.73648583984375,0.09407047927379608,0.037108972668647766,-0.05024218559265137
1701864975472077300,11.746077392578124,0.08796200156211853,0.04810422286391258,-0.045355409383773804
1701864975481670000,11.755669921875,0.08063183724880219,0.07009471952915192,-0.04413371533155441
1701864975491263500,11.765263427734375,0.07330167293548584,0.09086353331804276,-0.05024218559265137
1701864975500856000,11.77485595703125,0.06719319522380829,0.10308047384023666,-0.06001574173569679
1701864975510447600,11.784447509765625,0.06352811306715012,0.10063708573579788,-0.06856760382652283
1701864975520040200,11.794040283203126,0.0659715011715889,0.0847550556063652,-0.07467607408761978
1701864975529633500,11.803633544921874,0.06719319522380829,0.06765133142471313,-0.07101099193096161
1701864975539226000,11.81322607421875,0.06719319522380829,0.052990999072790146,-0.06001574173569679
1701864975548818000,11.82281787109375,0.0659715011715889,0.04321744292974472,-0.04046862944960594
1701864975558410500,11.832410400390625,0.0659715011715889,0.03833066672086716,-0.02092151902616024
1701864975568003800,11.84200390625,0.05986303091049194,0.051769305020570755,-0.011147962883114815
1701864975577596400,11.851596435546876,0.05008947476744652,0.06642963737249374,-0.008704573847353458
1701864975587188000,11.86118798828125,0.03787253051996231,0.07986827939748764,-0.00992626789957285
1701864975596780800,11.87078076171875,0.023212196305394173,0.07742489129304886,-0.0050394898280501366
1701864975606374100,11.8803740234375,0.013438640162348747,0.07986827939748764,0.0035123717971146107
1701864975615966500,11.889966552734375,0.0036650835536420345,0.07864658534526825,0.013285927474498749
1701864975625558300,11.899558349609375,0.0024433890357613564,0.051769305020570755,0.026877280324697495
1701864975635150800,11.90915087890625,0.008551862090826035,0.033443886786699295,0.03542914241552353
1701864975644744200,11.918744140625,0.013438640162348747,0.010231691412627697,0.03420744836330414
1701864975654336800,11.928336669921874,0.009773556143045425,-0.038636088371276855,0.009620844386518002
1701864975663928600,11.937928466796874,-0.010995250195264816,-0.07773031294345856,-0.011147962883114815
