time,seconds_elapsed,z,y,x
1701881424313422300,0.13842236328125,-1.0677610635757446,-0.33764582872390747,-0.12171131372451782
1701881424323015700,0.148015625,-1.115407109260559,-0.47585001587867737,0.0029015245381742716
1701881424332608000,0.15760791015625,-1.132510781288147,-0.9547542929649353,-0.036192700266838074
1701881424342199600,0.167199462890625,-1.0811996459960938,-1.197871446609497,-0.08139539510011673
1701881424351792000,0.176792236328125,-0.9773555994033813,-1.254069447517395,-0.039857782423496246
1701881424361385500,0.186385498046875,-0.8991671800613403,-1.1954281330108643,0.06398624926805496
1701881424370977800,0.195977783203125,-0.8539644479751587,-1.2785032987594604,0.1360662281513214
1701881424380569300,0.2055693359375,-0.8173136115074158,-1.5203988552093506,0.15439164638519287
1701881424390162000,0.215161865234375,-0.786771297454834,-1.719534993171692,0.19837264716625214
1701881424399755000,0.224755126953125,-0.7855495810508728,-1.7622942924499512,0.3046600818634033
1701881424409347600,0.23434765625,-0.8050966858863831,-1.7696244716644287,0.4109475016593933
1701881424418939100,0.243939208984375,-0.7782194018363953,-1.789171576499939,0.4647020399570465
1701881424428531700,0.25353173828125,-0.6853706240653992,-1.6645587682724,0.39506545662879944
1701881424438124800,0.263124755859375,-0.4605788290500641,-1.206423282623291,0.2044811248779297
1701881424447717400,0.27271728515625,-0.23945212364196777,-0.6053496599197388,0.12018419802188873
1701881424457309000,0.282308837890625,-0.09651386737823486,-0.2851129472255707,0.031000498682260513
1701881424466901500,0.291901611328125,-0.05131116881966591,-0.34008920192718506,-0.06306997686624527
1701881424476494600,0.30149462890625,-0.045202698558568954,-0.6285618543624878,-0.13270656764507294
1701881424486087200,0.311087158203125,-0.013438640162348747,-1.0085088014602661,-0.19989976286888123
1701881424495678700,0.3206787109375,0.013438640162348747,-1.4593141078948975,-0.28541839122772217
1701881424505271300,0.330271240234375,0.01832541823387146,-1.7219784259796143,-0.36971530318260193
1701881424514864400,0.339864501953125,-0.006108472589403391,-1.7134265899658203,-0.44423866271972656
1701881424524456700,0.349456787109375,-0.07574506103992462,-1.6425682306289673,-0.5126535892486572
1701881424534048500,0.359048583984375,-0.14782503247261047,-1.591257095336914,-0.566408097743988
1701881424543641000,0.36864111328125,-0.15271180868148804,-1.5155121088027954,-0.5969504714012146
1701881424553234200,0.378234130859375,-0.10628741979598999,-1.4189982414245605,-0.6103891134262085
1701881424562826500,0.387826416015625,-0.05986303091049194,-1.3041589260101318,-0.6201626658439636
1701881424572418300,0.397418212890625,-0.03787253051996231,-1.1917630434036255,-0.6250494718551636
1701881424582011000,0.407010986328125,-0.045202698558568954,-1.0952491760253906,-0.62627112865448
1701881424591604000,0.41660400390625,-0.07574506103992462,-1.003622055053711,-0.6238277554512024
1701881424601196300,0.4261962890625,-0.12094775587320328,-0.8900044560432434,-0.6116108298301697
1701881424610788000,0.4357880859375,-0.15271180868148804,-0.7275190949440002,-0.566408097743988
1701881424620380400,0.44538037109375,-0.13316470384597778,-0.5491516590118408,-0.46134239435195923
1701881424629973800,0.454973876953125,-0.05497625470161438,-0.45141613483428955,-0.27686652541160583
1701881424639566000,0.464566162109375,0.030542362481355667,-0.3706315755844116,-0.039857782423496246
1701881424649158000,0.474157958984375,0.0781884491443634,-0.3205420970916748,0.21303297579288483
1701881424658750200,0.483750244140625,0.06841489672660828,-0.34253260493278503,0.448820024728775
1701881424668343600,0.493343505859375,0.01710372418165207,-0.43797749280929565,0.648108959197998
1701881424677935900,0.502935791015625,-0.03787253051996231,-0.5858024954795837,0.80937260389328
1701881424687527700,0.512527587890625,-0.07330167293548584,-0.7336275577545166,0.9315420985221863
1701881424697120000,0.5221201171875,-0.08307522535324097,-0.8496885299682617,1.0231691598892212
1701881424706713300,0.53171337890625,-0.06841489672660828,-0.9400939345359802,1.0928057432174683
1701881424716305700,0.5413056640625,-0.03298575058579445,-0.9938485026359558,1.129456639289856
1701881424725897500,0.5508974609375,0.01588202826678753,-0.975523054599762,1.1209046840667725
1701881424735489800,0.56048974609375,0.06841489672660828,-0.8948912620544434,1.063485026359558
1701881424745083100,0.570083251953125,0.1185043677687645,-0.7482879161834717,0.9596410393714905
1701881424754675500,0.579675537109375,0.16737215220928192,-0.5247178077697754,0.8081509470939636
1701881424764267000,0.58926708984375,0.21379654109477997,-0.2716743052005768,0.6224533319473267
1701881424773859600,0.598859619140625,0.2626643180847168,-0.06154286116361618,0.43049460649490356
1701881424783453000,0.608452880859375,0.3249707520008087,0.04840964451432228,0.25945737957954407
1701881424793045200,0.618045166015625,0.4031592011451721,0.04352286830544472,0.12140589207410812
1701881424802636800,0.62763671875,0.48012593388557434,-0.037108972668647766,0.02367033064365387
1701881424812229400,0.6372294921875,0.5351021885871887,-0.14583978056907654,-0.019088976085186005
1701881424821822700,0.64682275390625,0.5595360994338989,-0.2435753494501114,-0.009315420873463154
1701881424831415000,0.6564150390625,0.5595360994338989,-0.35352784395217896,0.03955236077308655
1701881424841006600,0.666006591796875,0.546097457408905,-0.44042086601257324,0.10308047384023666
1701881424850599200,0.67559912109375,0.5302154421806335,-0.5051707029342651,0.16783028841018677
1701881424860192500,0.685192626953125,0.5277720093727112,-0.5650337338447571,0.2313583940267563
1701881424869784800,0.694784912109375,0.5412106513977051,-0.5625903010368347,0.2924431264400482
1701881424879376400,0.70437646484375,0.5607577562332153,-0.47829338908195496,0.35230615735054016
1701881424888969000,0.713968994140625,0.5729747414588928,-0.34131091833114624,0.40728241205215454
1701881424898562300,0.723562255859375,0.5607577562332153,-0.16538690030574799,0.4549284875392914
1701881424908154600,0.733154541015625,0.5387672781944275,0.008093725889921188,0.4928010404109955
1701881424917746200,0.74274609375,0.5057815313339233,0.12781979143619537,0.5147915482521057
1701881424927338800,0.7523388671875,0.4618005156517029,0.1620272397994995,0.5172349214553833
1701881424936932000,0.76193212890625,0.4043808877468109,0.11315945535898209,0.5013529062271118
1701881424946524400,0.7715244140625,0.342074453830719,-0.0065666078589856625,0.4659237563610077
1701881424956116000,0.781115966796875,0.3115321099758148,-0.13362284004688263,0.423164427280426
1701881424965708500,0.79070849609375,0.33352261781692505,-0.19348587095737457,0.38040512800216675
1701881424975302000,0.800302001953125,0.4068242609500885,-0.17271706461906433,0.3461976945400238
1701881424984894200,0.809894287109375,0.5021164417266846,-0.07742489129304886,0.32665055990219116
1701881424994485800,0.81948583984375,0.577861487865448,0.058183200657367706,0.3229855000972748
1701881425004078300,0.829078369140625,0.6145123243331909,0.1522536724805832,0.34008920192718506
1701881425013671400,0.83867138671875,0.6108472347259521,0.13392825424671173,0.3828485310077667
1701881425023264000,0.848263916015625,0.5949652194976807,0.023975754156708717,0.448820024728775
1701881425032855600,0.85785546875,0.5986303091049194,-0.17271706461906433,0.5393781065940857
1701881425042448100,0.8674482421875,0.6413896083831787,-0.444085955619812,0.6493306159973145
1701881425052041200,0.877041259765625,0.6853706240653992,-0.679872989654541,0.7580614686012268
1701881425061633800,0.8866337890625,0.726908266544342,-0.8228112459182739,0.8741224408149719
1701881425071225300,0.896225341796875,0.8258655071258545,-0.8765658140182495,0.9999569654464722
1701881425080818000,0.90581787109375,1.0103414058685303,-0.869235634803772,1.1245697736740112
1701881425090411000,0.915410888671875,1.2461284399032593,-0.8228112459182739,1.2442958354949951
1701881425100003600,0.925003662109375,1.477028727531433,-0.7470661997795105,1.3566917181015015
1701881425109595100,0.93459521484375,1.6553961038589478,-0.6725428104400635,1.4605357646942139
1701881425119187700,0.944187744140625,1.7665703296661377,-0.6151232123374939,1.55338454246521
1701881425128780800,0.95378076171875,1.8362069129943848,-0.5906893014907837,1.637681484222412
1701881425138373400,0.963373291015625,1.8936264514923096,-0.6725428104400635,1.725643515586853
1701881425147965000,0.97296484375,1.9522678852081299,-0.8350282311439514,1.8197139501571655
1701881425157557500,0.9825576171875,2.039008140563965,-1.009730577468872,1.9174495935440063
1701881425167150600,0.992150634765625,2.172172784805298,-1.1771026849746704,2.0286238193511963
1701881425176743000,1.001742919921875,2.332214832305908,-1.2748382091522217,2.1397979259490967
1701881425186334700,1.011334716796875,2.493478536605835,-1.254069447517395,2.2350900173187256
1701881425195927300,1.02092724609375,2.629086494445801,-1.1245697736740112,2.3096134662628174
1701881425205520400,1.030520263671875,2.7207136154174805,-0.9694145917892456,2.3682548999786377
1701881425215112700,1.04011279296875,2.791571855545044,-0.8741224408149719,2.415900945663452
1701881425224704500,1.04970458984375,2.8648736476898193,-0.8655705451965332,2.450108289718628
1701881425234297000,1.059297119140625,2.9760477542877197,-0.9914051294326782,2.4720988273620605
1701881425243890200,1.06889013671875,3.1727406978607178,-1.317597508430481,2.4928677082061768
1701881425253482500,1.078482421875,3.4415135383605957,-1.7928366661071777,2.5209665298461914
1701881425263074300,1.08807421875,3.7188382148742676,-2.2839579582214355,2.5612826347351074
1701881425272667000,1.0976669921875,3.98638916015625,-2.659018039703369,2.6138153076171875
1701881425282260000,1.107260009765625,4.254093170166016,-2.8508241176605225,2.673678398132324
1701881425291852300,1.116852294921875,4.524087429046631,-2.8764796257019043,2.745758533477783
1701881425301444000,1.126444091796875,4.805077075958252,-2.811729907989502,2.8300552368164062
1701881425311036700,1.13603662109375,5.0579681396484375,-2.724989652633667,2.9180173873901367
1701881425320629800,1.145629638671875,5.203349590301514,-2.6883387565612793,2.9986491203308105
1701881425330222000,1.15522216796875,5.185024261474609,-2.7921829223632812,3.025526523590088
1701881425339814000,1.16481396484375,5.020095348358154,-3.069507360458374,2.924125909805298
1701881425349406200,1.17440625,4.817294120788574,-3.4787750244140625,2.731098175048828
1701881425358999600,1.18399951171875,4.737884044647217,-3.830623149871826,2.577164649963379
1701881425368592000,1.193591796875,4.82828950881958,-3.8575005531311035,2.513636589050293
1701881425378183700,1.20318359375,4.987109661102295,-3.541081666946411,2.5063064098358154
1701881425387776000,1.21277587890625,5.111722469329834,-3.0743942260742188,2.5001978874206543
1701881425397369300,1.222369384765625,5.141043186187744,-2.6944472789764404,2.4574384689331055
1701881425406961700,1.231961669921875,5.022538661956787,-2.5783863067626953,2.40368390083313
1701881425416553500,1.241553466796875,4.779421806335449,-2.667569875717163,2.3706982135772705
1701881425426145800,1.251145751953125,4.516757488250732,-2.8483808040618896,2.3682548999786377
1701881425435739100,1.2607392578125,4.311512470245361,-2.9632201194763184,2.3511509895324707
1701881425445331500,1.27033154296875,4.121997356414795,-2.932677745819092,2.257080554962158
1701881425454923300,1.27992333984375,3.861776351928711,-2.7384283542633057,2.0848217010498047
1701881425464515600,1.289515625,3.5306971073150635,-2.3499293327331543,1.8294875621795654
1701881425474109000,1.29910888671875,3.1629672050476074,-1.8807986974716187,1.5032950639724731
1701881425483701200,1.308701171875,2.8050105571746826,-1.4458754062652588,1.1209046840667725
1701881425493293000,1.31829296875,2.4837050437927246,-1.1270132064819336,0.6591041684150696
1701881425502885400,1.327885498046875,2.2112669944763184,-0.8729007244110107,0.16783028841018677
1701881425512478700,1.337478759765625,2.007244110107422,-0.6236750483512878,-0.2670929729938507
1701881425522071000,1.347071044921875,1.8679709434509277,-0.4109475016593933,-0.5896202921867371
1701881425531662600,1.35666259765625,1.7494665384292603,-0.31443363428115845,-0.7887565493583679
1701881425541255200,1.366255126953125,1.6224102973937988,-0.3706315755844116,-0.8657232522964478
1701881425550848500,1.3758486328125,1.5051276683807373,-0.46729815006256104,-0.8315158486366272
1701881425560440800,1.38544091796875,1.4318259954452515,-0.402395635843277,-0.7154548764228821
1701881425570032400,1.395032470703125,1.4220523834228516,-0.23624517023563385,-0.5981721878051758
1701881425579625000,1.404625,1.4574815034866333,-0.13362284004688263,-0.5150969624519348
1701881425589218300,1.41421826171875,1.4990191459655762,-0.12140589207410812,-0.4491254389286041
1701881425598810600,1.423810546875,1.5075709819793701,-0.1776038408279419,-0.36727190017700195
1701881425608402200,1.433402099609375,1.281557559967041,0.08261708915233612,0.04077405482530594
1701881425617994800,1.442994873046875,0.9138274788856506,-0.09208522737026215,0.4121691882610321
1701881425627588000,1.452588134765625,0.9174925684928894,-0.45141613483428955,0.4243861436843872
1701881425637180400,1.462180419921875,1.1593880653381348,-0.30343836545944214,0.2924431264400482
1701881425646772000,1.47177197265625,1.3707412481307983,0.08628217875957489,0.03955236077308655
1701881425656364500,1.481364501953125,1.6456224918365479,0.27564483880996704,-0.23410721123218536
1701881425665958000,1.4909580078125,1.7726787328720093,0.3746020793914795,-0.30130040645599365
1701881425675550200,1.50055029296875,1.747023105621338,0.10582929104566574,0.007788302376866341
1701881425685141800,1.510141845703125,1.7641268968582153,0.1498102843761444,-0.04474456235766411
1701881425694734300,1.519734375,1.8203247785568237,0.4931064546108246,-0.4821111857891083
1701881425704327700,1.52932763671875,1.8862963914871216,0.7740961909294128,-0.8620582222938538
1701881425713920000,1.538919921875,1.9400508403778076,0.8278507590293884,-1.0489774942398071
1701881425723511600,1.548511474609375,1.896069884300232,0.6519267559051514,-1.0636377334594727
1701881425733104000,1.558104248046875,1.7739003896713257,0.32695600390434265,-0.983005940914154
1701881425742697200,1.567697265625,1.7005987167358398,0.0325276181101799,-0.8412894010543823
1701881425752289800,1.577289794921875,1.7005987167358398,-0.10918894410133362,-0.6946860551834106
1701881425761881300,1.58688134765625,1.7274760007858276,-0.1519482582807541,-0.6042806506156921
1701881425771474000,1.596473876953125,1.696933627128601,-0.1104106456041336,-0.5578562617301941
1701881425781067000,1.60606689453125,1.6150801181793213,0.0007635590736754239,-0.5285356044769287
1701881425790659600,1.61565966796875,1.5112360715866089,0.08139539510011673,-0.5212054252624512
1701881425800251100,1.625251220703125,1.3866232633590698,0.1119377613067627,-0.488219678401947
1701881425809843700,1.63484375,1.2620104551315308,-0.011453386396169662,-0.3978142738342285
1701881425819436800,1.644436767578125,1.1752700805664062,-0.1385096162557602,-0.32817769050598145
1701881425829029400,1.654029296875,1.0909732580184937,-0.111632339656353,-0.3110739588737488
1701881425838621000,1.663620849609375,0.9761339426040649,0.015423892997205257,-0.2793098986148834
1701881425848213500,1.673213623046875,0.8209787011146545,0.09239064902067184,-0.1632489264011383
1701881425857806600,1.682806640625,0.7061394453048706,-0.0456608310341835,0.050547610968351364
1701881425867399200,1.692399169921875,0.6731536984443665,-0.2790044844150543,0.32909396290779114
1701881425876990700,1.70199072265625,0.7977665066719055,-0.7372926473617554,0.42194274067878723
1701881425886583300,1.711583251953125,1.1911520957946777,-1.073258638381958,0.33031564950942993
1701881425896176400,1.72117626953125,1.7604618072509766,-0.9535325765609741,0.20692451298236847
1701881425905769000,1.73076904296875,2.2576913833618164,-0.45019441843032837,0.02244863659143448
1701881425915360500,1.740360595703125,2.531351089477539,0.2426590770483017,-0.2817533016204834
1701881425924953000,1.749953125,2.510582208633423,0.4894413650035858,-0.5407525300979614
1701881425934546200,1.759546142578125,2.4433889389038086,0.43324342370033264,-0.6934643387794495
1701881425944138800,1.769138671875,2.363978862762451,0.2145601063966751,-0.7350019812583923
1701881425953730300,1.778730224609375,2.252804756164551,0.17913095653057098,-0.5737382769584656
1701881425963322600,1.788322509765625,2.0292346477508545,0.5602996349334717,-0.1766875684261322
1701881425972916000,1.797916015625,1.3707412481307983,0.7313368916511536,0.2289150059223175
1701881425982508500,1.807508544921875,0.7000309824943542,-0.22036315500736237,0.21303297579288483
1701881425992100000,1.81710009765625,0.6694886088371277,-1.1233481168746948,-0.15714046359062195
1701881426001692700,1.826692626953125,0.7098045349121094,-0.5137225389480591,-0.48455458879470825
1701881426011285800,1.83628564453125,0.6120689511299133,0.9280297160148621,-0.7105680704116821
1701881426020878300,1.84587841796875,0.5192201733589172,1.6903671026229858,-0.8547280430793762
1701881426030470000,1.855469970703125,1.09219491481781,1.270104169845581,-0.9659022092819214
1701881426040062500,1.8650625,1.7836740016937256,0.22433365881443024,-1.0062181949615479
1701881426049655600,1.874655517578125,1.0042328834533691,-0.5662553906440735,-0.3086305856704712
1701881426059248000,1.884248046875,0.07207997888326645,-1.1538904905319214,0.1629435122013092
1701881426068839700,1.893839599609375,-0.19913621246814728,-0.42698222398757935,0.27289602160453796
1701881426078432300,1.903432373046875,-0.21501824259757996,0.2047865390777588,0.1629435122013092
1701881426088025300,1.913025390625,-0.17714570462703705,0.004428642801940441,0.052990999072790146
1701881426097618000,1.922617919921875,-0.15393351018428802,-0.10796725004911423,-0.0007635590736754239
1701881426107209500,1.93220947265625,-0.15393351018428802,-0.033443886786699295,-0.08139539510011673
1701881426116802000,1.941802001953125,-0.1172826737165451,0.0032069480512291193,-0.13514995574951172
1701881426126395100,1.95139501953125,-0.0916270911693573,0.038636088371276855,-0.18035265803337097
1701881426135987700,1.96098779296875,-0.08674030750989914,0.038636088371276855,-0.22311195731163025
1701881426145579300,1.970579345703125,-0.10873081535100937,-0.011453386396169662,-0.2670929729938507
1701881426155171800,1.980171875,-0.13682979345321655,-0.07375980913639069,-0.30374380946159363
1701881426164765000,1.989764892578125,-0.16492876410484314,-0.10185877978801727,-0.3196258246898651
1701881426174357500,1.999357421875,-0.19302773475646973,-0.08108997344970703,-0.31473904848098755
1701881426183949000,2.008948974609375,-0.21868331730365753,0.021532366052269936,-0.2915268540382385
1701881426193541600,2.018541748046875,-0.24556060135364532,0.23410721123218536,-0.23532891273498535
1701881426203134700,2.028134765625,-0.258999228477478,0.5761816501617432,-0.15469707548618317
1701881426212727000,2.03772705078125,-0.23823043704032898,0.9378032684326172,-0.07895200699567795
1701881426222318800,2.04731884765625,-0.1575985997915268,0.8669449687004089,-0.010537114925682545
1701881426231911200,2.0569111328125,-0.030542362481355667,0.7655443549156189,0.03588727489113808
1701881426241504500,2.06650439453125,0.01954711228609085,0.566408097743988,-0.03008422814309597
1701881426251096800,2.076096923828125,0.013438640162348747,0.39170581102371216,-0.14370182156562805
1701881426260688600,2.085688720703125,0.007330167107284069,0.4027010500431061,-0.30252209305763245
1701881426270281000,2.095281005859375,-0.006108472589403391,0.30374380946159363,-0.28541839122772217
1701881426279874300,2.104874267578125,0.0024433890357613564,0.2793098986148834,-0.0850604772567749
1701881426289466600,2.114466552734375,-0.0024433890357613564,0.32939937710762024,0.03955236077308655
1701881426299058400,2.124058349609375,-0.01832541823387146,0.37704548239707947,0.06154286116361618
1701881426308650800,2.133650634765625,-0.01954711228609085,0.4088095426559448,0.04688252881169319
1701881426318244000,2.143244140625,-0.0024433890357613564,0.4136963188648224,0.021226942539215088
1701881426327836400,2.15283642578125,0.01588202826678753,0.4271349310874939,-0.009315420873463154
1701881426337428200,2.16242822265625,0.026877280324697495,0.4540122151374817,-0.036192700266838074
1701881426347020500,2.1720205078125,0.029320668429136276,0.4784461259841919,-0.055739812552928925
1701881426356614000,2.18161376953125,0.029320668429136276,0.5041016936302185,-0.06673506647348404
1701881426366206200,2.191206298828125,0.025655584409832954,0.5297572612762451,-0.06306997686624527
1701881426375798000,2.200798095703125,0.01954711228609085,0.5602996349334717,-0.0459662564098835
1701881426385390300,2.210390380859375,0.01588202826678753,0.5883986353874207,-0.025197450071573257
1701881426394983700,2.219983642578125,0.010995250195264816,0.6103891134262085,-0.008093725889921188
1701881426404576000,2.229575927734375,0.008551862090826035,0.6274928450584412,0.004123218823224306
1701881426414167800,2.239167724609375,0.009773556143045425,0.6348230242729187,0.009009997360408306
1701881426423760100,2.248760009765625,0.01588202826678753,0.6348230242729187,0.0065666078589856625
1701881426433353500,2.258353515625,0.029320668429136276,0.6201626658439636,-0.004428642801940441
1701881426442945800,2.26794580078125,0.047646086663007736,0.5859552621841431,-0.015423892997205257
1701881426452537600,2.27753759765625,0.0659715011715889,0.5493044257164001,-0.021532366052269936
1701881426462130000,2.2871298828125,0.08063183724880219,0.5016583204269409,-0.023975754156708717
1701881426471723300,2.29672314453125,0.09773556143045425,0.4503471553325653,-0.021532366052269936
1701881426481315600,2.306315673828125,0.11239589750766754,0.3953709006309509,-0.015423892997205257
1701881426490907400,2.315907470703125,0.12583453953266144,0.3379512429237366,-0.010537114925682545
1701881426500499700,2.325499755859375,0.13316470384597778,0.27564483880996704,-0.004428642801940441
1701881426510093000,2.335093017578125,0.1319430023431778,0.21944688260555267,0.0004581354442052543
1701881426519685400,2.344685302734375,0.12216944992542267,0.16080553829669952,0.0004581354442052543
1701881426529277200,2.354277099609375,0.10750912129878998,0.10582929104566574,-0.0007635590736754239
1701881426538869500,2.363869384765625,0.08429691940546036,0.06184828653931618,0.0065666078589856625
1701881426548462800,2.373462890625,0.06841489672660828,0.001985253533348441,0.02367033064365387
1701881426558055200,2.38305517578125,0.05619794875383377,-0.06520794332027435,0.04810422286391258
1701881426567647000,2.39264697265625,0.05131116881966591,-0.12751436233520508,0.08353336155414581
1701881426577239300,2.4022392578125,0.05375456064939499,-0.19959434866905212,0.11285403370857239
1701881426586832600,2.41183251953125,0.06352811306715012,-0.2777827978134155,0.13117945194244385
1701881426596425000,2.421425048828125,0.07574506103992462,-0.35108447074890137,0.14706148207187653
1701881426606016800,2.431016845703125,0.09407047927379608,-0.40483900904655457,0.1629435122013092
1701881426615609000,2.440609130859375,0.11606097966432571,-0.45263782143592834,0.17393875122070312
1701881426625202400,2.450202392578125,0.14171656966209412,-0.4953971207141876,0.1763821393251419
1701881426634794800,2.459794677734375,0.1710372269153595,-0.5259394645690918,0.1763821393251419
1701881426644386600,2.469386474609375,0.1966928243637085,-0.5540384650230408,0.1751604527235031
1701881426653979000,2.478978759765625,0.21257483959197998,-0.6004628539085388,0.18126893043518066
1701881426663572200,2.488572265625,0.21868331730365753,-0.6432221531867981,0.19470755755901337
1701881426673164500,2.49816455078125,0.21990501880645752,-0.679872989654541,0.2032594233751297
1701881426682756400,2.50775634765625,0.21379654109477997,-0.7201889157295227,0.20814619958400726
1701881426692348700,2.5173486328125,0.20035789906978607,-0.7617265582084656,0.21058958768844604
1701881426701942000,2.52694189453125,0.1832541823387146,-0.7983773946762085,0.21303297579288483
1701881426711534300,2.536534423828125,0.16248537600040436,-0.8203678727149963,0.21914145350456238
1701881426721126100,2.546126220703125,0.13927318155765533,-0.8167027831077576,0.22158484160900116
1701881426730718500,2.555718505859375,0.11239589750766754,-0.7995990514755249,0.21181128919124603
1701881426740311800,2.565311767578125,0.08307522535324097,-0.7678350210189819,0.18615570664405823
1701881426749904100,2.574904052734375,0.0525328628718853,-0.7177455425262451,0.1495048701763153
1701881426759496000,2.584495849609375,0.02076880633831024,-0.6615476012229919,0.10552386194467545
1701881426769088300,2.594088134765625,-0.0024433890357613564,-0.6126797795295715,0.05421269312500954
1701881426778681600,2.603681640625,-0.023212196305394173,-0.5699204802513123,0.004123218823224306
1701881426788274000,2.61327392578125,-0.03787253051996231,-0.5357130169868469,-0.04230117425322533
1701881426797865700,2.62286572265625,-0.047646086663007736,-0.5088357925415039,-0.07406523078680038
1701881426807458000,2.6324580078125,-0.05131116881966591,-0.4856235682964325,-0.08994726091623306
1701881426817051400,2.642051513671875,-0.05497625470161438,-0.46729815006256104,-0.09605573117733002
1701881426826643700,2.651643798828125,-0.0525328628718853,-0.4489727318286896,-0.09239064902067184
1701881426836235500,2.661235595703125,-0.047646086663007736,-0.4343124032020569,-0.08628217875957489
1701881426845827800,2.670827880859375,-0.04031591862440109,-0.4146125912666321,-0.07773031294345856
1701881426855421200,2.680421142578125,-0.03176405653357506,-0.39140036702156067,-0.06429167091846466
1701881426865013500,2.690013427734375,-0.02076880633831024,-0.3596363365650177,-0.05085303261876106
1701881426874605300,2.699605224609375,-0.007330167107284069,-0.32787227630615234,-0.03497100621461868
1701881426884197600,2.70919775390625,0.0024433890357613564,-0.2973299026489258,-0.017867282032966614
1701881426893791000,2.718791015625,0.009773556143045425,-0.2692309319972992,-0.008093725889921188
1701881426903383300,2.72838330078125,0.008551862090826035,-0.2411319613456726,-0.005650337319821119
1701881426912975000,2.73797509765625,0.0036650835536420345,-0.22402822971343994,-0.009315420873463154
1701881426922567400,2.7475673828125,-0.004886778071522713,-0.21181128919124603,-0.015423892997205257
1701881426932160800,2.757160888671875,-0.014660334214568138,-0.21791976690292358,-0.022754060104489326
1701881426941753000,2.766753173828125,-0.024433890357613564,-0.2289150059223175,-0.02764083817601204
1701881426951345000,2.776344970703125,-0.03298575058579445,-0.23991025984287262,-0.03374931216239929
1701881426960937200,2.785937255859375,-0.03787253051996231,-0.27533939480781555,-0.037414394319057465
1701881426970530600,2.795530517578125,-0.04153761267662048,-0.33886751532554626,-0.03130592033267021
1701881426980123000,2.805122802734375,-0.047646086663007736,-0.39506545662879944,-0.01175880990922451
1701881426989714400,2.81471435546875,-0.062306419014930725,-0.45019441843032837,0.02244863659143448
1701881426999307000,2.82430712890625,-0.08307522535324097,-0.5002838969230652,0.07009471952915192
1701881427008900400,2.833900390625,-0.10873081535100937,-0.5882459282875061,0.11896250396966934
1701881427018492700,2.84349267578125,-0.13560809195041656,-0.6896465420722961,0.15683503448963165
1701881427028084200,2.853084228515625,-0.15393351018428802,-0.7715001106262207,0.18004722893238068
1701881427037676800,2.8626767578125,-0.16492876410484314,-0.8448017835617065,0.18615570664405823
1701881427047270100,2.872270263671875,-0.14904673397541046,-0.8997780084609985,0.18126893043518066
1701881427056862500,2.881862548828125,-0.15393351018428802,-0.9523108601570129,0.1776038408279419
1701881427066454000,2.8914541015625,-0.17958909273147583,-1.0085088014602661,0.19470755755901337
1701881427076046600,2.901046630859375,-0.17958909273147583,-1.0573766231536865,0.20570281147956848
1701881427085640000,2.910639892578125,-0.1832541823387146,-1.0659284591674805,0.17149536311626434
1701881427095232300,2.920232177734375,-0.1820324808359146,-1.0524898767471313,0.16050012409687042
1701881427104823800,2.92982373046875,-0.17836740612983704,-0.9938485026359558,0.17882554233074188
1701881427114416400,2.93941650390625,-0.15149012207984924,-0.9413156509399414,0.19592925906181335
1701881427124009700,2.949009765625,-0.13560809195041656,-0.8765658140182495,0.2020377367734909
1701881427133602000,2.95860205078125,-0.12705622613430023,-0.8008207678794861,0.1910424828529358
1701881427143193600,2.968193603515625,-0.1185043677687645,-0.7018635272979736,0.17027367651462555
1701881427152786200,2.9777861328125,-0.11117420345544815,-0.5906893014907837,0.14461809396743774
1701881427162379500,2.987379638671875,-0.10384403169155121,-0.4953971207141876,0.11896250396966934
1701881427171971800,2.996971923828125,-0.09895725548267365,-0.4133908748626709,0.09208522737026215
1701881427181563400,3.0065634765625,-0.09895725548267365,-0.3364241421222687,0.06887302547693253
1701881427191156000,3.016156005859375,-0.10384403169155121,-0.2667875289916992,0.05543438717722893
1701881427200749300,3.025749267578125,-0.10995250940322876,-0.20081603527069092,0.04810422286391258
1701881427210341600,3.035341552734375,-0.1172826737165451,-0.1385096162557602,0.04077405482530594
1701881427219933200,3.04493310546875,-0.130721315741539,-0.08353336155414581,0.029778804630041122
1701881427229525800,3.05452587890625,-0.13927318155765533,-0.032222192734479904,0.012675080448389053
1701881427239119000,3.064119140625,-0.13927318155765533,0.016645587980747223,-0.0032069480512291193
1701881427248711400,3.07371142578125,-0.12583453953266144,0.06551336497068405,-0.019088976085186005
1701881427258303000,3.083302978515625,-0.10017894953489304,0.10582929104566574,-0.03374931216239929
1701881427267895600,3.0928955078125,-0.0647498071193695,0.13514995574951172,-0.038636088371276855
1701881427277489000,3.102489013671875,-0.021990500390529633,0.15836215019226074,-0.04352286830544472
1701881427287081200,3.112081298828125,0.01588202826678753,0.1901262104511261,-0.05085303261876106
1701881427296672800,3.1216728515625,0.045202698558568954,0.23655059933662415,-0.06551336497068405
1701881427306265300,3.131265380859375,0.05986303091049194,0.2707580327987671,-0.09727742522954941
1701881427315858700,3.140858642578125,0.05619794875383377,0.27442312240600586,-0.13514995574951172
1701881427325451000,3.150450927734375,0.042759306728839874,0.2573194205760956,-0.15836215019226074
1701881427335042600,3.16004248046875,0.028098974376916885,0.2438807636499405,-0.15958385169506073
1701881427344635100,3.16963525390625,0.012216945178806782,0.2426590770483017,-0.14492350816726685
1701881427354228500,3.179228515625,-0.004886778071522713,0.2585411071777344,-0.12293300777673721
1701881427363820800,3.18882080078125,-0.021990500390529633,0.27808821201324463,-0.09483403712511063
1701881427373412400,3.198412353515625,-0.03542914241552353,0.2915268540382385,-0.06429167091846466
1701881427383005000,3.2080048828125,-0.04153761267662048,0.30007871985435486,-0.03497100621461868
1701881427392598300,3.217598388671875,-0.043981000781059265,0.31596073508262634,-0.0068720318377017975
1701881427402190600,3.227190673828125,-0.10262233763933182,0.335507869720459,0.02489202655851841
1701881427411782100,3.2367822265625,-0.16004198789596558,0.37948885560035706,0.04932591691613197
1701881427421374700,3.246374755859375,-0.13805148005485535,0.40636613965034485,0.033443886786699295
1701881427430968000,3.255968017578125,-0.10384403169155121,0.333064466714859,0.007788302376866341
1701881427440560400,3.265560302734375,-0.0390942245721817,0.24754585325717926,0.0065666078589856625
1701881427450152000,3.27515185546875,0.01710372418165207,0.24021568894386292,0.05421269312500954
1701881427459744500,3.28474462890625,0.0390942245721817,0.29885703325271606,0.11529742181301117
1701881427469337900,3.294337890625,0.05375456064939499,0.32695600390434265,0.1360662281513214
1701881427478930200,3.30393017578125,0.0659715011715889,0.30740886926651,0.09697200357913971
1701881427488521700,3.313521728515625,0.07330167293548584,0.2829749882221222,0.020005248486995697
1701881427498114300,3.3231142578125,0.07452336698770523,0.25121092796325684,-0.04840964451432228
1701881427507707600,3.332707763671875,0.07696675509214401,0.2170034945011139,-0.08261708915233612
1701881427517300000,3.342300048828125,0.07574506103992462,0.1913478970527649,-0.08872556686401367
1701881427526891500,3.3518916015625,0.06352811306715012,0.18768282234668732,-0.09116895496845245
1701881427536484000,3.361484130859375,0.04153761267662048,0.20600824058055878,-0.09361234307289124
1701881427546077400,3.371077392578125,0.023212196305394173,0.22677704691886902,-0.08994726091623306
1701881427555669800,3.380669677734375,0.013438640162348747,0.23532891273498535,-0.07650861889123917
1701881427565261300,3.39026123046875,0.02076880633831024,0.2304421216249466,-0.0594048947095871
1701881427574854000,3.39985400390625,0.03420744836330414,0.23166382312774658,-0.037414394319057465
1701881427584447200,3.409447265625,0.047646086663007736,0.24632415175437927,-0.001985253533348441
1701881427594039600,3.41903955078125,0.07207997888326645,0.2560977041721344,0.037108972668647766
1701881427603631000,3.428631103515625,0.10262233763933182,0.27686652541160583,0.06520794332027435
1701881427613223700,3.4382236328125,0.12339114397764206,0.27320143580436707,0.07375980913639069
1701881427622817000,3.447817138671875,0.11972606182098389,0.24754585325717926,0.06032116711139679
1701881427632409300,3.457409423828125,0.10140064358711243,0.22311195731163025,0.02489202655851841
1701881427642001000,3.4670009765625,0.0916270911693573,0.19256959855556488,-0.015423892997205257
1701881427651593500,3.476593505859375,0.09895725548267365,0.1656923145055771,-0.0325276181101799
1701881427661186800,3.486186767578125,0.11606097966432571,0.14858859777450562,-0.023975754156708717
1701881427670779100,3.495779052734375,0.13316470384597778,0.14248012006282806,-0.0032069480512291193
1701881427680370700,3.50537060546875,0.13927318155765533,0.1510319858789444,0.013896775431931019
1701881427689963300,3.51496337890625,0.13927318155765533,0.1620272397994995,0.021226942539215088
1701881427699556600,3.524556640625,0.13682979345321655,0.16080553829669952,0.029778804630041122
1701881427709149000,3.53414892578125,0.13805148005485535,0.14492350816726685,0.03833066672086716
1701881427718740500,3.543740478515625,0.1429382562637329,0.11682453751564026,0.051769305020570755
1701881427728333000,3.5533330078125,0.14660334587097168,0.08750387281179428,0.06276455521583557
1701881427737926400,3.562926513671875,0.14782503247261047,0.06673506647348404,0.0713164210319519
1701881427747518700,3.572518798828125,0.14049486815929413,0.05329642444849014,0.08108997344970703
1701881427757110300,3.5821103515625,0.13316470384597778,0.04474456235766411,0.09208522737026215
1701881427766702800,3.591702880859375,0.12339114397764206,0.036192700266838074,0.09697200357913971
1701881427776296000,3.6012958984375,0.11361759155988693,0.025197450071573257,0.0981936976313591
1701881427785888500,3.610888427734375,0.1050657257437706,0.014202198944985867,0.09452861547470093
1701881427795480000,3.62047998046875,0.09895725548267365,0.001985253533348441,0.0859767496585846
1701881427805072600,3.63007275390625,0.09773556143045425,-0.009009997360408306,0.07498150318861008
1701881427814665700,3.639665771484375,0.10017894953489304,-0.010231691412627697,0.06154286116361618
1701881427824258300,3.64925830078125,0.10628741979598999,-0.004123218823224306,0.04688252881169319
1701881427833849900,3.658849853515625,0.11117420345544815,0.008093725889921188,0.03955236077308655
1701881427843442400,3.6684423828125,0.12339114397764206,0.020310672000050545,0.032222192734479904
1701881427853035500,3.678035400390625,0.1429382562637329,0.038636088371276855,0.02733541466295719
1701881427862628000,3.687628173828125,0.16492876410484314,0.055739812552928925,0.02489202655851841
1701881427872219600,3.6972197265625,0.19058434665203094,0.06306997686624527,0.02733541466295719
1701881427881812200,3.706812255859375,0.2211267054080963,0.058183200657367706,0.032222192734479904
1701881427891405300,3.7164052734375,0.24556060135364532,0.04840964451432228,0.03588727489113808
1701881427900998000,3.725997802734375,0.24433889985084534,0.038636088371276855,0.03588727489113808
1701881427910589400,3.73558935546875,0.2223484069108963,0.020310672000050545,0.028557108715176582
1701881427920182000,3.74518212890625,0.19180603325366974,0.0007635590736754239,0.017561858519911766
1701881427929775000,3.754775146484375,0.16126367449760437,-0.0261137206107378,0.010231691412627697
1701881427939367700,3.76436767578125,0.1453816443681717,-0.05543438717722893,0.005344913341104984
1701881427948959200,3.773959228515625,0.13560809195041656,-0.07620319724082947,0.0065666078589856625
1701881427958551800,3.7835517578125,0.12461283802986145,-0.08964183181524277,0.011453386396169662
1701881427968145000,3.793144775390625,0.1172826737165451,-0.09452861547470093,0.02367033064365387
1701881427977737500,3.802737548828125,0.12216944992542267,-0.08842013776302338,0.033443886786699295
1701881427987329000,3.8123291015625,0.12339114397764206,-0.06154286116361618,0.03955236077308655
1701881427996921600,3.821921630859375,0.11117420345544815,-0.034665580838918686,0.04077405482530594
1701881428006514700,3.8315146484375,0.07696675509214401,-0.0065666078589856625,0.034665580838918686
1701881428016107300,3.841107177734375,0.021990500390529633,0.03497100621461868,0.0261137206107378
1701881428025698800,3.85069873046875,-0.010995250195264816,0.0716218426823616,0.013896775431931019
1701881428035291400,3.86029150390625,-0.01588202826678753,0.06551336497068405,0.009009997360408306
1701881428044884500,3.869884521484375,-0.025655584409832954,0.04840964451432228,0.017561858519911766
1701881428054477000,3.87947705078125,-0.05008947476744652,0.0594048947095871,0.010231691412627697
1701881428064068600,3.889068603515625,-0.09773556143045425,0.09361234307289124,-0.012980503961443901
1701881428073661200,3.8986611328125,-0.1588202863931656,0.08872556686401367,-0.04352286830544472
1701881428083254300,3.908254150390625,-0.2223484069108963,0.09116895496845245,-0.08628217875957489
1701881428092846800,3.917846923828125,-0.2516690790653229,0.08017370104789734,-0.1253764033317566
1701881428102438400,3.9274384765625,-0.2907632887363434,0.05085303261876106,-0.15836215019226074
1701881428112031000,3.937031005859375,-0.3274141252040863,0.023975754156708717,-0.1779092699289322
1701881428121624000,3.9466240234375,-0.3542914092540741,0.005650337319821119,-0.18035265803337097
1701881428131216600,3.956216552734375,-0.37506023049354553,0.001985253533348441,-0.17302247881889343
1701881428140808200,3.96580810546875,-0.3775036036968231,-0.0016798300202935934,-0.1632489264011383
1701881428150400800,3.97540087890625,-0.3506263196468353,-0.010231691412627697,-0.14858859777450562
1701881428159993900,3.984993896484375,-0.2980934679508209,-0.02489202655851841,-0.12781979143619537
1701881428169586400,3.99458642578125,-0.2345653474330902,-0.03955236077308655,-0.10338589549064636
1701881428179178000,4.004177978515625,-0.18081079423427582,-0.037108972668647766,-0.08261708915233612
1701881428188770600,4.0137705078125,-0.15026842057704926,-0.012675080448389053,-0.06917845457792282
1701881428198363600,4.02336376953125,-0.130721315741539,0.008093725889921188,-0.0594048947095871
1701881428207956200,4.032956298828125,-0.11361759155988693,0.0068720318377017975,-0.036192700266838074
1701881428217547800,4.0425478515625,-0.08429691940546036,0.008093725889921188,-0.0068720318377017975
1701881428227140400,4.052140380859375,-0.03665083646774292,0.04230117425322533,0.012675080448389053
1701881428236733400,4.0617333984375,0.009773556143045425,0.06551336497068405,0.020005248486995697
1701881428246326000,4.071325927734375,0.047646086663007736,0.07895200699567795,0.020005248486995697
1701881428255917600,4.08091748046875,0.07085828483104706,0.07773031294345856,0.012675080448389053
1701881428265510100,4.09051025390625,0.08551861345767975,0.06551336497068405,0.0016798300202935934
1701881428275103200,4.100103271484375,0.09529217332601547,0.04352286830544472,-0.01175880990922451
1701881428284695800,4.10969580078125,0.09773556143045425,0.015423892997205257,-0.021532366052269936
1701881428294287400,4.119287353515625,0.09651386737823486,-0.012675080448389053,-0.02764083817601204
1701881428303880000,4.1288798828125,0.09040539711713791,-0.037108972668647766,-0.03130592033267021
1701881428313473000,4.13847314453125,0.08185353130102158,-0.05421269312500954,-0.03374931216239929
1701881428323065600,4.148065673828125,0.07696675509214401,-0.06398624926805496,-0.03497100621461868
1701881428332657200,4.1576572265625,0.07452336698770523,-0.06154286116361618,-0.038636088371276855
1701881428342249700,4.167249755859375,0.06963659077882767,-0.04810422286391258,-0.039857782423496246
1701881428351842800,4.1768427734375,0.05864133685827255,-0.028557108715176582,-0.037414394319057465
1701881428361435400,4.186435302734375,0.042759306728839874,-0.0065666078589856625,-0.0325276181101799
1701881428371027000,4.19602685546875,0.025655584409832954,0.016645587980747223,-0.02886253222823143
1701881428380619500,4.20561962890625,0.010995250195264816,0.04107947647571564,-0.02886253222823143
1701881428390212600,4.215212646484375,-0.0012216945178806782,0.06673506647348404,-0.03497100621461868
1701881428399805200,4.22480517578125,-0.014660334214568138,0.08872556686401367,-0.04718795046210289
1701881428409396700,4.234396728515625,-0.023212196305394173,0.09361234307289124,-0.06429167091846466
1701881428418989300,4.2439892578125,-0.029320668429136276,0.09605573117733002,-0.08017370104789734
1701881428428582400,4.25358251953125,-0.03665083646774292,0.09972081333398819,-0.09239064902067184
1701881428438175000,4.263175048828125,-0.042759306728839874,0.09972081333398819,-0.09727742522954941
1701881428447766500,4.2727666015625,-0.046424392610788345,0.09483403712511063,-0.09116895496845245
1701881428457359000,4.282359130859375,-0.05008947476744652,0.08872556686401367,-0.07895200699567795
1701881428466952200,4.2919521484375,-0.05375456064939499,0.08628217875957489,-0.06551336497068405
1701881428476544800,4.301544677734375,-0.05619794875383377,0.08628217875957489,-0.05207473039627075
1701881428486136300,4.31113623046875,-0.05986303091049194,0.08994726091623306,-0.04230117425322533
1701881428495729000,4.32072900390625,-0.061084724962711334,0.09361234307289124,-0.036192700266838074
1701881428505322000,4.330322021484375,-0.06352811306715012,0.09116895496845245,-0.03497100621461868
1701881428514914600,4.33991455078125,-0.0659715011715889,0.08261708915233612,-0.03374931216239929
1701881428524506000,4.349506103515625,-0.06719319522380829,0.07650861889123917,-0.03374931216239929
1701881428534098700,4.3590986328125,-0.06719319522380829,0.06551336497068405,-0.03374931216239929
1701881428543691800,4.36869189453125,-0.06963659077882767,0.0459662564098835,-0.03497100621461868
1701881428553284400,4.378284423828125,-0.07330167293548584,0.021532366052269936,-0.037414394319057465
1701881428562876000,4.3878759765625,-0.0781884491443634,-0.004123218823224306,-0.039857782423496246
1701881428572468500,4.397468505859375,-0.08429691940546036,-0.02733541466295719,-0.04474456235766411
1701881428582061600,4.4070615234375,-0.09284878522157669,-0.0456608310341835,-0.04840964451432228
1701881428591654100,4.416654052734375,-0.10017894953489304,-0.06032116711139679,-0.05085303261876106
1701881428601245700,4.42624560546875,-0.10017894953489304,-0.07498150318861008,-0.054518118500709534
1701881428610838300,4.43583837890625,-0.09529217332601547,-0.08842013776302338,-0.055739812552928925
1701881428620431400,4.445431396484375,-0.09040539711713791,-0.10185877978801727,-0.05329642444849014
1701881428630024000,4.45502392578125,-0.08429691940546036,-0.1104106456041336,-0.04230117425322533
1701881428639615500,4.464615478515625,-0.07452336698770523,-0.11651911586523056,-0.023975754156708717
1701881428649208000,4.4742080078125,-0.0659715011715889,-0.11896250396966934,-0.0032069480512291193
1701881428658801200,4.48380126953125,-0.05986303091049194,-0.11896250396966934,0.01511846948415041
1701881428668393700,4.493393798828125,-0.05619794875383377,-0.111632339656353,0.02733541466295719
1701881428677985300,4.5029853515625,-0.05008947476744652,-0.10063708573579788,0.034665580838918686
1701881428687577900,4.512577880859375,-0.043981000781059265,-0.09330692142248154,0.033443886786699295
1701881428697171000,4.5221708984375,-0.03420744836330414,-0.08964183181524277,0.028557108715176582
1701881428706763500,4.531763427734375,-0.023212196305394173,-0.09086353331804276,0.018783552572131157
1701881428716355000,4.54135498046875,-0.012216945178806782,-0.08964183181524277,0.013896775431931019
1701881428725947600,4.55094775390625,-0.0012216945178806782,-0.08719844371080399,0.013896775431931019
1701881428735540700,4.560540771484375,0.010995250195264816,-0.08231166750192642,0.012675080448389053
1701881428745133300,4.57013330078125,0.021990500390529633,-0.07498150318861008,0.012675080448389053
1701881428754724900,4.579724853515625,0.030542362481355667,-0.06765133142471313,0.017561858519911766
1701881428764317400,4.5893173828125,0.03176405653357506,-0.0590994730591774,0.02733541466295719
1701881428773910500,4.59891064453125,0.03176405653357506,-0.0456608310341835,0.03833066672086716
1701881428783503000,4.608503173828125,0.028098974376916885,-0.0261137206107378,0.052990999072790146
1701881428793094700,4.6180947265625,0.021990500390529633,-0.004123218823224306,0.06642963737249374
1701881428802687200,4.627687255859375,0.013438640162348747,0.015423892997205257,0.07620319724082947
1701881428812280300,4.6372802734375,0.004886778071522713,0.03130592033267021,0.07986827939748764
1701881428821873000,4.646872802734375,-0.006108472589403391,0.04107947647571564,0.07986827939748764
1701881428831464400,4.65646435546875,-0.01588202826678753,0.04352286830544472,0.07620319724082947
1701881428841057000,4.66605712890625,-0.023212196305394173,0.036192700266838074,0.06887302547693253
1701881428850650000,4.675650146484375,-0.029320668429136276,0.022754060104489326,0.06154286116361618
1701881428860242700,4.68524267578125,-0.030542362481355667,0.0032069480512291193,0.05665608495473862
1701881428869834200,4.694834228515625,-0.025655584409832954,-0.020005248486995697,0.05665608495473862
1701881428879426800,4.7044267578125,-0.02076880633831024,-0.04321744292974472,0.0590994730591774
1701881428889020000,4.71402001953125,-0.01588202826678753,-0.06398624926805496,0.06276455521583557
1701881428898612500,4.723612548828125,-0.009773556143045425,-0.08231166750192642,0.06398624926805496
1701881428908204000,4.7332041015625,-0.0036650835536420345,-0.10674555599689484,0.06276455521583557
1701881428917796600,4.742796630859375,0.0024433890357613564,-0.13240113854408264,0.05421269312500954
1701881428927389700,4.7523896484375,0.007330167107284069,-0.15805672109127045,0.037108972668647766
1701881428936982300,4.761982177734375,0.010995250195264816,-0.18249061703681946,0.018783552572131157
1701881428946573800,4.77157373046875,0.014660334214568138,-0.2020377367734909,-0.0007635590736754239
1701881428956166400,4.78116650390625,0.014660334214568138,-0.21181128919124603,-0.014202198944985867
1701881428965759500,4.790759521484375,0.012216945178806782,-0.21425467729568481,-0.017867282032966614
1701881428975352000,4.80035205078125,0.004886778071522713,-0.21058958768844604,-0.015423892997205257
1701881428984943600,4.809943603515625,-0.007330167107284069,-0.20081603527069092,-0.008093725889921188
1701881428994536200,4.8195361328125,-0.021990500390529633,-0.18615570664405823,0.004123218823224306
1701881429004129300,4.82912939453125,-0.04031591862440109,-0.17027367651462555,0.013896775431931019
1701881429013721900,4.838721923828125,-0.05864133685827255,-0.1507265567779541,0.018783552572131157
1701881429023313400,4.8483134765625,-0.07574506103992462,-0.12995775043964386,0.02244863659143448
1701881429032906000,4.857906005859375,-0.0916270911693573,-0.10796725004911423,0.02367033064365387
1701881429042499000,4.8674990234375,-0.10384403169155121,-0.08842013776302338,0.02489202655851841
1701881429052091600,4.877091552734375,-0.11361759155988693,-0.07375980913639069,0.02733541466295719
1701881429061683200,4.88668310546875,-0.1185043677687645,-0.0590994730591774,0.02733541466295719
1701881429071275800,4.89627587890625,-0.1172826737165451,-0.0456608310341835,0.02733541466295719
1701881429080868900,4.905868896484375,-0.11239589750766754,-0.033443886786699295,0.0261137206107378
1701881429090461400,4.91546142578125,-0.10017894953489304,-0.02244863659143448,0.02367033064365387
1701881429100053000,4.925052978515625,-0.08429691940546036,-0.009009997360408306,0.018783552572131157
1701881429109645600,4.9346455078125,-0.06719319522380829,0.005650337319821119,0.013896775431931019
1701881429119238700,4.94423876953125,-0.04886778071522713,0.019088976085186005,0.010231691412627697
1701881429128831200,4.953831298828125,-0.029320668429136276,0.03374931216239929,0.007788302376866341
1701881429138422800,4.9634228515625,-0.012216945178806782,0.04474456235766411,0.0065666078589856625
1701881429148015400,4.973015380859375,0.0036650835536420345,0.04840964451432228,0.004123218823224306
1701881429157608400,4.9826083984375,0.01954711228609085,0.04230117425322533,-0.005650337319821119
1701881429167201000,4.992200927734375,0.030542362481355667,0.03374931216239929,-0.016645587980747223
1701881429176792600,5.00179248046875,0.0390942245721817,0.02764083817601204,-0.025197450071573257
1701881429186385200,5.01138525390625,0.045202698558568954,0.02641914412379265,-0.03130592033267021
1701881429195978200,5.020978271484375,0.047646086663007736,0.02641914412379265,-0.03374931216239929
1701881429205570800,5.03057080078125,0.046424392610788345,0.0325276181101799,-0.03374931216239929
1701881429215162400,5.040162353515625,0.043981000781059265,0.04230117425322533,-0.03008422814309597
1701881429224755000,5.0497548828125,0.0390942245721817,0.056961506605148315,-0.02764083817601204
1701881429234348000,5.05934814453125,0.03420744836330414,0.07406523078680038,-0.025197450071573257
1701881429243940600,5.068940673828125,0.029320668429136276,0.09483403712511063,-0.025197450071573257
1701881429253532200,5.0785322265625,0.024433890357613564,0.11560284346342087,-0.02764083817601204
1701881429263124700,5.088124755859375,0.01954711228609085,0.13148486614227295,-0.02886253222823143
1701881429272717800,5.0977177734375,0.01588202826678753,0.14492350816726685,-0.02886253222823143
1701881429282310400,5.107310302734375,0.012216945178806782,0.15347537398338318,-0.02764083817601204
1701881429291902000,5.11690185546875,0.009773556143045425,0.15958385169506073,-0.02764083817601204
1701881429301494500,5.12649462890625,0.008551862090826035,0.1632489264011383,-0.02641914412379265
1701881429311087600,5.136087646484375,0.006108472589403391,0.1632489264011383,-0.025197450071573257
1701881429320680200,5.14568017578125,0.007330167107284069,0.15714046359062195,-0.025197450071573257
1701881429330271700,5.155271728515625,0.006108472589403391,0.1510319858789444,-0.023975754156708717
1701881429339864300,5.1648642578125,0.004886778071522713,0.14492350816726685,-0.022754060104489326
1701881429349457400,5.17445751953125,0.004886778071522713,0.14125843346118927,-0.019088976085186005
1701881429359050000,5.184050048828125,0.004886778071522713,0.1375933438539505,-0.015423892997205257
1701881429368641500,5.1936416015625,0.006108472589403391,0.13148486614227295,-0.01175880990922451
1701881429378234000,5.203234130859375,0.004886778071522713,0.1241547018289566,-0.009315420873463154
1701881429387827200,5.2128271484375,0.004886778071522713,0.11560284346342087,-0.008093725889921188
1701881429397419800,5.222419677734375,0.0036650835536420345,0.10582929104566574,-0.009315420873463154
1701881429407011300,5.23201123046875,0.0012216945178806782,0.09727742522954941,-0.014202198944985867
1701881429416604000,5.24160400390625,0,0.08872556686401367,-0.021532366052269936
1701881429426197000,5.251197021484375,-0.0024433890357613564,0.08383878320455551,-0.03130592033267021
1701881429435789600,5.26078955078125,-0.0036650835536420345,0.08139539510011673,-0.04230117425322533
1701881429445381000,5.270381103515625,-0.006108472589403391,0.08261708915233612,-0.04963133856654167
1701881429454973700,5.2799736328125,-0.008551862090826035,0.08750387281179428,-0.056961506605148315
1701881429464566800,5.28956689453125,-0.012216945178806782,0.09605573117733002,-0.0594048947095871
1701881429474159400,5.299159423828125,-0.01710372418165207,0.10460758954286575,-0.0594048947095871
1701881429483751000,5.3087509765625,-0.01954711228609085,0.11438114941120148,-0.055739812552928925
1701881429493343500,5.318343505859375,-0.023212196305394173,0.11926792562007904,-0.04840964451432228
1701881429502936600,5.3279365234375,-0.024433890357613564,0.12293300777673721,-0.04230117425322533
1701881429512529200,5.337529052734375,-0.025655584409832954,0.12659808993339539,-0.03130592033267021
1701881429522120700,5.34712060546875,-0.025655584409832954,0.12659808993339539,-0.021532366052269936
1701881429531713300,5.35671337890625,-0.024433890357613564,0.1253764033317566,-0.010537114925682545
1701881429541306400,5.366306396484375,-0.02076880633831024,0.11926792562007904,-0.0007635590736754239
1701881429550899000,5.37589892578125,-0.01832541823387146,0.11560284346342087,0.005344913341104984
1701881429560490500,5.385490478515625,-0.014660334214568138,0.1119377613067627,0.011453386396169662
1701881429570083000,5.3950830078125,-0.008551862090826035,0.1107160672545433,0.016340164467692375
1701881429579676200,5.40467626953125,-0.004886778071522713,0.10582929104566574,0.018783552572131157
1701881429589268700,5.414268798828125,0,0.10216420143842697,0.017561858519911766
1701881429598860300,5.4238603515625,0.0036650835536420345,0.09605573117733002,0.017561858519911766
1701881429608452900,5.433452880859375,0.004886778071522713,0.08994726091623306,0.017561858519911766
1701881429618046000,5.4430458984375,0.009773556143045425,0.08628217875957489,0.017561858519911766
1701881429627638500,5.452638427734375,0.010995250195264816,0.08017370104789734,0.016340164467692375
1701881429637230000,5.46222998046875,0.010995250195264816,0.0716218426823616,0.012675080448389053
1701881429646822700,5.47182275390625,0.009773556143045425,0.06429167091846466,0.007788302376866341
1701881429656415700,5.481415771484375,0.012216945178806782,0.058183200657367706,0.004123218823224306
1701881429666008300,5.49100830078125,0.014660334214568138,0.05329642444849014,0.0004581354442052543
1701881429675600000,5.500599853515625,0.01588202826678753,0.05085303261876106,-0.0032069480512291193
1701881429685192400,5.5101923828125,0.02076880633831024,0.04840964451432228,-0.005650337319821119
1701881429694785500,5.51978564453125,0.023212196305394173,0.0459662564098835,-0.008093725889921188
1701881429704378000,5.529378173828125,0.024433890357613564,0.0459662564098835,-0.010537114925682545
1701881429713969700,5.5389697265625,0.024433890357613564,0.04474456235766411,-0.014202198944985867
1701881429723562200,5.548562255859375,0.021990500390529633,0.04474456235766411,-0.015423892997205257
1701881429733155300,5.5581552734375,0.01954711228609085,0.04474456235766411,-0.016645587980747223
1701881429742748000,5.567747802734375,0.013438640162348747,0.04352286830544472,-0.015423892997205257
1701881429752339500,5.57733935546875,0.007330167107284069,0.04230117425322533,-0.014202198944985867
1701881429761932000,5.58693212890625,0,0.04352286830544472,-0.012980503961443901
1701881429771525000,5.596525146484375,-0.007330167107284069,0.04230117425322533,-0.014202198944985867
1701881429781117700,5.60611767578125,-0.013438640162348747,0.04474456235766411,-0.015423892997205257
1701881429790709200,5.615709228515625,-0.01954711228609085,0.0459662564098835,-0.019088976085186005
1701881429800301800,5.6253017578125,-0.024433890357613564,0.04840964451432228,-0.023975754156708717
1701881429809895000,5.63489501953125,-0.030542362481355667,0.05085303261876106,-0.02886253222823143
1701881429819487500,5.644487548828125,-0.03665083646774292,0.05085303261876106,-0.03130592033267021
1701881429829079000,5.6540791015625,-0.04153761267662048,0.05207473039627075,-0.0325276181101799
1701881429838671600,5.663671630859375,-0.043981000781059265,0.04963133856654167,-0.03130592033267021
1701881429848264700,5.6732646484375,-0.043981000781059265,0.0459662564098835,-0.03130592033267021
1701881429857857300,5.682857177734375,-0.043981000781059265,0.04230117425322533,-0.03008422814309597
1701881429867448800,5.69244873046875,-0.042759306728839874,0.03497100621461868,-0.03008422814309597
1701881429877041400,5.70204150390625,-0.0390942245721817,0.02764083817601204,-0.03008422814309597
1701881429886634500,5.711634521484375,-0.03542914241552353,0.022754060104489326,-0.02886253222823143
1701881429896227000,5.72122705078125,-0.03420744836330414,0.014202198944985867,-0.02641914412379265
1701881429905818600,5.730818603515625,-0.03176405653357506,0.010537114925682545,-0.023975754156708717
1701881429915411200,5.7404111328125,-0.029320668429136276,0.0068720318377017975,-0.021532366052269936
1701881429925004300,5.75000439453125,-0.026877280324697495,0.0007635590736754239,-0.020310672000050545
1701881429934596900,5.759596923828125,-0.025655584409832954,-0.0029015245381742716,-0.019088976085186005
1701881429944188400,5.7691884765625,-0.024433890357613564,-0.007788302376866341,-0.017867282032966614
1701881429953781000,5.778781005859375,-0.023212196305394173,-0.012675080448389053,-0.016645587980747223
1701881429963374000,5.7883740234375,-0.021990500390529633,-0.01511846948415041,-0.014202198944985867
1701881429972966700,5.797966552734375,-0.02076880633831024,-0.020005248486995697,-0.012980503961443901
1701881429982558200,5.80755810546875,-0.01832541823387146,-0.020005248486995697,-0.01175880990922451
1701881429992150800,5.81715087890625,-0.01588202826678753,-0.02367033064365387,-0.010537114925682545
1701881430001744100,5.826744140625,-0.014660334214568138,-0.02367033064365387,-0.008093725889921188
1701881430011336400,5.83633642578125,-0.012216945178806782,-0.021226942539215088,-0.008093725889921188
1701881430020928000,5.845927978515625,-0.010995250195264816,-0.018783552572131157,-0.005650337319821119
1701881430030520600,5.8555205078125,-0.009773556143045425,-0.01511846948415041,-0.0032069480512291193
1701881430040114000,5.865114013671875,-0.009773556143045425,-0.011453386396169662,-0.0007635590736754239
1701881430049706200,5.874706298828125,-0.007330167107284069,-0.0029015245381742716,0.0016798300202935934
1701881430059297800,5.8842978515625,-0.004886778071522713,0.004428642801940441,0.005344913341104984
1701881430068890400,5.893890380859375,-0.0012216945178806782,0.01175880990922451,0.0065666078589856625
1701881430078483700,5.903483642578125,0,0.019088976085186005,0.007788302376866341
1701881430088076000,5.913075927734375,0.0024433890357613564,0.02886253222823143,0.010231691412627697
1701881430097667600,5.92266748046875,0.007330167107284069,0.036192700266838074,0.012675080448389053
1701881430107260200,5.93226025390625,0.012216945178806782,0.04230117425322533,0.011453386396169662
1701881430116853200,5.941853271484375,0.01832541823387146,0.04963133856654167,0.011453386396169662
1701881430126445800,5.95144580078125,0.024433890357613564,0.055739812552928925,0.011453386396169662
1701881430136037400,5.961037353515625,0.03176405653357506,0.06673506647348404,0.010231691412627697
1701881430145630000,5.9706298828125,0.0390942245721817,0.07773031294345856,0.009009997360408306
1701881430155223000,5.98022314453125,0.045202698558568954,0.08872556686401367,0.0065666078589856625
1701881430164815600,5.989815673828125,0.04886778071522713,0.09972081333398819,0.0029015245381742716
1701881430174407200,5.9994072265625,0.05375456064939499,0.11315945535898209,-0.001985253533348441
1701881430183999700,6.008999755859375,0.05986303091049194,0.1241547018289566,-0.0068720318377017975
1701881430193592800,6.0185927734375,0.0647498071193695,0.13392825424671173,-0.01175880990922451
1701881430203185400,6.028185302734375,0.07085828483104706,0.14370182156562805,-0.014202198944985867
1701881430212777000,6.03777685546875,0.07696675509214401,0.1510319858789444,-0.015423892997205257
1701881430222369500,6.04736962890625,0.08307522535324097,0.15714046359062195,-0.014202198944985867
1701881430231962600,6.056962646484375,0.08918370306491852,0.1644706279039383,-0.01175880990922451
1701881430241555200,6.06655517578125,0.09529217332601547,0.17057909071445465,-0.008093725889921188
1701881430251146800,6.076146728515625,0.10140064358711243,0.17913095653057098,-0.004428642801940441
1701881430260739300,6.0857392578125,0.1050657257437706,0.18523943424224854,-0.0007635590736754239
1701881430270332400,6.09533251953125,0.10873081535100937,0.1913478970527649,0.0016798300202935934
1701881430279925000,6.104925048828125,0.11117420345544815,0.19867807626724243,0.005344913341104984
1701881430289516500,6.1145166015625,0.11117420345544815,0.2047865390777588,0.007788302376866341
1701881430299109000,6.124109130859375,0.11117420345544815,0.21333840489387512,0.010231691412627697
1701881430308702200,6.1337021484375,0.11361759155988693,0.22189027070999146,0.010231691412627697
1701881430318294800,6.143294677734375,0.11483928561210632,0.2292204350233078,0.005344913341104984
1701881430327886300,6.15288623046875,0.1185043677687645,0.23655059933662415,-0.001985253533348441
1701881430337479000,6.16247900390625,0.12216944992542267,0.23655059933662415,-0.009315420873463154
1701881430347072000,6.172072021484375,0.129499614238739,0.2304421216249466,-0.015423892997205257
1701881430356664600,6.18166455078125,0.13682979345321655,0.21822518110275269,-0.020310672000050545
1701881430366256000,6.191256103515625,0.1429382562637329,0.20845162868499756,-0.023975754156708717
1701881430375848700,6.2008486328125,0.15271180868148804,0.21089501678943634,-0.02764083817601204
1701881430385441800,6.21044189453125,0.1588202863931656,0.22189027070999146,-0.03130592033267021
1701881430395034400,6.220034423828125,0.1588202863931656,0.24510246515274048,-0.038636088371276855
1701881430404626000,6.2296259765625,0.15271180868148804,0.2695363461971283,-0.04718795046210289
1701881430414218500,6.239218505859375,0.1453816443681717,0.2915268540382385,-0.0594048947095871
1701881430423811600,6.2488115234375,0.13682979345321655,0.3061871826648712,-0.06795676052570343
1701881430433404200,6.258404052734375,0.1319430023431778,0.31473904848098755,-0.06673506647348404
1701881430442995700,6.26799560546875,0.130721315741539,0.31596073508262634,-0.056961506605148315
1701881430452588300,6.27758837890625,0.1319430023431778,0.30985227227211,-0.04230117425322533
1701881430462181400,6.287181396484375,0.13316470384597778,0.30130040645599365,-0.022754060104489326
1701881430471774000,6.29677392578125,0.12583453953266144,0.28541839122772217,-0.0007635590736754239
1701881430481365500,6.306365478515625,0.10262233763933182,0.26342788338661194,0.02244863659143448
1701881430490958000,6.3159580078125,0.08918370306491852,0.23410721123218536,0.04077405482530594
1701881430500551200,6.32555126953125,0.09040539711713791,0.2157817929983139,0.052990999072790146
1701881430510143700,6.335143798828125,0.08918370306491852,0.21822518110275269,0.06887302547693253
1701881430519735300,6.3447353515625,0.08429691940546036,0.2279987335205078,0.08231166750192642
1701881430529327900,6.354327880859375,0.07452336698770523,0.23899398744106293,0.08842013776302338
1701881430538921000,6.3639208984375,0.05741964280605316,0.24632415175437927,0.08719844371080399
1701881430548513500,6.373513427734375,0.0390942245721817,0.2426590770483017,0.08231166750192642
1701881430558105000,6.38310498046875,0.023212196305394173,0.23655059933662415,0.0725381150841713
1701881430567697700,6.39269775390625,0.010995250195264816,0.22555534541606903,0.06154286116361618
1701881430577290800,6.402290771484375,0.004886778071522713,0.18768282234668732,0.050547610968351364
1701881430586883300,6.41188330078125,-0.007330167107284069,0.14614520967006683,0.034665580838918686
1701881430596475000,6.421474853515625,-0.021990500390529633,0.11804623156785965,0.02367033064365387
1701881430606067500,6.4310673828125,-0.03787253051996231,0.09483403712511063,0.013896775431931019
1701881430615660500,6.44066064453125,-0.047646086663007736,0.06673506647348404,0.0016798300202935934
1701881430625253000,6.450253173828125,-0.04886778071522713,0.0325276181101799,-0.008093725889921188
1701881430634844700,6.4598447265625,-0.043981000781059265,-0.0029015245381742716,-0.020310672000050545
1701881430644437200,6.469437255859375,-0.04153761267662048,-0.0261137206107378,-0.03497100621461868
1701881430654030300,6.4790302734375,-0.046424392610788345,-0.0261137206107378,-0.0594048947095871
1701881430663623000,6.488622802734375,-0.05375456064939499,-0.06032116711139679,-0.08628217875957489
1701881430673214500,6.49821435546875,-0.05131116881966591,-0.09575030952692032,-0.10705098509788513
1701881430682807000,6.50780712890625,-0.06352811306715012,-0.10796725004911423,-0.10094250738620758
1701881430692400000,6.517400146484375,-0.09284878522157669,-0.11651911586523056,-0.08261708915233612
1701881430701992700,6.52699267578125,-0.13316470384597778,-0.12018419802188873,-0.07406523078680038
1701881430711584300,6.536584228515625,-0.17836740612983704,-0.12629267573356628,-0.07040014863014221
1701881430721176800,6.5461767578125,-0.2211267054080963,-0.09697200357913971,-0.056961506605148315
1701881430730770000,6.55577001953125,-0.2761029601097107,-0.09452861547470093,-0.03130592033267021
1701881430740362500,6.565362548828125,-0.3396310806274414,-0.10796725004911423,0.021226942539215088
1701881430749954000,6.5749541015625,-0.37506023049354553,-0.05787777900695801,0.0590994730591774
1701881430759546600,6.584546630859375,-0.4178195297718048,-0.17271706461906433,-0.014202198944985867
1701881430769139700,6.5941396484375,-0.43981003761291504,-0.10308047384023666,-0.019088976085186005
1701881430778732300,6.603732177734375,-0.44958359003067017,0.038636088371276855,0.021226942539215088
1701881430788323800,6.61332373046875,-0.4862344264984131,0.10582929104566574,0.021226942539215088
1701881430797916400,6.62291650390625,-0.49112120270729065,0.14492350816726685,-0.01175880990922451
1701881430807509500,6.632509521484375,-0.47646087408065796,0.2047865390777588,-0.058183200657367706
1701881430817102000,6.64210205078125,-0.45202696323394775,0.27442312240600586,-0.08383878320455551
1701881430826693600,6.651693603515625,-0.4202629029750824,0.2805316150188446,-0.11926792562007904
1701881430836286200,6.6612861328125,-0.37383851408958435,0.26098448038101196,-0.1766875684261322
1701881430845879300,6.67087939453125,-0.3384093940258026,0.25121092796325684,-0.2414373755455017
1701881430855471900,6.680471923828125,-0.3054236173629761,0.25976279377937317,-0.3086305856704712
1701881430865063400,6.6900634765625,-0.26877278089523315,0.27197974920272827,-0.36360684037208557
1701881430874656000,6.699656005859375,-0.23212195932865143,0.27564483880996704,-0.39170581102371216
1701881430884249000,6.7092490234375,-0.2089097648859024,0.24998924136161804,-0.4002576768398285
1701881430893841700,6.718841552734375,-0.1820324808359146,0.19989976286888123,-0.39292749762535095
1701881430903433200,6.72843310546875,-0.130721315741539,0.15958385169506073,-0.37704548239707947
1701881430913025800,6.73802587890625,-0.08185353130102158,0.1656923145055771,-0.3599417507648468
1701881430922619000,6.747618896484375,-0.05375456064939499,0.16813570261001587,-0.335507869720459
1701881430932211500,6.75721142578125,-0.01954711228609085,0.1632489264011383,-0.30252209305763245
1701881430941803000,6.766802978515625,0.024433890357613564,0.1889045089483261,-0.26220619678497314
1701881430951395600,6.7763955078125,0.09407047927379608,0.2426590770483017,-0.21333840489387512
1701881430960989000,6.785989013671875,0.15515519678592682,0.34039464592933655,-0.17057909071445465
1701881430970581200,6.795581298828125,0.16615045070648193,0.46989426016807556,-0.14248012006282806
1701881430980172800,6.8051728515625,0.1319430023431778,0.6226060390472412,-0.14125843346118927
1701881430989765400,6.814765380859375,0.15026842057704926,0.6910209655761719,-0.1644706279039383
1701881430999358700,6.824358642578125,0.11972606182098389,0.7203416228294373,-0.1913478970527649
1701881431008951000,6.833950927734375,0.07452336698770523,0.7496622800827026,-0.2279987335205078
1701881431018542600,6.84354248046875,0.01832541823387146,0.7496622800827026,-0.2658712565898895
1701881431028135200,6.85313525390625,-0.05131116881966591,0.7191199064254761,-0.2915268540382385
1701881431037728500,6.862728515625,-0.11117420345544815,0.7032378911972046,-0.3318427801132202
1701881431047320800,6.87232080078125,-0.16126367449760437,0.6934643387794495,-0.3843756318092346
1701881431056912400,6.881912353515625,-0.20035789906978607,0.7423321604728699,-0.4491254389286041
1701881431066505000,6.8915048828125,-0.27121618390083313,0.6897992491722107,-0.49677154421806335
1701881431076098300,6.901098388671875,-0.3139754831790924,0.6213843822479248,-0.49677154421806335
1701881431085690600,6.910690673828125,-0.35917818546295166,0.6629219651222229,-0.5016583204269409
1701881431095282200,6.9202822265625,-0.41293275356292725,0.6971294283866882,-0.4796678125858307
1701881431104874800,6.929874755859375,-0.4984513521194458,0.6604785919189453,-0.4088095426559448
1701881431114468000,6.939468017578125,-0.5607577562332153,0.5370874404907227,-0.30740886926651
1701881431124060400,6.949060302734375,-0.6377245187759399,0.4808894991874695,-0.23166382312774658
1701881431133652000,6.95865185546875,-0.7330167293548584,0.4136963188648224,-0.16691401600837708
1701881431143244500,6.96824462890625,-0.8612946271896362,0.358720064163208,-0.10216420143842697
1701881431152838000,6.977837890625,-0.9785773158073425,0.2817533016204834,-0.04474456235766411
1701881431162430200,6.98743017578125,-1.0628741979599,0.18401773273944855,-0.001985253533348441
1701881431172021800,6.997021728515625,-1.115407109260559,0.08139539510011673,0.0456608310341835
1701881431181614300,7.0066142578125,-1.1593880653381348,0.04718795046210289,0.09697200357913971
1701881431191207700,7.016207763671875,-1.1790878772735596,0.001985253533348441,0.12751436233520508
1701881431200800000,7.025800048828125,-1.1545013189315796,-0.03955236077308655,0.11774080991744995
1701881431210391600,7.0353916015625,-1.0714260339736938,-0.10063708573579788,0.07742489129304886
1701881431219984100,7.044984130859375,-0.9199360013008118,-0.14583978056907654,0.004123218823224306
1701881431229577500,7.054577392578125,-0.7989882230758667,-0.12140589207410812,-0.11682453751564026
1701881431239169800,7.064169677734375,-0.7806627750396729,-0.08719844371080399,-0.2793098986148834
1701881431248761300,7.07376123046875,-0.8270871639251709,-0.13240113854408264,-0.4369085133075714
1701881431258354000,7.08335400390625,-0.9248227477073669,-0.12995775043964386,-0.6213843822479248
1701881431267947300,7.092947265625,-1.0738694667816162,-0.06276455521583557,-0.8315158486366272
1701881431277539600,7.10253955078125,-1.2670499086380005,-0.005344913341104984,-1.042868971824646
1701881431287131100,7.112131103515625,-1.4747380018234253,0.06062658876180649,-1.2285665273666382
1701881431296723700,7.1217236328125,-1.6017942428588867,0.06795676052570343,-1.366618037223816
1701881431306317000,7.131317138671875,-1.6176762580871582,0.03008422814309597,-1.446028232574463
1701881431315909400,7.140909423828125,-1.6237847805023193,0.058183200657367706,-1.5266599655151367
1701881431325501000,7.1505009765625,-1.6433318853378296,0.10949437320232391,-1.6072918176651
1701881431335093500,7.160093505859375,-1.6750959157943726,0.16935740411281586,-1.6463860273361206
1701881431344686800,7.169686767578125,-1.6983081102371216,0.19256959855556488,-1.615843653678894
1701881431354279200,7.179279052734375,-1.7031948566436768,0.17302247881889343,-1.537655234336853
1701881431363870700,7.18887060546875,-1.6983081102371216,0.11926792562007904,-1.459466814994812
1701881431373463300,7.19846337890625,-1.6970864534378052,0.06795676052570343,-1.4105989933013916
1701881431383056600,7.208056640625,-1.7031948566436768,0.05085303261876106,-1.3971604108810425
1701881431392649000,7.21764892578125,-1.6738742589950562,-0.021226942539215088,-1.371504783630371
1701881431402240500,7.227240478515625,-1.5969074964523315,-0.06032116711139679,-1.3214153051376343
1701881431411833000,7.2368330078125,-1.5346009731292725,-0.07742489129304886,-1.213906168937683
1701881431421426400,7.246426513671875,-1.5223840475082397,-0.08719844371080399,-1.074633002281189
1701881431431018800,7.256018798828125,-1.5480396747589111,-0.018783552572131157,-0.9500201940536499
1701881431440610300,7.2656103515625,-1.6079026460647583,-0.020005248486995697,-0.8852704167366028
1701881431450203000,7.275202880859375,-1.6494402885437012,-0.037108972668647766,-0.8987090587615967
1701881431459796200,7.284796142578125,-1.6689873933792114,0.020310672000050545,-0.9426900148391724
1701881431469388500,7.294388427734375,-1.7239636182785034,0.010537114925682545,-0.9206995368003845
1701881431478980000,7.30397998046875,-1.7398457527160645,-0.0859767496585846,-0.8657232522964478
1701881431488572700,7.31357275390625,-1.6921995878219604,-0.12140589207410812,-0.8192988634109497
1701881431498166000,7.323166015625,-1.6152328252792358,-0.06642963737249374,-0.7704311013221741
1701881431507758300,7.33275830078125,-1.5272709131240845,0.06795676052570343,-0.6873558759689331
1701881431517350000,7.342349853515625,-1.4515258073806763,0.22189027070999146,-0.5908420085906982
1701881431526942500,7.3519423828125,-1.3953278064727783,0.2683146595954895,-0.4527905285358429
1701881431536535800,7.361535888671875,-1.2878187894821167,0.333064466714859,-0.3245126008987427
1701881431546128100,7.371128173828125,-1.1618314981460571,0.358720064163208,-0.19989976286888123
1701881431555719700,7.3807197265625,-1.0347752571105957,0.3245126008987427,-0.08872556686401367
1701881431565312300,7.390312255859375,-0.9028322696685791,0.2964136302471161,-0.0007635590736754239
1701881431574905600,7.399905517578125,-0.8173136115074158,0.18401773273944855,0.10430216789245605
1701881431584498000,7.409497802734375,-0.7342383861541748,0.11926792562007904,0.188599094748497
1701881431594089500,7.41908935546875,-0.6743753552436829,0.12904147803783417,0.24479703605175018
1701881431603682000,7.42868212890625,-0.6303943991661072,0.15469707548618317,0.293664813041687
1701881431613275400,7.438275390625,-0.5961869359016418,0.16691401600837708,0.3449759781360626
1701881431622867700,7.44786767578125,-0.5754181146621704,0.17913095653057098,0.39384377002716064
1701881431632459500,7.45745947265625,-0.5815265774726868,0.20356485247612,0.4537068009376526
1701881431642051800,7.4670517578125,-0.6120689511299133,0.25121092796325684,0.5135698318481445
1701881431651645200,7.476645263671875,-0.6462764143943787,0.3306210935115814,0.5577035546302795
1701881431661237500,7.486237548828125,-0.6804838180541992,0.3342861533164978,0.6139014959335327
1701881431670829000,7.4958291015625,-0.6914790868759155,0.2927485406398773,0.6603258848190308
1701881431680421600,7.505421630859375,-0.6633801460266113,0.2573194205760956,0.6786513328552246
1701881431690015000,7.515014892578125,-0.6120689511299133,0.2573194205760956,0.6603258848190308
1701881431699607300,7.524607177734375,-0.5876350402832031,0.17057909071445465,0.6835380792617798
1701881431709199000,7.53419921875,-0.546097457408905,0.11438114941120148,0.6603258848190308
1701881431718791400,7.54379150390625,-0.5094466209411621,0.06551336497068405,0.6163448691368103
1701881431728384800,7.553384765625,-0.48012593388557434,0.012980503961443901,0.5613686442375183
1701881431737977000,7.56297705078125,-0.45324867963790894,-0.0261137206107378,0.5013529062271118
1701881431747569000,7.57256884765625,-0.42514967918395996,-0.033443886786699295,0.41827765107154846
1701881431757161200,7.5821611328125,-0.39949411153793335,-0.13362284004688263,0.3840702176094055
1701881431766754600,7.591754638671875,-0.36284327507019043,-0.1898207813501358,0.3205420970916748
1701881431776347000,7.601346923828125,-0.33230090141296387,-0.22524993121623993,0.25212720036506653
1701881431785938700,7.610938720703125,-0.3151971995830536,-0.24479703605175018,0.19592925906181335
1701881431795531000,7.620531005859375,-0.30908870697021484,-0.25212720036506653,0.15805672109127045
1701881431805124400,7.630124267578125,-0.3029802441596985,-0.27411770820617676,0.13484452664852142
1701881431814716700,7.639716552734375,-0.29320669174194336,-0.2790044844150543,0.10674555599689484
1701881431824308500,7.64930859375,-0.25777754187583923,-0.18615570664405823,0.050547610968351364
1701881431833900800,7.65890087890625,-0.25655585527420044,-0.1776038408279419,0.051769305020570755
1701881431843494100,7.668494140625,-0.24556060135364532,-0.3327590525150299,0.1104106456041336
1701881431853086500,7.67808642578125,-0.19302773475646973,-0.3694098889827728,0.10552386194467545
1701881431862678300,7.68767822265625,-0.130721315741539,-0.3571929335594177,0.0847550556063652
1701881431872270600,7.6972705078125,-0.06963659077882767,-0.35352784395217896,0.06765133142471313
1701881431881864000,7.706864013671875,-0.013438640162348747,-0.3694098889827728,0.04077405482530594
1701881431891456300,7.716456298828125,0.0390942245721817,-0.3962871730327606,0.0065666078589856625
1701881431901048000,7.726048095703125,0.08429691940546036,-0.42072105407714844,-0.02764083817601204
1701881431910640400,7.735640380859375,0.11972606182098389,-0.4306473135948181,-0.056961506605148315
1701881431920233700,7.745233642578125,0.14049486815929413,-0.42072105407714844,-0.07650861889123917
1701881431929826000,7.754825927734375,0.15149012207984924,-0.39506545662879944,-0.09116895496845245
1701881431939417900,7.76441796875,0.1575985997915268,-0.36574479937553406,-0.09605573117733002
1701881431949010200,7.77401025390625,0.16615045070648193,-0.33764582872390747,-0.09361234307289124
1701881431958603500,7.783603515625,0.17958909273147583,-0.3095468580722809,-0.08750387281179428
1701881431968195800,7.79319580078125,0.20157960057258606,-0.2814478874206543,-0.0850604772567749
1701881431977787600,7.80278759765625,0.22723518311977386,-0.26434415578842163,-0.08628217875957489
1701881431987380000,7.8123798828125,0.25655585527420044,-0.25212720036506653,-0.09483403712511063
1701881431996973300,7.821973388671875,0.2895416021347046,-0.2423536479473114,-0.10582929104566574
1701881432006565600,7.831565673828125,0.32252734899520874,-0.23746687173843384,-0.1253764033317566
1701881432016157400,7.841157470703125,0.34940463304519653,-0.23868857324123383,-0.15347537398338318
1701881432025749800,7.850749755859375,0.3665083646774292,-0.2411319613456726,-0.18646112084388733
1701881432035343000,7.860343017578125,0.3701734244823456,-0.2411319613456726,-0.22555534541606903
1701881432044935400,7.869935302734375,0.35795649886131287,-0.23258009552955627,-0.2658712565898895
1701881432054527200,7.87952734375,0.3286358118057251,-0.19226416945457458,-0.30985227227211
1701881432064119600,7.88911962890625,0.3054236173629761,-0.19470755755901337,-0.32939937710762024
1701881432073713000,7.898712890625,0.2883199155330658,-0.19226416945457458,-0.333064466714859
1701881432083305200,7.90830517578125,0.2773246467113495,-0.17027367651462555,-0.335507869720459
1701881432092897000,7.91789697265625,0.2761029601097107,-0.1519482582807541,-0.3318427801132202
1701881432102489300,7.9274892578125,0.2870981991291046,-0.16783028841018677,-0.31473904848098755
1701881432112082700,7.937082763671875,0.30908870697021484,-0.18493400514125824,-0.2939702570438385
1701881432121675000,7.946675048828125,0.3274141252040863,-0.19715094566345215,-0.27320143580436707
1701881432131266800,7.956266845703125,0.3408527672290802,-0.21058958768844604,-0.252432644367218
1701881432140859100,7.965859130859375,0.34696123003959656,-0.21914145350456238,-0.23655059933662415
1701881432150452500,7.975452392578125,0.342074453830719,-0.2166980654001236,-0.22677704691886902
1701881432160044800,7.985044921875,0.3249707520008087,-0.20081603527069092,-0.22433365881443024
1701881432169636600,7.99463671875,0.29320669174194336,-0.17027367651462555,-0.2170034945011139
1701881432179229000,8.00422900390625,0.261442631483078,-0.1385096162557602,-0.20356485247612
1701881432188822300,8.013822265625,0.2345653474330902,-0.11407572776079178,-0.18646112084388733
1701881432198414600,8.02341455078125,0.2235700935125351,-0.09697200357913971,-0.17302247881889343
1701881432208006400,8.03300634765625,0.21868331730365753,-0.09452861547470093,-0.1656923145055771
1701881432217598700,8.0425986328125,0.21990501880645752,-0.10308047384023666,-0.16935740411281586
1701881432227192000,8.052192138671876,0.22479179501533508,-0.11285403370857239,-0.17302247881889343
1701881432236784400,8.061784423828126,0.22601348161697388,-0.11529742181301117,-0.17424418032169342
1701881432246376200,8.071376220703126,0.22479179501533508,-0.10796725004911423,-0.17180079221725464
1701881432255968500,8.080968505859374,0.21623992919921875,-0.09208522737026215,-0.1656923145055771
1701881432265561900,8.090561767578125,0.20646637678146362,-0.07498150318861008,-0.15347537398338318
1701881432275154200,8.100154296875,0.1979145109653473,-0.05787777900695801,-0.14003673195838928
1701881432284746000,8.10974609375,0.1979145109653473,-0.04321744292974472,-0.12659808993339539
1701881432294338300,8.11933837890625,0.20402298867702484,-0.03588727489113808,-0.1119377613067627
1701881432303931600,8.128931640625,0.2113531529903412,-0.03833066672086716,-0.09972081333398819
1701881432313524000,8.13852392578125,0.21990501880645752,-0.03955236077308655,-0.08750387281179428
1701881432323115800,8.14811572265625,0.22601348161697388,-0.04321744292974472,-0.07650861889123917
1701881432332708000,8.1577080078125,0.2235700935125351,-0.04199574887752533,-0.06184828653931618
1701881432342301400,8.167301513671875,0.2101314514875412,-0.037108972668647766,-0.04352286830544472
1701881432351893800,8.176893798828125,0.18936264514923096,-0.032222192734479904,-0.021532366052269936
1701881432361485600,8.186485595703125,0.16737215220928192,-0.02367033064365387,0.004123218823224306
1701881432371078000,8.196077880859375,0.15026842057704926,-0.010231691412627697,0.029778804630041122
1701881432380671200,8.205671142578124,0.1319430023431778,0.0007635590736754239,0.05543438717722893
1701881432390263600,8.215263671875,0.11606097966432571,0.0007635590736754239,0.07620319724082947
1701881432399855400,8.22485546875,0.11239589750766754,-0.009009997360408306,0.09575030952692032
1701881432409447700,8.23444775390625,0.11972606182098389,-0.02367033064365387,0.11651911586523056
1701881432419041000,8.244041015625,0.13682979345321655,-0.0456608310341835,0.13484452664852142
1701881432428633300,8.25363330078125,0.15515519678592682,-0.06398624926805496,0.14339639246463776
1701881432438225200,8.26322509765625,0.1710372269153595,-0.08231166750192642,0.14095300436019897
1701881432447817500,8.2728173828125,0.18569757044315338,-0.10063708573579788,0.13117945194244385
1701881432457410800,8.282410888671874,0.1979145109653473,-0.111632339656353,0.1104106456041336
1701881432467003100,8.292003173828125,0.20280128717422485,-0.11896250396966934,0.0847550556063652
1701881432476595000,8.301594970703125,0.20402298867702484,-0.12262758612632751,0.05543438717722893
1701881432486187300,8.311187255859375,0.19424942135810852,-0.12873606383800507,0.02367033064365387
1701881432495780600,8.320780517578125,0.17836740612983704,-0.13362284004688263,-0.004428642801940441
1701881432505373000,8.330373046875,0.17225892841815948,-0.13484452664852142,-0.02641914412379265
1701881432514964700,8.33996484375,0.16248537600040436,-0.13240113854408264,-0.04230117425322533
1701881432524557000,8.34955712890625,0.1563768982887268,-0.12629267573356628,-0.05207473039627075
1701881432534150400,8.359150390625,0.15026842057704926,-0.11896250396966934,-0.054518118500709534
1701881432543742700,8.36874267578125,0.13560809195041656,-0.11285403370857239,-0.055739812552928925
1701881432553334500,8.37833447265625,0.11483928561210632,-0.09086353331804276,-0.058183200657367706
1701881432562926800,8.3879267578125,0.09407047927379608,-0.005344913341104984,-0.07528692483901978
1701881432572520200,8.397520263671876,0.08674030750989914,-0.0456608310341835,-0.06551336497068405
1701881432582112500,8.407112548828126,0.07085828483104706,-0.07864658534526825,-0.05085303261876106
1701881432591704300,8.416704345703126,0.05131116881966591,-0.07986827939748764,-0.04107947647571564
1701881432601296600,8.426296630859374,0.0390942245721817,-0.07986827939748764,-0.03008422814309597
1701881432610890000,8.435889892578125,0.030542362481355667,-0.0725381150841713,-0.022754060104489326
1701881432620482300,8.445482421875,0.023212196305394173,-0.06032116711139679,-0.015423892997205257
1701881432630074000,8.45507421875,0.01832541823387146,-0.04810422286391258,-0.008093725889921188
1701881432639666400,8.46466650390625,0.01588202826678753,-0.037108972668647766,-0.001985253533348441
1701881432649259800,8.474259765625,0.01588202826678753,-0.028557108715176582,0.004123218823224306
1701881432658852400,8.483852294921874,0.01954711228609085,-0.020005248486995697,0.010231691412627697
1701881432668444000,8.49344384765625,0.026877280324697495,-0.013896775431931019,0.011453386396169662
1701881432678036200,8.5030361328125,0.03787253051996231,-0.010231691412627697,0.007788302376866341
1701881432687629600,8.512629638671875,0.04153761267662048,-0.011453386396169662,0.0004581354442052543
1701881432697222000,8.522221923828125,0.03542914241552353,-0.012675080448389053,-0.009315420873463154
1701881432706813700,8.531813720703125,0.03176405653357506,-0.012675080448389053,-0.017867282032966614
1701881432716406000,8.541406005859375,0.028098974376916885,-0.013896775431931019,-0.020310672000050545
1701881432725999400,8.550999267578124,0.025655584409832954,-0.012675080448389053,-0.022754060104489326
1701881432735591700,8.560591796875,0.023212196305394173,-0.013896775431931019,-0.025197450071573257
1701881432745183500,8.57018359375,0.02076880633831024,-0.016340164467692375,-0.023975754156708717
1701881432754775800,8.57977587890625,0.01710372418165207,-0.020005248486995697,-0.023975754156708717
1701881432764369200,8.589369140625,0.013438640162348747,-0.02367033064365387,-0.021532366052269936
1701881432773961500,8.59896142578125,0.010995250195264816,-0.02733541466295719,-0.017867282032966614
1701881432783553300,8.60855322265625,0.007330167107284069,-0.031000498682260513,-0.016645587980747223
1701881432793145600,8.6181455078125,0.0036650835536420345,-0.029778804630041122,-0.017867282032966614
1701881432802739000,8.627739013671874,0.0012216945178806782,-0.028557108715176582,-0.019088976085186005
1701881432812331300,8.637331298828125,-0.0012216945178806782,-0.028557108715176582,-0.019088976085186005
1701881432821923000,8.646923095703125,-0.0024433890357613564,-0.02733541466295719,-0.017867282032966614
1701881432831515400,8.656515380859375,-0.0012216945178806782,-0.0261137206107378,-0.017867282032966614
1701881432841108700,8.666108642578125,0.0012216945178806782,-0.0261137206107378,-0.020310672000050545
1701881432850701000,8.675701171875,0.0036650835536420345,-0.02367033064365387,-0.025197450071573257
1701881432860292900,8.68529296875,0.004886778071522713,-0.02367033064365387,-0.03008422814309597
1701881432869885200,8.69488525390625,0.004886778071522713,-0.02367033064365387,-0.03374931216239929
1701881432879478500,8.704478515625,0.006108472589403391,-0.02367033064365387,-0.036192700266838074
1701881432889070800,8.71407080078125,0.007330167107284069,-0.02367033064365387,-0.039857782423496246
1701881432898662700,8.72366259765625,0.006108472589403391,-0.02489202655851841,-0.04107947647571564
1701881432908255000,8.7332548828125,0.004886778071522713,-0.02489202655851841,-0.04230117425322533
1701881432917848300,8.742848388671876,0.0036650835536420345,-0.02244863659143448,-0.04352286830544472
1701881432927440600,8.752440673828126,0,-0.021226942539215088,-0.04107947647571564
1701881432937032400,8.762032470703126,-0.0012216945178806782,-0.02244863659143448,-0.037414394319057465
1701881432946624800,8.771624755859374,-0.0012216945178806782,-0.020005248486995697,-0.036192700266838074
1701881432956218000,8.781218017578125,-0.0036650835536420345,-0.018783552572131157,-0.03374931216239929
1701881432965810400,8.790810546875,-0.0036650835536420345,-0.018783552572131157,-0.03374931216239929
1701881432975402200,8.80040234375,-0.004886778071522713,-0.018783552572131157,-0.0325276181101799
1701881432984994600,8.80999462890625,-0.004886778071522713,-0.017561858519911766,-0.03008422814309597
1701881432994588000,8.819587890625,-0.004886778071522713,-0.018783552572131157,-0.03008422814309597
1701881433004180200,8.82918017578125,-0.0036650835536420345,-0.020005248486995697,-0.0325276181101799
1701881433013772000,8.83877197265625,-0.0012216945178806782,-0.02244863659143448,-0.03497100621461868
1701881433023364400,8.8483642578125,0.0012216945178806782,-0.02367033064365387,-0.036192700266838074
1701881433032957700,8.857957763671875,0.0036650835536420345,-0.0261137206107378,-0.038636088371276855
1701881433042550000,8.867550048828125,0.004886778071522713,-0.031000498682260513,-0.04107947647571564
1701881433052141800,8.877141845703125,0.006108472589403391,-0.03588727489113808,-0.04107947647571564
1701881433061734100,8.886734130859375,0.007330167107284069,-0.03588727489113808,-0.04230117425322533
1701881433071327500,8.896327392578126,0.007330167107284069,-0.037108972668647766,-0.04107947647571564
1701881433080919800,8.905919921875,0.006108472589403391,-0.037108972668647766,-0.038636088371276855
1701881433090511600,8.91551171875,0.007330167107284069,-0.03588727489113808,-0.036192700266838074
1701881433100104000,8.92510400390625,0.008551862090826035,-0.032222192734479904,-0.03374931216239929
1701881433109697300,8.934697265625,0.010995250195264816,-0.033443886786699295,-0.03497100621461868
1701881433119289600,8.94428955078125,0.010995250195264816,-0.032222192734479904,-0.0325276181101799
1701881433128881400,8.95388134765625,0.010995250195264816,-0.028557108715176582,-0.02886253222823143
1701881433138474000,8.963473876953126,0.012216945178806782,-0.02244863659143448,-0.023975754156708717
1701881433148067000,8.973067138671874,0.010995250195264816,-0.018783552572131157,-0.020310672000050545
1701881433157659600,8.98265966796875,0.010995250195264816,-0.017561858519911766,-0.016645587980747223
1701881433167251200,8.992251220703125,0.012216945178806782,-0.018783552572131157,-0.012980503961443901
1701881433176843800,9.00184375,0.013438640162348747,-0.017561858519911766,-0.009315420873463154
1701881433186436900,9.011436767578125,0.014660334214568138,-0.01511846948415041,-0.0068720318377017975
1701881433196029400,9.021029541015626,0.013438640162348747,-0.01511846948415041,-0.005650337319821119
1701881433205621000,9.03062109375,0.010995250195264816,-0.012675080448389053,-0.004428642801940441
1701881433215213600,9.040213623046874,0.008551862090826035,-0.009009997360408306,-0.0032069480512291193
1701881433224806700,9.049806640625,0.0024433890357613564,-0.007788302376866341,-0.004428642801940441
1701881433234399200,9.059399169921875,-0.0036650835536420345,-0.007788302376866341,-0.0032069480512291193
1701881433243990800,9.06899072265625,-0.004886778071522713,-0.0065666078589856625,-0.004428642801940441
1701881433253583400,9.078583251953125,-0.006108472589403391,-0.0065666078589856625,-0.004428642801940441
1701881433263176400,9.088176513671876,-0.006108472589403391,-0.007788302376866341,-0.004428642801940441
1701881433272769000,9.09776904296875,-0.006108472589403391,-0.009009997360408306,-0.0068720318377017975
1701881433282360600,9.107360595703126,-0.006108472589403391,-0.010231691412627697,-0.008093725889921188
1701881433291953200,9.116953125,-0.0036650835536420345,-0.009009997360408306,-0.009315420873463154
1701881433301546200,9.126546142578125,-0.004886778071522713,-0.011453386396169662,-0.012980503961443901
1701881433311138800,9.136138916015625,-0.006108472589403391,-0.010231691412627697,-0.015423892997205257
1701881433320730400,9.14573046875,-0.008551862090826035,-0.007788302376866341,-0.016645587980747223
1701881433330323000,9.155322998046875,-0.012216945178806782,-0.005344913341104984,-0.015423892997205257
1701881433339916000,9.164916015625,-0.01588202826678753,-0.0004581354442052543,-0.012980503961443901
1701881433349508600,9.174508544921874,-0.01832541823387146,0.0007635590736754239,-0.010537114925682545
1701881433359100200,9.18410009765625,-0.01832541823387146,0.0007635590736754239,-0.010537114925682545
1701881433368692700,9.193692626953125,-0.01710372418165207,-0.0029015245381742716,-0.01175880990922451
1701881433378285800,9.203285888671875,-0.01710372418165207,-0.0065666078589856625,-0.014202198944985867
1701881433387878400,9.21287841796875,-0.013438640162348747,-0.005344913341104984,-0.010537114925682545
1701881433397470000,9.222469970703125,0.0024433890357613564,-0.0004581354442052543,-0.001985253533348441
1701881433407062500,9.2320625,0.0024433890357613564,0.001985253533348441,-0.0007635590736754239
1701881433416655600,9.241655517578126,-0.0024433890357613564,-0.0016798300202935934,-0.004428642801940441
1701881433426248200,9.251248291015624,-0.010995250195264816,-0.009009997360408306,-0.0068720318377017975
1701881433435839700,9.26083984375,-0.014660334214568138,-0.01511846948415041,-0.01175880990922451
1701881433445432300,9.270432373046875,-0.013438640162348747,-0.020005248486995697,-0.020310672000050545
1701881433455025400,9.280025390625,-0.01588202826678753,-0.02489202655851841,-0.02886253222823143
1701881433464617700,9.28961767578125,-0.01832541823387146,-0.029778804630041122,-0.03497100621461868
1701881433474209500,9.29920947265625,-0.024433890357613564,-0.03955236077308655,-0.038636088371276855
1701881433483802000,9.308802001953126,-0.025655584409832954,-0.04688252881169319,-0.039857782423496246
1701881433493395200,9.318395263671874,-0.01954711228609085,-0.052990999072790146,-0.04474456235766411
1701881433502987500,9.327987548828125,-0.01588202826678753,-0.05665608495473862,-0.05207473039627075
1701881433512579300,9.337579345703125,-0.013438640162348747,-0.06032116711139679,-0.0594048947095871
1701881433522172000,9.347171875,-0.010995250195264816,-0.06276455521583557,-0.06551336497068405
1701881433531765000,9.356764892578125,-0.010995250195264816,-0.06520794332027435,-0.07040014863014221
1701881433541357600,9.366357666015626,-0.012216945178806782,-0.06276455521583557,-0.072843536734581
1701881433550949000,9.37594921875,-0.012216945178806782,-0.06032116711139679,-0.072843536734581
1701881433560541700,9.385541748046874,-0.01588202826678753,-0.05787777900695801,-0.06795676052570343
1701881433570134800,9.395134765625,-0.006108472589403391,-0.050547610968351364,-0.06306997686624527
1701881433579727400,9.404727294921875,0.006108472589403391,-0.03833066672086716,-0.056961506605148315
1701881433589319000,9.41431884765625,-0.0036650835536420345,-0.03833066672086716,-0.0459662564098835
1701881433598911500,9.423911376953125,-0.0036650835536420345,-0.03588727489113808,-0.0325276181101799
1701881433608504600,9.433504638671875,-0.014660334214568138,-0.04321744292974472,-0.02764083817601204
1701881433618097200,9.44309716796875,-0.014660334214568138,-0.04443913698196411,-0.02886253222823143
1701881433627688700,9.452688720703126,-0.007330167107284069,-0.04199574887752533,-0.03130592033267021
1701881433637281300,9.46228125,-0.0012216945178806782,-0.037108972668647766,-0.038636088371276855
1701881433646874400,9.471874267578125,0.006108472589403391,-0.031000498682260513,-0.04718795046210289
1701881433656467000,9.481467041015625,0.010995250195264816,-0.028557108715176582,-0.055739812552928925
1701881433666058500,9.49105859375,0.01710372418165207,-0.02367033064365387,-0.06306997686624527
1701881433675651000,9.500651123046875,0.02076880633831024,-0.021226942539215088,-0.06917845457792282
1701881433685244200,9.510244140625,0.025655584409832954,-0.020005248486995697,-0.07406523078680038
1701881433694836700,9.519836669921874,0.03176405653357506,-0.020005248486995697,-0.07528692483901978
1701881433704428300,9.52942822265625,0.03420744836330414,-0.021226942539215088,-0.07406523078680038
1701881433714020900,9.539020751953124,0.03542914241552353,-0.02367033064365387,-0.06795676052570343
1701881433723614000,9.548614013671875,0.03787253051996231,-0.02244863659143448,-0.058183200657367706
1701881433733206500,9.55820654296875,0.04031591862440109,-0.020005248486995697,-0.04474456235766411
1701881433742798000,9.567798095703125,0.042759306728839874,-0.016340164467692375,-0.03008422814309597
1701881433752390700,9.577390625,0.04031591862440109,-0.017561858519911766,-0.016645587980747223
1701881433761983700,9.586983642578126,0.04153761267662048,-0.018783552572131157,-0.005650337319821119
1701881433771576300,9.596576416015624,0.046424392610788345,-0.016340164467692375,0.004123218823224306
1701881433781167900,9.60616796875,0.046424392610788345,-0.010231691412627697,0.01511846948415041
1701881433790760400,9.615760498046875,0.03176405653357506,-0.0065666078589856625,0.02733541466295719
1701881433800353500,9.625353515625,0.02076880633831024,-0.0029015245381742716,0.03833066672086716
1701881433809946000,9.634946044921875,0.013438640162348747,0.001985253533348441,0.04810422286391258
1701881433819537700,9.64453759765625,0.006108472589403391,0.009315420873463154,0.05421269312500954
1701881433829130200,9.654130126953126,-0.0024433890357613564,0.016645587980747223,0.05543438717722893
1701881433838723600,9.6637236328125,-0.008551862090826035,0.022754060104489326,0.05421269312500954
1701881433848316000,9.67331591796875,-0.012216945178806782,0.02764083817601204,0.05543438717722893
1701881433857907500,9.682907470703125,-0.014660334214568138,0.03008422814309597,0.05665608495473862
1701881433867500000,9.6925,-0.014660334214568138,0.03130592033267021,0.05421269312500954
1701881433877093400,9.70209326171875,-0.01588202826678753,0.0325276181101799,0.04932591691613197
1701881433886685700,9.711685791015626,-0.014660334214568138,0.0325276181101799,0.04199574887752533
1701881433896277200,9.72127734375,-0.01588202826678753,0.03008422814309597,0.031000498682260513
1701881433905869800,9.730869873046874,-0.01710372418165207,0.0325276181101799,0.020005248486995697
1701881433915463200,9.740463134765625,-0.01710372418165207,0.02764083817601204,0.0065666078589856625
1701881433925055500,9.750055419921875,-0.01710372418165207,0.022754060104489326,-0.005650337319821119
1701881433934647000,9.75964697265625,-0.01710372418165207,0.017867282032966614,-0.015423892997205257
1701881433944239600,9.769239501953125,-0.01710372418165207,0.012980503961443901,-0.023975754156708717
1701881433953833000,9.7788330078125,-0.014660334214568138,0.010537114925682545,-0.02886253222823143
1701881433963425300,9.78842529296875,-0.014660334214568138,0.005650337319821119,-0.03374931216239929
1701881433973016800,9.798016845703126,-0.01588202826678753,0.001985253533348441,-0.03497100621461868
1701881433982609400,9.807609375,-0.01710372418165207,-0.0029015245381742716,-0.03497100621461868
1701881433992202800,9.81720263671875,-0.01832541823387146,-0.005344913341104984,-0.03497100621461868
1701881434001795000,9.826795166015625,-0.01832541823387146,-0.009009997360408306,-0.0325276181101799
1701881434011386600,9.83638671875,-0.01832541823387146,-0.01511846948415041,-0.03008422814309597
1701881434020979200,9.845979248046875,-0.01588202826678753,-0.016340164467692375,-0.02641914412379265
1701881434030572500,9.855572509765626,-0.010995250195264816,-0.01511846948415041,-0.020310672000050545
1701881434040164900,9.865164794921874,-0.006108472589403391,-0.013896775431931019,-0.012980503961443901
1701881434049756400,9.87475634765625,-0.0012216945178806782,-0.011453386396169662,-0.005650337319821119
1701881434059350300,9.884350341796875,0.0036650835536420345,-0.009009997360408306,0.0029015245381742716
1701881434068942300,9.8939423828125,0.006108472589403391,-0.007788302376866341,0.011453386396169662
1701881434078534700,9.90353466796875,0.004886778071522713,-0.004123218823224306,0.020005248486995697
1701881434088126500,9.91312646484375,0.0024433890357613564,0.0007635590736754239,0.02733541466295719
1701881434097719000,9.922718994140626,-0.0012216945178806782,0.0068720318377017975,0.033443886786699295
1701881434107312000,9.93231201171875,-0.0024433890357613564,0.009315420873463154,0.03588727489113808
1701881434116904400,9.941904541015624,-0.0024433890357613564,0.010537114925682545,0.037108972668647766
1701881434126496300,9.951496337890624,-0.0036650835536420345,0.012980503961443901,0.03833066672086716
1701881434136088800,9.9610888671875,-0.004886778071522713,0.015423892997205257,0.037108972668647766
1701881434145682000,9.970681884765625,-0.004886778071522713,0.021532366052269936,0.037108972668647766
1701881434155274500,9.9802744140625,-0.004886778071522713,0.023975754156708717,0.03588727489113808
1701881434164866000,9.989865966796875,-0.0036650835536420345,0.02641914412379265,0.033443886786699295
1701881434174458600,9.999458740234376,-0.0024433890357613564,0.02764083817601204,0.029778804630041122
1701881434184051700,10.0090517578125,-0.0024433890357613564,0.023975754156708717,0.02244863659143448
1701881434193644300,10.018644287109375,-0.0024433890357613564,0.019088976085186005,0.011453386396169662
1701881434203235800,10.02823583984375,-0.0036650835536420345,0.015423892997205257,0.0004581354442052543
1701881434212828400,10.037828369140625,-0.007330167107284069,0.01175880990922451,-0.0068720318377017975
1701881434222421500,10.04742138671875,-0.010995250195264816,0.008093725889921188,-0.012980503961443901
1701881434232014000,10.05701416015625,-0.013438640162348747,0.008093725889921188,-0.017867282032966614
1701881434241605600,10.066605712890626,-0.014660334214568138,0.004428642801940441,-0.022754060104489326
1701881434251198200,10.0761982421875,-0.014660334214568138,-0.0004581354442052543,-0.02641914412379265
1701881434260791300,10.085791259765625,-0.013438640162348747,-0.004123218823224306,-0.02764083817601204
1701881434270383900,10.0953837890625,-0.010995250195264816,-0.010231691412627697,-0.023975754156708717
1701881434279975400,10.104975341796875,-0.006108472589403391,-0.016340164467692375,-0.022754060104489326
1701881434289568000,10.114568115234375,-0.0012216945178806782,-0.021226942539215088,-0.021532366052269936
1701881434299161000,10.1241611328125,0.0024433890357613564,-0.0261137206107378,-0.020310672000050545
1701881434308753700,10.133753662109376,0.006108472589403391,-0.031000498682260513,-0.019088976085186005
1701881434318345200,10.14334521484375,0.009773556143045425,-0.033443886786699295,-0.020310672000050545
1701881434327937800,10.152937744140624,0.012216945178806782,-0.03588727489113808,-0.020310672000050545
1701881434337531000,10.16253076171875,0.012216945178806782,-0.029778804630041122,-0.020310672000050545
1701881434347123500,10.17212353515625,0.006108472589403391,-0.020005248486995697,-0.016645587980747223
1701881434356715000,10.181715087890625,-0.008551862090826035,-0.0065666078589856625,-0.009315420873463154
1701881434366307600,10.1913076171875,-0.030542362481355667,0.008093725889921188,-0.001985253533348441
1701881434375900700,10.200900634765626,-0.05741964280605316,0.016645587980747223,0.0016798300202935934
1701881434385493200,10.2104931640625,-0.0794101431965828,0.022754060104489326,-0.001985253533348441
1701881434395084800,10.220084716796874,-0.09407047927379608,0.02764083817601204,-0.010537114925682545
1701881434404677400,10.229677490234375,-0.1050657257437706,0.02886253222823143,-0.021532366052269936
1701881434414270500,10.2392705078125,-0.10873081535100937,0.03008422814309597,-0.02886253222823143
1701881434423863000,10.248863037109375,-0.10628741979598999,0.02764083817601204,-0.03374931216239929
1701881434433454600,10.25845458984375,-0.09773556143045425,0.020310672000050545,-0.03497100621461868
1701881434443047200,10.268047119140626,-0.08796200156211853,0.010537114925682545,-0.03008422814309597
1701881434452640300,10.27764013671875,-0.0781884491443634,0.0007635590736754239,-0.023975754156708717
1701881434462232800,10.28723291015625,-0.06963659077882767,-0.004123218823224306,-0.021532366052269936
1701881434471824400,10.296824462890624,-0.062306419014930725,-0.0065666078589856625,-0.021532366052269936
1701881434481417000,10.3064169921875,-0.05741964280605316,-0.005344913341104984,-0.021532366052269936
1701881434491010000,10.316010009765625,-0.0525328628718853,0.0007635590736754239,-0.021532366052269936
1701881434500602600,10.3256025390625,-0.04886778071522713,0.004428642801940441,-0.019088976085186005
1701881434510194200,10.335194091796875,-0.046424392610788345,0.0068720318377017975,-0.020310672000050545
1701881434519786800,10.344786865234376,-0.045202698558568954,0.008093725889921188,-0.022754060104489326
1701881434529379800,10.3543798828125,-0.042759306728839874,0.008093725889921188,-0.02764083817601204
1701881434538972400,10.363972412109375,-0.04153761267662048,0.0068720318377017975,-0.03374931216239929
1701881434548564000,10.37356396484375,-0.03542914241552353,-0.0004581354442052543,-0.04230117425322533
1701881434558156500,10.383156494140625,-0.028098974376916885,-0.005344913341104984,-0.05207473039627075
1701881434567749600,10.39274951171875,-0.01832541823387146,-0.0029015245381742716,-0.06184828653931618
1701881434577342200,10.40234228515625,-0.009773556143045425,-0.0016798300202935934,-0.07528692483901978
1701881434586933800,10.411933837890626,-0.009773556143045425,0.004428642801940441,-0.09605573117733002
1701881434596526300,10.4215263671875,-0.013438640162348747,0.010537114925682545,-0.11560284346342087
1701881434606119400,10.431119384765625,-0.023212196305394173,0.014202198944985867,-0.13392825424671173
1701881434615712000,10.4407119140625,-0.0390942245721817,0.016645587980747223,-0.14003673195838928
1701881434625303600,10.450303466796875,-0.05864133685827255,0.017867282032966614,-0.13392825424671173
1701881434634896100,10.459896240234375,-0.07574506103992462,0.020310672000050545,-0.11926792562007904
1701881434644489200,10.4694892578125,-0.09040539711713791,0.02641914412379265,-0.10216420143842697
1701881434654081800,10.479081787109376,-0.1050657257437706,0.03497100621461868,-0.08017370104789734
1701881434663673300,10.48867333984375,-0.11239589750766754,0.04474456235766411,-0.055739812552928925
1701881434673266000,10.498265869140624,-0.11483928561210632,0.04963133856654167,-0.037414394319057465
1701881434682859300,10.507859375,-0.11483928561210632,0.0459662564098835,-0.02886253222823143
1701881434692451600,10.51745166015625,-0.10873081535100937,0.04352286830544472,-0.02764083817601204
1701881434702043100,10.527043212890625,-0.10262233763933182,0.036192700266838074,-0.0325276181101799
1701881434711635700,10.5366357421875,-0.08918370306491852,0.02886253222823143,-0.04474456235766411
1701881434721229000,10.54622900390625,-0.07574506103992462,0.017867282032966614,-0.06306997686624527
1701881434730821400,10.5558212890625,-0.06841489672660828,0.01175880990922451,-0.09116895496845245
1701881434740413000,10.565412841796874,-0.06719319522380829,0.005650337319821119,-0.12171131372451782
1701881434750005500,10.575005615234375,-0.06841489672660828,-0.0029015245381742716,-0.14858859777450562
1701881434759598800,10.584598876953125,-0.07085828483104706,-0.020005248486995697,-0.1656923145055771
1701881434769191200,10.594191162109375,-0.07207997888326645,-0.03588727489113808,-0.17302247881889343
1701881434778782700,10.60378271484375,-0.07330167293548584,-0.04810422286391258,-0.1754658818244934
1701881434788375300,10.613375244140625,-0.07085828483104706,-0.05787777900695801,-0.16935740411281586
1701881434797968600,10.62296875,-0.06719319522380829,-0.06642963737249374,-0.1510319858789444
1701881434807561000,10.63256103515625,-0.06841489672660828,-0.07009471952915192,-0.12171131372451782
1701881434817152500,10.642152587890624,-0.07207997888326645,-0.06765133142471313,-0.08261708915233612
1701881434826745000,10.6517451171875,-0.07085828483104706,-0.05665608495473862,-0.04107947647571564
1701881434836338400,10.66133837890625,-0.0659715011715889,-0.04810422286391258,-0.008093725889921188
1701881434845930800,10.6709306640625,-0.05375456064939499,-0.04688252881169319,0.009009997360408306
1701881434855522300,10.680522216796875,-0.03787253051996231,-0.04688252881169319,0.012675080448389053
1701881434865115000,10.690114990234376,-0.02076880633831024,-0.0456608310341835,0.011453386396169662
1701881434874708200,10.699708251953124,-0.006108472589403391,-0.04321744292974472,0.007788302376866341
1701881434884300500,10.709300537109375,0.006108472589403391,-0.032222192734479904,0.005344913341104984
1701881434893892000,10.71889208984375,0.014660334214568138,-0.01511846948415041,0.005344913341104984
1701881434903484700,10.728484619140625,0.01954711228609085,0.0032069480512291193,0.004123218823224306
1701881434913078000,10.738078125,0.023212196305394173,0.020310672000050545,0.0004581354442052543
1701881434922670300,10.74767041015625,0.026877280324697495,0.03130592033267021,-0.005650337319821119
1701881434932262100,10.75726220703125,0.030542362481355667,0.0325276181101799,-0.012980503961443901
1701881434941854500,10.7668544921875,0.03420744836330414,0.02886253222823143,-0.020310672000050545
1701881434951447800,10.77644775390625,0.042759306728839874,0.022754060104489326,-0.02764083817601204
1701881434961040100,10.7860400390625,0.047646086663007736,0.01175880990922451,-0.039857782423496246
1701881434970632000,10.7956318359375,0.05131116881966591,-0.004123218823224306,-0.058183200657367706
1701881434980224300,10.805224365234375,0.05008947476744652,-0.021226942539215088,-0.07773031294345856
1701881434989817600,10.814817626953126,0.05008947476744652,-0.033443886786699295,-0.0984991192817688
1701881434999410000,10.824409912109376,0.061084724962711334,0.036192700266838074,-0.14248012006282806
1701881435009001700,10.834001708984376,0.0659715011715889,0.02886253222823143,-0.18768282234668732
1701881435018594000,10.843593994140624,0.0916270911693573,0.08017370104789734,-0.2793098986148834
1701881435028187400,10.8531875,0.14782503247261047,-0.04810422286391258,-0.37948885560035706
1701881435037779700,10.86277978515625,0.20646637678146362,-0.13973131775856018,-0.39414918422698975
1701881435047371500,10.87237158203125,0.22845686972141266,-0.18004722893238068,-0.3220692276954651
1701881435056963800,10.8819638671875,0.18569757044315338,-0.2289150059223175,-0.23532891273498535
1701881435066557200,10.89155712890625,0.15393351018428802,-0.23868857324123383,-0.1779092699289322
1701881435076149500,10.9011494140625,0.14904673397541046,-0.19959434866905212,-0.1253764033317566
1701881435085741300,10.9107412109375,0.13805148005485535,-0.1629435122013092,-0.08139539510011673
1701881435095334000,10.920333984375,0.11483928561210632,-0.164165198802948,-0.06917845457792282
1701881435104927000,10.929927001953125,0.10140064358711243,-0.20081603527069092,-0.09972081333398819
1701881435114519300,10.939519287109375,0.10384403169155121,-0.2276933193206787,-0.14248012006282806
1701881435124111000,10.949111083984375,0.11117420345544815,-0.22280654311180115,-0.16935740411281586
1701881435133703700,10.95870361328125,0.10750912129878998,-0.18004722893238068,-0.1779092699289322
1701881435143296800,10.968296875,0.09040539711713791,-0.1372879147529602,-0.17180079221725464
1701881435152889000,10.97788916015625,0.08674030750989914,-0.10185877978801727,-0.15958385169506073
1701881435162481000,10.98748095703125,0.0794101431965828,-0.06520794332027435,-0.1363716572523117
1701881435172073500,10.997073486328125,0.06841489672660828,-0.04443913698196411,-0.09972081333398819
1701881435181666600,11.00666650390625,0.06352811306715012,-0.028557108715176582,-0.05207473039627075
1701881435191259000,11.0162587890625,0.07330167293548584,0.0032069480512291193,-0.010537114925682545
1701881435200850700,11.0258505859375,0.0781884491443634,-0.020005248486995697,-0.004428642801940441
1701881435210443300,11.035443359375,0.09895725548267365,-0.10674555599689484,-0.04840964451432228
1701881435220036400,11.045036376953124,0.12583453953266144,-0.15439164638519287,-0.09483403712511063
1701881435229628700,11.054628662109375,0.13927318155765533,-0.19226416945457458,-0.1241547018289566
1701881435239220500,11.064220458984375,0.1588202863931656,-0.20570281147956848,-0.14736689627170563
1701881435248813000,11.07381298828125,0.18081079423427582,-0.1629435122013092,-0.1498102843761444
1701881435258406100,11.08340625,0.18691925704479218,-0.14217470586299896,-0.14614520967006683
1701881435267998500,11.09299853515625,0.1954711228609085,-0.12629267573356628,-0.14492350816726685
1701881435277590300,11.10259033203125,0.19058434665203094,-0.0859767496585846,-0.12659808993339539
1701881435287182800,11.112182861328124,0.16859383881092072,-0.0847550556063652,-0.10827267915010452
1701881435296776000,11.12177587890625,0.13927318155765533,-0.07986827939748764,-0.12048961967229843
1701881435306368500,11.131368408203125,0.11972606182098389,-0.037108972668647766,-0.14003673195838928
1701881435315960000,11.1409599609375,0.09407047927379608,0.039857782423496246,-0.14370182156562805
1701881435325552600,11.150552734375,0.06841489672660828,0.06673506647348404,-0.14370182156562805
1701881435335145700,11.160145751953126,0.04031591862440109,0.06062658876180649,-0.14125843346118927
1701881435344738300,11.16973828125,0.007330167107284069,0.054518118500709534,-0.13514995574951172
1701881435354329900,11.179329833984376,-0.010995250195264816,0.03497100621461868,-0.14858859777450562
1701881435363922400,11.18892236328125,-0.026877280324697495,0.0007635590736754239,-0.18646112084388733
1701881435373515500,11.198515625,-0.03420744836330414,-0.037108972668647766,-0.22311195731163025
1701881435383108000,11.208108154296875,-0.03298575058579445,-0.08231166750192642,-0.252432644367218
1701881435392699600,11.21769970703125,-0.03665083646774292,-0.11651911586523056,-0.2683146595954895
1701881435402292200,11.227292236328125,-0.04031591862440109,-0.16050012409687042,-0.27808821201324463
1701881435411885300,11.23688525390625,-0.05375456064939499,-0.19348587095737457,-0.2817533016204834
1701881435421478000,11.246477783203124,-0.07696675509214401,-0.18737739324569702,-0.2695363461971283
1701881435431069400,11.2560693359375,-0.11361759155988693,-0.14706148207187653,-0.24632415175437927
1701881435440662000,11.265662109375,-0.15026842057704926,-0.07864658534526825,-0.23166382312774658
1701881435450255000,11.275255126953125,-0.1710372269153595,-0.01511846948415041,-0.2304421216249466
1701881435459847700,11.28484765625,-0.16126367449760437,-0.004123218823224306,-0.2279987335205078
1701881435469439200,11.294439208984375,-0.14904673397541046,-0.005344913341104984,-0.2145601063966751
1701881435479031800,11.30403173828125,-0.1429382562637329,0.02764083817601204,-0.18279604613780975
1701881435488625000,11.313625,-0.13438639044761658,0.06917845457792282,-0.14736689627170563
1701881435498217500,11.323217529296874,-0.12461283802986145,0.09361234307289124,-0.12048961967229843
1701881435507809000,11.33280908203125,-0.12094775587320328,0.12904147803783417,-0.1119377613067627
1701881435517401600,11.342401611328125,-0.11606097966432571,0.15347537398338318,-0.1119377613067627
1701881435526994700,11.35199462890625,-0.10628741979598999,0.15958385169506073,-0.0984991192817688
1701881435536587300,11.361587158203125,-0.10995250940322876,0.1766875684261322,-0.07773031294345856
1701881435546178800,11.3711787109375,-0.12461283802986145,0.20234315097332,-0.04107947647571564
1701881435555771400,11.380771484375,-0.1453816443681717,0.19623468816280365,-0.0068720318377017975
1701881435565364500,11.390364501953124,-0.1563768982887268,0.15958385169506073,0.005344913341104984
1701881435574957000,11.39995703125,-0.15393351018428802,0.0984991192817688,0.016340164467692375
1701881435584548600,11.409548583984375,-0.16248537600040436,0.05329642444849014,0.028557108715176582
1701881435594141200,11.41914111328125,-0.17714570462703705,0.04230117425322533,0.04077405482530594
1701881435603734300,11.428734375,-0.1954711228609085,0.05085303261876106,0.05787777900695801
1701881435613326800,11.438326904296876,-0.21501824259757996,0.056961506605148315,0.07986827939748764
1701881435622918400,11.44791845703125,-0.23212195932865143,0.06551336497068405,0.11407572776079178
1701881435632511000,11.457510986328124,-0.24433889985084534,0.06306997686624527,0.1495048701763153
1701881435642104000,11.46710400390625,-0.25533416867256165,0.0459662564098835,0.18371231853961945
1701881435651696600,11.476696533203125,-0.28343313932418823,0.02886253222823143,0.22158484160900116
1701881435661288200,11.4862880859375,-0.33474430441856384,0.001985253533348441,0.2582356929779053
1701881435670880800,11.495880859375,-0.3836120665073395,-0.033443886786699295,0.293664813041687
1701881435680474000,11.50547412109375,-0.41048935055732727,-0.0725381150841713,0.319320410490036
1701881435690066400,11.51506640625,-0.448361873626709,-0.11651911586523056,0.32787227630615234
1701881435699658000,11.524657958984376,-0.5057815313339233,-0.16050012409687042,0.3352024257183075
1701881435709250600,11.53425048828125,-0.5522059202194214,-0.15561333298683167,0.35108447074890137
1701881435718844000,11.543843994140625,-0.569309651851654,-0.18615570664405823,0.3828485310077667
1701881435728436200,11.553436279296875,-0.5729747414588928,-0.20570281147956848,0.4158342778682709
1701881435738027800,11.56302783203125,-0.5717530250549316,-0.24601873755455017,0.4634803533554077
1701881435747620400,11.572620361328125,-0.5644228458404541,-0.19226416945457458,0.48424917459487915
1701881435757213700,11.582213623046876,-0.517998456954956,-0.02367033064365387,0.44393324851989746
1701881435766806000,11.591805908203124,-0.42637139558792114,-0.10552386194467545,0.44759833812713623
1701881435776397600,11.6013974609375,-0.32374903559684753,-0.12751436233520508,0.4903576374053955
1701881435785990100,11.610990234375,-0.24556060135364532,-0.03588727489113808,0.5111264586448669
1701881435795583500,11.62058349609375,-0.18691925704479218,0.08261708915233612,0.527161180973053
1701881435805175800,11.63017578125,-0.08674030750989914,0.2438807636499405,0.5430431962013245
1701881435814767600,11.639767578125,0.09529217332601547,0.4540122151374817,0.5442649126052856
1701881435824360000,11.64935986328125,0.33352261781692505,0.5517477989196777,0.5711421966552734
1701881435833953300,11.658953369140624,0.5289937257766724,0.6348230242729187,0.6212316751480103
1701881435843545600,11.668545654296874,0.6316160559654236,0.755770742893219,0.6639909744262695
1701881435853137400,11.678137451171875,0.6340594291687012,0.7814263701438904,0.7482879161834717
1701881435862729700,11.687729736328125,0.5265503525733948,0.8095253109931946,0.9009997248649597
1701881435872323000,11.697322998046875,0.39827242493629456,0.8400676846504211,1.0928057432174683
1701881435881915400,11.706915283203125,0.3151971995830536,0.8339592218399048,1.1771026849746704
1701881435891507200,11.716507080078125,0.22723518311977386,0.6910209655761719,1.206423282623291
1701881435901099500,11.726099609375,0.03420744836330414,0.6348230242729187,1.3017154932022095
1701881435910692900,11.73569287109375,-0.0916270911693573,0.7863131165504456,1.4849697351455688
1701881435920285200,11.74528515625,-0.18081079423427582,0.9109259843826294,1.6083608865737915
1701881435929877000,11.754876953125,-0.32130566239356995,0.7594358325004578,1.6963227987289429
1701881435939469300,11.76446923828125,-0.5033381581306458,0.775317907333374,1.7928366661071777
1701881435949062700,11.774062744140625,-0.629172682762146,0.7117897868156433,1.7830631732940674
1701881435958655000,11.783655029296876,-0.7195780873298645,1.1955808401107788,2.0005247592926025
1701881435968246800,11.793246826171876,-0.29687178134918213,1.9530314207077026,2.473320484161377
