time,seconds_elapsed,z,y,x
1697301566636552000,0.173552001953125,-2.996392011642456,-1.2894949913024902,-0.055945999920368195
1697301566655390000,0.192389892578125,-3.592607021331787,-1.051867961883545,0.16202600300312042
1697301566674228000,0.21122802734375,0.4568600058555603,0.047426000237464905,0.06032399833202362
1697301566693066200,0.230066162109375,2.516547918319702,0.011303000152111053,2.1846210956573486
1697301566711904300,0.248904296875,1.2610900402069092,0.38148099184036255,1.160019040107727
1697301566730742500,0.267742431640625,-0.9392859935760498,0.4977790117263794,-0.3516550064086914
1697301566749580500,0.28658056640625,-1.9008599519729614,0.4602380096912384,-1.7596280574798584
1697301566768418800,0.305418701171875,-0.9801099896430969,0.39584600925445557,-1.9438120126724243
1697301566787256800,0.3242568359375,2.005094051361084,0.3709540069103241,-0.6951239705085754
1697301566806094800,0.3430947265625,1.2260910272598267,0.7778120040893555,1.2890019416809082
1697301566824933400,0.361933349609375,2.032900094985962,0.4930959939956665,-1.565058946609497
1697301566843771100,0.380771240234375,4.18825101852417,-0.21713000535964966,-2.6160058975219727
1697301566862609400,0.399609375,2.9333600997924805,0.1346520036458969,-0.00036100001307204366
1697301566881447400,0.418447509765625,-1.549834966659546,1.0238419771194458,-0.871317982673645
1697301566900285400,0.437285400390625,-3.5248119831085205,1.3444819450378418,-1.0595450401306152
1697301566919123700,0.456123779296875,-2.0473079681396484,1.8335100412368774,-0.3256010115146637
1697301566937961700,0.474961669921875,1.1400389671325684,1.2365729808807373,-2.0299160480499268
1697301566956800000,0.493800048828125,1.8042939901351929,0.7716249823570251,-3.218061923980713
1697301566975638000,0.512637939453125,-0.776889979839325,0.861627995967865,-3.0140950679779053
1697301566994476000,0.53147607421875,-1.7099740505218506,1.516185998916626,-4.452514171600342
1697301567013314300,0.550314208984375,-2.2547519207000732,0.9758700132369995,-3.1268279552459717
1697301567032152300,0.56915234375,-0.10789299756288528,0.6177200078964233,-1.5915110111236572
1697301567050990300,0.587990234375,0.9710729718208313,0.8560640215873718,-2.690824031829834
1697301567069828600,0.60682861328125,3.9721739292144775,0.567825973033905,-2.945373058319092
1697301567088666600,0.62566650390625,5.653148174285889,0.9950209856033325,-4.269810199737549
1697301567107505000,0.6445048828125,-3.714833974838257,-2.442823886871338,-2.94986891746521
1697301567126342700,0.6633427734375,-5.512828826904297,-2.4848060607910156,1.447572946548462
1697301567145181200,0.68218115234375,-1.1597490310668945,-2.2609610557556152,5.745676040649414
1697301567164019000,0.70101904296875,4.929444789886475,0.21753700077533722,-4.105480194091797
1697301567182857200,0.719857177734375,1.6973929405212402,-3.3185620307922363,4.0201520919799805
1697301567201695500,0.738695556640625,6.776980876922607,2.3097379207611084,-5.290740013122559
1697301567220533500,0.757533447265625,4.915682792663574,-3.831104040145874,1.7904859781265259
1697301567239371500,0.77637158203125,-1.1125600337982178,-6.235991954803467,5.019534111022949
1697301567258209800,0.795209716796875,-8.638127326965332,-3.7517969608306885,11.79247760772705
1697301567277047600,0.814047607421875,-14.711377143859863,0.06518000364303589,15.60541820526123
1697301567295886000,0.832885986328125,-9.22504711151123,3.751775026321411,22.07780647277832
1697301567314724000,0.85172412109375,-11.219005584716797,4.649290084838867,22.258792877197266
1697301567333562000,0.87056201171875,5.187530040740967,-3.980578899383545,11.485684394836426
1697301567352400100,0.889400146484375,7.73779821395874,-0.31784799695014954,-2.281121015548706
1697301567371238400,0.90823828125,1.626904010772705,0.3262389898300171,-3.602152109146118
1697301567390076400,0.927076416015625,-1.047531008720398,2.190135955810547,1.070309042930603
1697301567408914700,0.945914794921875,-9.393163681030273,1.9523099660873413,5.869832992553711
1697301567427752700,0.964752685546875,-5.140981197357178,3.3011369705200195,8.245506286621094
1697301567446590700,0.9835908203125,-10.293546676635742,3.9177908897399902,21.576297760009766
1697301567465429000,1.002428955078125,7.426062107086182,-1.1084729433059692,6.059788227081299
1697301567484267000,1.02126708984375,3.8165760040283203,-1.8846420049667358,2.668107032775879
1697301567503105000,1.04010498046875,8.952528953552246,1.6062849760055542,0.1624860018491745
1697301567521943000,1.058943115234375,5.9754228591918945,0.8982080221176147,-7.333609104156494
1697301567540781000,1.077781005859375,1.1431180238723755,2.25547194480896,-8.428106307983398
1697301567559619300,1.096619384765625,-1.409237027168274,1.6851210594177246,-7.1556878089904785
1697301567578457300,1.115457275390625,-1.8870489597320557,1.1029900312423706,-4.580078125
1697301567597295600,1.134295654296875,-2.504020929336548,0.7217069864273071,0.5280129909515381
1697301567616133600,1.153133544921875,-4.117981910705566,1.5705339908599854,0.28776198625564575
1697301567634971600,1.1719716796875,-3.795375108718872,2.0986149311065674,0.9400050044059753
1697301567653809700,1.1908095703125,-0.7441689968109131,3.020872116088867,2.487600088119507
1697301567672648000,1.20964794921875,-0.3070800006389618,4.535635948181152,-0.18434099853038788
1697301567691486000,1.22848583984375,-1.4477330446243286,4.106616020202637,-5.9856181144714355
1697301567710324200,1.24732421875,1.399412989616394,1.4997769594192505,-5.922553062438965
1697301567729162200,1.266162353515625,3.3827619552612305,-1.5959190130233765,-2.075835943222046
1697301567748000300,1.285000244140625,5.836916923522949,-4.163801193237305,9.222405433654785
1697301567766838500,1.303838623046875,-3.9042880535125732,-5.8596577644348145,14.868797302246094
1697301567785676500,1.322676513671875,-12.849145889282227,-2.1434550285339355,7.164233207702637
1697301567804514600,1.3415146484375,-17.05402374267578,-1.122897982597351,-3.9382710456848145
1697301567823352600,1.3603525390625,-4.858658790588379,-1.221990942955017,2.872437000274658
1697301567842190800,1.37919091796875,1.4361740350723267,0.4916670024394989,1.6855089664459229
1697301567861028900,1.39802880859375,-0.6587259769439697,3.551553964614868,0.17036400735378265
1697301567879867100,1.4168671875,4.697652816772461,-0.3960070013999939,-0.2782500088214874
1697301567898705200,1.435705078125,12.390811920166016,1.4826500415802002,-3.6319730281829834
1697301567917543400,1.45454345703125,9.17715072631836,4.17678689956665,-2.200993061065674
1697301567936381200,1.473381103515625,0.3985550105571747,5.9887261390686035,0.3484089970588684
1697301567955219500,1.492219482421875,0.19178499281406403,4.331324100494385,-0.8752099871635437
1697301567974057500,1.511057373046875,-2.8741559982299805,-1.404682993888855,4.128006935119629
1697301567992895700,1.529895751953125,-8.047460556030273,-5.434308052062988,4.469028949737549
1697301568011733800,1.548733642578125,-10.601909637451172,-4.298707008361816,1.7277270555496216
1697301568030572000,1.567572021484375,-3.5998740196228027,-0.8980929851531982,5.431157112121582
1697301568049410000,1.58641015625,0.43612900376319885,0.13360700011253357,9.105293273925781
1697301568068248000,1.605248046875,-0.13264800608158112,1.4675450325012207,7.292063236236572
1697301568087086300,1.62408642578125,-1.99521803855896,1.2254149913787842,6.28340482711792
1697301568105924600,1.642924560546875,1.727342963218689,0.9596760272979736,6.4231767654418945
1697301568124762400,1.661762451171875,2.5070340633392334,1.1807060241699219,0.9197260141372681
1697301568143600600,1.6806005859375,-0.7031030058860779,-6.375042915344238,-6.889673233032227
1697301568162438700,1.699438720703125,0.6922910213470459,-2.4983561038970947,-3.7582380771636963
1697301568181277000,1.71827685546875,5.453976154327393,-0.2543970048427582,-0.2925190031528473
1697301568200115000,1.737114990234375,0.12147200107574463,-0.03330399841070175,-0.5694890022277832
1697301568218953000,1.755952880859375,-9.328910827636719,0.017371999099850655,-2.783518075942993
1697301568237791000,1.774791015625,-8.879201889038086,3.4431610107421875,3.6844849586486816
1697301568256629200,1.793629150390625,-4.499973773956299,0.753367006778717,7.076218128204346
1697301568275467500,1.812467529296875,-5.901968955993652,-7.95852518081665,7.776910781860352
1697301568294305500,1.831305419921875,-1.4795310497283936,-4.513673782348633,6.443068981170654
1697301568313143800,1.850143798828125,-3.641745090484619,-2.4823648929595947,8.271249771118164
1697301568331981600,1.868981689453125,-3.609009027481079,-3.395688056945801,7.473907947540283
1697301568350820000,1.887820068359375,1.1142079830169678,-5.4184417724609375,2.249490976333618
1697301568369657900,1.906657958984375,3.5265378952026367,-6.637730121612549,-0.03134100139141083
1697301568388496100,1.92549609375,0.32954299449920654,-5.663755893707275,5.042325019836426
1697301568407334400,1.94433447265625,4.59719705581665,-4.877414226531982,3.5065340995788574
1697301568426172400,1.96317236328125,5.418650150299072,4.061042785644531,-0.4418100118637085
1697301568445010400,1.982010498046875,7.137221813201904,5.999661922454834,-0.15247899293899536
1697301568463848700,2.0008486328125,4.696691036224365,5.90297794342041,-0.3788830041885376
1697301568482686700,2.019686767578125,2.7460289001464844,2.6789560317993164,-0.12415800243616104
1697301568501524700,2.038524658203125,3.632941961288452,1.5101230144500732,-0.34460800886154175
1697301568520363000,2.057363037109375,4.721067905426025,2.0330710411071777,-0.8556159734725952
1697301568539201000,2.076200927734375,4.810644149780273,3.89477801322937,-1.2053639888763428
1697301568558039300,2.095039306640625,4.536342144012451,5.589476108551025,-1.9046759605407715
1697301568576877600,2.113877685546875,3.080024003982544,5.30527400970459,-2.3408079147338867
1697301568595715600,2.132715576171875,1.9545730352401733,3.8573250770568848,-1.3874520063400269
1697301568614553600,2.1515537109375,0.4512670040130615,3.4098570346832275,-0.8698909878730774
1697301568633391900,2.170391845703125,-0.3013179898262024,3.569732904434204,1.6281670331954956
1697301568652229600,2.189229736328125,-2.662688970565796,3.770418882369995,2.2755239009857178
1697301568671067600,2.208067626953125,-0.497855007648468,4.132370948791504,1.850540041923523
1697301568689906000,2.226906005859375,-3.0024759769439697,3.2510108947753906,1.055791974067688
1697301568708744000,2.245743896484375,-0.8543019890785217,0.037473998963832855,-0.12898899614810944
1697301568727582500,2.26458251953125,-5.431591033935547,-1.7814760208129883,-0.4640690088272095
1697301568746420200,2.283420166015625,1.1233160495758057,-2.876857042312622,4.60148811340332
1697301568765258500,2.302258544921875,-0.7834510207176208,0.08112899959087372,0.3476420044898987
1697301568784096500,2.321096435546875,-1.571874976158142,0.7165719866752625,-1.573976993560791
1697301568802934800,2.339934814453125,-0.3573020100593567,-0.7455729842185974,0.2601580023765564
1697301568821772800,2.358772705078125,0.28250300884246826,-1.2910740375518799,0.9727429747581482
1697301568840611000,2.377611083984375,1.0614049434661865,-0.7174689769744873,1.3852540254592896
1697301568859449000,2.396448974609375,-0.05176699906587601,-0.25038498640060425,1.3087259531021118
1697301568878287000,2.415287109375,1.9090650081634521,-0.6621429920196533,1.4337459802627563
1697301568897125000,2.434125,1.144705057144165,-1.3590519428253174,1.3087459802627563
1697301568915963400,2.45296337890625,0.9053270220756531,-2.3364040851593018,1.2299799919128418
1697301568934801400,2.471801513671875,1.5884699821472168,-2.631640911102295,1.482409954071045
1697301568953639700,2.4906396484375,1.0895559787750244,-1.8647819757461548,1.9945909976959229
1697301568972478000,2.50947802734375,0.4801590144634247,-0.5898780226707458,1.759037971496582
1697301568991316000,2.52831591796875,1.2202509641647339,0.47337400913238525,1.4752529859542847
1697301569010154200,2.547154296875,1.6436350345611572,0.8807979822158813,1.4707310199737549
1697301569028992300,2.5659921875,1.0079950094223022,0.8615900278091431,1.861057996749878
1697301569047830300,2.584830322265625,-0.08021800220012665,0.2705230116844177,2.7936670780181885
1697301569066668300,2.603668212890625,0.2392680048942566,-1.2507760524749756,1.0197410583496094
1697301569085506600,2.622506591796875,0.027789000421762466,-1.8250210285186768,2.3818459510803223
1697301569104344600,2.641344482421875,-0.551613986492157,-1.4955190420150757,2.185408115386963
1697301569123182800,2.660182861328125,-0.5336650013923645,0.6217079758644104,0.2789190113544464
1697301569142020900,2.679020751953125,0.3377099931240082,2.3709781169891357,-0.9641870260238647
1697301569160859100,2.697859130859375,0.311939001083374,3.0300838947296143,-1.2249770164489746
1697301569179697000,2.71669677734375,-1.3104900121688843,2.798227071762085,-0.856548011302948
1697301569198535200,2.73553515625,-1.9795600175857544,2.5922861099243164,0.21314199268817902
1697301569217373400,2.75437353515625,-1.9850339889526367,2.813714027404785,0.4692550003528595
1697301569236211500,2.77321142578125,-2.4100029468536377,3.478144884109497,-0.7429080009460449
1697301569255049700,2.7920498046875,-2.3241240978240967,3.5091469287872314,-0.4012489914894104
1697301569273887700,2.8108876953125,-2.922974109649658,1.9909809827804565,-2.2325210571289062
1697301569292726000,2.82972607421875,-1.5659220218658447,-0.37993699312210083,-2.7490029335021973
1697301569311564000,2.84856396484375,-1.1531879901885986,-2.22514009475708,-2.5361170768737793
1697301569330402000,2.867402099609375,-2.2012760639190674,-3.770836114883423,-0.6502230167388916
1697301569349240300,2.886240234375,-2.122718095779419,-3.6727890968322754,0.5758540034294128
1697301569368078300,2.905078369140625,-0.5221019983291626,-3.2698209285736084,1.2109509706497192
1697301569386916600,2.92391650390625,0.3657810091972351,-3.9115679264068604,1.955773949623108
1697301569405754600,2.942754638671875,0.4139080047607422,-5.10931921005249,2.875699043273926
1697301569424593000,2.961593017578125,0.5676329731941223,-6.7777509689331055,3.018704891204834
1697301569443431000,2.980430908203125,-0.6006249785423279,-8.186392784118652,0.8663319945335388
1697301569462269000,2.99926904296875,-5.841102123260498,-7.840504169464111,-2.267880916595459
1697301569481107000,3.01810693359375,-11.244999885559082,-6.696002960205078,-0.7840189933776855
1697301569499945200,3.0369453125,-15.225204467773438,-4.097537994384766,0.6059730052947998
1697301569518783200,3.055783203125,-13.382172584533691,-3.389040946960449,2.703092098236084
1697301569537621500,3.07462158203125,-8.316802978515625,-4.784286022186279,2.0465478897094727
1697301569556459500,3.09345947265625,-0.21637700498104095,-6.053854942321777,-1.1243669986724854
1697301569575297500,3.112297607421875,3.165613889694214,-6.83268404006958,-3.933816909790039
1697301569594135800,3.1311357421875,5.642286777496338,-7.258659839630127,-4.607777118682861
1697301569612973800,3.149973876953125,10.264246940612793,-6.039809226989746,-4.663796901702881
1697301569631812400,3.168812255859375,10.606268882751465,-4.481173038482666,-4.29795503616333
1697301569650650000,3.187650146484375,8.52759838104248,-1.5783300399780273,-3.639040946960449
1697301569669488400,3.20648828125,-7.933268070220947,-1.483512043952942,0.1311669945716858
1697301569688326400,3.225326416015625,-6.804211139678955,-2.8419840335845947,1.262719988822937
1697301569707164700,3.24416455078125,-1.3898910284042358,-4.478947162628174,3.1060988903045654
1697301569726002700,3.263002685546875,4.834521770477295,-4.4881768226623535,2.070996046066284
1697301569744841000,3.281841064453125,9.261407852172852,-1.3974499702453613,-1.7860419750213623
1697301569763678700,3.3006787109375,6.800049781799316,0.23006199300289154,-3.1514809131622314
1697301569782517000,3.31951708984375,4.368513107299805,0.6656380295753479,-3.3438758850097656
1697301569801355300,3.338355224609375,4.725807189941406,1.1519620418548584,-4.018111228942871
1697301571016414000,4.5534140625,-3.4419479370117188,-2.0204129219055176,-0.1189659982919693
1697301571035252200,4.572252197265625,-5.956108093261719,-3.1256909370422363,1.3852590322494507
1697301571054090200,4.59109033203125,-0.4718169867992401,-4.076878070831299,1.657578945159912
1697301571072928300,4.60992822265625,2.042062997817993,-1.7125519514083862,-1.8480559587478638
1697301571091766500,4.6287666015625,6.409860134124756,0.5448060035705566,-4.232557773590088
1697301571110604800,4.647604736328125,4.962891101837158,1.518362045288086,-4.33512020111084
1697301571129442800,4.66644287109375,-0.02231300063431263,1.2600899934768677,-2.021527051925659
1697301571148281000,4.685281005859375,2.357696056365967,0.924032986164093,-0.6099640130996704
1697301571167119000,4.704119140625,5.857421875,1.5556459426879883,-0.28227999806404114
1697301571185957400,4.722957275390625,5.8251471519470215,2.3597679138183594,-1.6896530389785767
1697301571204795400,4.74179541015625,5.316524028778076,3.109071969985962,-2.671966075897217
1697301571223633700,4.760633544921875,6.517334938049316,3.9644739627838135,-2.777003049850464
1697301571242471700,4.7794716796875,6.621410846710205,5.008546829223633,-3.321523904800415
1697301574995965400,8.53296533203125,0.5554999709129333,1.3285349607467651,3.036815881729126
