time,seconds_elapsed,z,y,x
1701881544015861000,0.141861083984375,8.719446182250977,5.057230472564697,0.833898663520813
1701881544025645800,0.151645751953125,8.796015739440918,5.023731231689453,0.5587241053581238
1701881544035430400,0.161430419921875,9.183952331542969,5.670092582702637,0.5033900737762451
1701881544045215000,0.171215087890625,8.748159408569336,5.947958946228027,0.44356951117515564
1701881544054999800,0.180999755859375,7.393223762512207,5.818746566772461,-0.12382857501506805
1701881544064784400,0.190784423828125,6.6149582862854,5.5360941886901855,-0.46360939741134644
1701881544074569000,0.20056884765625,6.631708145141602,5.24416971206665,-0.6002993583679199
1701881544084353800,0.210353759765625,6.672386169433594,5.109872817993164,-0.5712863802909851
1701881544094138400,0.220138427734375,6.483353137969971,5.0356950759887695,-0.31764721870422363
1701881544103923000,0.2299228515625,6.358926296234131,4.597509384155273,0.31914272904396057
1701881544113707500,0.23970751953125,6.660421848297119,4.135694980621338,1.4850455522537231
1701881544123492000,0.2494921875,6.73729133605957,3.857828378677368,2.9694929122924805
1701881544133276700,0.259276611328125,7.122535705566406,4.255335807800293,3.9320058822631836
1701881544143061200,0.269061279296875,7.551149845123291,4.923232555389404,4.238286972045898
1701881544152845800,0.278845703125,7.639684677124023,5.222634315490723,4.154538154602051
1701881544162630400,0.28863037109375,7.311867713928223,5.24416971206665,3.8264224529266357
1701881544172415000,0.2984150390625,7.191927433013916,5.30638313293457,3.5177483558654785
1701881544182199600,0.308199462890625,6.971787929534912,5.519344329833984,3.5560336112976074
1701881544191984000,0.317984130859375,6.79950475692749,5.538486957550049,3.749852180480957
1701881544201768700,0.327768798828125,6.854539394378662,5.595914840698242,3.8383865356445312
1701881544211553300,0.33755322265625,6.67717170715332,5.816353797912598,3.601497173309326
1701881544221337900,0.347337890625,6.239284992218018,5.749354839324951,3.2925238609313965
1701881544231122400,0.357122314453125,6.097809314727783,5.627021312713623,2.967100143432617
1701881544240907000,0.366906982421875,6.423532485961914,5.409274578094482,2.5935206413269043
1701881544250691600,0.376691650390625,6.833003997802734,5.217848777770996,2.4379870891571045
1701881544260476200,0.38647607421875,7.311867713928223,4.97348165512085,2.7275187969207764
1701881544270260700,0.3962607421875,7.946264743804932,4.9878387451171875,3.139383316040039
1701881544280045300,0.40604541015625,8.05394172668457,4.76530647277832,3.685245990753174
1701881544289830000,0.415829833984375,8.283653259277344,4.363012790679932,4.288536548614502
1701881544299614500,0.425614501953125,8.973383903503418,3.7262229919433594,4.465904235839844
1701881544309399000,0.43539892578125,9.892526626586914,3.024827003479004,4.022933006286621
1701881544319184000,0.445183837890625,10.979466438293457,2.4023938179016113,3.160918712615967
1701881544328968400,0.454968505859375,11.048858642578125,1.7509479522705078,2.4068803787231445
1701881544338753000,0.4647529296875,10.170393943786621,1.2146565914154053,2.1720848083496094
1701881544348537600,0.47453759765625,9.576674461364746,0.7049853801727295,2.186441659927368
1701881544358322200,0.484322265625,8.973383903503418,-0.27427729964256287,2.4547369480133057
1701881544368106800,0.494106689453125,8.187939643859863,-0.7459624409675598,2.378166675567627
1701881544377891300,0.503891357421875,7.811967849731445,-1.0597213506698608,1.4060823917388916
1701881544387676000,0.513676025390625,8.207082748413086,-1.8089739084243774,1.0133603811264038
1701881544397323500,0.523323486328125,7.725826263427734,-2.7116663455963135,1.7437695264816284
1701881544406916000,0.532916015625,6.701398849487305,-3.262314558029175,2.3925235271453857
1701881544416508000,0.5425078125,5.585745334625244,-3.9397823810577393,3.608675718307495
1701881544426100500,0.5521005859375,4.42193603515625,-4.516751766204834,5.770590782165527
1701881544435693800,0.56169384765625,2.8803603649139404,-4.986044406890869,8.255537033081055
1701881544445286400,0.571286376953125,0.6825526356697083,-4.739284515380859,9.256335258483887
1701881544454878200,0.580878173828125,-0.3517449200153351,-4.523930072784424,8.722436904907227
1701881544464470800,0.590470703125,-0.14117653667926788,-4.320241451263428,7.242774963378906
1701881544474064100,0.600064208984375,0.2108674943447113,-3.992424488067627,5.318048477172852
1701881544483656700,0.60965673828125,0.11994023621082306,-4.126422882080078,4.832006454467773
1701881544493248500,0.61924853515625,0.005084747914224863,-5.1152567863464355,5.883053779602051
1701881544502841000,0.628841064453125,-0.04307080805301666,-6.247660160064697,7.187740325927734
1701881544512434400,0.638434326171875,0.12233305722475052,-6.858129024505615,8.238787651062012
1701881544522027000,0.648027099609375,0.37118661403656006,-7.150053024291992,8.672187805175781
1701881544531618800,0.657618896484375,0.3927220106124878,-7.202994346618652,8.672187805175781
1701881544541211400,0.66721142578125,0.026620151475071907,-7.035197734832764,8.877969741821289
1701881544550804700,0.6768046875,-0.8401798605918884,-7.092625617980957,9.371191024780273
1701881544560397300,0.686397216796875,-2.1759731769561768,-7.509275436401367,9.656235694885254
1701881544569989000,0.695989013671875,-3.3562328815460205,-7.8684983253479,9.955338478088379
1701881544579581700,0.705581787109375,-4.42402982711792,-8.045567512512207,10.190134048461914
1701881544589175000,0.715175048828125,-5.228616714477539,-8.167600631713867,10.817353248596191
1701881544598767600,0.724767578125,-5.372185707092285,-7.961818218231201,11.616854667663574
1701881544608359400,0.734359375,-4.922036170959473,-7.298707485198975,12.46451187133789
1701881544617952000,0.743951904296875,-4.091427803039551,-6.783951282501221,13.319048881530762
1701881544627545300,0.75354541015625,-3.0714869499206543,-6.38165807723999,14.11406421661377
1701881544637138000,0.763137939453125,-2.3437697887420654,-6.154339790344238,14.188241958618164
1701881544646729700,0.772729736328125,-1.800299882888794,-6.321837425231934,13.484453201293945
1701881544656322300,0.782322265625,-1.1153544187545776,-6.654738903045654,12.366406440734863
1701881544665915600,0.79191552734375,-0.5264210104942322,-7.272386074066162,11.269895553588867
1701881544675508200,0.80150830078125,-0.09571290761232376,-7.664809226989746,10.510772705078125
1701881544685100000,0.81110009765625,0.31375887989997864,-8.002495765686035,10.10159969329834
1701881544694692600,0.820692626953125,0.385543555021286,-8.18674373626709,9.56770133972168
1701881544704286000,0.830285888671875,0.1701895147562027,-8.222636222839355,9.062516212463379
1701881544713878500,0.83987841796875,-0.16031911969184875,-8.20110034942627,9.486045837402344
1701881544723470300,0.84947021484375,-0.20817556977272034,-8.234600067138672,9.570094108581543
1701881544733063000,0.85906298828125,0.01704886183142662,-7.928318500518799,8.940183639526367
1701881544742656500,0.868656494140625,-0.2584248483181,-7.823034763336182,8.356036186218262
1701881544752248800,0.878248779296875,-0.5647061467170715,-7.695915699005127,7.731209754943848
1701881544761840600,0.887840576171875,-0.5216353535652161,-7.308278560638428,6.85753059387207
1701881544771433200,0.89743310546875,-0.03559323772788048,-7.365706443786621,5.423332691192627
1701881544781026800,0.90702685546875,0.08644071966409683,-6.479763507843018,4.066003799438477
1701881544790619100,0.916619140625,1.3576277494430542,-6.259624004364014,3.294916868209839
1701881544800211000,0.9262109375,2.128415822982788,-6.4941205978393555,2.909672260284424
1701881544809803500,0.935803466796875,5.624030590057373,-8.536395072937012,2.526521682739258
1701881544819397000,0.945397216796875,13.907383918762207,-12.812368392944336,1.0133603811264038
1701881544828989700,0.95498974609375,4.000799655914307,-5.07936429977417,-3.1187453269958496
1701881544838581200,0.964581298828125,-8.259425163269043,-5.02432918548584,-0.5473581552505493
1701881544848174000,0.974174072265625,-5.927619934082031,-8.950652122497559,8.69372272491455
1701881544857767400,0.983767333984375,1.450947880744934,-7.466204643249512,13.608880043029785
1701881544867360000,0.993360107421875,3.842574119567871,-7.530810832977295,13.424333572387695
1701881544876951600,1.00295166015625,1.836491346359253,-8.996115684509277,10.266704559326172
1701881544886544400,1.01254443359375,-1.1033903360366821,-10.336694717407227,7.159026145935059
1701881544896137700,1.0221376953125,-1.1850453615188599,-10.951949119567871,4.238286972045898
1701881544905730300,1.031730224609375,0.7423732280731201,-10.834700584411621,2.710768938064575
1701881544915322000,1.041322021484375,2.549851655960083,-11.016555786132812,3.060420274734497
1701881544924914700,1.050914794921875,3.450151205062866,-10.760523796081543,3.6900315284729004
1701881544934508000,1.060508056640625,2.7798616886138916,-10.461121559143066,4.3411784172058105
1701881544944100600,1.0701005859375,1.6112669706344604,-10.123733520507812,5.071587562561035
1701881544953692400,1.0796923828125,0.5413761138916016,-10.016056060791016,5.2941203117370605
1701881544963285000,1.089284912109375,-0.4139583110809326,-9.900901794433594,5.160121917724609
1701881544972878300,1.09887841796875,-0.5455635786056519,-10.054341316223145,5.330012321472168
1701881544982471000,1.108470947265625,-0.023629123345017433,-10.11416244506836,4.90618371963501
1701881544992062700,1.118062744140625,0.23001007735729218,-10.023235321044922,4.073182582855225
1701881545001655300,1.1276552734375,0.7280163168907166,-9.752547264099121,3.7139599323272705
1701881545011248600,1.13724853515625,1.2092727422714233,-9.692726135253906,3.6732819080352783
1701881545020841200,1.14684130859375,1.170987606048584,-9.551549911499023,3.8814573287963867
1701881545030433000,1.15643310546875,0.7639086246490479,-9.628120422363281,3.9008991718292236
1701881545040025600,1.166025634765625,0.5461617708206177,-9.64965534210205,4.089931964874268
1701881545049619000,1.175618896484375,0.7160521745681763,-9.498908042907715,3.6373894214630127
1701881545059211500,1.18521142578125,0.7543373107910156,-10.063913345336914,3.067598581314087
1701881545068803300,1.19480322265625,1.0031908750534058,-9.955936431884766,2.998206853866577
1701881545078396000,1.20439599609375,0.6801598072052002,-9.960722923278809,3.2374889850616455
1701881545087989200,1.2139892578125,0.014656038954854012,-10.147662162780762,3.1752755641937256
1701881545097581800,1.223581787109375,-0.19621145725250244,-10.403694152832031,3.187239646911621
1701881545107173600,1.233173583984375,0.1582254022359848,-10.576275825500488,2.7972097396850586
1701881545116766200,1.24276611328125,0.9625129103660583,-10.494621276855469,2.50498628616333
1701881545126359600,1.252359619140625,1.233201026916504,-10.367801666259766,2.6270201206207275
1701881545135952100,1.2619521484375,1.048654556274414,-10.028020858764648,2.8139593601226807
1701881545145544000,1.2715439453125,1.1805589199066162,-9.295218467712402,2.552842617034912
1701881545155136500,1.281136474609375,1.1685947179794312,-9.45583724975586,2.981456995010376
1701881545164729900,1.290729736328125,-0.4426721930503845,-9.412467002868652,2.394916296005249
1701881545174322400,1.300322509765625,-0.4498506486415863,-7.1285176277160645,0.6879364848136902
1701881545183914200,1.309914306640625,-1.0148558616638184,-5.976971626281738,0.7980063557624817
1701881545193506800,1.3195068359375,-0.9454640746116638,-5.795117378234863,0.4531407952308655
1701881545203100400,1.329100341796875,-0.00687936507165432,-5.771189212799072,0.30239295959472656
1701881545212692700,1.338692626953125,0.7256234884262085,-5.558228015899658,0.8697910308837891
1701881545222284500,1.348284423828125,0.15583257377147675,-4.696213722229004,2.440380096435547
1701881545231877000,1.357877197265625,0.2946162819862366,-4.310669898986816,1.6983058452606201
1701881545241470700,1.367470703125,0.1989033818244934,-4.595715045928955,1.058824062347412
1701881545251063000,1.37706298828125,3.7660038471221924,-5.371288776397705,-0.48514479398727417
1701881545260654800,1.38665478515625,1.1829516887664795,-5.3832526206970215,0.8219345808029175
1701881545270247400,1.396247314453125,-2.441875457763672,-4.799104690551758,1.5257235765457153
1701881545279841000,1.405841064453125,-2.2621147632598877,-4.744070053100586,0.9463613629341125
1701881545289433600,1.41543359375,-2.95184588432312,-4.899603366851807,0.7190431952476501
1701881545299025200,1.425025146484375,-2.8247270584106445,-6.608976364135742,1.2505489587783813
1701881545308618000,1.434617919921875,-1.4243277311325073,-7.703094482421875,1.8323038816452026
1701881545318211300,1.44421142578125,-0.8090731501579285,-7.272386074066162,1.4395818710327148
1701881545327804000,1.453803955078125,0.4405784606933594,-6.45822811126709,0.17557336390018463
1701881545337395700,1.463395751953125,0.9529415965080261,-6.0487565994262695,-1.069292664527893
1701881545346988300,1.47298828125,0.7567301392555237,-8.08385181427002,-1.4141582250595093
1701881545356581600,1.48258154296875,-0.9287142753601074,-30.356245040893555,-7.107281684875488
1701881545366174200,1.49217431640625,-0.9119645357131958,-53.907005310058594,-2.8002007007598877
1701881545375766000,1.50176611328125,4.175475597381592,-41.31387710571289,10.960922241210938
1701881545385358600,1.511358642578125,2.1954147815704346,-13.808082580566406,3.9320058822631836
1701881545394952000,1.520951904296875,-1.2855439186096191,-2.7978079319000244,-1.6462619304656982
1701881545404544500,1.53054443359375,-1.721037745475769,-4.760819911956787,-1.8667007684707642
1701881545414136300,1.54013623046875,-0.6152545213699341,-10.899307250976562,0.125324085354805
1701881545423729000,1.54972900390625,-1.007677435874939,-10.901700019836426,1.169192910194397
1701881545433322200,1.559322265625,-0.4737788736820221,-9.311968803405762,0.98703932762146
1701881545442914800,1.568914794921875,-0.12442677468061447,-9.26171875,0.2066800594329834
1701881545452506600,1.578506591796875,-0.39481574296951294,-9.44626522064209,0.08225327730178833
1701881545462099200,1.58809912109375,-0.32542386651039124,-9.68794059753418,0.23778675496578217
1701881545471692500,1.597692626953125,-0.10767702013254166,-10.080662727355957,0.15643078088760376
1701881545481285000,1.60728515625,-0.07417750358581543,-10.453943252563477,0.10618150234222412
1701881545490877000,1.616876953125,-0.3397808074951172,-10.743773460388184,0.19710876047611237
1701881545500469500,1.626469482421875,-0.4977070987224579,-10.473085403442383,0.2760719060897827
1701881545510062800,1.636062744140625,-0.4618147611618042,-10.150054931640625,0.5276173949241638
1701881545519655400,1.645655517578125,-0.32542386651039124,-9.089435577392578,0.2066800594329834
1701881545529247200,1.655247314453125,-0.33738797903060913,-8.277670860290527,-0.02063809521496296
1701881545538839800,1.66483984375,-0.27038896083831787,-9.063115119934082,-0.05922235921025276
1701881545548433200,1.67443310546875,-0.4905286431312561,-9.750154495239258,-0.16450655460357666
1701881545558025700,1.684025634765625,-0.5575276613235474,-9.57787036895752,-0.1860419660806656
1701881545567617500,1.693617431640625,-0.2919243574142456,-11.380563735961914,-0.2147558331489563
1701881545577210000,1.703210205078125,-1.4243277311325073,-11.390134811401367,0.07507480680942535
1701881545586803700,1.7128037109375,-0.5599204897880554,-10.274481773376465,0.07986045628786087
1701881545596396000,1.72239599609375,-1.0483554601669312,-10.104591369628906,0.34307095408439636
1701881545605987800,1.73198779296875,-1.2305090427398682,-10.073484420776367,0.46031925082206726
1701881545615580400,1.741580322265625,-0.9622138142585754,-10.013663291931152,0.2306082844734192
1701881545625174000,1.751174072265625,-0.5838487148284912,-9.886545181274414,-0.01585244946181774
1701881545634766300,1.760766357421875,-0.46899324655532837,-9.78843879699707,-0.07357929646968842
1701881545644358100,1.770358154296875,-0.5527420043945312,-9.738189697265625,-0.023030918091535568
1701881545653950700,1.77995068359375,-0.6607181429862976,-9.726225852966309,-0.00867398176342249
1701881545663544300,1.78954443359375,-0.6846463680267334,-9.721440315246582,0.0008973084622994065
1701881545673136600,1.79913671875,-0.7277171611785889,-9.752547264099121,0.09421738982200623
1701881545682728400,1.808728515625,-0.7827520966529846,-9.80518913269043,0.1947159469127655
1701881545692321000,1.818321044921875,-0.8569296002388,-9.81236743927002,0.3167499005794525
1701881545701914600,1.82791455078125,-0.9263214468955994,-9.821938514709473,0.4507479667663574
1701881545711507200,1.837507080078125,-0.9837492108345032,-9.81236743927002,0.5946164131164551
1701881545721099000,1.84709912109375,-0.9957132935523987,-9.762118339538574,0.6855437159538269
1701881545730691300,1.85669140625,-0.9598209857940674,-9.711869239807129,0.6592226624488831
1701881545740285000,1.866284912109375,-0.9287142753601074,-9.678369522094727,0.6089733839035034
1701881545749877500,1.87587744140625,-0.8736793398857117,-9.664012908935547,0.5706881880760193
1701881545759469300,1.88546923828125,-0.8210372924804688,-9.685547828674316,0.5539384484291077
1701881545769062000,1.895061767578125,-0.7923234105110168,-9.69511890411377,0.5730810165405273
1701881545778655200,1.9046552734375,-0.8210372924804688,-9.704689979553223,0.5778666734695435
1701881545788247800,1.914247802734375,-0.8497511148452759,-9.738189697265625,0.6185446381568909
1701881545797839600,1.923839599609375,-0.8808578252792358,-9.807581901550293,0.7190431952476501
1701881545807432200,1.93343212890625,-0.8952147960662842,-9.89850902557373,0.8530412912368774
1701881545817025500,1.943025634765625,-0.9287142753601074,-9.975079536437988,0.9966106414794922
1701881545826618000,1.9526181640625,-0.9358927607536316,-10.023235321044922,1.090229868888855
1701881545836210000,1.9622099609375,-0.8928219676017761,-10.063913345336914,1.1261221170425415
1701881545845802500,1.971802490234375,-0.8521439433097839,-10.028020858764648,1.1356934309005737
1701881545855395800,1.981395751953125,-0.7995018362998962,-9.987342834472656,1.085145115852356
1701881545864988400,1.990988525390625,-0.8186444640159607,-9.975079536437988,1.1261221170425415
1701881545874580200,2.000580322265625,-0.8665009140968323,-9.94397258758545,1.1715857982635498
1701881545884172800,2.0101728515625,-0.8521439433097839,-9.927223205566406,1.1835498809814453
1701881545893766100,2.01976611328125,-0.8617152571678162,-9.853045463562012,1.2433704137802124
1701881545903358700,2.029358642578125,-0.8784649968147278,-9.829116821289062,1.2768700122833252
1701881545912950500,2.038950439453125,-0.8353942036628723,-9.802796363830566,1.32711923122406
1701881545922543000,2.048543212890625,-0.8377870321273804,-9.7669038772583,1.3821542263031006
1701881545932136400,2.058136474609375,-0.8114659786224365,-9.711869239807129,1.3677972555160522
1701881545941729000,2.06772900390625,-0.7803592681884766,-9.66640567779541,1.3462618589401245
1701881545951320800,2.07732080078125,-0.7420741319656372,-9.640084266662598,1.2792627811431885
1701881545960913400,2.086913330078125,-0.6846463680267334,-9.599406242370605,1.181157112121582
1701881545970506800,2.0965068359375,-0.6367899179458618,-9.553942680358887,1.0564311742782593
1701881545980099300,2.106099365234375,-0.5742774605751038,-9.544371604919434,0.9774680733680725
1701881545989691100,2.115691162109375,-0.5407779216766357,-9.518050193786621,0.8697910308837891
1701881545999283700,2.12528369140625,-0.5910272002220154,-9.544371604919434,0.7405785918235779
1701881546008877000,2.134876953125,-0.5958128571510315,-9.589835166931152,0.5850451588630676
1701881546018469600,2.1444697265625,-0.5647061467170715,-9.647262573242188,0.4220340847969055
1701881546028061400,2.1540615234375,-0.4450650215148926,-9.582656860351562,0.16839489340782166
1701881546037654000,2.163654052734375,-0.2871387302875519,-9.573084831237793,0.08464609831571579
1701881546047247600,2.17324755859375,-0.2991028428077698,-9.795618057250977,0.12053844332695007
1701881546056840000,2.18283984375,-0.3397808074951172,-10.049555778503418,0.18753747642040253
1701881546066432000,2.192431884765625,-0.4091726839542389,-10.212267875671387,0.2353939265012741
1701881546076024300,2.2020244140625,-0.5407779216766357,-10.327123641967773,0.2665006220340729
1701881546085618000,2.211617919921875,-0.5312066078186035,-10.365408897399902,0.03918246924877167
1701881546095210500,2.22121044921875,-0.46420758962631226,-10.569097518920898,-0.19800607860088348
1701881546104802300,2.23080224609375,-0.4498506486415863,-10.712666511535645,-0.3032902777194977
1701881546114395000,2.240394775390625,-0.4570291340351105,-10.803594589233398,-0.29850462079048157
1701881546123988200,2.24998828125,-0.45942193269729614,-10.849058151245117,-0.3032902777194977
1701881546133580800,2.259580810546875,-0.40677985548973083,-10.829915046691895,-0.3200400173664093
1701881546143172600,2.269172607421875,-0.35413774847984314,-10.736595153808594,-0.32721850275993347
1701881546152765200,2.27876513671875,-0.2967100143432617,-10.576275825500488,-0.29371899366378784
1701881546162358500,2.288358642578125,-0.2560320198535919,-10.413265228271484,-0.2554338276386261
1701881546171951000,2.297951171875,-0.23210379481315613,-10.245767593383789,-0.1908276081085205
1701881546181543000,2.30754296875,-0.19142581522464752,-10.104591369628906,-0.12622138857841492
1701881546191135500,2.317135498046875,-0.1746760457754135,-10.0040922164917,-0.052043892443180084
1701881546200728800,2.326728759765625,-0.1866401731967926,-9.960722923278809,0.046360939741134644
1701881546210321400,2.3363212890625,-0.17706887423992157,-9.939187049865723,0.12053844332695007
1701881546219913200,2.345913330078125,-0.1579262912273407,-9.917651176452637,0.1827518343925476
1701881546229505800,2.355505859375,-0.1459621787071228,-9.862616539001465,0.22821545600891113
1701881546239099100,2.36509912109375,-0.0933200865983963,-9.814760208129883,0.271286278963089
1701881546248691700,2.374691650390625,-0.03080759197473526,-9.800403594970703,0.33110684156417847
1701881546258283500,2.384283447265625,-0.026021946221590042,-9.795618057250977,0.3478565812110901
1701881546267876000,2.3938759765625,-0.062213387340307236,-9.821938514709473,0.3526422381401062
1701881546277469400,2.403469482421875,-0.1052841991186142,-9.91286563873291,0.31914272904396057
1701881546287062000,2.41306201171875,-0.1339980661869049,-10.0040922164917,0.31435707211494446
1701881546296653800,2.42265380859375,-0.20578274130821228,-10.08305549621582,0.27846473455429077
1701881546306246400,2.432246337890625,-0.28235307335853577,-10.092626571655273,0.247358039021492
1701881546315839700,2.44183984375,-0.31824541091918945,-10.06869888305664,0.2234298139810562
1701881546325432300,2.451432373046875,-0.4043870270252228,-10.056734085083008,0.13968102633953094
1701881546335024000,2.461024169921875,-0.4953143000602722,-10.035199165344238,0.11814561486244202
1701881546344616700,2.47061669921875,-0.5455635786056519,-9.953543663024902,0.05593222752213478
1701881546354210300,2.480210205078125,-0.5838487148284912,-9.876974105834961,-0.0014955141814425588
1701881546363802600,2.489802734375,-0.5312066078186035,-9.872187614440918,-0.025423740968108177
1701881546373394400,2.49939453125,-0.5072783827781677,-9.915258407592773,-0.08554340898990631
1701881546382987000,2.508987060546875,-0.5216353535652161,-9.92243766784668,-0.21714866161346436
1701881546392580600,2.51858056640625,-0.4666004180908203,-9.90568733215332,-0.3128615617752075
1701881546402173200,2.528173095703125,-0.4211367964744568,-9.876974105834961,-0.4325026869773865
1701881546411764700,2.5377646484375,-0.4043870270252228,-9.838688850402832,-0.5569294691085815
1701881546421357600,2.547357666015625,-0.4666004180908203,-9.8267240524292,-0.6266204118728638
1701881546430951000,2.556950927734375,-0.48813581466674805,-9.862616539001465,-0.7462615370750427
1701881546440543500,2.56654345703125,-0.5264210104942322,-9.934401512145996,-0.8371888399124146
1701881546450135300,2.57613525390625,-0.4737788736820221,-9.98255729675293,-0.9544371366500854
1701881546459728000,2.585727783203125,-0.4666004180908203,-10.025628089904785,-1.0310074090957642
1701881546469321200,2.5953212890625,-0.5335994362831116,-10.023235321044922,-1.038185954093933
1701881546478913800,2.604913818359375,-0.6415755748748779,-10.0040922164917,-1.0597213506698608
1701881546488505600,2.614505615234375,-0.6942176818847656,-9.99691390991211,-1.0286146402359009
1701881546498098200,2.62409814453125,-0.7516453862190247,-10.025628089904785,-0.9927222728729248
1701881546507691500,2.63369140625,-0.7205387353897095,-10.095019340515137,-0.8419744968414307
1701881546517284000,2.6432841796875,-0.646361231803894,-10.145268440246582,-0.7390831112861633
1701881546526876000,2.6528759765625,-0.5431707501411438,-10.154840469360352,-0.605085015296936
1701881546536468500,2.662468505859375,-0.44027936458587646,-10.111769676208496,-0.494716078042984
1701881546546061800,2.672061767578125,-0.349352091550827,-10.063913345336914,-0.4085744619369507
1701881546555654400,2.681654296875,-0.275174617767334,-10.0040922164917,-0.36311084032058716
1701881546565246200,2.69124609375,-0.17706887423992157,-9.965508460998535,-0.3367897868156433
1701881546574838800,2.7008388671875,-0.08614161610603333,-9.94397258758545,-0.3439682424068451
1701881546584432000,2.71043212890625,-0.06939185410737991,-9.958329200744629,-0.3248256742954254
1701881546594024700,2.720024658203125,-0.08135596662759781,-9.967901229858398,-0.35114672780036926
1701881546603616500,2.729616455078125,-0.14117653667926788,-10.016056060791016,-0.3415754437446594
1701881546613209000,2.739208984375,-0.18903298676013947,-10.09023380279541,-0.39182472229003906
1701881546622802400,2.748802490234375,-0.18424734473228455,-10.135697364807129,-0.41096729040145874
1701881546632395000,2.75839501953125,-0.15553347766399384,-10.035199165344238,-0.42293140292167664
1701881546641986800,2.76798681640625,-0.12203395366668701,-10.030413627624512,-0.5569294691085815
1701881546651579400,2.777579345703125,-0.12681959569454193,-9.999306678771973,-0.6122635006904602
1701881546661172700,2.7871728515625,-0.12681959569454193,-9.98255729675293,-0.6553342938423157
1701881546670765300,2.796765380859375,-0.1339980661869049,-9.965508460998535,-0.758225679397583
1701881546680357000,2.806357177734375,-0.08853443711996078,-9.967901229858398,-0.8060821294784546
1701881546689949700,2.81594970703125,-0.10289137065410614,-9.984950065612793,-0.8587242364883423
1701881546699543300,2.825543212890625,-0.11006984114646912,-9.975079536437988,-0.8850452899932861
1701881546709135600,2.835135498046875,-0.07417750358581543,-10.030413627624512,-0.9329017400741577
1701881546718727400,2.8447275390625,-0.05503492057323456,-10.078269958496094,-0.9424729943275452
1701881546728320000,2.854320068359375,-0.062213387340307236,-10.080662727355957,-0.9400802254676819
1701881546737913600,2.86391357421875,-0.10767702013254166,-10.078269958496094,-0.9305089116096497
1701881546747506000,2.873505859375,-0.14835500717163086,-10.07587718963623,-0.9329017400741577
1701881546757098000,2.883097900390625,-0.1746760457754135,-10.071091651916504,-0.968794047832489
1701881546766690300,2.892690185546875,-0.1698904037475586,-10.066306114196777,-0.9903294444084167
1701881546776284000,2.902283935546875,-0.19381862878799438,-10.063913345336914,-0.9903294444084167
1701881546785876500,2.91187646484375,-0.19621145725250244,-10.063913345336914,-0.9640084505081177
1701881546795468300,2.92146826171875,-0.2153540402650833,-10.054341316223145,-0.9185447692871094
1701881546805060900,2.931060791015625,-0.26081767678260803,-10.054341316223145,-0.8706883192062378
1701881546814654200,2.940654296875,-0.2919243574142456,-10.042377471923828,-0.7965108156204224
1701881546824246800,2.950246826171875,-0.33738797903060913,-10.054341316223145,-0.7319046258926392
1701881546833838600,2.959838623046875,-0.3565305769443512,-10.059126853942871,-0.6553342938423157
1701881546843431200,2.96943115234375,-0.3613162338733673,-10.071091651916504,-0.5736792087554932
1701881546853024500,2.9790244140625,-0.34217363595962524,-10.085448265075684,-0.4707878530025482
1701881546862617000,2.9886171875,-0.30628129839897156,-10.095019340515137,-0.40378883481025696
1701881546872209000,2.998208984375,-0.29431718587875366,-10.092626571655273,-0.33918261528015137
1701881546881801500,3.007801513671875,-0.27756741642951965,-10.08305549621582,-0.29850462079048157
1701881546891394800,3.017394775390625,-0.22013968229293823,-10.06152057647705,-0.2626122832298279
1701881546900987400,3.0269873046875,-0.18903298676013947,-10.044770240783691,-0.2386840581893921
1701881546910579200,3.0365791015625,-0.1746760457754135,-10.044770240783691,-0.2147558331489563
1701881546920171800,3.046171875,-0.1698904037475586,-10.028020858764648,-0.19322042167186737
1701881546929765000,3.05576513671875,-0.1746760457754135,-10.042377471923828,-0.20997019112110138
1701881546939357700,3.065357666015625,-0.20817556977272034,-10.047163009643555,-0.2267199456691742
1701881546948949500,3.074949462890625,-0.2512463629245758,-10.056734085083008,-0.267397940158844
1701881546958542000,3.0845419921875,-0.3038884699344635,-10.042377471923828,-0.29850462079048157
1701881546968135400,3.094135498046875,-0.349352091550827,-10.016056060791016,-0.3248256742954254
1701881546977728000,3.10372802734375,-0.3565305769443512,-9.960722923278809,-0.33439695835113525
1701881546987319800,3.11331982421875,-0.349352091550827,-9.92243766784668,-0.29850462079048157
1701881546996912400,3.122912353515625,-0.36610186100006104,-9.91286563873291,-0.267397940158844
1701881547006506000,3.132506103515625,-0.397208571434021,-9.927223205566406,-0.23389841616153717
1701881547016098300,3.142098388671875,-0.3732803463935852,-9.93679428100586,-0.19322042167186737
1701881547025690000,3.151690185546875,-0.3613162338733673,-9.932008743286133,-0.17168502509593964
1701881547035282700,3.16128271484375,-0.35413774847984314,-9.920044898986816,-0.13100704550743103
1701881547044876300,3.170876220703125,-0.397208571434021,-9.888937950134277,-0.0975075215101242
1701881547054468900,3.18046875,-0.4570291340351105,-9.848259925842285,-0.054436713457107544
1701881547064060400,3.190060302734375,-0.4977070987224579,-9.838688850402832,-0.0038883367087692022
1701881547073653200,3.1996533203125,-0.5335994362831116,-9.860223770141602,0.043968115001916885
1701881547083246600,3.20924658203125,-0.5383850932121277,-9.89133071899414,0.05832505226135254
1701881547092839200,3.218839111328125,-0.5479564070701599,-9.939187049865723,0.06550352275371552
1701881547102431000,3.228430908203125,-0.576670229434967,-9.984950065612793,0.05593222752213478
1701881547112023600,3.2380234375,-0.5958128571510315,-10.011270523071289,0.041575293987989426
1701881547121617000,3.247616943359375,-0.6200401782989502,-10.049555778503418,0.03918246924877167
1701881547131209500,3.25720947265625,-0.5934200286865234,-10.080662727355957,0.017647067084908485
1701881547140801300,3.26680126953125,-0.5551348328590393,-10.071091651916504,-0.011066804639995098
1701881547150393900,3.276393798828125,-0.5312066078186035,-10.037591934204102,-0.0568295381963253
1701881547159987200,3.2859873046875,-0.5288137793540955,-10.008877754211426,-0.09272187948226929
1701881547169579800,3.295579833984375,-0.5312066078186035,-10.013663291931152,-0.1501496136188507
1701881547179171600,3.305171630859375,-0.5407779216766357,-10.011270523071289,-0.19800607860088348
1701881547188764200,3.31476416015625,-0.5264210104942322,-10.032806396484375,-0.2267199456691742
1701881547198357500,3.324357421875,-0.4977070987224579,-10.035199165344238,-0.2602194547653198
1701881547207950000,3.3339501953125,-0.5144568681716919,-10.049555778503418,-0.2745763957500458
1701881547217542000,3.3435419921875,-0.5335994362831116,-10.073484420776367,-0.29371899366378784
1701881547227134500,3.353134521484375,-0.5599204897880554,-10.087841033935547,-0.32243284583091736
1701881547236727800,3.362727783203125,-0.5670989751815796,-10.111769676208496,-0.3367897868156433
1701881547246320400,3.3723203125,-0.5694918036460876,-10.09023380279541,-0.33918261528015137
1701881547255912200,3.381912109375,-0.5910272002220154,-10.056734085083008,-0.32243284583091736
1701881547265504800,3.3915048828125,-0.6056832075119019,-10.0040922164917,-0.2961117923259735
1701881547275098000,3.40109814453125,-0.6008976101875305,-9.951150894165039,-0.2554338276386261
1701881547284690700,3.410690673828125,-0.6056832075119019,-9.903294563293457,-0.20757736265659332
1701881547294282500,3.420282470703125,-0.5910272002220154,-9.845867156982422,-0.15732808411121368
1701881547303875000,3.429875,-0.6032904386520386,-9.824331283569336,-0.1094716340303421
1701881547313468400,3.439468505859375,-0.610468864440918,-9.831509590148926,-0.09990034252405167
1701881547323061000,3.44906103515625,-0.5910272002220154,-9.848259925842285,-0.09272187948226929
1701881547332652800,3.45865283203125,-0.6032904386520386,-9.896116256713867,-0.07118647545576096
1701881547342245400,3.468245361328125,-0.6296114325523376,-9.932008743286133,-0.08315058797597885
1701881547351839000,3.4778388671875,-0.6320042610168457,-9.980164527893066,-0.07597211748361588
1701881547361431300,3.487431396484375,-0.6056832075119019,-10.0040922164917,-0.07118647545576096
1701881547371023000,3.497023193359375,-0.6367899179458618,-10.020842552185059,-0.08315058797597885
1701881547380615700,3.50661572265625,-0.6726822853088379,-10.030413627624512,-0.07118647545576096
1701881547390209300,3.516209228515625,-0.701396107673645,-10.0040922164917,-0.08075776696205139
1701881547399801900,3.5258017578125,-0.7253243923187256,-9.960722923278809,-0.0975075215101242
1701881547409393700,3.5353935546875,-0.7492526173591614,-9.93679428100586,-0.11186445504426956
1701881547418986200,3.544986328125,-0.768395185470581,-9.920044898986816,-0.10468599200248718
1701881547428579600,3.55457958984375,-0.7899305820465088,-9.917651176452637,-0.11425728350877762
1701881547438172200,3.564172119140625,-0.7636095285415649,-9.934401512145996,-0.12622138857841492
1701881547447764000,3.573763916015625,-0.7588238716125488,-9.948758125305176,-0.11425728350877762
1701881547457356500,3.5833564453125,-0.7420741319656372,-9.951150894165039,-0.12622138857841492
1701881547466950000,3.592949951171875,-0.7157530784606934,-9.941579818725586,-0.15972091257572174
1701881547476542500,3.60254248046875,-0.7061817646026611,-9.93679428100586,-0.19561325013637543
1701881547486134300,3.61213427734375,-0.701396107673645,-9.955936431884766,-0.20039889216423035
1701881547495726800,3.621726806640625,-0.701396107673645,-9.967901229858398,-0.1860419660806656
1701881547505320200,3.6313203125,-0.6870391964912415,-9.960722923278809,-0.16929219663143158
1701881547514912800,3.640912841796875,-0.7133602499961853,-9.98973560333252,-0.1381855010986328
1701881547524504600,3.650504638671875,-0.7372884750366211,-9.98973560333252,-0.09511470049619675
1701881547534097200,3.66009716796875,-0.7612167000770569,-9.987342834472656,-0.09032905846834183
1701881547543690500,3.6696904296875,-0.7516453862190247,-9.975079536437988,-0.08075776696205139
1701881547553283000,3.679282958984375,-0.7420741319656372,-9.980164527893066,-0.08315058797597885
1701881547562875000,3.688875,-0.7205387353897095,-9.970293998718262,-0.06161518394947052
1701881547572467500,3.698467529296875,-0.7061817646026611,-9.963115692138672,-0.0568295381963253
1701881547582060800,3.708060791015625,-0.6942176818847656,-9.932008743286133,-0.05922235921025276
1701881547591653400,3.7176533203125,-0.6918248534202576,-9.939187049865723,-0.0568295381963253
1701881547601245200,3.7272451171875,-0.7157530784606934,-9.92961597442627,-0.04486542567610741
1701881547610837800,3.736837646484375,-0.7444669604301453,-9.924830436706543,-0.030209386721253395
1701881547620431400,3.746431396484375,-0.7755736112594604,-9.93679428100586,-0.02063809521496296
1701881547630023700,3.756023681640625,-0.797109067440033,-9.963115692138672,0.0008973084622994065
1701881547639615500,3.765615478515625,-0.7899305820465088,-9.975079536437988,0.010468599386513233
1701881547649208000,3.7752080078125,-0.8186444640159607,-9.99691390991211,0.012861421331763268
1701881547658801700,3.7848017578125,-0.8760721683502197,-9.992128372192383,0.0487537607550621
1701881547668394000,3.79439404296875,-0.9047860503196716,-10.008877754211426,0.041575293987989426
1701881547677985800,3.80398583984375,-0.9000003933906555,-9.994521141052246,0.043968115001916885
1701881547687578400,3.813578369140625,-0.8832506537437439,-9.975079536437988,0.03200400248169899
1701881547697172000,3.823171875,-0.88803631067276,-9.953543663024902,0.02961117960512638
1701881547706764500,3.8327646484375,-0.8928219676017761,-9.92243766784668,0.0008973084622994065
1701881547716356400,3.8423564453125,-0.88803631067276,-9.908080101013184,-0.0038883367087692022
1701881547725948700,3.85194873046875,-0.9071788787841797,-9.89850902557373,-0.0014955141814425588
1701881547735542300,3.861542236328125,-0.9311071038246155,-9.89850902557373,-0.0014955141814425588
1701881547745134800,3.871134765625,-0.9358927607536316,-9.900901794433594,0.022432712838053703
1701881547754726700,3.8807265625,-0.9382855892181396,-9.932008743286133,0.03439682722091675
1701881547764319200,3.8903193359375,-0.9454640746116638,-9.92243766784668,0.05832505226135254
1701881547773912600,3.89991259765625,-0.9526425004005432,-9.91286563873291,0.05832505226135254
1701881547783505200,3.909505126953125,-0.9598209857940674,-9.90568733215332,0.06311069428920746
1701881547793097000,3.919096923828125,-0.9526425004005432,-9.90568733215332,0.05832505226135254
1701881547802689500,3.928689453125,-0.9406784176826477,-9.91286563873291,0.043968115001916885
1701881547812283000,3.938282958984375,-0.921535849571228,-9.903294563293457,0.03439682722091675
1701881547821875500,3.94787548828125,-0.9358927607536316,-9.89133071899414,0.017647067084908485
1701881547831467300,3.95746728515625,-0.976570725440979,-9.900901794433594,0.02961117960512638
1701881547841059800,3.967059814453125,-0.9861420392990112,-9.915258407592773,0.046360939741134644
1701881547850653200,3.976653076171875,-1.0004990100860596,-9.903294563293457,0.024825535714626312
1701881547860245800,3.986245849609375,-0.9909276962280273,-9.893723487854004,0.03200400248169899
1701881547869837600,3.995837646484375,-1.0028917789459229,-9.886545181274414,0.02961117960512638
1701881547879430100,4.00543017578125,-1.007677435874939,-9.90568733215332,0.03918246924877167
1701881547889023500,4.0150234375,-1.0028917789459229,-9.915258407592773,0.03918246924877167
1701881547898616000,4.024615966796875,-0.9981061220169067,-9.917651176452637,0.05593222752213478
1701881547908207900,4.034207763671875,-0.9837492108345032,-9.920044898986816,0.0894317477941513
1701881547917800400,4.043800537109375,-0.9789635539054871,-9.908080101013184,0.12053844332695007
1701881547927393800,4.053393798828125,-0.9406784176826477,-9.89850902557373,0.11814561486244202
1701881547936986400,4.062986328125,-0.9311071038246155,-9.893723487854004,0.10618150234222412
1701881547946578200,4.072578125,-0.9406784176826477,-9.893723487854004,0.1013958603143692
1701881547956170800,4.082170654296875,-0.9478568434715271,-9.915258407592773,0.07986045628786087
1701881547965764400,4.091764404296875,-0.9598209857940674,-9.91286563873291,0.05593222752213478
1701881547975356700,4.101356689453125,-0.9382855892181396,-9.94397258758545,0.046360939741134644
1701881547984948500,4.110948486328125,-0.9263214468955994,-9.984950065612793,0.012861421331763268
1701881547994541300,4.120541259765625,-0.9000003933906555,-9.999306678771973,0.008075776509940624
1701881548004134700,4.130134765625,-0.8665009140968323,-9.99691390991211,-0.01824527233839035
1701881548013727200,4.139727294921875,-0.8784649968147278,-9.992128372192383,-0.049651071429252625
1701881548023318800,4.14931884765625,-0.885643482208252,-9.977771759033203,-0.052043892443180084
1701881548032911600,4.15891162109375,-0.8736793398857117,-9.960722923278809,-0.07597211748361588
1701881548042505000,4.1685048828125,-0.8497511148452759,-9.939187049865723,-0.09032905846834183
1701881548052097500,4.17809765625,-0.8042874932289124,-9.92243766784668,-0.09511470049619675
1701881548061689300,4.187689453125,-0.7851449251174927,-9.89133071899414,-0.06640082597732544
1701881548071282000,4.197281982421875,-0.8138588070869446,-9.874580383300781,-0.054436713457107544
1701881548080875300,4.206875244140625,-0.8641080856323242,-9.876974105834961,-0.06400800496339798
1701881548090467800,4.2164677734375,-0.8712865710258484,-9.893723487854004,-0.07836493849754333
1701881548100059600,4.2260595703125,-0.8377870321273804,-9.920044898986816,-0.10229317098855972
1701881548109652200,4.23565234375,-0.8377870321273804,-9.939187049865723,-0.09990034252405167
1701881548119245600,4.24524560546875,-0.8114659786224365,-9.94397258758545,-0.15732808411121368
1701881548128838100,4.254838134765625,-0.8042874932289124,-9.94397258758545,-0.19322042167186737
1701881548138430000,4.264429931640625,-0.8377870321273804,-9.934401512145996,-0.23389841616153717
1701881548148022500,4.2740224609375,-0.7133602499961853,-9.948758125305176,-0.20757736265659332
1701881548157615900,4.283615966796875,-0.6248258352279663,-9.980164527893066,-0.1621137410402298
1701881548167208400,4.29320849609375,-0.6990033388137817,-9.992128372192383,-0.20039889216423035
1701881548176800300,4.30280029296875,-0.7468597888946533,-10.008877754211426,-0.2267199456691742
1701881548186392800,4.312392822265625,-0.7540382146835327,-10.006484985351562,-0.28654050827026367
1701881548195986200,4.321986083984375,-0.701396107673645,-9.994521141052246,-0.3607180118560791
1701881548205578800,4.331578857421875,-0.7061817646026611,-9.970293998718262,-0.3655036687850952
1701881548215170600,4.341170654296875,-0.643968403339386,-9.963115692138672,-0.3655036687850952
1701881548224763100,4.35076318359375,-0.5599204897880554,-9.958329200744629,-0.3487538993358612
1701881548234356700,4.360356689453125,-0.48813581466674805,-9.924830436706543,-0.39421752095222473
1701881548243949000,4.369948974609375,-0.3684946894645691,-9.93679428100586,-0.40378883481025696
1701881548253540900,4.379540771484375,-0.275174617767334,-9.860223770141602,-0.4325026869773865
1701881548263133400,4.389133544921875,-0.21774685382843018,-9.78126049041748,-0.47557350993156433
1701881548272727000,4.39872705078125,-0.1986042857170105,-9.742975234985352,-0.5401797294616699
1701881548282319400,4.4083193359375,-0.2225325107574463,-9.721440315246582,-0.5760720372200012
1701881548291911400,4.417911376953125,-0.2632105052471161,-9.742975234985352,-0.5928218364715576
1701881548301503700,4.427503662109375,-0.2727817893028259,-9.764511108398438,-0.5928218364715576
1701881548311097300,4.437097412109375,-0.3326023519039154,-9.759725570678711,-0.6002993583679199
1701881548320689700,4.446689697265625,-0.30628129839897156,-9.745368003845215,-0.636191725730896
1701881548330281700,4.45628173828125,-0.28235307335853577,-9.77408218383789,-0.6505486369132996
1701881548339874300,4.465874267578125,-0.22492532432079315,-9.8267240524292,-0.667298436164856
1701881548349467600,4.475467529296875,-0.12442677468061447,-9.838688850402832,-0.6816553473472595
1701881548359060200,4.485060302734375,-0.021236300468444824,-9.900901794433594,-0.6457630395889282
1701881548368652000,4.494652099609375,0.15104693174362183,-9.872187614440918,-0.7845467329025269
1701881548378244600,4.50424462890625,0.3089732229709625,-9.939187049865723,-0.844367265701294
1701881548387838000,4.513837890625,0.39032918214797974,-9.958329200744629,-0.9376873970031738
1701881548397430500,4.523430419921875,0.37836506962776184,-9.970293998718262,-1.064507007598877
1701881548407022300,4.533022216796875,0.2682952284812927,-10.047163009643555,-1.1434701681137085
1701881548416615000,4.542614990234375,0.2946162819862366,-10.164411544799805,-1.2346965074539185
1701881548426208300,4.552208251953125,0.39511483907699585,-10.097412109375,-1.526620864868164
1701881548435800800,4.56180078125,0.4381856322288513,-9.934401512145996,-1.9145572185516357
1701881548445392600,4.571392578125,0.4573282301425934,-9.776474952697754,-2.153839588165283
1701881548454985200,4.580985107421875,0.4980062246322632,-9.678369522094727,-2.256730794906616
1701881548464578600,4.59057861328125,0.5171487927436829,-9.723833084106445,-2.168196439743042
1701881548474171100,4.600171142578125,0.4453641176223755,-9.876974105834961,-1.8810577392578125
1701881548483763000,4.609762939453125,0.24197418987751007,-9.93679428100586,-1.5625132322311401
1701881548493355500,4.61935546875,0.04576273262500763,-10.073484420776367,-1.3878371715545654
1701881548502948900,4.628948974609375,-0.07417750358581543,-10.135697364807129,-1.3519448041915894
1701881548512541400,4.63854150390625,-0.09571290761232376,-10.219446182250977,-1.3040883541107178
1701881548522133200,4.64813330078125,-0.04307080805301666,-10.152447700500488,-1.4213366508483887
1701881548531725800,4.657725830078125,0.057726845145225525,-9.975079536437988,-1.802094578742981
1701881548541319400,4.6673193359375,0.20847466588020325,-9.778867721557617,-2.2758734226226807
1701881548550911700,4.676911865234375,0.26590242981910706,-9.721440315246582,-2.441277265548706
1701881548560503600,4.686503662109375,0.30179476737976074,-10.049555778503418,-2.324028968811035
1701881548570096000,4.69609619140625,0.41186460852622986,-10.465907096862793,-2.1562323570251465
1701881548579689700,4.705689697265625,0.25393831729888916,-10.753344535827637,-1.9265213012695312
1701881548589282300,4.7152822265625,0.11036894470453262,-10.839486122131348,-1.7303098440170288
1701881548598873900,4.724873779296875,-0.059820566326379776,-10.73420238494873,-1.5744773149490356
1701881548608466400,4.734466552734375,-0.2679961323738098,-10.434800148010254,-1.423729419708252
1701881548618060000,4.74406005859375,-0.5072783827781677,-10.063913345336914,-1.301695466041565
1701881548627652600,4.753652587890625,-0.7372884750366211,-9.659226417541504,-1.0668997764587402
1701881548637244400,4.763244384765625,-0.921535849571228,-9.467801094055176,-1.6199408769607544
1701881548646837000,4.7728369140625,-0.576670229434967,-9.477372169494629,-1.9719849824905396
1701881548656430300,4.782430419921875,-0.766002357006073,-9.422337532043457,-1.4452649354934692
1701881548666023000,4.79202294921875,-0.6607181429862976,-10.159626007080078,-0.08793623000383377
1701881548675614700,4.80161474609375,-0.8353942036628723,-10.43958568572998,-2.572882652282715
1701881548685207300,4.811207275390625,-0.1986042857170105,-10.801201820373535,-2.3575284481048584
1701881548694800600,4.820800537109375,-0.4977070987224579,-10.803594589233398,-0.968794047832489
1701881548704393200,4.830393310546875,-0.4139583110809326,-10.360623359680176,-0.3152543902397156
1701881548713985000,4.839985107421875,-0.26560330390930176,-10.145268440246582,-0.25304099917411804
1701881548723577600,4.84957763671875,-0.16510476171970367,-10.32473087310791,-0.1860419660806656
1701881548733171000,4.8591708984375,-0.23688943684101105,-10.473085403442383,-0.5593222975730896
1701881548742763500,4.868763427734375,-0.00687936507165432,-10.305587768554688,-0.9855438470840454
1701881548752355300,4.878355224609375,0.3568296730518341,-10.451550483703613,-1.179661512374878
1701881548761948000,4.887947998046875,0.6849454641342163,-10.430014610290527,-1.2083754539489746
1701881548771541200,4.897541259765625,0.5437689423561096,-10.581061363220215,-1.0453643798828125
1701881548781133800,4.9071337890625,0.47647079825401306,-10.303194999694824,-0.9376873970031738
1701881548790725600,4.9167255859375,0.3113660514354706,-10.049555778503418,-0.9161519408226013
1701881548800318200,4.926318115234375,0.20608185231685638,-9.204291343688965,-0.9281160831451416
1701881548809911600,4.93591162109375,-0.08374879509210587,-8.550751686096191,-0.9329017400741577
1701881548819504000,4.945504150390625,-0.39481574296951294,-8.174779891967773,-1.0668997764587402
1701881548829096000,4.955095947265625,-0.5479564070701599,-8.390432357788086,-1.196411371231079
1701881548838688500,4.9646884765625,-0.40677985548973083,-8.543573379516602,-1.5409778356552124
1701881548848281900,4.97428173828125,-0.10049854964017868,-8.06949520111084,-1.7446668148040771
1701881548857874400,4.98387451171875,-0.20817556977272034,-7.9713897705078125,-1.9648064374923706
1701881548867466200,4.99346630859375,0.07926224917173386,-8.397610664367676,-2.0461623668670654
1701881548877058800,5.003058837890625,0.7830511927604675,-8.749356269836426,-1.9360926151275635
1701881548886652400,5.01265234375,1.0079765319824219,-8.428717613220215,-1.8140586614608765
1701881548896244700,5.02224462890625,0.8333004713058472,-8.799605369567871,-1.5170495510101318
1701881548905836500,5.03183642578125,1.0295119285583496,-8.950652122497559,-1.368694543838501
1701881548915429400,5.041429443359375,0.4453641176223755,-8.493324279785156,-1.5002998113632202
1701881548925022700,5.051022705078125,-0.08853443711996078,-8.615358352661133,-1.8092730045318604
1701881548934615300,5.060615234375,-0.11246266216039658,-8.933902740478516,-2.1897318363189697
1701881548944207000,5.07020703125,-0.03798605874180794,-8.895617485046387,-2.4508485794067383
1701881548953799700,5.079799560546875,0.1701895147562027,-8.641678810119629,-2.424527645111084
1701881548963393000,5.08939306640625,0.34247273206710815,-8.711071014404297,-2.4053850173950195
1701881548972985600,5.098985595703125,0.34247273206710815,-8.91236686706543,-2.3742783069610596
1701881548982577400,5.108577392578125,0.4812564551830292,-9.460622787475586,-2.1873390674591064
1701881548992170000,5.118169921875,0.5533402562141418,-10.039984703063965,-1.893021821975708
1701881549001763300,5.127763427734375,0.8476574420928955,-10.272088050842285,-1.8284156322479248
1701881549011356000,5.13735595703125,1.1566306352615356,-10.286445617675781,-1.8810577392578125
1701881549020947700,5.14694775390625,1.3217353820800781,-9.441479682922363,-2.0150556564331055
1701881549030540300,5.156540283203125,1.1446665525436401,-9.640084266662598,-1.9121644496917725
1701881549040133600,5.166133544921875,0.893121063709259,-9.853045463562012,-1.8116658926010132
1701881549049726200,5.175726318359375,0.9122636318206787,-10.528120994567871,-1.5864413976669312
1701881549059318000,5.185318115234375,0.7447660565376282,-10.492228507995605,-1.5409778356552124
1701881549068910600,5.19491064453125,0.6131607890129089,-10.255338668823242,-1.4165509939193726
1701881549078504000,5.20450390625,0.7016952633857727,-10.801201820373535,-1.1940184831619263
1701881549088096500,5.214096435546875,0.6825526356697083,-8.131709098815918,-0.9185447692871094
1701881549097688300,5.223688232421875,0.10797612369060516,-9.091828346252441,-1.119541883468628
1701881549107281000,5.233281005859375,0.6059823632240295,-8.529216766357422,-0.8132606148719788
1701881549116874500,5.24287451171875,-0.004486542660742998,-8.282456398010254,-0.35114672780036926
1701881549126466800,5.252466796875,-0.03798605874180794,-8.318648338317871,-0.032602209597826004
1701881549136058600,5.26205859375,-0.3326023519039154,-10.415657997131348,-0.14297115802764893
1701881549145651200,5.271651123046875,-0.07657032459974289,-8.493324279785156,-0.03768695518374443
1701881549155244800,5.281244873046875,-0.14835500717163086,-10.245767593383789,-0.5066801905632019
1701881549164837000,5.290837158203125,-0.11964113265275955,-7.794320583343506,-0.5497509837150574
1701881549174429200,5.30042919921875,-0.2679961323738098,-9.44626522064209,-1.1410772800445557
1701881549184021500,5.310021484375,0.10079765319824219,-9.747760772705078,-0.9640084505081177
1701881549193615000,5.319614990234375,0.17976079881191254,-8.6033935546875,-0.6074778437614441
1701881549203207400,5.32920751953125,-0.612861692905426,-9.867402076721191,-1.0740783214569092
1701881549212799500,5.338799560546875,-0.5120640397071838,-11.454741477966309,-1.3591232299804688
1701881549222392000,5.34839208984375,0.3209373354911804,-9.807581901550293,-0.267397940158844
1701881549231985400,5.3579853515625,0.2108674943447113,-8.210671424865723,0.5009972453117371
1701881549241578000,5.367577880859375,-0.37806597352027893,-9.575477600097656,0.29042884707450867
1701881549251169800,5.377169677734375,-0.46420758962631226,-10.281660079956055,0.3167499005794525
1701881549260762400,5.386762451171875,-0.4713860750198364,-10.643275260925293,0.5300102233886719
1701881549270355700,5.396355712890625,-0.5216353535652161,-10.080662727355957,1.01814603805542
1701881549279948300,5.4059482421875,-0.6511468887329102,-7.569096088409424,1.32711923122406
1701881549289540000,5.4155400390625,-1.1249257326126099,-9.742975234985352,0.8506484627723694
1701881549299132700,5.425132568359375,-1.4243277311325073,-10.08305549621582,0.8171489238739014
1701881549308726000,5.43472607421875,-1.7066807746887207,-10.06152057647705,1.022931694984436
1701881549318318600,5.444318603515625,-1.8744773864746094,-10.499406814575195,1.0875378847122192
1701881549327910400,5.453910400390625,-1.9414764642715454,-10.74855899810791,0.9774680733680725
1701881549337503000,5.4635029296875,-2.044367790222168,-10.817951202392578,1.0061819553375244
1701881549347096300,5.473096435546875,-2.2597219944000244,-10.846665382385254,1.1165509223937988
1701881549356689000,5.48268896484375,-2.606980323791504,-11.153244972229004,1.0492527484893799
1701881549366280700,5.49228076171875,-2.472982168197632,-10.805987358093262,1.5855441093444824
1701881549375873300,5.501873291015625,-2.7864420413970947,-10.628918647766113,1.6983058452606201
1701881549385466600,5.511466552734375,-2.8414769172668457,-10.73420238494873,1.9591234922409058
1701881549395059200,5.52105908203125,-2.7912275791168213,-10.834700584411621,2.1984057426452637
1701881549404651000,5.530651123046875,-2.7218358516693115,-10.894521713256836,2.4140589237213135
1701881549414243600,5.54024365234375,-2.7529425621032715,-10.84427261352539,2.629412889480591
1701881549423837200,5.549837158203125,-2.949453115463257,-10.762916564941406,2.785245656967163
1701881549433429500,5.559429443359375,-3.179163932800293,-10.700702667236328,2.8354947566986084
1701881549443021300,5.569021240234375,-3.3705897331237793,-10.576275825500488,2.739482879638672
1701881549452614000,5.57861376953125,-3.4881372451782227,-10.559526443481445,2.4690937995910645
1701881549462207500,5.58820751953125,-3.576671600341797,-10.532906532287598,2.155334949493408
1701881549471800000,5.597800048828125,-3.617349624633789,-10.513763427734375,1.9351953268051147
1701881549481391600,5.6073916015625,-3.648456335067749,-10.427621841430664,1.7988044023513794
1701881549490984400,5.616984375,-3.648456335067749,-10.303194999694824,1.688734531402588
1701881549500577800,5.626577880859375,-3.782454490661621,-10.20030403137207,1.7102699279785156
1701881549510170400,5.63617041015625,-3.8901314735412598,-10.123733520507812,1.755733609199524
1701881549519762200,5.64576220703125,-4.00528621673584,-10.011270523071289,1.7892330884933472
1701881549529354800,5.655354736328125,-4.100998878479004,-9.78843879699707,1.8203397989273071
1701881549538948000,5.664947998046875,-4.0818562507629395,-9.54915714263916,1.8658034801483154
1701881549548540700,5.674540771484375,-4.096213340759277,-9.35743236541748,1.8849459886550903
1701881549558132500,5.684132568359375,-4.151247978210449,-9.13729190826416,1.968694806098938
1701881549567725000,5.69372509765625,-4.038785457611084,-8.965008735656738,2.0644078254699707
1701881549577318400,5.703318359375,-4.065106391906738,-8.81396198272705,2.1361923217773438
1701881549586911000,5.712910888671875,-4.153641223907471,-8.763712882995605,2.2585253715515137
1701881549596502800,5.722502685546875,-4.234996795654297,-8.708678245544434,2.3733808994293213
1701881549606095400,5.732095458984375,-4.3881378173828125,-8.586644172668457,2.5313072204589844
1701881549615688700,5.741688720703125,-4.495814800262451,-8.507680892944336,2.6102705001831055
1701881549625281300,5.75128125,-4.567898273468018,-8.447860717773438,2.7586255073547363
1701881549634873000,5.760873046875,-4.60857629776001,-8.373682975769043,2.8977081775665283
1701881549644465700,5.770465576171875,-4.649254322052002,-8.297112464904785,3.0317063331604004
1701881549654059000,5.78005908203125,-4.646861553192139,-8.284849166870117,3.129812002182007
1701881549663651600,5.789651611328125,-4.72582483291626,-8.28724193572998,3.218346357345581
1701881549673243400,5.799243408203125,-4.6995038986206055,-8.1795654296875,3.2781670093536377
1701881549682836000,5.8088359375,-4.776073932647705,-8.067102432250977,3.3092737197875977
1701881549692429300,5.81842919921875,-4.7712883949279785,-7.8780694007873535,3.3308091163635254
1701881549702022000,5.82802197265625,-4.945964336395264,-7.892426490783691,3.412464141845703
1701881549711613700,5.83761376953125,-5.06082010269165,-7.796713352203369,3.4387853145599365
1701881549721206300,5.847206298828125,-5.214259624481201,-7.707880020141602,3.3741791248321533
1701881549730799600,5.856799560546875,-5.099404335021973,-7.547560691833496,3.852743625640869
1701881549740392200,5.86639208984375,-5.37697172164917,-7.40399169921875,3.725924015045166
1701881549749984000,5.87598388671875,-5.762515068054199,-7.415955543518066,3.891028642654419
1701881549759576600,5.88557666015625,-5.676373481750488,-7.360920429229736,3.9320058822631836
1701881549769170200,5.895170166015625,-5.867799282073975,-7.262814998626709,3.7235312461853027
1701881549778762500,5.904762451171875,-5.870192050933838,-7.179066181182861,3.965505361557007
1701881549788354300,5.914354248046875,-5.831906795501709,-7.16441011428833,4.142574310302734
1701881549797947100,5.923947021484375,-5.932405471801758,-6.626025199890137,3.927220106124878
1701881549807540500,5.93354052734375,-6.119045734405518,-6.537191390991211,3.9320058822631836
1701881549817133000,5.943133056640625,-5.812764644622803,-6.664309978485107,4.267001152038574
1701881549826724900,5.952724853515625,-6.27487850189209,-6.216553211212158,3.951148271560669
1701881549836317400,5.9623173828125,-6.209972858428955,-6.137589931488037,4.015754699707031
1701881549845910800,5.971910888671875,-6.119045734405518,-6.051448345184326,4.168895244598389
1701881549855503400,5.98150341796875,-6.174080848693848,-5.988935947418213,4.18564510345459
1701881549865095200,5.99109521484375,-6.049654006958008,-5.921936988830566,4.405784606933594
1701881549874687700,6.000687744140625,-6.056832313537598,-5.996114253997803,4.243072986602783
1701881549884281000,6.010281005859375,-5.84865665435791,-6.144768714904785,4.286143779754639
1701881549893873700,6.019873779296875,-5.666802406311035,-6.183053493499756,4.377070903778076
1701881549903465500,6.029465576171875,-5.5229339599609375,-6.199803352355957,4.424927234649658
1701881549913058000,6.03905810546875,-5.554040431976318,-6.151947021484375,4.319643020629883
1701881549922651400,6.0486513671875,-5.7170515060424805,-6.10169792175293,4.24785852432251
1701881549932244000,6.058243896484375,-5.84147834777832,-6.135197162628174,4.243072986602783
1701881549941835800,6.067835693359375,-5.949155330657959,-6.147161483764648,4.228715896606445
1701881549951428400,6.077428466796875,-6.145366668701172,-6.214160442352295,4.412963390350342
1701881549961021700,6.087021728515625,-6.349055767059326,-6.364908218383789,4.4946184158325195
1701881549970614300,6.0966142578125,-6.320342063903809,-6.5252275466918945,4.597509384155273
1701881549980206000,6.1062060546875,-6.267699718475342,-6.6954169273376465,4.803292274475098
1701881549989798700,6.115798583984375,-6.164509296417236,-6.76002311706543,4.743471622467041
1701881549999392300,6.125392333984375,-6.109474182128906,-6.819843769073486,5.016552448272705
1701881550008984600,6.134984619140625,-6.023332595825195,-6.69063138961792,5.054837703704834
1701881550018576400,6.144576416015625,-5.894120216369629,-6.669095993041992,5.0356950759887695
1701881550028169000,6.1541689453125,-5.676373481750488,-6.731309413909912,4.946861743927002
1701881550037762600,6.163762451171875,-5.738586902618408,-6.467799663543701,5.100301265716553
1701881550047355000,6.17335498046875,-6.753442764282227,-6.681059837341309,4.405784606933594
1701881550056946700,6.18294677734375,-4.577469825744629,-6.137589931488037,5.574080467224121
1701881550066539300,6.192539306640625,-5.884549140930176,-5.8836517333984375,4.583152770996094
1701881550076132900,6.2021328125,-5.635396480560303,-5.775974750518799,4.695615291595459
1701881550085725200,6.21172509765625,-5.688337802886963,-5.80708122253418,4.693222522735596
1701881550095317200,6.221317138671875,-5.726622581481934,-5.86211633682251,4.631009101867676
1701881550104909600,6.23090966796875,-5.800800323486328,-5.967400550842285,4.614259243011475
1701881550114503200,6.240503173828125,-5.901298999786377,-6.008078575134277,4.614259243011475
1701881550124095700,6.250095703125,-5.896512985229492,-6.154339790344238,4.654937267303467
1701881550133687600,6.2596875,-5.851049423217773,-6.348158359527588,4.585545539855957
1701881550143280000,6.269280029296875,-5.870192050933838,-6.4319071769714355,4.506582260131836
1701881550152873500,6.27887353515625,-5.98026180267334,-6.486942291259766,4.453640937805176
1701881550162466000,6.288466064453125,-6.09751033782959,-6.527620315551758,4.439284324645996
1701881550172057900,6.298057861328125,-6.121438503265381,-6.489335060119629,4.492225646972656
1701881550181650400,6.307650390625,-6.080760478973389,-6.391229152679443,4.544867515563965
1701881550191243800,6.317243896484375,-5.96590518951416,-6.3840508460998535,4.559224605560303
1701881550200836400,6.32683642578125,-5.84865665435791,-6.367300987243652,4.578367233276367
1701881550210428200,6.33642822265625,-5.767300605773926,-6.307480335235596,4.6286163330078125
1701881550220020700,6.346020751953125,-5.671587944030762,-6.25723123550415,4.714757919311523
1701881550229614000,6.355614013671875,-5.628218173980713,-6.223731517791748,4.798506736755371
1701881550239206700,6.36520654296875,-5.5707902908325195,-6.1950178146362305,4.858327388763428
1701881550248798500,6.374798583984375,-5.506184101104736,-6.180660724639893,4.910969257354736
1701881550258391000,6.38439111328125,-5.482255935668945,-6.209374904632568,4.954040050506592
1701881550267984400,6.393984375,-5.436792373657227,-6.3529438972473145,5.009075164794922
1701881550277577000,6.403576904296875,-5.470291614532471,-6.393621921539307,5.006682395935059
1701881550287168800,6.413168701171875,-5.482255935668945,-6.403193473815918,4.980361461639404
1701881550296761300,6.42276123046875,-5.5157551765441895,-6.405586242675781,4.910969257354736
1701881550306354700,6.432354736328125,-5.558825969696045,-6.379265308380127,4.85114860534668
1701881550315947300,6.441947265625,-5.6018967628479,-6.372086524963379,4.7626142501831055
1701881550325539000,6.4515390625,-5.616253852844238,-6.491727828979492,4.71954345703125
1701881550335131600,6.461131591796875,-5.676373481750488,-6.544369697570801,4.683651447296143
1701881550344725200,6.470725341796875,-5.757729530334473,-6.561119556427002,4.669294357299805
1701881550354317600,6.480317626953125,-5.812764644622803,-6.51326322555542,4.662116050720215
1701881550363909400,6.489909423828125,-5.851049423217773,-6.51326322555542,4.664508819580078
1701881550373502000,6.499501953125,-5.843871116638184,-6.477370738983154,4.736293315887451
1701881550383095600,6.509095458984375,-5.793622016906738,-6.436692714691162,4.772185802459717
1701881550392688000,6.518688232421875,-5.750551223754883,-6.391229152679443,4.78893518447876
1701881550402279700,6.52827978515625,-5.757729530334473,-6.25723123550415,4.702793598175049
1701881550411872500,6.53787255859375,-5.72422981262207,-6.293123722076416,4.757828712463379
1701881550421465900,6.5474658203125,-5.6859450340271,-6.376872539520264,4.729115009307861
1701881550431058400,6.557058349609375,-5.621039390563965,-6.441478729248047,4.695615291595459
1701881550440650200,6.566650146484375,-5.628218173980713,-6.439085960388184,4.659722805023193
1701881550450242800,6.576242919921875,-5.621039390563965,-6.4510498046875,4.645366191864014
1701881550459836200,6.585836181640625,-5.690730571746826,-6.429514408111572,4.6525444984436035
1701881550469428700,6.5954287109375,-5.757729530334473,-6.427121639251709,4.638187408447266
1701881550479020500,6.6050205078125,-5.78644323348999,-6.4510498046875,4.654937267303467
1701881550488613000,6.614613037109375,-5.798407554626465,-6.474977970123291,4.6764726638793945
1701881550498206500,6.62420654296875,-5.815157413482666,-6.39601469039917,4.65733003616333
1701881550507799000,6.633799072265625,-5.774479389190674,-6.441478729248047,4.753043174743652
1701881550517390800,6.643390869140625,-5.688337802886963,-6.486942291259766,4.726722240447998
1701881550526983400,6.6529833984375,-5.66201639175415,-6.467799663543701,4.71236515045166
1701881550536576800,6.66257666015625,-5.621039390563965,-6.482156753540039,4.698008060455322
1701881550546169300,6.67216943359375,-5.580361366271973,-6.460621356964111,4.662116050720215
1701881550555761200,6.68176123046875,-5.554040431976318,-6.491727828979492,4.635794639587402
1701881550565353700,6.691353759765625,-5.558825969696045,-6.503692150115967,4.609473705291748
1701881550574947000,6.700947021484375,-5.5707902908325195,-6.551548480987549,4.6046881675720215
1701881550584539600,6.71053955078125,-5.5947184562683105,-6.597012042999268,4.583152770996094
1701881550594131500,6.72013134765625,-5.5947184562683105,-6.681059837341309,4.6286163330078125
1701881550603724000,6.72972412109375,-5.6330037117004395,-6.661917209625244,4.621438026428223
1701881550613317400,6.7393173828125,-5.630610942840576,-6.664309978485107,4.619044780731201
1701881550622910000,6.748909912109375,-5.606682777404785,-6.63559627532959,4.619044780731201
1701881550632501800,6.758501708984375,-5.604289531707764,-6.614060878753662,4.602295398712158
1701881550642094300,6.76809423828125,-5.628218173980713,-6.573083877563477,4.573581218719482
1701881550651688000,6.77768798828125,-5.695516109466553,-6.372086524963379,4.432105541229248
1701881550661280300,6.7872802734375,-5.721837043762207,-6.439085960388184,4.530510425567627
1701881550670872000,6.7968720703125,-5.673980712890625,-6.515655994415283,4.497011184692383
1701881550680464600,6.806464599609375,-5.714658737182617,-6.496513366699219,4.4946184158325195
1701881550690058200,6.816058349609375,-5.760122299194336,-6.558726787567139,4.499403953552246
1701881550699650600,6.825650634765625,-5.776872158050537,-6.551548480987549,4.499403953552246
1701881550709242600,6.83524267578125,-5.817550182342529,-6.604190349578857,4.535296440124512
1701881550718835200,6.844835205078125,-5.836692810058594,-6.654738903045654,4.537689208984375
1701881550728428500,6.854428466796875,-5.803193092346191,-6.721737861633301,4.571188449859619
1701881550738021000,6.864021240234375,-5.767300605773926,-6.714559555053711,4.537689208984375
1701881550747613000,6.873613037109375,-5.750551223754883,-6.652346134185791,4.5185465812683105
1701881550757205500,6.88320556640625,-5.700301647186279,-6.661917209625244,4.501796722412109
1701881550766798800,6.892798828125,-5.6859450340271,-6.618846416473389,4.480261325836182
1701881550776391400,6.902391357421875,-5.647360324859619,-6.640381813049316,4.497011184692383
1701881550785983200,6.911983154296875,-5.618646621704102,-6.645167350769043,4.485046863555908
1701881550795575800,6.921575927734375,-5.585147380828857,-6.640381813049316,4.473083019256592
1701881550805169200,6.931169189453125,-5.587540149688721,-6.63559627532959,4.489832401275635
1701881550814761700,6.94076171875,-5.575575828552246,-6.630810737609863,4.485046863555908
1701881550824353500,6.950353515625,-5.577968597412109,-6.649953365325928,4.504189491271973
1701881550833946000,6.959946044921875,-5.558825969696045,-6.63559627532959,4.506582260131836
1701881550843539500,6.96953955078125,-5.549254894256592,-6.688238620758057,4.568795680999756
1701881550853132000,6.979132080078125,-5.549254894256592,-6.681059837341309,4.566402912139893
1701881550862723800,6.988723876953125,-5.544469356536865,-6.666703224182129,4.602295398712158
1701881550872316400,6.99831640625,-5.549254894256592,-6.6714887619018555,4.597509384155273
1701881550881909800,7.00790966796875,-5.566004753112793,-6.678667068481445,4.638187408447266
1701881550891502300,7.01750244140625,-5.587540149688721,-6.676274299621582,4.664508819580078
1701881550901094100,7.02709423828125,-5.623432159423828,-6.594619274139404,4.674079895019531
1701881550910686700,7.036686767578125,-5.5947184562683105,-6.685845375061035,4.709972381591797
1701881550920280300,7.0462802734375,-5.616253852844238,-6.637989044189453,4.717150688171387
1701881550929872600,7.05587255859375,-5.577968597412109,-6.611668109893799,4.695615291595459
1701881550939464400,7.06546435546875,-5.561218738555908,-6.623631954193115,4.709972381591797
1701881550949057000,7.07505712890625,-5.549254894256592,-6.633203506469727,4.70518684387207
1701881550958650600,7.084650634765625,-5.56361198425293,-6.630810737609863,4.690829753875732
1701881550968243000,7.094242919921875,-5.5707902908325195,-6.616453647613525,4.647758960723877
1701881550977834800,7.103834716796875,-5.575575828552246,-6.616453647613525,4.638187408447266
1701881550987427300,7.11342724609375,-5.599503993988037,-6.623631954193115,4.611866474151611
1701881550997021000,7.12302099609375,-5.630610942840576,-6.618846416473389,4.590331077575684
1701881551006613500,7.132613525390625,-5.652445316314697,-6.621239185333252,4.578367233276367
1701881551016205300,7.142205322265625,-5.6548380851745605,-6.594619274139404,4.568795680999756
1701881551025797600,7.151797607421875,-5.647360324859619,-6.561119556427002,4.564010143280029
1701881551035391200,7.16139111328125,-5.644967555999756,-6.5874409675598145,4.5568318367004395
1701881551044983800,7.17098388671875,-5.664409637451172,-6.57547664642334,4.537689208984375
1701881551054575600,7.18057568359375,-5.664409637451172,-6.57547664642334,4.540081977844238
1701881551064168200,7.190168212890625,-5.652445316314697,-6.558726787567139,4.520939350128174
1701881551073761500,7.199761474609375,-5.6548380851745605,-6.539584159851074,4.504189491271973
1701881551083354000,7.20935400390625,-5.66201639175415,-6.530013084411621,4.473083019256592
1701881551092946000,7.21894580078125,-5.671587944030762,-6.532405853271484,4.477868556976318
1701881551102538500,7.22853857421875,-5.700301647186279,-6.503692150115967,4.446462631225586
1701881551112131800,7.2381318359375,-5.709873199462891,-6.484549522399902,4.415356159210205
1701881551121724400,7.247724365234375,-5.731408596038818,-6.4941205978393555,4.3794636726379395
1701881551131316200,7.257316162109375,-5.750551223754883,-6.510870456695557,4.367499351501465
1701881551140908800,7.26690869140625,-5.796014785766602,-6.5180487632751465,4.307679176330566
1701881551150502100,7.276502197265625,-5.824728488922119,-6.544369697570801,4.314857482910156
1701881551160094700,7.2860947265625,-5.872584819793701,-6.58265495300293,4.302893161773682
1701881551169686500,7.2956865234375,-5.872584819793701,-6.601797580718994,4.288536548614502
1701881551179279000,7.305279052734375,-5.8821563720703125,-6.640381813049316,4.283750534057617
1701881551188872400,7.31487255859375,-5.870192050933838,-6.652346134185791,4.300500392913818
1701881551198465000,7.324465087890625,-5.860620975494385,-6.6714887619018555,4.324428558349609
1701881551208056800,7.334056884765625,-5.819942951202393,-6.666703224182129,4.3411784172058105
1701881551217649400,7.3436494140625,-5.781657695770264,-6.611668109893799,4.353142738342285
1701881551227242800,7.35324267578125,-5.752943992614746,-6.577869415283203,4.377070903778076
1701881551236835300,7.36283544921875,-5.729015827178955,-6.580262184143066,4.4033918380737305
1701881551246427100,7.37242724609375,-5.709873199462891,-6.573083877563477,4.417748928070068
1701881551256019700,7.382019775390625,-5.678766250610352,-6.56829833984375,4.439284324645996
1701881551265613300,7.39161328125,-5.671587944030762,-6.56829833984375,4.465904235839844
1701881551275205600,7.40120556640625,-5.683551788330078,-6.565905570983887,4.4874396324157715
1701881551284797400,7.41079736328125,-5.673980712890625,-6.563512325286865,4.4874396324157715
1701881551294390000,7.42039013671875,-5.681159019470215,-6.580262184143066,4.485046863555908
1701881551303983600,7.429983642578125,-5.705087184906006,-6.585047721862793,4.482654094696045
1701881551313576200,7.439576171875,-5.721837043762207,-6.623631954193115,4.473083019256592
1701881551323167700,7.449167724609375,-5.700301647186279,-6.63559627532959,4.4874396324157715
1701881551332760600,7.458760498046875,-5.683551788330078,-6.608976364135742,4.485046863555908
1701881551342354000,7.46835400390625,-5.6859450340271,-6.58265495300293,4.497011184692383
1701881551351946500,7.477946533203125,-5.676373481750488,-6.563512325286865,4.485046863555908
1701881551361538300,7.487538330078125,-5.688337802886963,-6.556334018707275,4.461118698120117
1701881551371131000,7.497130859375,-5.697908878326416,-6.563512325286865,4.4635114669799805
1701881551380724200,7.50672412109375,-5.719444274902344,-6.561119556427002,4.4512481689453125
1701881551390316800,7.51631689453125,-5.714658737182617,-6.561119556427002,4.465904235839844
1701881551399908600,7.52590869140625,-5.714658737182617,-6.56829833984375,4.453640937805176
1701881551409501200,7.535501220703125,-5.697908878326416,-6.56829833984375,4.461118698120117
1701881551419094500,7.545094482421875,-5.700301647186279,-6.577869415283203,4.4512481689453125
1701881551428687000,7.55468701171875,-5.709873199462891,-6.580262184143066,4.436891555786133
1701881551438279000,7.56427880859375,-5.697908878326416,-6.594619274139404,4.4512481689453125
1701881551447871500,7.57387158203125,-5.695516109466553,-6.599404811859131,4.448855400085449
1701881551457464800,7.58346484375,-5.702694416046143,-6.601797580718994,4.477868556976318
1701881551467057400,7.593057373046875,-5.719444274902344,-6.604190349578857,4.475475788116455
1701881551476649200,7.602649169921875,-5.714658737182617,-6.604190349578857,4.482654094696045
1701881551486241800,7.61224169921875,-5.709873199462891,-6.601797580718994,4.480261325836182
1701881551495835100,7.621835205078125,-5.702694416046143,-6.58265495300293,4.489832401275635
1701881551505427700,7.631427734375,-5.709873199462891,-6.56829833984375,4.4874396324157715
1701881551515019500,7.64101953125,-5.695516109466553,-6.56829833984375,4.485046863555908
1701881551524612000,7.650612060546875,-5.690730571746826,-6.57547664642334,4.485046863555908
1701881551534205700,7.660205810546875,-5.669195175170898,-6.585047721862793,4.47068977355957
1701881551543798000,7.669798095703125,-5.666802406311035,-6.604190349578857,4.480261325836182
1701881551553389800,7.679389892578125,-5.666802406311035,-6.614060878753662,4.4946184158325195
1701881551562982400,7.688982421875,-5.688337802886963,-6.626025199890137,4.4946184158325195
1701881551572576000,7.698575927734375,-5.688337802886963,-6.640381813049316,4.497011184692383
1701881551582168300,7.708168212890625,-5.697908878326416,-6.659524440765381,4.506582260131836
1701881551591760400,7.717760498046875,-5.709873199462891,-6.6475605964660645,4.53290319442749
1701881551601352700,7.727352783203125,-5.731408596038818,-6.623631954193115,4.523332118988037
1701881551610946300,7.7369462890625,-5.705087184906006,-6.589833736419678,4.516153812408447
1701881551620538600,7.74653857421875,-5.690730571746826,-6.594619274139404,4.499403953552246
1701881551630130700,7.756130615234375,-5.678766250610352,-6.577869415283203,4.4946184158325195
1701881551639723300,7.76572314453125,-5.664409637451172,-6.561119556427002,4.485046863555908
1701881551649316600,7.775316650390625,-5.640182018280029,-6.5252275466918945,4.4874396324157715
1701881551658909200,7.7849091796875,-5.669195175170898,-6.515655994415283,4.47068977355957
1701881551668501000,7.7945009765625,-5.659623622894287,-6.553941249847412,4.480261325836182
1701881551678093600,7.804093505859375,-5.666802406311035,-6.570691108703613,4.485046863555908
1701881551687687000,7.81368701171875,-5.705087184906006,-6.58265495300293,4.499403953552246
1701881551697279500,7.823279541015625,-5.719444274902344,-6.597012042999268,4.537689208984375
1701881551706871300,7.832871337890625,-5.731408596038818,-6.604190349578857,4.540081977844238
1701881551716463900,7.8424638671875,-5.748157978057861,-6.594619274139404,4.549653053283691
1701881551726057200,7.85205712890625,-5.721837043762207,-6.63559627532959,4.544867515563965
1701881551735649800,7.86164990234375,-5.714658737182617,-6.62841796875,4.559224605560303
1701881551745241600,7.87124169921875,-5.683551788330078,-6.616453647613525,4.554438591003418
1701881551754834200,7.880834228515625,-5.659623622894287,-6.589833736419678,4.530510425567627
1701881551764427500,7.890427490234375,-5.341079235076904,-6.681059837341309,4.446462631225586
1701881551774020000,7.90002001953125,-5.714658737182617,-6.577869415283203,4.599902629852295
1701881551783612000,7.90961181640625,-5.705087184906006,-6.508477687835693,4.489832401275635
1701881551793204500,7.91920458984375,-5.673980712890625,-6.510870456695557,4.53290319442749
1701881551802797800,7.9287978515625,-5.640182018280029,-6.50608491897583,4.571188449859619
1701881551812390400,7.938390380859375,-5.6548380851745605,-6.498906135559082,4.623830795288086
1701881551821982200,7.947982177734375,-5.669195175170898,-6.5180487632751465,4.64297342300415
1701881551831574800,7.95757470703125,-5.664409637451172,-6.553941249847412,4.65015172958374
1701881551841168400,7.96716845703125,-5.652445316314697,-6.594619274139404,4.736293315887451
1701881551850760700,7.9767607421875,-5.647360324859619,-6.618846416473389,4.745864391326904
1701881551860352500,7.9863525390625,-5.6018967628479,-6.637989044189453,4.767399787902832
1701881551869945000,7.995945068359375,-5.56361198425293,-6.659524440765381,4.779364109039307
1701881551879538700,8.00553857421875,-5.527719497680664,-6.700202465057373,4.77457857131958
1701881551889131300,8.01513134765625,-5.494219779968262,-6.7049880027771,4.78893518447876
1701881551898722800,8.024722900390625,-5.475077152252197,-6.664309978485107,4.820042133331299
1701881551908315400,8.0343154296875,-5.503791332244873,-6.616453647613525,4.724328994750977
1701881551917909000,8.043908935546876,-5.549254894256592,-6.611668109893799,4.583152770996094
1701881551927501600,8.05350146484375,-5.618646621704102,-6.683452606201172,4.575973987579346
1701881551937093400,8.06309326171875,-5.652445316314697,-6.7193450927734375,4.626223564147949
1701881551946686000,8.07268603515625,-5.652445316314697,-6.659524440765381,4.659722805023193
1701881551956279300,8.082279296875,-5.642574787139893,-6.577869415283203,4.568795680999756
1701881551965871900,8.091871826171875,-5.650052547454834,-6.606583118438721,4.4946184158325195
1701881551975463700,8.101463623046875,-5.748157978057861,-6.640381813049316,4.461118698120117
1701881551985056300,8.11105615234375,-5.796014785766602,-6.654738903045654,4.4512481689453125
1701881551994649600,8.120649658203124,-5.824728488922119,-6.467799663543701,4.393820762634277
1701881552004242200,8.1302421875,-5.705087184906006,-6.606583118438721,4.523332118988037
1701881552013834000,8.139833984375,-5.712265968322754,-6.4941205978393555,4.475475788116455
1701881552023426600,8.149426513671875,-5.678766250610352,-6.539584159851074,4.482654094696045
1701881552033020000,8.15902001953125,-5.666802406311035,-6.64277458190918,4.489832401275635
1701881552042612500,8.168612548828126,-5.721837043762207,-6.64277458190918,4.537689208984375
1701881552052204300,8.178204345703126,-5.721837043762207,-6.556334018707275,4.568795680999756
1701881552061796900,8.187796875,-5.700301647186279,-6.486942291259766,4.544867515563965
1701881552071390200,8.19739013671875,-5.702694416046143,-6.4701924324035645,4.4874396324157715
1701881552080982800,8.206982666015625,-5.673980712890625,-6.503692150115967,4.499403953552246
1701881552090574600,8.21657470703125,-5.6018967628479,-6.570691108703613,4.508975028991699
1701881552100167200,8.226167236328125,-5.556433200836182,-6.630810737609863,4.578367233276367
1701881552109760500,8.235760498046876,-5.6018967628479,-6.652346134185791,4.633401870727539
1701881552119353000,8.24535302734375,-5.6330037117004395,-6.558726787567139,4.554438591003418
1701881552128945000,8.25494482421875,-5.635396480560303,-6.5419769287109375,4.564010143280029
1701881552138537500,8.264537353515625,-5.618646621704102,-6.585047721862793,4.619044780731201
1701881552148130800,8.274130859375,-5.613861083984375,-6.623631954193115,4.6764726638793945
1701881552157723400,8.283723388671875,-5.580361366271973,-6.664309978485107,4.71236515045166
1701881552167315200,8.293315185546875,-5.580361366271973,-6.659524440765381,4.7386860847473145
1701881552176907800,8.30290771484375,-5.568397521972656,-6.676274299621582,4.693222522735596
1701881552186501400,8.31250146484375,-5.532505035400391,-6.688238620758057,4.674079895019531
1701881552196093700,8.32209375,-5.525326728820801,-6.714559555053711,4.623830795288086
1701881552205685500,8.331685546875,-5.513362407684326,-6.6954169273376465,4.552045822143555
1701881552215278300,8.3412783203125,-5.549254894256592,-6.630810737609863,4.461118698120117
1701881552224871700,8.35087158203125,-5.56361198425293,-6.604190349578857,4.381856441497803
1701881552234464300,8.36046435546875,-5.625824928283691,-6.539584159851074,4.319643020629883
1701881552244056000,8.37005615234375,-5.695516109466553,-6.5180487632751465,4.319643020629883
1701881552253648600,8.379648681640624,-5.7170515060424805,-6.51326322555542,4.281357765197754
1701881552263242000,8.389241943359375,-5.760122299194336,-6.498906135559082,4.326821327209473
1701881552272834600,8.39883447265625,-5.815157413482666,-6.51326322555542,4.343571186065674
1701881552282426400,8.40842626953125,-5.90369176864624,-6.4941205978393555,4.389034748077393
1701881552292019000,8.41801904296875,-5.932405471801758,-6.5180487632751465,4.420141696929932
1701881552301612300,8.4276123046875,-5.908477306365967,-6.52044153213501,4.424927234649658
1701881552311204900,8.437204833984374,-5.865406513214111,-6.527620315551758,4.448855400085449
1701881552320796700,8.446796630859374,-5.805585861206055,-6.522834300994873,4.4344987869262695
1701881552330389200,8.45638916015625,-5.7720866203308105,-6.546762943267822,4.4635114669799805
1701881552339982600,8.465982666015625,-5.757729530334473,-6.5419769287109375,4.485046863555908
1701881552349575200,8.4755751953125,-5.748157978057861,-6.532405853271484,4.501796722412109
1701881552359167000,8.4851669921875,-5.7409796714782715,-6.50608491897583,4.499403953552246
1701881552368759600,8.494759521484376,-5.733801364898682,-6.496513366699219,4.489832401275635
1701881552378353000,8.504352783203124,-5.750551223754883,-6.484549522399902,4.47068977355957
1701881552387945500,8.513945556640625,-5.738586902618408,-6.498906135559082,4.444069862365723
1701881552397537300,8.523537353515625,-5.714658737182617,-6.522834300994873,4.4512481689453125
1701881552407129900,8.5331298828125,-5.729015827178955,-6.5252275466918945,4.429712772369385
1701881552416723500,8.542723388671876,-5.743372440338135,-6.515655994415283,4.400999069213867
1701881552426315800,8.552315673828126,-5.7720866203308105,-6.5252275466918945,4.391427993774414
1701881552435907600,8.561907470703124,-5.793622016906738,-6.573083877563477,4.398606300354004
1701881552445500200,8.571500244140625,-5.800800323486328,-6.553941249847412,4.367499351501465
1701881552455093800,8.58109375,-5.7888360023498535,-6.570691108703613,4.365106582641602
1701881552464686000,8.59068603515625,-5.7720866203308105,-6.608976364135742,4.37228536605835
1701881552474278000,8.60027783203125,-5.776872158050537,-6.652346134185791,4.365106582641602
1701881552483870500,8.609870361328126,-5.731408596038818,-6.6954169273376465,4.338785648345947
1701881552493464000,8.619464111328124,-5.695516109466553,-6.7193450927734375,4.31007194519043
1701881552503056400,8.629056396484375,-5.657230854034424,-6.733702182769775,4.283750534057617
1701881552512648400,8.6386484375,-5.635396480560303,-6.721737861633301,4.24785852432251
1701881552522240800,8.64824072265625,-5.637789249420166,-6.7193450927734375,4.240679740905762
1701881552531834400,8.65783447265625,-5.669195175170898,-6.700202465057373,4.2622151374816895
1701881552541427000,8.667427001953126,-5.678766250610352,-6.69063138961792,4.31007194519043
1701881552551018800,8.677018798828126,-5.697908878326416,-6.69063138961792,4.362713813781738
1701881552560611300,8.686611328125,-5.729015827178955,-6.678667068481445,4.412963390350342
1701881552570204700,8.69620458984375,-5.709873199462891,-6.664309978485107,4.4512481689453125
1701881552579797200,8.70579736328125,-5.705087184906006,-6.661917209625244,4.473083019256592
1701881552589389000,8.71538916015625,-5.6931233406066895,-6.62841796875,4.475475788116455
1701881552598981600,8.724981689453125,-5.683551788330078,-6.589833736419678,4.477868556976318
1701881552608575000,8.734574951171876,-5.678766250610352,-6.546762943267822,4.468297004699707
1701881552618167600,8.74416748046875,-5.678766250610352,-6.522834300994873,4.465904235839844
1701881552627759400,8.75375927734375,-5.705087184906006,-6.4941205978393555,4.458725929260254
1701881552637352000,8.76335205078125,-5.743372440338135,-6.498906135559082,4.482654094696045
1701881552646945300,8.7729453125,-5.755336761474609,-6.522834300994873,4.480261325836182
1701881552656537900,8.782537841796875,-5.762515068054199,-6.553941249847412,4.4874396324157715
1701881552666129700,8.792129638671875,-5.7649078369140625,-6.606583118438721,4.480261325836182
1701881552675722200,8.80172216796875,-5.750551223754883,-6.664309978485107,4.480261325836182
1701881552685315600,8.811315673828124,-5.709873199462891,-6.676274299621582,4.489832401275635
1701881552694908200,8.820908203125,-5.676373481750488,-6.693024158477783,4.4874396324157715
1701881552704500000,8.8305,-5.659623622894287,-6.6954169273376465,4.508975028991699
1701881552714092500,8.840092529296875,-5.647360324859619,-6.709774017333984,4.520939350128174
1701881552723686000,8.849685791015625,-5.628218173980713,-6.700202465057373,4.528117656707764
1701881552733278500,8.859278564453126,-5.597111225128174,-6.683452606201172,4.5185465812683105
1701881552742870300,8.868870361328124,-5.582754135131836,-6.681059837341309,4.5257248878479
1701881552752462800,8.878462890625,-5.585147380828857,-6.673881530761719,4.520939350128174
1701881552762056400,8.888056396484375,-5.577968597412109,-6.676274299621582,4.504189491271973
1701881552771649000,8.89764892578125,-5.5707902908325195,-6.673881530761719,4.475475788116455
1701881552781240600,8.907240478515625,-5.558825969696045,-6.676274299621582,4.473083019256592
1701881552790833200,8.916833251953125,-5.566004753112793,-6.700202465057373,4.485046863555908
1701881552800426800,8.9264267578125,-5.573183059692383,-6.716952323913574,4.477868556976318
1701881552810019300,8.936019287109374,-5.575575828552246,-6.728916168212891,4.485046863555908
1701881552819611100,8.945611083984375,-5.573183059692383,-6.714559555053711,4.489832401275635
1701881552829203700,8.95520361328125,-5.566004753112793,-6.700202465057373,4.508975028991699
1701881552838797000,8.964797119140625,-5.566004753112793,-6.6954169273376465,4.5257248878479
1701881552848389600,8.9743896484375,-5.582754135131836,-6.645167350769043,4.530510425567627
1701881552857981400,8.9839814453125,-5.592325687408447,-6.64277458190918,4.535296440124512
1701881552867574000,8.993573974609374,-5.616253852844238,-6.614060878753662,4.535296440124512
1701881552877167400,9.00316748046875,-5.625824928283691,-6.623631954193115,4.552045822143555
1701881552886760000,9.012760009765625,-5.652445316314697,-6.630810737609863,4.552045822143555
1701881552896351700,9.022351806640625,-5.690730571746826,-6.630810737609863,4.559224605560303
1701881552905944300,9.0319443359375,-5.700301647186279,-6.6475605964660645,4.542474746704102
1701881552915537700,9.04153759765625,-5.7170515060424805,-6.649953365325928,4.530510425567627
1701881552925130200,9.051130126953124,-5.72422981262207,-6.661917209625244,4.520939350128174
1701881552934722000,9.06072216796875,-5.683551788330078,-6.678667068481445,4.547260284423828
1701881552944314600,9.070314697265625,-5.697908878326416,-6.623631954193115,4.477868556976318
1701881552953908000,9.079907958984375,-5.623432159423828,-6.654738903045654,4.446462631225586
1701881552963500500,9.08950048828125,-5.635396480560303,-6.597012042999268,4.326821327209473
1701881552973092400,9.09909228515625,-5.671587944030762,-6.597012042999268,4.357928276062012
1701881552982685000,9.108684814453126,-5.6548380851745605,-6.633203506469727,4.386641979217529
1701881552992278300,9.1182783203125,-5.712265968322754,-6.592226505279541,4.422534465789795
1701881553001870800,9.127870849609375,-5.729015827178955,-6.594619274139404,4.412963390350342
1701881553011462700,9.137462646484375,-5.738586902618408,-6.601797580718994,4.417748928070068
1701881553021055200,9.14705517578125,-5.743372440338135,-6.669095993041992,4.458725929260254
1701881553030648600,9.156648681640625,-5.702694416046143,-6.637989044189453,4.4033918380737305
1701881553040241200,9.1662412109375,-5.681159019470215,-6.611668109893799,4.432105541229248
1701881553049833000,9.1758330078125,-5.66201639175415,-6.611668109893799,4.458725929260254
1701881553059425500,9.185425537109374,-5.659623622894287,-6.592226505279541,4.477868556976318
1701881553069019100,9.19501904296875,-5.640182018280029,-6.553941249847412,4.473083019256592
1701881553078611500,9.204611572265625,-5.657230854034424,-6.532405853271484,4.473083019256592
1701881553088203300,9.214203369140625,-5.652445316314697,-6.616453647613525,4.508975028991699
1701881553097796000,9.223796142578125,-5.652445316314697,-6.608976364135742,4.47068977355957
1701881553107389400,9.233389404296876,-5.637789249420166,-6.618846416473389,4.441677093505859
1701881553116982000,9.24298193359375,-5.652445316314697,-6.614060878753662,4.456333160400391
1701881553126573600,9.252573486328124,-5.647360324859619,-6.5874409675598145,4.444069862365723
1701881553136166400,9.26216650390625,-5.642574787139893,-6.6475605964660645,4.475475788116455
1701881553145759700,9.271759765625,-5.659623622894287,-6.594619274139404,4.458725929260254
1701881553155352300,9.281352294921875,-5.618646621704102,-6.56829833984375,4.444069862365723
1701881553164944100,9.290944091796876,-5.635396480560303,-6.7432732582092285,4.528117656707764
1701881553174536700,9.30053662109375,-5.652445316314697,-6.798308372497559,4.540081977844238
1701881553184130000,9.310130126953124,-5.673980712890625,-6.6954169273376465,4.5257248878479
1701881553193722600,9.31972265625,-5.695516109466553,-6.738487720489502,4.552045822143555
1701881553203314400,9.329314453125,-5.697908878326416,-6.7911295890808105,4.5568318367004395
1701881553212907000,9.338906982421875,-5.681159019470215,-6.824629306793213,4.564010143280029
1701881553222500400,9.348500244140626,-5.676373481750488,-6.630810737609863,4.492225646972656
1701881553232093000,9.358093017578126,-5.616253852844238,-6.530013084411621,4.420141696929932
1701881553241684700,9.367684814453124,-5.561218738555908,-6.5180487632751465,4.482654094696045
1701881553251277300,9.37727734375,-5.527719497680664,-6.4941205978393555,4.4635114669799805
1701881553260870700,9.38687060546875,-5.506184101104736,-6.678667068481445,4.53290319442749
1701881553270463200,9.396463134765625,-5.525326728820801,-6.597012042999268,4.465904235839844
1701881553280055000,9.406054931640625,-5.642574787139893,-6.755237579345703,4.542474746704102
1701881553289647600,9.415647705078126,-5.678766250610352,-6.736094951629639,4.578367233276367
1701881553299241000,9.425240966796874,-5.66201639175415,-6.681059837341309,4.578367233276367
1701881553308833500,9.43483349609375,-5.637789249420166,-6.6954169273376465,4.564010143280029
1701881553318425300,9.44442529296875,-5.621039390563965,-6.654738903045654,4.523332118988037
1701881553328018000,9.454017822265625,-5.5707902908325195,-6.618846416473389,4.446462631225586
1701881553337611500,9.463611572265625,-5.549254894256592,-6.637989044189453,4.41057014465332
1701881553347203800,9.473203857421876,-5.568397521972656,-6.669095993041992,4.369892120361328
1701881553356795600,9.482795654296876,-5.613861083984375,-6.633203506469727,4.362713813781738
1701881553366388200,9.49238818359375,-5.616253852844238,-6.637989044189453,4.3483567237854
1701881553375981800,9.50198193359375,-5.640182018280029,-6.637989044189453,4.365106582641602
1701881553385574100,9.51157421875,-5.6859450340271,-6.645167350769043,4.357928276062012
1701881553395166200,9.521166259765625,-5.695516109466553,-6.683452606201172,4.381856441497803
1701881553404758500,9.530758544921875,-5.72422981262207,-6.7049880027771,4.398606300354004
1701881553414352100,9.54035205078125,-5.731408596038818,-6.740880489349365,4.398606300354004
1701881553423944700,9.54994482421875,-5.767300605773926,-6.728916168212891,4.377070903778076
1701881553433536500,9.55953662109375,-5.738586902618408,-6.7193450927734375,4.343571186065674
1701881553443129000,9.569129150390625,-5.767300605773926,-6.7193450927734375,4.357928276062012
1701881553452722400,9.578722412109375,-5.755336761474609,-6.640381813049316,4.331607341766357
1701881553462315000,9.58831494140625,-5.750551223754883,-6.666703224182129,4.3411784172058105
1701881553471906800,9.59790673828125,-5.7649078369140625,-6.664309978485107,4.357928276062012
1701881553481499400,9.60749951171875,-5.7649078369140625,-6.6954169273376465,4.369892120361328
1701881553491092700,9.6170927734375,-5.7792649269104,-6.673881530761719,4.360321044921875
1701881553500685300,9.626685302734375,-5.774479389190674,-6.661917209625244,4.345963954925537
1701881553510277000,9.636277099609375,-5.757729530334473,-6.630810737609863,4.31007194519043
1701881553519869700,9.64586962890625,-5.673980712890625,-6.391229152679443,4.19282341003418
1701881553529463000,9.655463134765625,-5.644967555999756,-6.597012042999268,4.355535507202148
1701881553539055600,9.6650556640625,-5.673980712890625,-6.709774017333984,4.480261325836182
1701881553548647400,9.6746474609375,-5.66201639175415,-6.654738903045654,4.501796722412109
1701881553558240000,9.684239990234374,-5.618646621704102,-6.654738903045654,4.53290319442749
1701881553567833300,9.693833251953125,-5.561218738555908,-6.666703224182129,4.544867515563965
1701881553577426000,9.703426025390625,-5.475077152252197,-6.76002311706543,4.564010143280029
1701881553587017700,9.713017822265625,-5.415256977081299,-6.781558513641357,4.547260284423828
1701881553596610300,9.7226103515625,-5.422435283660889,-6.750451564788818,4.564010143280029
1701881553606203600,9.73220361328125,-5.398507118225098,-6.776772975921631,4.621438026428223
1701881553615796200,9.741796142578124,-5.420042514801025,-6.7911295890808105,4.6764726638793945
1701881553625388000,9.751387939453124,-5.443970680236816,-6.805486679077148,4.71954345703125
1701881553634980600,9.760980712890625,-5.43918514251709,-6.779165744781494,4.726722240447998
1701881553644574200,9.77057421875,-5.422435283660889,-6.774380207061768,4.671687126159668
1701881553654166500,9.78016650390625,-5.422435283660889,-6.7432732582092285,4.65015172958374
1701881553663758300,9.78975830078125,-5.422435283660889,-6.745666027069092,4.609473705291748
1701881553673351000,9.799350830078126,-5.448756217956543,-6.707380771636963,4.568795680999756
1701881553682944500,9.808944580078125,-5.5157551765441895,-6.757630348205566,4.592723846435547
1701881553692537000,9.818537109375,-5.513362407684326,-6.664309978485107,4.4874396324157715
1701881553702129000,9.82812890625,-5.5396833419799805,-6.688238620758057,4.415356159210205
1701881553711721500,9.837721435546875,-5.630610942840576,-6.700202465057373,4.4273200035095215
1701881553721314800,9.847314697265626,-5.669195175170898,-6.75284481048584,4.439284324645996
1701881553730907400,9.856907470703124,-5.719444274902344,-6.755237579345703,4.456333160400391
1701881553740499200,9.866499267578124,-5.729015827178955,-6.645167350769043,4.420141696929932
1701881553750091800,9.876091796875,-5.731408596038818,-6.7193450927734375,4.456333160400391
1701881553759685000,9.88568505859375,-5.745765209197998,-6.7049880027771,4.458725929260254
1701881553769277700,9.895277587890625,-5.774479389190674,-6.573083877563477,4.506582260131836
1701881553778869500,9.904869384765625,-5.745765209197998,-6.614060878753662,4.58793830871582
1701881553788462000,9.914462158203126,-5.6859450340271,-6.577869415283203,4.583152770996094
1701881553798055400,9.924055419921874,-5.597111225128174,-6.553941249847412,4.540081977844238
1701881553807648000,9.93364794921875,-5.573183059692383,-6.57547664642334,4.506582260131836
1701881553817239800,9.94323974609375,-5.592325687408447,-6.618846416473389,4.499403953552246
1701881553826832400,9.952832275390625,-5.611468315124512,-6.558726787567139,4.429712772369385
1701881553836425700,9.96242578125,-5.575575828552246,-6.56829833984375,4.305285930633545
1701881553846018300,9.972018310546876,-5.606682777404785,-6.57547664642334,4.281357765197754
1701881553855610000,9.981610107421876,-5.6931233406066895,-6.608976364135742,4.271786689758301
1701881553865202700,9.99120263671875,-5.757729530334473,-6.707380771636963,4.19282341003418
1701881553874796000,10.000796142578125,-5.846263885498047,-6.738487720489502,4.19282341003418
1701881553884388600,10.010388671875,-5.920441627502441,-6.798308372497559,4.264608383178711
1701881553893980400,10.01998046875,-5.961119174957275,-6.750451564788818,4.264608383178711
1701881553903573000,10.029572998046875,-5.9539408683776855,-6.7672014236450195,4.3172502517700195
1701881553913166300,10.039166259765626,-5.901298999786377,-6.774380207061768,4.331607341766357
1701881553922759000,10.048759033203124,-5.815157413482666,-6.681059837341309,4.367499351501465
1701881553932350700,10.058350830078124,-5.731408596038818,-6.640381813049316,4.4033918380737305
1701881553941943300,10.067943359375,-5.642574787139893,-6.702595233917236,4.482654094696045
1701881553951537000,10.077536865234375,-5.542076110839844,-6.757630348205566,4.506582260131836
1701881553961129200,10.087129150390625,-5.5707902908325195,-6.666703224182129,4.513761043548584
1701881553970721000,10.096720947265625,-5.587540149688721,-6.51326322555542,4.528117656707764
1701881553980313900,10.10631396484375,-5.5947184562683105,-6.424728870391846,4.566402912139893
1701881553989907200,10.1159072265625,-5.585147380828857,-6.345765590667725,4.5568318367004395
1701881553999499800,10.125499755859375,-5.5396833419799805,-6.508477687835693,4.621438026428223
1701881554009091600,10.135091552734375,-5.544469356536865,-6.676274299621582,4.669294357299805
1701881554018684200,10.14468408203125,-5.479863166809082,-6.757630348205566,4.6286163330078125
1701881554028277500,10.154277587890626,-5.422435283660889,-6.956234455108643,4.659722805023193
1701881554037870000,10.1638701171875,-5.44636344909668,-7.03998327255249,4.707579612731934
1701881554047461600,10.173461669921876,-5.491827011108398,-6.905985355377197,4.726722240447998
1701881554057054000,10.183053955078124,-5.5085768699646,-6.716952323913574,4.662116050720215
1701881554066647300,10.192647216796875,-5.575575828552246,-6.50608491897583,4.64297342300415
1701881554076240000,10.202239990234375,-5.609075546264648,-6.290730953216553,4.583152770996094
1701881554085831700,10.211831787109375,-5.6548380851745605,-6.259624004364014,4.590331077575684
1701881554095424300,10.22142431640625,-5.597111225128174,-6.350551128387451,4.537689208984375
1701881554105017900,10.231017822265626,-5.623432159423828,-6.477370738983154,4.566402912139893
1701881554114610200,10.240610107421874,-5.669195175170898,-6.608976364135742,4.65015172958374
1701881554124202000,10.250201904296874,-5.721837043762207,-6.748058795928955,4.753043174743652
1701881554133794600,10.259794677734375,-5.836692810058594,-6.551548480987549,4.755435943603516
1701881554143388200,10.26938818359375,-5.898906230926514,-6.233303070068359,4.741078853607178
1701881554152980500,10.27898046875,-5.872584819793701,-6.020042896270752,4.683651447296143
1701881554162572500,10.288572509765626,-5.776872158050537,-5.98654317855835,4.623830795288086
1701881554172164900,10.298164794921876,-5.731408596038818,-6.032006740570068,4.465904235839844
1701881554181758500,10.307758544921874,-5.721837043762207,-6.125626087188721,4.381856441497803
1701881554191350800,10.317350830078125,-5.803193092346191,-6.151947021484375,4.329214572906494
1701881554200942800,10.32694287109375,-5.896512985229492,-6.305087566375732,4.343571186065674
1701881554210535400,10.336535400390625,-5.96590518951416,-6.412764549255371,4.3794636726379395
1701881554220128800,10.346128662109376,-6.0640106201171875,-6.477370738983154,4.4512481689453125
1701881554229721300,10.355721435546876,-6.114260196685791,-6.577869415283203,4.520939350128174
1701881554239313200,10.365313232421874,-6.178866386413574,-6.774380207061768,4.592723846435547
1701881554248905700,10.37490576171875,-6.21266508102417,-6.805486679077148,4.623830795288086
1701881554258499000,10.3844990234375,-6.0711894035339355,-7.056733131408691,4.575973987579346
1701881554268091600,10.394091552734375,-5.999404430389404,-7.250850677490234,4.561617374420166
1701881554277683500,10.403683349609375,-5.920441627502441,-7.205387115478516,4.497011184692383
1701881554287276000,10.413276123046876,-5.98026180267334,-7.169195652008057,4.535296440124512
1701881554296869400,10.422869384765624,-5.90369176864624,-6.963412761688232,4.436891555786133
1701881554306462000,10.4324619140625,-5.894120216369629,-6.97776985168457,4.537689208984375
1701881554316053800,10.4420537109375,-5.769693374633789,-7.054340362548828,4.693222522735596
1701881554325646300,10.451646240234375,-5.709873199462891,-7.169195652008057,4.702793598175049
1701881554335239700,10.46123974609375,-5.566004753112793,-7.061518669128418,4.659722805023193
1701881554344832300,10.470832275390626,-5.621039390563965,-7.092625617980957,4.659722805023193
1701881554354424000,10.480424072265626,-6.4375901222229,-7.870891094207764,4.133002758026123
1701881554364016600,10.4900166015625,-4.022035598754883,-7.41834831237793,5.112265586853027
1701881554373610000,10.49960986328125,-4.941178798675537,-7.413562774658203,4.767399787902832
1701881554383202600,10.50920263671875,-5.32193660736084,-8.284849166870117,4.597509384155273
1701881554392794400,10.51879443359375,-4.512564182281494,-8.787641525268555,4.930111885070801
1701881554402387000,10.528386962890625,-4.890929698944092,-8.1795654296875,4.958825588226318
1701881554411980500,10.53798046875,-5.044070243835449,-7.509275436401367,5.200799942016602
1701881554421572900,10.54757275390625,-4.859822750091553,-7.363313674926758,4.9995036125183105
1701881554431164700,10.55716455078125,-4.450351238250732,-12.749855995178223,-2.2809581756591797
1701881554440757200,10.56675732421875,-4.309174537658691,-10.688738822937012,5.315655708312988
1701881554450350800,10.576350830078125,-1.9127626419067383,-11.107781410217285,6.333203315734863
1701881554459943400,10.585943359375,-1.9079769849777222,-9.886545181274414,5.234299659729004
1701881554469535200,10.59553515625,-3.107379198074341,-9.80518913269043,5.468796253204346
1701881554479127800,10.6051279296875,-4.48624324798584,-9.951150894165039,5.471189022064209
1701881554488721200,10.61472119140625,-4.589433670043945,-9.22582721710205,4.717150688171387
1701881554498313700,10.624313720703125,-7.538887023925781,-9.065507888793945,5.150550842285156
1701881554507905500,10.633905517578125,-8.951250076293945,-8.725427627563477,5.976373672485352
1701881554517498000,10.643498046875,-5.027320384979248,-7.739285945892334,4.992325305938721
1701881554527091500,10.653091552734375,-3.964308977127075,-8.462217330932617,4.748257637023926
1701881554536684000,10.66268408203125,-7.842775344848633,-8.543573379516602,5.102694511413574
1701881554546275800,10.67227587890625,-7.019345283508301,-9.017651557922363,4.776971340179443
1701881554555868400,10.681868408203124,-4.335495471954346,-9.503693580627441,4.5113677978515625
1701881554565461800,10.691461669921875,-4.189533233642578,-8.586644172668457,4.389034748077393
1701881554575054300,10.701054443359375,-4.5221357345581055,-9.81954574584961,5.696413516998291
1701881554584646100,10.710646240234375,-3.79681134223938,-10.391729354858398,5.808876037597656
1701881554594238700,10.72023876953125,-0.5838487148284912,-12.323933601379395,6.718746662139893
1701881554603832000,10.72983203125,-3.7369906902313232,-10.901700019836426,6.773781776428223
1701881554613424600,10.739424560546874,-6.416054725646973,-11.607881546020508,7.549355506896973
1701881554623016400,10.749016357421874,-8.479864120483398,-9.927223205566406,6.505486488342285
1701881554632609000,10.758609130859375,-6.018547058105469,-9.24736213684082,5.832804203033447
1701881554642202400,10.768202392578125,-5.6330037117004395,-9.850652694702148,7.973184108734131
1701881554651795000,10.777794921875,-12.121142387390137,-9.046364784240723,8.5764741897583
1701881554661386800,10.78738671875,-7.162914752960205,-6.932306289672852,8.392227172851562
1701881554670979300,10.796979248046876,-3.193521022796631,-6.273981094360352,8.162217140197754
1701881554680572700,10.80657275390625,-1.4386845827102661,-6.872485637664795,9.24437141418457
1701881554690165200,10.816165283203125,-1.0555338859558105,-7.4015984535217285,10.695319175720215
1701881554699757000,10.825757080078125,-0.6798607110977173,-7.234101295471191,11.456535339355469
1701881554709349600,10.835349609375,-0.10289137065410614,-6.865307331085205,12.052647590637207
1701881554718943200,10.844943115234376,0.5748756527900696,-6.247660160064697,12.675080299377441
1701881554728535600,10.85453564453125,1.0534402132034302,-5.60608434677124,13.003196716308594
1701881554738127400,10.86412744140625,1.2475578784942627,-5.012365341186523,13.00798225402832
1701881554747720200,10.87372021484375,1.3767703771591187,-4.222135543823242,12.653545379638672
1701881554757313500,10.8833134765625,1.4054841995239258,-4.100101470947266,12.895519256591797
1701881554766906000,10.892906005859375,1.2762718200683594,-4.631607532501221,13.058231353759766
1701881554776498000,10.902497802734375,1.3025928735733032,-5.354538917541504,12.639188766479492
1701881554786090500,10.912090576171876,1.3384851217269897,-6.070590972900391,11.585747718811035
1701881554795683800,10.921683837890624,1.3265210390090942,-6.968198776245117,10.113563537597656
1701881554805276400,10.9312763671875,1.2092727422714233,-7.705487251281738,8.281858444213867
1701881554814868200,10.9408681640625,1.20687997341156,-8.289634704589844,6.991528511047363
1701881554824460800,10.950460693359375,1.3360923528671265,-8.543573379516602,6.012266159057617
1701881554834054100,10.96005419921875,2.8660032749176025,-8.428717613220215,5.332405090332031
1701881554843646700,10.969646728515626,3.2823543548583984,-7.3776702880859375,3.7833516597747803
1701881554853238500,10.979238525390626,3.7301113605499268,-7.061518669128418,3.1441688537597656
1701881554862831000,10.9888310546875,3.471686601638794,-6.623631954193115,3.0556344985961914
1701881554872424400,10.998424560546875,3.505186080932617,-6.233303070068359,2.9359934329986572
1701881554882017000,11.00801708984375,3.433401346206665,-5.61326265335083,2.4690937995910645
1701881554891608800,11.01760888671875,3.2057840824127197,-4.863711357116699,1.535294771194458
1701881554901201400,11.027201416015625,3.1148569583892822,-4.059423446655273,0.3000001311302185
1701881554910794800,11.036794677734376,3.215355396270752,-2.8935208320617676,0.33110684156417847
1701881554920387300,11.04638720703125,3.972085475921631,-2.0721843242645264,0.4172484576702118
1701881554929979100,11.055979248046874,5.137988567352295,-1.2343974113464355,-0.32243284583091736
1701881554939571700,11.06557177734375,6.452246189117432,-0.12352947145700455,-0.7749754190444946
1701881554949165000,11.0751650390625,7.045965194702148,-0.2886342406272888,0.32632118463516235
1701881554958757600,11.084757568359375,8.927620887756348,-0.18813568353652954,1.2074781656265259
1701881554968349400,11.094349365234375,11.032109260559082,0.4414757788181305,0.9343972206115723
1701881554977942000,11.10394189453125,8.147261619567871,0.870090126991272,0.4004986882209778
1701881554987535600,11.11353564453125,6.952645301818848,0.7935197949409485,0.13968102633953094
1701881554997128000,11.1231279296875,7.9055867195129395,0.29790642857551575,0.1899302899837494
1701881555006719700,11.1327197265625,8.990134239196777,0.09661021083593369,0.15882360935211182
1701881555016312600,11.1423125,9.966704368591309,0.5635097622871399,0.16360925137996674
1701881555025906000,11.151906005859376,10.785648345947266,1.3872389793395996,0.10618150234222412
1701881555035498500,11.16149853515625,11.398509979248047,2.3880369663238525,-0.02063809521496296
1701881555045090300,11.17109033203125,12.087942123413086,3.331108331680298,-0.0062811593525111675
1701881555054683000,11.180682861328124,12.521341323852539,4.224229335784912,0.3119642436504364
1701881555064276200,11.190276123046875,12.34427261352539,5.670092582702637,0.48903313279151917
1701881555073868800,11.199868896484375,10.922039031982422,5.837889194488525,1.6815561056137085
1701881555083460600,11.209460693359375,9.083454132080078,3.230609655380249,4.633401870727539
1701881555093053200,11.21905322265625,8.336295127868652,2.548356056213379,5.423332691192627
1701881555102646500,11.228646484375,8.879764556884766,1.5332010984420776,5.198407173156738
1701881555112239000,11.238239013671874,10.232606887817383,1.4685949087142944,4.180859565734863
1701881555121831000,11.247830810546875,11.396117210388184,2.181955099105835,3.0245277881622314
1701881555131423500,11.257423583984375,11.82712459564209,2.6464617252349854,2.8809585571289062
1701881555141016800,11.267016845703125,11.367403030395508,2.9216363430023193,3.764209032058716
1701881555150609400,11.276609375,10.610672950744629,2.979363203048706,4.820042133331299
1701881555160201200,11.286201171875,9.863813400268555,2.9338996410369873,5.478367328643799
1701881555169793800,11.295793701171876,9.294022560119629,2.682354211807251,5.8351969718933105
1701881555179387100,11.30538720703125,8.872586250305176,2.368894338607788,5.7155561447143555
1701881555188979700,11.314979736328125,8.439485549926758,2.277667999267578,5.42572546005249
1701881555198571500,11.324571533203125,8.175975799560547,2.699103832244873,4.841577529907227
1701881555208164000,11.3341640625,7.934300899505615,2.962613582611084,4.1760735511779785
1701881555217757700,11.3437578125,7.634898662567139,3.175574779510498,3.3981072902679443
1701881555227350000,11.35335009765625,7.46500825881958,3.3382866382598877,2.847458839416504
1701881555236941800,11.36294189453125,7.620542049407959,3.31675124168396,2.7610182762145996
1701881555246534400,11.372534423828125,8.16401195526123,3.168396234512329,2.8139593601226807
1701881555256128000,11.3821279296875,8.616554260253906,3.079861879348755,2.902493953704834
1701881555265720300,11.39172021484375,8.681160926818848,3.2162528038024902,3.0077781677246094
1701881555275312400,11.4013125,8.635697364807129,3.30957293510437,3.1250264644622803
1701881555284904700,11.41090478515625,8.333902359008789,3.2832517623901367,3.108276605606079
1701881555294498300,11.420498291015624,7.927122116088867,3.175574779510498,2.7466611862182617
1701881555304091000,11.4300908203125,7.536793231964111,3.0463624000549316,2.1409780979156494
1701881555313682700,11.4396826171875,7.476972579956055,3.1564321517944336,1.236191987991333
1701881555323275300,11.449275146484375,7.093822002410889,2.7182464599609375,1.0660024881362915
1701881555332868600,11.45886865234375,7.2110700607299805,2.550748825073242,1.5520446300506592
1701881555342461200,11.468461181640626,8.499305725097656,2.715853691101074,2.2393829822540283
1701881555352053000,11.478052978515626,9.073882102966309,3.2760732173919678,1.9710876941680908
1701881555361645600,11.4876455078125,9.439984321594238,3.017648458480835,1.3414762020111084
1701881555371239000,11.497239013671875,9.516854286193848,2.6799614429473877,1.475474238395691
1701881555380831500,11.50683154296875,10.077073097229004,2.5842485427856445,1.810768485069275
1701881555390423300,11.51642333984375,10.168001174926758,2.392822742462158,2.160120725631714
1701881555400016000,11.526015869140625,10.19192886352539,2.768495798110962,2.0165512561798096
1701881555409609200,11.535609130859376,9.818349838256836,3.089433193206787,1.810768485069275
