time,seconds_elapsed,z,y,x
1701881543952342300,0.07834228515625,-0.7062921524047852,-0.8364025950431824,0.911384105682373
1701881543962127000,0.088127197265625,-0.5558710098266602,-0.43324342370033264,0.9187142848968506
1701881543971912200,0.097912109375,-0.47890424728393555,-0.14003673195838928,0.896723747253418
1701881543981696800,0.10769677734375,-0.47768256068229675,-0.07650861889123917,0.8234221339225769
1701881543991481600,0.117481689453125,-0.5192201733589172,-0.24510246515274048,0.7391251921653748
1701881544001266200,0.12726611328125,-0.554649293422699,-0.5358657836914062,0.6768187880516052
1701881544011051000,0.137051025390625,-0.5155550837516785,-0.8217422962188721,0.652384877204895
1701881544020835800,0.1468359375,-0.43614494800567627,-1.0966235399246216,0.6584933400154114
1701881544030620400,0.156620361328125,-0.32374903559684753,-1.4423631429672241,0.6914790868759155
1701881544040405000,0.166405029296875,-0.13927318155765533,-1.933637022972107,0.7403468489646912
1701881544050189800,0.17618994140625,0.07330167293548584,-2.2586076259613037,0.7611156702041626
1701881544059974400,0.185974365234375,0.3567348122596741,-2.2317304611206055,0.707361102104187
1701881544069759000,0.195759033203125,0.7317950129508972,-2.0496978759765625,0.5998520255088806
1701881544079543800,0.205543701171875,1.1459494829177856,-1.8835475444793701,0.5021164417266846
1701881544089328400,0.215328369140625,1.5283398628234863,-1.7015150785446167,0.42392799258232117
1701881544099113000,0.225113037109375,1.8252116441726685,-1.474127173423767,0.35795649886131287
1701881544108897500,0.2348974609375,1.9620413780212402,-1.2395617961883545,0.30664533376693726
1701881544118682000,0.24468212890625,1.9046217203140259,-1.0611944198608398,0.261442631483078
1701881544128466700,0.254466796875,1.6944903135299683,-0.9316948056221008,0.2235700935125351
1701881544138251300,0.264251220703125,1.4269392490386963,-0.8938222527503967,0.20524467527866364
1701881544148035800,0.274035888671875,1.180156946182251,-0.9329164624214172,0.21379654109477997
1701881544157820400,0.2838203125,0.9969027042388916,-0.9720106720924377,0.22845686972141266
1701881544167605000,0.29360498046875,0.8942803740501404,-0.9353598356246948,0.23212195932865143
1701881544177389600,0.3033896484375,0.8539644479751587,-0.8767185211181641,0.20524467527866364
1701881544187174100,0.313174072265625,0.841747522354126,-0.775317907333374,0.14660334587097168
1701881544196958700,0.322958740234375,0.8148702383041382,-0.7301151752471924,0.08918370306491852
1701881544206743300,0.332743408203125,0.7769976854324341,-0.752105712890625,0.03420744836330414
1701881544216528000,0.34252783203125,0.786771297454834,-0.7374453544616699,-0.04046862944960594
1701881544226312400,0.3523125,0.8588512539863586,-0.6568135023117065,-0.13942588865756989
1701881544236097000,0.362096923828125,1.0005677938461304,-0.5554128885269165,-0.2579302489757538
1701881544245881600,0.371881591796875,1.1862653493881226,-0.5150969624519348,-0.36543938517570496
1701881544255666200,0.381666259765625,1.392731785774231,-0.5224271416664124,-0.43141087889671326
1701881544265450800,0.39145068359375,1.596754789352417,-0.5981721878051758,-0.45828816294670105
1701881544275235300,0.4012353515625,1.793447494506836,-0.775317907333374,-0.4399627447128296
1701881544285020000,0.41102001953125,1.933942437171936,-1.0062181949615479,-0.39231663942337036
1701881544294804500,0.420804443359375,1.9999139308929443,-1.2945380210876465,-0.3348970115184784
1701881544304589000,0.430589111328125,2.036564826965332,-1.6575340032577515,-0.2713688910007477
1701881544314373600,0.44037353515625,2.148960590362549,-2.0924572944641113,-0.1516428291797638
1701881544324158200,0.450158203125,2.4165117740631104,-2.556701183319092,0.06352811306715012
1701881544333943000,0.459943115234375,2.829444408416748,-2.794931650161743,0.38605546951293945
1701881544343727600,0.4697275390625,3.2912449836730957,-2.649549961090088,0.836860716342926
1701881544353512200,0.47951220703125,3.7212815284729004,-2.2634944915771484,1.4073920249938965
1701881544363296800,0.489296875,4.090233325958252,-1.8823258876800537,2.015795946121216
1701881544373081300,0.499081298828125,4.462850093841553,-1.5976710319519043,2.598544120788574
1701881544382866000,0.508865966796875,4.9541239738464355,-1.5095562934875488,3.147085189819336
1701881544392513500,0.518513427734375,5.462348937988281,-1.7406092882156372,3.685852289199829
1701881544402106000,0.528106201171875,5.8765034675598145,-2.033815860748291,4.175751686096191
1701881544411698000,0.537697998046875,6.16604471206665,-2.2048532962799072,4.574024200439453
1701881544421290200,0.547290283203125,6.290657997131348,-2.1828627586364746,4.859900951385498
1701881544430883800,0.5568837890625,6.172153472900391,-2.036259412765503,4.972296714782715
1701881544440476400,0.566476318359375,5.7641072273254395,-2.0936789512634277,4.729179382324219
1701881544450068200,0.576068115234375,5.247330665588379,-2.4320883750915527,4.164756774902344
1701881544459660800,0.585660888671875,4.841728210449219,-2.7558374404907227,3.647979736328125
1701881544469254100,0.595254150390625,4.704745769500732,-2.9403133392333984,3.3914239406585693
1701881544478846700,0.6048466796875,4.864940166473389,-2.9256529808044434,3.330339193344116
1701881544488438500,0.6144384765625,5.160590171813965,-2.684979200363159,3.362103223800659
1701881544498031000,0.624031005859375,5.385382175445557,-2.342904567718506,3.4097495079040527
1701881544507624400,0.63362451171875,5.457462310791016,-2.0521414279937744,3.396310806274414
1701881544517217000,0.643217041015625,5.415924549102783,-1.9458539485931396,3.320565700531006
1701881544526808800,0.652808837890625,5.32551908493042,-2.0118255615234375,3.2533724308013916
1701881544536401400,0.6624013671875,5.231448650360107,-2.1828627586364746,3.2497074604034424
1701881544545994800,0.671994873046875,5.123939514160156,-2.4162063598632812,3.303462028503418
1701881544555587300,0.68158740234375,4.971227645874023,-2.621450901031494,3.3535513877868652
1701881544565179100,0.69117919921875,4.791638374328613,-2.702082872390747,3.3107922077178955
1701881544574771700,0.700771728515625,4.605788230895996,-2.6605453491210938,3.1397550106048584
1701881544584365000,0.710364990234375,4.440859794616699,-2.450413703918457,2.8514349460601807
1701881544593957600,0.71995751953125,4.288147926330566,-2.0203773975372314,2.4494974613189697
1701881544603549400,0.729549560546875,4.113445281982422,-1.4619102478027344,1.9815884828567505
1701881544613142000,0.73914208984375,3.867884874343872,-0.9170344471931458,1.5393351316452026
1701881544622735400,0.7487353515625,3.529475450515747,-0.4931064546108246,1.1752700805664062
1701881544632328000,0.758327880859375,3.100660800933838,-0.252432644367218,0.8918370008468628
1701881544641919700,0.767919677734375,2.6339733600616455,-0.12293300777673721,0.6560499668121338
1701881544651512300,0.77751220703125,2.2051587104797363,-0.05329642444849014,0.43981003761291504
1701881544661105700,0.787105712890625,1.864305853843689,-0.019088976085186005,0.258999228477478
1701881544670698200,0.7966982421875,1.619966983795166,-0.04107947647571564,0.10017894953489304
1701881544680290000,0.8062900390625,1.4208307266235352,-0.0594048947095871,-0.007482878863811493
1701881544689882600,0.815882568359375,1.2473500967025757,-0.04474456235766411,-0.06612421572208405
1701881544699476000,0.82547607421875,1.123958945274353,-0.05329642444849014,-0.12354385852813721
1701881544709068500,0.835068603515625,1.0592091083526611,-0.06673506647348404,-0.20906247198581696
1701881544718660400,0.844660400390625,0.9651386737823486,0.032222192734479904,-0.29946786165237427
1701881544728253000,0.8542529296875,0.8551861643791199,0.17149536311626434,-0.37887802720069885
1701881544737846500,0.863846435546875,0.7843278646469116,0.21303297579288483,-0.4509579837322235
1701881544747438800,0.87343896484375,0.7098045349121094,0.21058958768844604,-0.5242596864700317
1701881544757030700,0.88303076171875,0.6181774139404297,0.2826695740222931,-0.5816792845726013
1701881544766623200,0.892623291015625,0.569309651851654,0.3694098889827728,-0.6000047326087952
1701881544776216800,0.902216796875,0.6035171151161194,0.4158342778682709,-0.6293253898620605
1701881544785809200,0.91180908203125,0.730573296546936,0.42072105407714844,-0.6659762263298035
1701881544795401000,0.92140087890625,0.8783983588218689,0.2985515892505646,-0.6012263894081116
1701881544804993500,0.93099365234375,0.9981244206428528,0.08231166750192642,-0.5169295072555542
1701881544814587100,0.940587158203125,1.0030112266540527,-0.6336013078689575,-0.15652960538864136
1701881544824179500,0.950179443359375,1.0567657947540283,-1.7699298858642578,0.5143333673477173
1701881544833771300,0.959771240234375,1.5759859085083008,-1.7968071699142456,0.5399889945983887
1701881544843363800,0.96936376953125,1.9962488412857056,-0.5089884996414185,-0.04413371533155441
1701881544852957400,0.97895751953125,1.8056645393371582,1.0046910047531128,-0.3617742955684662
1701881544862550000,0.988550048828125,1.3866232633590698,1.5642271041870117,-0.32756683230400085
1701881544872141600,0.9981416015625,1.0983033180236816,1.4567179679870605,-0.2689255177974701
1701881544881734100,1.007734130859375,1.0030112266540527,1.2795722484588623,-0.4106420576572418
1701881544891327700,1.01732763671875,1.0115630626678467,1.3345485925674438,-0.7014053463935852
1701881544900920300,1.02692041015625,1.1215155124664307,1.3956332206726074,-0.9555178284645081
1701881544910512000,1.03651220703125,1.2778924703598022,1.145185947418213,-1.0593618154525757
1701881544920104700,1.046104736328125,1.3866232633590698,0.6442911624908447,-0.9665130972862244
1701881544929698000,1.055697998046875,1.4342693090438843,0.11651911586523056,-0.7490514516830444
1701881544939290600,1.06529052734375,1.4501514434814453,-0.26342788338661194,-0.5486935377120972
1701881544948882400,1.07488232421875,1.4428212642669678,-0.38193225860595703,-0.42041563987731934
1701881544958475000,1.08447509765625,1.4464863538742065,-0.2683146595954895,-0.3715478479862213
1701881544968068400,1.094068359375,1.4684767723083496,-0.055739812552928925,-0.4008685052394867
1701881544977661000,1.103660888671875,1.4635900259017944,0.11774080991744995,-0.41919392347335815
1701881544987252700,1.113252685546875,1.4501514434814453,0.20692451298236847,-0.39598172903060913
1701881544996845300,1.12284521484375,1.4403778314590454,0.22524993121623993,-0.3593308925628662
1701881545006438700,1.132438720703125,1.4257174730300903,0.164165198802948,-0.3080197274684906
1701881545016031200,1.14203125,1.3902883529663086,0.07498150318861008,-0.2432699203491211
1701881545025623000,1.151623046875,1.3243168592453003,0.017561858519911766,-0.20784078538417816
1701881545035215600,1.161215576171875,1.2412415742874146,0.02244863659143448,-0.2286095917224884
1701881545044809000,1.17080908203125,1.1117420196533203,-0.001985253533348441,-0.27625566720962524
1701881545054401500,1.180401611328125,1.0066763162612915,-0.07528692483901978,-0.30313295125961304
1701881545063993300,1.189993408203125,0.9236010313034058,-0.1644706279039383,-0.3324536085128784
1701881545073586000,1.1995859375,0.8478559851646423,-0.26098448038101196,-0.3239017724990845
1701881545083179300,1.20917919921875,0.781884491443634,-0.2573194205760956,-0.32512345910072327
1701881545092771800,1.218771728515625,0.7391251921653748,-0.18523943424224854,-0.39231663942337036
1701881545102363600,1.22836376953125,0.675597071647644,-0.09361234307289124,-0.4509579837322235
1701881545111956200,1.237956298828125,0.6145123243331909,-0.056961506605148315,-0.4656183123588562
1701881545121549600,1.247549560546875,0.5668662786483765,-0.12904147803783417,-0.4277457892894745
1701881545131142100,1.25714208984375,0.5143333673477173,-0.24021568894386292,-0.35322242975234985
1701881545140734000,1.26673388671875,0.45324867963790894,-0.3110739588737488,-0.27381229400634766
1701881545150326500,1.276326416015625,0.42392799258232117,-0.4381301999092102,-0.21150586009025574
1701881545159919900,1.285919921875,0.3542914092540741,-0.3868190348148346,-0.06368082761764526
1701881545169512400,1.295512451171875,0.4581354558467865,-0.4161396920681,-0.025808297097682953
1701881545179104300,1.305104248046875,0.8087617754936218,-0.44668206572532654,-0.10766182839870453
1701881545188696800,1.31469677734375,1.155722975730896,-0.10705098509788513,-0.1369825005531311
1701881545198290400,1.32429052734375,1.5552171468734741,0.0847550556063652,-0.14553436636924744
1701881545207882800,1.3338828125,1.9547111988067627,0.04810422286391258,-0.09177979826927185
1701881545217474600,1.343474609375,2.2088236808776855,0.04077405482530594,0.013285927474498749
1701881545227067100,1.353067138671875,2.2137105464935303,0.05543438717722893,0.05008947476744652
1701881545236660700,1.36266064453125,2.195384979248047,-0.08628217875957489,0.030542362481355667
1701881545246253000,1.372253173828125,2.1733944416046143,-0.44301697611808777,-0.051463883370161057
1701881545255844900,1.381844970703125,1.9730366468429565,-1.311641812324524,-0.15286453068256378
1701881545265437400,1.3914375,1.6798299551010132,-1.3372973203659058,-0.27747735381126404
1701881545275031000,1.401031005859375,1.4440429210662842,-0.7276718020439148,-0.44362783432006836
1701881545284623400,1.410623291015625,1.2278029918670654,-0.5163186192512512,-0.6085565686225891
1701881545294215200,1.420215087890625,0.9749122262001038,-0.3342861533164978,-0.6891884207725525
1701881545303807700,1.429807861328125,0.5033381581306458,-0.001985253533348441,-0.645207405090332
1701881545313401300,1.4394013671875,-0.10262233763933182,0.19837264716625214,-0.5572454333305359
1701881545322994000,1.448993896484375,-0.53143709897995,0.3107685446739197,-0.4546230733394623
1701881545332585700,1.458585693359375,-0.6158867478370667,0.43171629309654236,-0.3067980408668518
1701881545342178000,1.468177978515625,-0.4080459773540497,0.4915793240070343,-0.1760767251253128
1701881545351771600,1.477771728515625,0.014660334214568138,0.399952232837677,-0.12110047042369843
1701881545361364200,1.4873642578125,1.220472812652588,-0.03130592033267021,-0.3239017724990845
1701881545370956000,1.4969560546875,1.9522678852081299,-0.1375933438539505,-0.30191126465797424
1701881545380548600,1.506548583984375,0.9382613897323608,-1.3446274995803833,-0.2518217861652374
1701881545390142000,1.516141845703125,0.02076880633831024,-1.4839006662368774,-0.125987246632576
1701881545399734500,1.525734619140625,-0.26755109429359436,-0.2976353168487549,0.12583453953266144
1701881545409326300,1.535326416015625,-0.22967857122421265,0.2545706033706665,0.17592400312423706
1701881545418919000,1.5449189453125,-0.12461283802986145,0.06276455521583557,0.09895725548267365
1701881545428512300,1.55451220703125,-0.10750912129878998,0.018783552572131157,-0.04413371533155441
1701881545438104800,1.564104736328125,-0.11483928561210632,0.08231166750192642,-0.10155335813760757
1701881545447696600,1.573696533203125,-0.08307522535324097,0.09941539168357849,-0.10277505218982697
1701881545457289200,1.583289306640625,-0.046424392610788345,0.13973131775856018,-0.12720894813537598
1701881545466882600,1.592882568359375,-0.03665083646774292,0.17271706461906433,-0.1516428291797638
1701881545476475100,1.60247509765625,-0.05131116881966591,0.13484452664852142,-0.16874656081199646
1701881545486067000,1.61206689453125,-0.08307522535324097,0.05543438717722893,-0.19562382996082306
1701881545495659500,1.621659423828125,-0.11117420345544815,0.05787777900695801,-0.23471805453300476
1701881545505252900,1.6312529296875,-0.10750912129878998,0.14706148207187653,-0.26159533858299255
1701881545514845400,1.640845458984375,-0.09529217332601547,0.26067906618118286,-0.24693500995635986
1701881545524437200,1.650437255859375,-0.05741964280605316,0.38040512800216675,-0.18218518793582916
1701881545534029800,1.66002978515625,-0.007330167107284069,0.4903576374053955,-0.10033166408538818
1701881545543623200,1.669623046875,0.01588202826678753,0.3694098889827728,-0.12354385852813721
1701881545553215700,1.6792158203125,0.009773556143045425,0.2692309319972992,-0.16996824741363525
1701881545562807600,1.6888076171875,-0.013438640162348747,0.23991025984287262,-0.16019469499588013
1701881545572400000,1.698400146484375,-0.06719319522380829,0.07620319724082947,-0.2664821147918701
1701881545581993500,1.707993408203125,-0.0794101431965828,0.1360662281513214,-0.39598172903060913
1701881545591586000,1.7175859375,-0.03298575058579445,0.07620319724082947,-0.2958027720451355
1701881545601177900,1.727177734375,-0.03542914241552353,0.14828316867351532,-0.1247655525803566
1701881545610770400,1.7367705078125,-0.062306419014930725,0.25212720036506653,-0.05024218559265137
1701881545620363800,1.74636376953125,-0.06963659077882767,0.2826695740222931,-0.049020491540431976
1701881545629956400,1.755956298828125,-0.05497625470161438,0.25945737957954407,-0.06001574173569679
1701881545639548200,1.765548095703125,-0.03542914241552353,0.25212720036506653,-0.06001574173569679
1701881545649140700,1.775140625,-0.01588202826678753,0.26434415578842163,-0.06245913356542587
1701881545658734300,1.784734375,0.006108472589403391,0.2802261710166931,-0.07589777559041977
1701881545668326700,1.79432666015625,0.024433890357613564,0.2924431264400482,-0.08933641016483307
1701881545677918500,1.80391845703125,0.0390942245721817,0.3058817684650421,-0.09666658192873001
1701881545687511000,1.813510986328125,0.04886778071522713,0.31321191787719727,-0.09544488787651062
1701881545697104600,1.823104736328125,0.05619794875383377,0.31687700748443604,-0.08689302206039429
1701881545706697000,1.832697021484375,0.05986303091049194,0.32665055990219116,-0.072232685983181
1701881545716289000,1.8422890625,0.05864133685827255,0.3449759781360626,-0.05757235363125801
1701881545725881300,1.85188134765625,0.05741964280605316,0.36574479937553406,-0.04291202127933502
1701881545735475000,1.861474853515625,0.05619794875383377,0.3742966651916504,-0.031916771084070206
1701881545745067500,1.871067626953125,0.05497625470161438,0.3730749487876892,-0.027029991149902344
1701881545754659300,1.880659423828125,0.04886778071522713,0.3706315755844116,-0.02092151902616024
1701881545764252000,1.890251953125,0.03787253051996231,0.3718532621860504,-0.011147962883114815
1701881545773845200,1.89984521484375,0.023212196305394173,0.3706315755844116,0.0022906772792339325
1701881545783437800,1.909437744140625,0.010995250195264816,0.3694098889827728,0.010842538438737392
1701881545793029600,1.919029541015625,0.0012216945178806782,0.35230615735054016,0.014507622458040714
1701881545802622200,1.928622314453125,-0.009773556143045425,0.3327590525150299,0.014507622458040714
1701881545812215600,1.938215576171875,-0.01832541823387146,0.3107685446739197,0.009620844386518002
1701881545821808000,1.94780810546875,-0.030542362481355667,0.28755635023117065,0.0035123717971146107
1701881545831400000,1.95739990234375,-0.043981000781059265,0.26312246918678284,-0.0050394898280501366
1701881545840992500,1.966992431640625,-0.05375456064939499,0.23624517023563385,-0.011147962883114815
1701881545850585900,1.9765859375,-0.061084724962711334,0.2032594233751297,-0.014813045971095562
1701881545860178400,1.986178466796875,-0.062306419014930725,0.16172181069850922,-0.014813045971095562
1701881545869770200,1.995770263671875,-0.061084724962711334,0.12140589207410812,-0.011147962883114815
1701881545879362800,2.00536279296875,-0.05741964280605316,0.08231166750192642,-0.007482878863811493
1701881545888956200,2.0149560546875,-0.05131116881966591,0.04321744292974472,-0.001374406274408102
1701881545898548700,2.024548828125,-0.043981000781059265,0.004123218823224306,0.005955760832875967
1701881545908140500,2.034140625,-0.030542362481355667,-0.03374931216239929,0.013285927474498749
1701881545917733000,2.043733154296875,-0.01588202826678753,-0.06673506647348404,0.028098974376916885
1701881545927326500,2.053326416015625,0.0024433890357613564,-0.10216420143842697,0.047646086663007736
1701881545936919000,2.0629189453125,0.02076880633831024,-0.14736689627170563,0.06963659077882767
1701881545946510800,2.0725107421875,0.04153761267662048,-0.19623468816280365,0.09284878522157669
1701881545956103400,2.082103515625,0.062306419014930725,-0.2438807636499405,0.1185043677687645
1701881545965696800,2.09169677734375,0.08674030750989914,-0.284196674823761,0.14782503247261047
1701881545975289300,2.101289306640625,0.11361759155988693,-0.3196258246898651,0.17958909273147583
1701881545984881200,2.110881103515625,0.13682979345321655,-0.3611634373664856,0.2089097648859024
1701881545994473700,2.1204736328125,0.1588202863931656,-0.4039227366447449,0.23334364593029022
1701881546004067000,2.130067138671875,0.17714570462703705,-0.4369085133075714,0.2492256760597229
1701881546013659600,2.13965966796875,0.1954711228609085,-0.46867257356643677,0.25777754187583923
1701881546023251500,2.14925146484375,0.21746163070201874,-0.5126535892486572,0.258999228477478
1701881546032844000,2.158843994140625,0.2504473626613617,-0.5688515305519104,0.258999228477478
1701881546042437600,2.168437744140625,0.28098973631858826,-0.6250494718551636,0.2602209448814392
1701881546052030000,2.178030029296875,0.3005368411540985,-0.654370129108429,0.2626643180847168
1701881546061621800,2.187621826171875,0.3115321099758148,-0.6678087711334229,0.258999228477478
1701881546071214300,2.19721435546875,0.3115321099758148,-0.6604785919189453,0.2516690790653229
1701881546080808000,2.206807861328125,0.3029802441596985,-0.6348230242729187,0.24189551174640656
1701881546090400500,2.216400390625,0.29687178134918213,-0.6079457402229309,0.22723518311977386
1701881546099992000,2.225991943359375,0.2980934679508209,-0.594507098197937,0.20646637678146362
1701881546109585000,2.2355849609375,0.29442837834358215,-0.5798467397689819,0.17836740612983704
1701881546119178200,2.24517822265625,0.284654825925827,-0.5554128885269165,0.1453816443681717
1701881546128770800,2.254770751953125,0.2736595869064331,-0.5248705148696899,0.10873081535100937
1701881546138362600,2.264362548828125,0.25777754187583923,-0.49799323081970215,0.07207997888326645
1701881546147955200,2.273955078125,0.24067382514476776,-0.4747810363769531,0.03787253051996231
1701881546157548500,2.283548583984375,0.2211267054080963,-0.45889899134635925,0.007177455350756645
1701881546167141000,2.29314111328125,0.20280128717422485,-0.4491254389286041,-0.016034740954637527
1701881546176733000,2.30273291015625,0.17958909273147583,-0.4491254389286041,-0.030695075169205666
1701881546186325500,2.312325439453125,0.1563768982887268,-0.4503471553325653,-0.03436015918850899
1701881546195918800,2.3219189453125,0.13316470384597778,-0.45523393154144287,-0.03680354729294777
1701881546205511400,2.331511474609375,0.11361759155988693,-0.46134239435195923,-0.03558185324072838
1701881546215103200,2.341103271484375,0.09651386737823486,-0.47355934977531433,-0.0331384651362896
1701881546224695800,2.35069580078125,0.08429691940546036,-0.4906630516052246,-0.028251685202121735
1701881546234289200,2.3602890625,0.07696675509214401,-0.5126535892486572,-0.025808297097682953
1701881546243881700,2.3698818359375,0.07085828483104706,-0.5419742465019226,-0.02214321307837963
1701881546253473500,2.3794736328125,0.0659715011715889,-0.5761816501617432,-0.01969982497394085
1701881546263066000,2.389066162109375,0.06352811306715012,-0.6103891134262085,-0.023364907130599022
1701881546272659500,2.398659423828125,0.062306419014930725,-0.649483323097229,-0.031916771084070206
1701881546282252000,2.408251953125,0.062306419014930725,-0.6897992491722107,-0.04291202127933502
1701881546291843800,2.41784375,0.05986303091049194,-0.7313368916511536,-0.05390727147459984
1701881546301436400,2.4274365234375,0.05375456064939499,-0.7643226385116577,-0.06368082761764526
1701881546311029800,2.43702978515625,0.04153761267662048,-0.7911999225616455,-0.06856760382652283
1701881546320622300,2.446622314453125,0.025655584409832954,-0.8205205798149109,-0.07101099193096161
1701881546330214100,2.456214111328125,0.009773556143045425,-0.8376243114471436,-0.06734590977430344
1701881546339806700,2.465806640625,-0.010995250195264816,-0.830294132232666,-0.05512896552681923
1701881546349400300,2.475400390625,-0.028098974376916885,-0.8046385645866394,-0.03680354729294777
1701881546358992600,2.48499267578125,-0.03787253051996231,-0.7728744745254517,-0.01847812905907631
1701881546368584400,2.49458447265625,-0.042759306728839874,-0.7655443549156189,-0.0038177953101694584
1701881546378177000,2.504177001953125,-0.043981000781059265,-0.775317907333374,0.004734066314995289
1701881546387770600,2.5137705078125,-0.04153761267662048,-0.7728744745254517,0.010842538438737392
1701881546397363000,2.523363037109375,-0.0390942245721817,-0.7679877281188965,0.020616095513105392
1701881546406954800,2.532954833984375,-0.03787253051996231,-0.7667660117149353,0.03298575058579445
1701881546416547300,2.54254736328125,-0.03787253051996231,-0.7618792653083801,0.045202698558568954
1701881546426141000,2.552140869140625,-0.04153761267662048,-0.7447755336761475,0.0525328628718853
1701881546435733500,2.5617333984375,-0.047646086663007736,-0.724006712436676,0.05864133685827255
1701881546445325300,2.5713251953125,-0.05741964280605316,-0.6934643387794495,0.06352811306715012
1701881546454917600,2.580917724609375,-0.06352811306715012,-0.6665870547294617,0.07207997888326645
1701881546464511200,2.59051123046875,-0.0659715011715889,-0.6421532034873962,0.08551861345767975
1701881546474103800,2.600103759765625,-0.06841489672660828,-0.6103891134262085,0.09529217332601547
1701881546483695600,2.609695556640625,-0.06841489672660828,-0.571294903755188,0.09773556143045425
1701881546493288200,2.6192880859375,-0.06352811306715012,-0.5297572612762451,0.09651386737823486
1701881546502881500,2.628881591796875,-0.05619794875383377,-0.4906630516052246,0.08307522535324097
1701881546512474000,2.63847412109375,-0.047646086663007736,-0.46012070775032043,0.06841489672660828
1701881546522066000,2.64806591796875,-0.03420744836330414,-0.4381301999092102,0.04886778071522713
1701881546531658500,2.657658447265625,-0.01832541823387146,-0.4161396920681,0.03542914241552353
1701881546541251800,2.667251953125,-0.0036650835536420345,-0.39170581102371216,0.030542362481355667
1701881546550844400,2.676844482421875,0.008551862090826035,-0.36605021357536316,0.030542362481355667
1701881546560436200,2.686436279296875,0.01588202826678753,-0.3465031087398529,0.03176405653357506
1701881546570028800,2.69602880859375,0.01710372418165207,-0.333064466714859,0.03542914241552353
1701881546579622100,2.7056220703125,0.014660334214568138,-0.32695600390434265,0.03787253051996231
1701881546589214700,2.715214599609375,0.008551862090826035,-0.3196258246898651,0.04153761267662048
1701881546598806500,2.724806640625,0.0024433890357613564,-0.31351736187934875,0.04153761267662048
1701881546608399000,2.734399169921875,-0.007330167107284069,-0.3061871826648712,0.0390942245721817
1701881546617992400,2.743992431640625,-0.01832541823387146,-0.29885703325271606,0.03542914241552353
1701881546627585000,2.7535849609375,-0.028098974376916885,-0.29030516743659973,0.03298575058579445
1701881546637176800,2.7631767578125,-0.0390942245721817,-0.27564483880996704,0.03542914241552353
1701881546646769400,2.772769287109375,-0.04031591862440109,-0.26220619678497314,0.03420744836330414
1701881546656362800,2.78236279296875,-0.03787253051996231,-0.24021568894386292,0.030542362481355667
1701881546665955300,2.791955322265625,-0.030542362481355667,-0.2157817929983139,0.028098974376916885
1701881546675547100,2.801547119140625,-0.02076880633831024,-0.18401773273944855,0.021837789565324783
1701881546685139700,2.8111396484375,-0.009773556143045425,-0.15958385169506073,0.01695101149380207
1701881546694733000,2.820733154296875,-0.0012216945178806782,-0.12904147803783417,0.012064233422279358
1701881546704325600,2.83032568359375,0.007330167107284069,-0.09483403712511063,0.007177455350756645
1701881546713917400,2.83991748046875,0.012216945178806782,-0.056961506605148315,0.007177455350756645
1701881546723510000,2.849510009765625,0.01710372418165207,-0.017867282032966614,0.005955760832875967
1701881546733103600,2.859103515625,0.01832541823387146,0.017561858519911766,0.0022906772792339325
1701881546742696000,2.868696044921875,0.01588202826678753,0.05421269312500954,-0.00259610079228878
1701881546752287700,2.878287841796875,0.010995250195264816,0.09452861547470093,-0.007482878863811493
1701881546761880300,2.88788037109375,0.006108472589403391,0.1360662281513214,-0.014813045971095562
1701881546771474000,2.897473876953125,0.0024433890357613564,0.17393875122070312,-0.023364907130599022
1701881546781066500,2.90706640625,-0.0024433890357613564,0.20570281147956848,-0.03436015918850899
1701881546790658000,2.916657958984375,-0.006108472589403391,0.23624517023563385,-0.04291202127933502
1701881546800251000,2.9262509765625,-0.008551862090826035,0.26190075278282166,-0.047798797488212585
1701881546809844200,2.93584423828125,-0.009773556143045425,0.28877803683280945,-0.05268557742238045
1701881546819436800,2.945436767578125,-0.012216945178806782,0.3107685446739197,-0.05635065957903862
1701881546829028600,2.955028564453125,-0.013438640162348747,0.3327590525150299,-0.06001574173569679
1701881546838621200,2.96462109375,-0.01710372418165207,0.35108447074890137,-0.06001574173569679
1701881546848214500,2.974214599609375,-0.01954711228609085,0.36452311277389526,-0.06001574173569679
1701881546857807000,2.98380712890625,-0.025655584409832954,0.3718532621860504,-0.06123743951320648
1701881546867399000,2.99339892578125,-0.028098974376916885,0.3742966651916504,-0.06123743951320648
1701881546876991500,3.002991455078125,-0.03176405653357506,0.3742966651916504,-0.06490252166986465
1701881546886584800,3.012584716796875,-0.03665083646774292,0.3694098889827728,-0.06856760382652283
1701881546896177400,3.022177490234375,-0.03787253051996231,0.3608580231666565,-0.07345438003540039
1701881546905769200,3.031769287109375,-0.03665083646774292,0.3498627543449402,-0.07834116369485855
1701881546915361800,3.04136181640625,-0.03665083646774292,0.33764582872390747,-0.08200624585151672
1701881546924955100,3.050955078125,-0.03665083646774292,0.32909396290779114,-0.0844496339559555
1701881546934547700,3.060547607421875,-0.03542914241552353,0.3205420970916748,-0.08689302206039429
1701881546944139500,3.070139404296875,-0.03298575058579445,0.31321191787719727,-0.08811471611261368
1701881546953732000,3.079732177734375,-0.029320668429136276,0.30343836545944214,-0.09177979826927185
1701881546963325400,3.089325439453125,-0.023212196305394173,0.296108216047287,-0.0978882759809494
1701881546972918000,3.09891796875,-0.01588202826678753,0.28877803683280945,-0.10521844029426575
1701881546982509800,3.108509765625,-0.007330167107284069,0.2838912606239319,-0.1113269105553627
1701881546992102400,3.118102294921875,0.0024433890357613564,0.2826695740222931,-0.11254860460758209
1701881547001696000,3.127696044921875,0.013438640162348747,0.2777827978134155,-0.11254860460758209
1701881547011288300,3.137288330078125,0.021990500390529633,0.27411770820617676,-0.10888352245092392
1701881547020880100,3.146880126953125,0.030542362481355667,0.2667875289916992,-0.10399674624204636
1701881547030472700,3.15647265625,0.0390942245721817,0.2570139765739441,-0.09422318637371063
1701881547040066300,3.16606640625,0.047646086663007736,0.2435753494501114,-0.07956285774707794
1701881547049658600,3.17565869140625,0.05497625470161438,0.2313583940267563,-0.06490252166986465
1701881547059250400,3.18525048828125,0.06352811306715012,0.22158484160900116,-0.051463883370161057
1701881547068843000,3.194843017578125,0.07085828483104706,0.21425467729568481,-0.03924693539738655
1701881547078436600,3.2044365234375,0.07696675509214401,0.21181128919124603,-0.025808297097682953
1701881547088029200,3.214029296875,0.08063183724880219,0.20814619958400726,-0.013591351918876171
1701881547097621000,3.22362109375,0.08063183724880219,0.2044811248779297,-0.001374406274408102
1701881547107213300,3.23321337890625,0.0794101431965828,0.19348587095737457,0.007177455350756645
1701881547116807000,3.242806884765625,0.07574506103992462,0.18249061703681946,0.008399149402976036
1701881547126399500,3.2523994140625,0.06841489672660828,0.16660858690738678,0.007177455350756645
1701881547135991300,3.2619912109375,0.05864133685827255,0.1519482582807541,0.0022906772792339325
1701881547145583900,3.271583984375,0.047646086663007736,0.1385096162557602,-0.0038177953101694584
1701881547155177200,3.28117724609375,0.03420744836330414,0.12140589207410812,-0.014813045971095562
1701881547164769800,3.290769775390625,0.01710372418165207,0.10552386194467545,-0.028251685202121735
1701881547174361600,3.300361572265625,0.0012216945178806782,0.09575030952692032,-0.04169032722711563
1701881547183954200,3.3099541015625,-0.014660334214568138,0.09086353331804276,-0.05757235363125801
1701881547193547500,3.319547607421875,-0.028098974376916885,0.09086353331804276,-0.07101099193096161
1701881547203140000,3.32914013671875,-0.042759306728839874,0.09208522737026215,-0.08322793990373611
1701881547212732000,3.33873193359375,-0.05619794875383377,0.09208522737026215,-0.09300149232149124
1701881547222324500,3.348324462890625,-0.0659715011715889,0.09452861547470093,-0.10155335813760757
1701881547231917800,3.357917724609375,-0.07574506103992462,0.0981936976313591,-0.10888352245092392
1701881547241510400,3.367510498046875,-0.08063183724880219,0.10430216789245605,-0.11254860460758209
1701881547251102200,3.377102294921875,-0.08429691940546036,0.10918894410133362,-0.11621369421482086
1701881547260694800,3.38669482421875,-0.08551861345767975,0.11651911586523056,-0.11743538826704025
1701881547270288100,3.3962880859375,-0.08551861345767975,0.1250709742307663,-0.11621369421482086
1701881547279880700,3.405880615234375,-0.08307522535324097,0.13117945194244385,-0.11377029865980148
1701881547289472500,3.415472412109375,-0.0781884491443634,0.13362284004688263,-0.11254860460758209
1701881547299065000,3.425065185546875,-0.07207997888326645,0.13362284004688263,-0.11010521650314331
1701881547308658400,3.434658447265625,-0.06719319522380829,0.12995775043964386,-0.10277505218982697
1701881547318251000,3.4442509765625,-0.05986303091049194,0.1250709742307663,-0.09666658192873001
1701881547327842800,3.4538427734375,-0.05375456064939499,0.11529742181301117,-0.08933641016483307
1701881547337435400,3.463435302734375,-0.045202698558568954,0.10308047384023666,-0.08078455179929733
1701881547347029000,3.473029052734375,-0.0390942245721817,0.08964183181524277,-0.07589777559041977
1701881547356621300,3.482621337890625,-0.03176405653357506,0.07742489129304886,-0.07101099193096161
1701881547366213000,3.492213134765625,-0.026877280324697495,0.06765133142471313,-0.06612421572208405
1701881547375805700,3.5018056640625,-0.023212196305394173,0.05665608495473862,-0.06245913356542587
1701881547385399300,3.5113994140625,-0.01954711228609085,0.051769305020570755,-0.0587940476834774
1701881547394991900,3.520991943359375,-0.014660334214568138,0.04932591691613197,-0.05635065957903862
1701881547404583400,3.53058349609375,-0.009773556143045425,0.04810422286391258,-0.05390727147459984
1701881547414176300,3.54017626953125,-0.006108472589403391,0.0456608310341835,-0.05512896552681923
1701881547423769600,3.54976953125,-0.0036650835536420345,0.04443913698196411,-0.05757235363125801
1701881547433362200,3.559362060546875,-0.0024433890357613564,0.04443913698196411,-0.06001574173569679
1701881547442954000,3.5689541015625,-0.0024433890357613564,0.0456608310341835,-0.05757235363125801
1701881547452546600,3.578546630859375,-0.0036650835536420345,0.04932591691613197,-0.05390727147459984
1701881547462140000,3.588139892578125,-0.004886778071522713,0.05421269312500954,-0.047798797488212585
1701881547471732500,3.597732421875,-0.007330167107284069,0.05787777900695801,-0.03924693539738655
1701881547481324300,3.60732421875,-0.006108472589403391,0.06032116711139679,-0.031916771084070206
1701881547490916900,3.616916748046875,-0.007330167107284069,0.06032116711139679,-0.028251685202121735
1701881547500510200,3.62651025390625,-0.006108472589403391,0.05665608495473862,-0.025808297097682953
1701881547510102800,3.636102783203125,-0.007330167107284069,0.052990999072790146,-0.025808297097682953
1701881547519694600,3.645694580078125,-0.010995250195264816,0.04932591691613197,-0.028251685202121735
1701881547529287200,3.655287109375,-0.012216945178806782,0.050547610968351364,-0.029473381116986275
1701881547538880500,3.664880615234375,-0.014660334214568138,0.051769305020570755,-0.03436015918850899
1701881547548473000,3.67447314453125,-0.01710372418165207,0.051769305020570755,-0.03924693539738655
1701881547558065000,3.68406494140625,-0.01832541823387146,0.05543438717722893,-0.04291202127933502
1701881547567657500,3.693657470703125,-0.01954711228609085,0.0590994730591774,-0.04413371533155441
1701881547577250800,3.703250732421875,-0.024433890357613564,0.06154286116361618,-0.04291202127933502
1701881547586843400,3.712843505859375,-0.026877280324697495,0.06520794332027435,-0.03924693539738655
1701881547596435200,3.722435302734375,-0.03176405653357506,0.06520794332027435,-0.03558185324072838
1701881547606027800,3.73202783203125,-0.03787253051996231,0.06765133142471313,-0.03436015918850899
1701881547615621000,3.74162109375,-0.042759306728839874,0.06887302547693253,-0.0331384651362896
1701881547625213700,3.751213623046875,-0.04886778071522713,0.06887302547693253,-0.03680354729294777
1701881547634805500,3.760805419921875,-0.05375456064939499,0.06887302547693253,-0.03802524134516716
1701881547644398000,3.770398193359375,-0.05864133685827255,0.06642963737249374,-0.03924693539738655
1701881547653991700,3.77999169921875,-0.05986303091049194,0.06642963737249374,-0.03924693539738655
1701881547663584000,3.789583984375,-0.062306419014930725,0.06765133142471313,-0.04169032722711563
1701881547673175800,3.79917578125,-0.0647498071193695,0.0713164210319519,-0.04413371533155441
1701881547682768400,3.808768310546875,-0.06719319522380829,0.07498150318861008,-0.045355409383773804
1701881547692362000,3.818362060546875,-0.06719319522380829,0.07742489129304886,-0.046577103435993195
1701881547701954300,3.827954345703125,-0.0659715011715889,0.07986827939748764,-0.046577103435993195
1701881547711546400,3.83754638671875,-0.0647498071193695,0.07864658534526825,-0.045355409383773804
1701881547721138700,3.847138671875,-0.061084724962711334,0.07498150318861008,-0.04413371533155441
1701881547730732300,3.856732177734375,-0.05864133685827255,0.0713164210319519,-0.04413371533155441
1701881547740324900,3.866324951171875,-0.05741964280605316,0.06642963737249374,-0.04413371533155441
1701881547749916700,3.875916748046875,-0.05619794875383377,0.06398624926805496,-0.04413371533155441
1701881547759509200,3.88550927734375,-0.05375456064939499,0.06276455521583557,-0.04291202127933502
1701881547769102600,3.8951025390625,-0.0525328628718853,0.06398624926805496,-0.04046862944960594
1701881547778695200,3.904695068359375,-0.05008947476744652,0.06765133142471313,-0.03680354729294777
1701881547788287000,3.914286865234375,-0.046424392610788345,0.07009471952915192,-0.03436015918850899
1701881547797879600,3.923879638671875,-0.043981000781059265,0.07375980913639069,-0.031916771084070206
1701881547807473000,3.933472900390625,-0.0390942245721817,0.07620319724082947,-0.027029991149902344
1701881547817065500,3.9430654296875,-0.03298575058579445,0.08108997344970703,-0.01969982497394085
1701881547826657300,3.9526572265625,-0.025655584409832954,0.08108997344970703,-0.013591351918876171
1701881547836249900,3.962249755859375,-0.01588202826678753,0.08353336155414581,-0.007482878863811493
1701881547845843200,3.97184326171875,-0.006108472589403391,0.0847550556063652,-0.0038177953101694584
1701881547855435800,3.981435791015625,0.004886778071522713,0.08231166750192642,-0.001374406274408102
1701881547865027600,3.991027587890625,0.01588202826678753,0.07864658534526825,0.0022906772792339325
1701881547874620200,4.0006201171875,0.024433890357613564,0.0725381150841713,0.005955760832875967
1701881547884213500,4.010213623046875,0.03298575058579445,0.06887302547693253,0.007177455350756645
1701881547893806000,4.01980615234375,0.04031591862440109,0.06398624926805496,0.010842538438737392
1701881547903398000,4.02939794921875,0.046424392610788345,0.06032116711139679,0.014507622458040714
1701881547912990500,4.038990478515625,0.05131116881966591,0.0590994730591774,0.019394399598240852
1701881547922583800,4.048583740234375,0.05619794875383377,0.05665608495473862,0.024433890357613564
1701881547932176400,4.05817626953125,0.05986303091049194,0.05543438717722893,0.03298575058579445
1701881547941768200,4.067768310546875,0.062306419014930725,0.05665608495473862,0.04153761267662048
1701881547951360800,4.07736083984375,0.0647498071193695,0.05543438717722893,0.046424392610788345
1701881547960954400,4.086954345703125,0.06841489672660828,0.0590994730591774,0.05131116881966591
1701881547970546700,4.096546630859375,0.06963659077882767,0.06276455521583557,0.05131116881966591
1701881547980138500,4.106138427734375,0.07085828483104706,0.06276455521583557,0.05008947476744652
1701881547989731000,4.11573095703125,0.07207997888326645,0.06276455521583557,0.045202698558568954
1701881547999324700,4.12532470703125,0.07207997888326645,0.06276455521583557,0.04031591862440109
1701881548008917200,4.134917236328125,0.06963659077882767,0.06520794332027435,0.03665083646774292
1701881548018508800,4.1445087890625,0.06719319522380829,0.06520794332027435,0.030542362481355667
1701881548028101600,4.1541015625,0.06352811306715012,0.06765133142471313,0.024433890357613564
1701881548037695000,4.163695068359375,0.061084724962711334,0.06887302547693253,0.020616095513105392
1701881548047287600,4.17328759765625,0.05864133685827255,0.06642963737249374,0.019394399598240852
1701881548056879400,4.18287939453125,0.05741964280605316,0.06520794332027435,0.020616095513105392
1701881548066472000,4.192471923828125,0.05497625470161438,0.06276455521583557,0.024433890357613564
1701881548076065300,4.202065185546875,0.0525328628718853,0.06398624926805496,0.025655584409832954
1701881548085657900,4.211657958984375,0.04886778071522713,0.06276455521583557,0.023212196305394173
1701881548095249700,4.221249755859375,0.047646086663007736,0.0590994730591774,0.019394399598240852
1701881548104842200,4.23084228515625,0.047646086663007736,0.0590994730591774,0.019394399598240852
1701881548114435600,4.240435546875,0.046424392610788345,0.06154286116361618,0.01695101149380207
1701881548124028200,4.250028076171875,0.047646086663007736,0.06520794332027435,0.014507622458040714
1701881548133620000,4.259619873046875,0.0525328628718853,0.06642963737249374,0.012064233422279358
1701881548143212500,4.269212646484375,0.05986303091049194,0.0713164210319519,0.009620844386518002
1701881548152806000,4.278805908203125,0.0647498071193695,0.06520794332027435,0.013285927474498749
1701881548162398500,4.2883984375,0.0659715011715889,0.06765133142471313,0.025655584409832954
1701881548171990300,4.297990234375,0.07085828483104706,0.07498150318861008,0.03542914241552353
1701881548181582800,4.307582763671875,0.0781884491443634,0.08231166750192642,0.04031591862440109
1701881548191176200,4.31717626953125,0.08796200156211853,0.0847550556063652,0.043981000781059265
1701881548200768800,4.326768798828125,0.10140064358711243,0.0847550556063652,0.05131116881966591
1701881548210360600,4.336360595703125,0.11361759155988693,0.0859767496585846,0.05741964280605316
1701881548219953200,4.345953125,0.12583453953266144,0.08842013776302338,0.06352811306715012
1701881548229546500,4.35554638671875,0.13682979345321655,0.09452861547470093,0.07085828483104706
1701881548239139000,4.36513916015625,0.15271180868148804,0.0981936976313591,0.08063183724880219
1701881548248731000,4.37473095703125,0.1698155403137207,0.10308047384023666,0.09529217332601547
1701881548258323500,4.384323486328125,0.18814095854759216,0.10308047384023666,0.11239589750766754
1701881548267916800,4.393916748046875,0.2089097648859024,0.10185877978801727,0.1319430023431778
1701881548277509400,4.40350927734375,0.23090025782585144,0.09697200357913971,0.14782503247261047
1701881548287101200,4.41310107421875,0.2516690790653229,0.09208522737026215,0.16004198789596558
1701881548296693800,4.42269384765625,0.27121618390083313,0.08964183181524277,0.16859383881092072
1701881548306287400,4.432287353515625,0.284654825925827,0.08964183181524277,0.17714570462703705
1701881548315879700,4.441879638671875,0.2980934679508209,0.09330692142248154,0.18081079423427582
1701881548325471500,4.451471435546875,0.3115321099758148,0.09208522737026215,0.1844758689403534
1701881548335064300,4.461064208984375,0.32130566239356995,0.08719844371080399,0.19180603325366974
1701881548344657700,4.47065771484375,0.3298575282096863,0.08108997344970703,0.19913621246814728
1701881548354250200,4.480250244140625,0.33718767762184143,0.06765133142471313,0.20768806338310242
1701881548363842000,4.489842041015625,0.34451785683631897,0.051769305020570755,0.21746163070201874
1701881548373434600,4.4994345703125,0.35795649886131287,0.031000498682260513,0.22601348161697388
1701881548383028000,4.509028076171875,0.3775036036968231,0.0065666078589856625,0.2357870489358902
1701881548392620500,4.51862060546875,0.39949411153793335,-0.008093725889921188,0.24678228795528412
1701881548402212400,4.52821240234375,0.4214846193790436,-0.001985253533348441,0.24556060135364532
1701881548411805000,4.537804931640625,0.43614494800567627,0.020005248486995697,0.2345653474330902
1701881548421398300,4.547398193359375,0.448361873626709,0.0590994730591774,0.23090025782585144
1701881548430990800,4.556990966796875,0.47646087408065796,0.1250709742307663,0.24433889985084534
1701881548440582700,4.566582763671875,0.5216635465621948,0.1910424828529358,0.26999449729919434
1701881548450175200,4.57617529296875,0.5741963982582092,0.21914145350456238,0.2980934679508209
1701881548459768600,4.5857685546875,0.6340594291687012,0.1898207813501358,0.3249707520008087
1701881548469361200,4.595361083984375,0.6853706240653992,0.11774080991744995,0.3432961702346802
1701881548478953000,4.604952880859375,0.7159129977226257,0.04077405482530594,0.3506263196468353
1701881548488545500,4.614545654296875,0.7244648337364197,-0.010537114925682545,0.3396310806274414
1701881548498139000,4.624138916015625,0.7146912813186646,-0.015423892997205257,0.32008397579193115
1701881548507731500,4.6337314453125,0.6963658928871155,0.020005248486995697,0.2919849753379822
1701881548517323300,4.6433232421875,0.6621584296226501,0.08108997344970703,0.2602209448814392
1701881548526915800,4.652915771484375,0.6169557571411133,0.1629435122013092,0.23212195932865143
1701881548536509400,4.662509521484375,0.5790832042694092,0.24968381226062775,0.21257483959197998
1701881548546101800,4.672101806640625,0.5473191738128662,0.3046600818634033,0.1979145109653473
1701881548555693600,4.681693603515625,0.5033381581306458,0.31199023127555847,0.17958909273147583
1701881548565286100,4.6912861328125,0.43736663460731506,0.24968381226062775,0.1563768982887268
1701881548574879700,4.700879638671875,0.3506263196468353,0.11774080991744995,0.13927318155765533
1701881548584472000,4.71047216796875,0.24556060135364532,-0.019088976085186005,0.1319430023431778
1701881548594064000,4.72006396484375,0.129499614238739,-0.12171131372451782,0.12094775587320328
1701881548603656400,4.729656494140625,0.01832541823387146,-0.19867807626724243,0.0916270911693573
1701881548613250000,4.73925,-0.07696675509214401,-0.22555534541606903,0.045202698558568954
1701881548622842600,4.748842529296875,-0.1563768982887268,-0.1754658818244934,-0.00992626789957285
1701881548632434400,4.758434326171875,-0.2113531529903412,-0.06917845457792282,-0.0844496339559555
1701881548642026800,4.76802685546875,-0.18814095854759216,0.0847550556063652,-0.149199441075325
1701881548651620400,4.777620361328125,-0.10995250940322876,0.2948864996433258,-0.125987246632576
1701881548661213000,4.787212890625,-0.07207997888326645,0.3962871730327606,-0.09055810421705246
1701881548670804700,4.7968046875,-0.11606097966432571,0.24846212565898895,-0.14309096336364746
1701881548680397300,4.806397216796875,0.0012216945178806782,0.17882554233074188,-0.17118994891643524
1701881548689990700,4.81599072265625,0.10750912129878998,0.031000498682260513,-0.15897299349308014
1701881548699583200,4.825583251953125,0.10017894953489304,-0.03130592033267021,-0.13576079905033112
1701881548709175000,4.835175048828125,0.062306419014930725,-0.015423892997205257,-0.10888352245092392
1701881548718767600,4.844767578125,0.024433890357613564,-0.0032069480512291193,-0.08322793990373611
1701881548728361000,4.85436083984375,-0.01954711228609085,-0.0068720318377017975,-0.06856760382652283
1701881548737953500,4.86395361328125,-0.045202698558568954,-0.03008422814309597,-0.06612421572208405
1701881548747545300,4.87354541015625,-0.043981000781059265,-0.10216420143842697,-0.047798797488212585
1701881548757138000,4.883137939453125,-0.05497625470161438,-0.20722992718219757,0.013285927474498749
1701881548766731300,4.892731201171875,-0.08063183724880219,-0.3342861533164978,0.10995250940322876
1701881548776323800,4.90232373046875,-0.1319430023431778,-0.44546034932136536,0.21746163070201874
1701881548785915600,4.91191552734375,-0.19424942135810852,-0.5554128885269165,0.3176405727863312
1701881548795508200,4.92150830078125,-0.2638860046863556,-0.6250494718551636,0.4056025743484497
1701881548805101600,4.9311015625,-0.3054236173629761,-0.6739172339439392,0.474017471075058
1701881548814694100,4.940694091796875,-0.30908870697021484,-0.6983511447906494,0.4984513521194458
1701881548824286000,4.950285888671875,-0.2858765125274658,-0.6885775923728943,0.4715740978717804
1701881548833878500,4.95987841796875,-0.261442631483078,-0.6592568755149841,0.41293275356292725
1701881548843472000,4.969471923828125,-0.2089097648859024,-0.6812474131584167,0.3384093940258026
1701881548853064400,4.979064453125,-0.12705622613430023,-0.73255854845047,0.2651077210903168
1701881548862656300,4.98865625,-0.0525328628718853,-0.724006712436676,0.21990501880645752
1701881548872248800,4.998248779296875,-0.01954711228609085,-0.6983511447906494,0.2357870489358902
1701881548881842400,5.007842529296875,-0.01710372418165207,-0.7215633392333984,0.30664533376693726
1701881548891434800,5.017434814453125,-0.010995250195264816,-0.7117897868156433,0.38605546951293945
1701881548901026600,5.027026611328125,-0.05741964280605316,-0.6702521443367004,0.4312581717967987
1701881548910619400,5.036619384765625,-0.10873081535100937,-0.700794517993927,0.4300364851951599
1701881548920212700,5.046212646484375,-0.1172826737165451,-0.6482616662979126,0.36284327507019043
1701881548929805300,5.055805419921875,-0.11483928561210632,-0.5541911721229553,0.24067382514476776
1701881548939397000,5.065397216796875,-0.11483928561210632,-0.46989426016807556,0.10873081535100937
1701881548948989700,5.07498974609375,-0.11361759155988693,-0.36727190017700195,-0.00015271181473508477
1701881548958583000,5.0845830078125,-0.11239589750766754,-0.2438807636499405,-0.07956285774707794
1701881548968175600,5.094175537109375,-0.12705622613430023,-0.12659808993339539,-0.1369825005531311
1701881548977767400,5.103767333984375,-0.15149012207984924,-0.04840964451432228,-0.19562382996082306
1701881548987360000,5.113360107421875,-0.20035789906978607,-0.039857782423496246,-0.256708562374115
1701881548996953300,5.122953369140625,-0.27854636311531067,-0.06551336497068405,-0.31290650367736816
1701881549006546000,5.1325458984375,-0.3518480062484741,-0.07773031294345856,-0.33978378772735596
1701881549016137700,5.1421376953125,-0.38727715611457825,-0.072843536734581,-0.3336753249168396
1701881549025730300,5.151730224609375,-0.3689517378807068,-0.04963133856654167,-0.3092414140701294
1701881549035323600,5.16132373046875,-0.36284327507019043,-0.005650337319821119,-0.2786990702152252
1701881549044916200,5.170916259765625,-0.38727715611457825,0.03833066672086716,-0.2579302489757538
1701881549054508000,5.180508056640625,-0.4422534108161926,0.034665580838918686,-0.2530434727668762
1701881549064100600,5.1901005859375,-0.4862344264984131,0.020005248486995697,-0.26037365198135376
1701881549073694000,5.19969384765625,-0.5424323678016663,0.06887302547693253,-0.2811424434185028
1701881549083286500,5.20928662109375,-0.5986303091049194,0.0029015245381742716,-0.31290650367736816
1701881549092878300,5.21887841796875,-0.5583143830299377,-0.022754060104489326,-0.35200074315071106
1701881549102471000,5.228470947265625,-0.5509842038154602,0.06276455521583557,-0.38009971380233765
1701881549112064300,5.238064208984375,-0.5118899941444397,0.004123218823224306,-0.40575528144836426
1701881549121656800,5.24765673828125,-0.4471401870250702,-0.014202198944985867,-0.4546230733394623
1701881549131248600,5.25724853515625,-0.40193748474121094,-0.014202198944985867,-0.5047125220298767
1701881549140841200,5.26684130859375,-0.4068242609500885,-0.03130592033267021,-0.5486935377120972
1701881549150434600,5.2764345703125,-0.3640649616718292,-0.038636088371276855,-0.5926745533943176
1701881549160027100,5.286027099609375,-0.36284327507019043,-0.0594048947095871,-0.6635328531265259
1701881549169619000,5.295618896484375,-0.2895416021347046,-0.07040014863014221,-0.7343910932540894
1701881549179211500,5.30521142578125,-0.2761029601097107,0.050547610968351364,-0.7918107509613037
1701881549188805000,5.31480517578125,-0.2907632887363434,0.033443886786699295,-0.7991409301757812
1701881549198397400,5.3243974609375,-0.27976804971694946,0.004123218823224306,-0.8247964978218079
1701881549207989200,5.3339892578125,-0.29565006494522095,0.1372879147529602,-0.880994439125061
1701881549217582000,5.34358203125,-0.3408527672290802,0.2154763638973236,-0.9225320816040039
1701881549227175400,5.353175537109375,-0.37383851408958435,0.1238492801785469,-0.9164236187934875
1701881549236768000,5.36276806640625,-0.42514967918395996,0.06276455521583557,-0.885881245136261
1701881549246359800,5.37235986328125,-0.53143709897995,0.10185877978801727,-0.880994439125061
1701881549255952400,5.381952392578125,-0.6354338526725769,0.12140589207410812,-0.8895463347434998
1701881549265545700,5.391545654296875,-0.7233958840370178,0.15316994488239288,-0.885881245136261
1701881549275138300,5.40113818359375,-0.7918107509613037,0.10063708573579788,-0.8663341403007507
1701881549284730000,5.410730224609375,-0.7820371985435486,0.05665608495473862,-0.826018214225769
1701881549294322700,5.42032275390625,-0.80280601978302,0.06398624926805496,-0.811357855796814
1701881549303916000,5.429916015625,-0.7820371985435486,0.010231691412627697,-0.8199097514152527
1701881549313508600,5.439508544921875,-0.7466080784797668,-0.039857782423496246,-0.8370134830474854
1701881549323100400,5.449100341796875,-0.7307260632514954,-0.05207473039627075,-0.8736643195152283
1701881549332693000,5.45869287109375,-0.7160657048225403,-0.039857782423496246,-0.9249754548072815
1701881549342286300,5.468286376953125,-0.7087355256080627,-0.014202198944985867,-0.9823951125144958
1701881549351879000,5.47787890625,-0.7136223316192627,0.033443886786699295,-1.0398147106170654
1701881549361470700,5.487470703125,-0.7246175408363342,0.1104106456041336,-1.1045645475387573
1701881549371063300,5.497063232421875,-0.7417212724685669,0.1104106456041336,-1.1607625484466553
1701881549380656600,5.50665673828125,-0.7734853625297546,0.09208522737026215,-1.2010784149169922
1701881549390249200,5.516249267578125,-0.8125795722007751,0.0713164210319519,-1.2059651613235474
1701881549399841000,5.525841064453125,-0.8480086922645569,0.04932591691613197,-1.1790878772735596
1701881549409433600,5.53543359375,-0.8797727823257446,0.033443886786699295,-1.1363285779953003
1701881549419027200,5.545027099609375,-0.9078717231750488,0.028557108715176582,-1.0899041891098022
1701881549428619500,5.55461962890625,-0.9249754548072815,0.033443886786699295,-1.061805248260498
1701881549438211300,5.56421142578125,-0.9286405444145203,0.04199574887752533,-1.0654703378677368
1701881549447804000,5.573803955078125,-0.917645275592804,0.04810422286391258,-1.0960127115249634
1701881549457397500,5.5833974609375,-0.8932114243507385,0.04443913698196411,-1.141215443611145
1701881549466989800,5.59298974609375,-0.8638907074928284,0.02733541466295719,-1.1839747428894043
1701881549476581600,5.60258154296875,-0.8357917666435242,0.004123218823224306,-1.2096302509307861
1701881549486174200,5.61217431640625,-0.8138012886047363,-0.012980503961443901,-1.2096302509307861
1701881549495767800,5.621767822265625,-0.8015843033790588,-0.020310672000050545,-1.1900831460952759
1701881549505360400,5.6313603515625,-0.80280601978302,-0.02886253222823143,-1.171757698059082
1701881549514952200,5.6409521484375,-0.8138012886047363,-0.03008422814309597,-1.1607625484466553
1701881549524544800,5.650544677734375,-0.826018214225769,-0.021532366052269936,-1.1619842052459717
1701881549534138000,5.66013818359375,-0.8357917666435242,-0.004428642801940441,-1.164427638053894
1701881549543730700,5.669730712890625,-0.8480086922645569,0.012675080448389053,-1.1570974588394165
1701881549553322500,5.679322509765625,-0.8541171550750732,0.03955236077308655,-1.1338852643966675
1701881549562915000,5.6889150390625,-0.8590039610862732,0.06887302547693253,-1.102121114730835
1701881549572508400,5.69850830078125,-0.8590039610862732,0.0847550556063652,-1.0593618154525757
1701881549582101000,5.70810107421875,-0.8528954982757568,0.09452861547470093,-1.0190459489822388
1701881549591692800,5.71769287109375,-0.8419002294540405,0.09697200357913971,-0.9836167693138123
1701881549601285400,5.727285400390625,-0.8235748410224915,0.09086353331804276,-0.9567395448684692
1701881549610878700,5.736878662109375,-0.80280601978302,0.08719844371080399,-0.9420791864395142
1701881549620471300,5.74647119140625,-0.7808154821395874,0.08842013776302338,-0.9347490072250366
1701881549630063000,5.75606298828125,-0.7649334669113159,0.09452861547470093,-0.9335273504257202
1701881549639655700,5.76565576171875,-0.7527165412902832,0.09941539168357849,-0.9396358132362366
1701881549649249000,5.7752490234375,-0.7478297352790833,0.10308047384023666,-0.9457442760467529
1701881549658841600,5.784841552734375,-0.7466080784797668,0.10552386194467545,-0.9506310224533081
1701881549668433400,5.794433349609375,-0.751494824886322,0.10552386194467545,-0.9542961120605469
1701881549678026000,5.80402587890625,-0.7600467205047607,0.09208522737026215,-0.9530744552612305
1701881549687619300,5.813619384765625,-0.7722636461257935,0.07498150318861008,-0.9494093656539917
1701881549697212000,5.8232119140625,-0.7832589149475098,0.05665608495473862,-0.9335273504257202
1701881549706803700,5.8328037109375,-0.8101361989974976,0.04932591691613197,-0.9225320816040039
1701881549716396300,5.842396240234375,-0.8480086922645569,0.034665580838918686,-0.9103151559829712
1701881549725989600,5.85198974609375,-0.8932114243507385,0.011453386396169662,-0.885881245136261
1701881549735582200,5.861582275390625,-0.9469659924507141,-0.03374931216239929,-0.8541171550750732
1701881549745174000,5.871174072265625,-0.987281858921051,-0.0716218426823616,-0.8125795722007751
1701881549754766600,5.8807666015625,-1.0227110385894775,-0.072843536734581,-0.7698202729225159
1701881549764360200,5.890360107421875,-1.0422581434249878,-0.08994726091623306,-0.7233958840370178
1701881549773952500,5.899952392578125,-1.0361496210098267,-0.08872556686401367,-0.6794148683547974
1701881549783544300,5.90954443359375,-1.0337063074111938,-0.07528692483901978,-0.6329904794692993
1701881549793137200,5.91913720703125,-1.030041217803955,-0.08750387281179428,-0.575570821762085
1701881549802730500,5.92873046875,-0.9909469485282898,-0.08383878320455551,-0.5132644176483154
1701881549812323000,5.938322998046875,-0.9359707236289978,-0.04107947647571564,-0.4656183123588562
1701881549821915000,5.947914794921875,-0.8993198871612549,-0.08017370104789734,-0.4020902216434479
1701881549831507500,5.957507568359375,-0.826018214225769,-0.07773031294345856,-0.35566580295562744
1701881549841100800,5.967100830078125,-0.751494824886322,-0.07895200699567795,-0.31657159328460693
1701881549850693400,5.976693359375,-0.6843016147613525,-0.07040014863014221,-0.2591519355773926
1701881549860285200,5.98628515625,-0.6207735538482666,-0.04352286830544472,-0.2029540091753006
1701881549869877800,5.995877685546875,-0.5656445622444153,-0.008093725889921188,-0.1638597846031189
1701881549879471000,6.00547119140625,-0.5008947253227234,0.037108972668647766,-0.149199441075325
1701881549889063700,6.015063720703125,-0.4434750974178314,0.05665608495473862,-0.14553436636924744
1701881549898655500,6.024655517578125,-0.38849884271621704,0.06154286116361618,-0.13331741094589233
1701881549908248000,6.034248046875,-0.3396310806274414,0.05787777900695801,-0.11499200016260147
1701881549917841400,6.04384130859375,-0.29320669174194336,0.04688252881169319,-0.09666658192873001
1701881549927434000,6.05343408203125,-0.2516690790653229,0.04688252881169319,-0.09177979826927185
1701881549937025800,6.06302587890625,-0.21868331730365753,0.051769305020570755,-0.0978882759809494
1701881549946618400,6.072618408203125,-0.1954711228609085,0.04199574887752533,-0.10888352245092392
1701881549956211700,6.082211669921875,-0.18814095854759216,0.03833066672086716,-0.12965233623981476
1701881549965804300,6.09180419921875,-0.18569757044315338,0.04443913698196411,-0.15897299349308014
1701881549975396000,6.10139599609375,-0.18569757044315338,0.051769305020570755,-0.18096350133419037
1701881549984988700,6.11098876953125,-0.19180603325366974,0.04443913698196411,-0.1907370537519455
1701881549994582000,6.12058203125,-0.18814095854759216,0.03955236077308655,-0.1895153671503067
1701881550004174600,6.130174560546875,-0.20035789906978607,0.029778804630041122,-0.1772984117269516
1701881550013766400,6.139766357421875,-0.20646637678146362,0.04077405482530594,-0.14431266486644745
1701881550023359000,6.14935888671875,-0.20402298867702484,0.06276455521583557,-0.10644013434648514
1701881550032952300,6.158952392578125,-0.2089097648859024,0.06154286116361618,-0.06368082761764526
1701881550042545000,6.168544921875,-0.2089097648859024,0.0713164210319519,-0.028251685202121735
1701881550052136700,6.17813671875,-0.1954711228609085,0.12140589207410812,-0.013591351918876171
1701881550061729300,6.187729248046875,-0.21746163070201874,0.0456608310341835,0.03787253051996231
1701881550071323000,6.197322998046875,-0.17714570462703705,0.06398624926805496,0.046424392610788345
1701881550080915200,6.206915283203125,-0.13805148005485535,0.05543438717722893,0.061084724962711334
1701881550090507000,6.216507080078125,-0.10262233763933182,0.03955236077308655,0.06841489672660828
1701881550100099600,6.226099609375,-0.0659715011715889,0.033443886786699295,0.0647498071193695
1701881550109693200,6.235693115234375,-0.03176405653357506,0.03833066672086716,0.047646086663007736
1701881550119285800,6.24528564453125,-0.0036650835536420345,0.05421269312500954,0.023212196305394173
1701881550128877600,6.254877685546875,0.007330167107284069,0.07864658534526825,-0.00015271181473508477
1701881550138470100,6.26447021484375,0.007330167107284069,0.09452861547470093,-0.013591351918876171
1701881550148063500,6.2740634765625,0.007330167107284069,0.09086353331804276,-0.01969982497394085
1701881550157656000,6.283656005859375,0.012216945178806782,0.07498150318861008,-0.024586603045463562
1701881550167248000,6.293247802734375,0.01588202826678753,0.05543438717722893,-0.030695075169205666
1701881550176840400,6.30284033203125,0.01954711228609085,0.04688252881169319,-0.0331384651362896
1701881550186433800,6.312433837890625,0.01832541823387146,0.04810422286391258,-0.030695075169205666
1701881550196026400,6.3220263671875,0.01588202826678753,0.06032116711139679,-0.023364907130599022
1701881550205618200,6.3316181640625,0.012216945178806782,0.0713164210319519,-0.014813045971095562
1701881550215210800,6.341210693359375,0.012216945178806782,0.07498150318861008,-0.00259610079228878
1701881550224804000,6.35080419921875,0.012216945178806782,0.07498150318861008,0.01572931744158268
1701881550234396700,6.360396728515625,0.013438640162348747,0.07009471952915192,0.026877280324697495
1701881550243988500,6.369988525390625,0.01588202826678753,0.06520794332027435,0.03420744836330414
1701881550253581000,6.3795810546875,0.024433890357613564,0.06154286116361618,0.03665083646774292
1701881550263174400,6.38917431640625,0.030542362481355667,0.052990999072790146,0.03298575058579445
1701881550272767000,6.39876708984375,0.029320668429136276,0.04688252881169319,0.028098974376916885
1701881550282358800,6.40835888671875,0.029320668429136276,0.0456608310341835,0.020616095513105392
1701881550291951400,6.417951416015625,0.028098974376916885,0.04443913698196411,0.010842538438737392
1701881550301544700,6.427544677734375,0.029320668429136276,0.04199574887752533,-0.00015271181473508477
1701881550311137300,6.43713720703125,0.03665083646774292,0.037108972668647766,-0.012369656935334206
1701881550320729000,6.44672900390625,0.04886778071522713,0.028557108715176582,-0.02092151902616024
1701881550330321700,6.45632177734375,0.05741964280605316,0.011453386396169662,-0.025808297097682953
1701881550339915300,6.465915283203125,0.06352811306715012,-0.001985253533348441,-0.028251685202121735
1701881550349507600,6.475507568359375,0.06963659077882767,-0.0032069480512291193,-0.030695075169205666
1701881550359099400,6.485099365234375,0.0781884491443634,-0.0032069480512291193,-0.0331384651362896
1701881550368692000,6.49469189453125,0.08307522535324097,-0.001985253533348441,-0.03436015918850899
1701881550378285600,6.50428564453125,0.08796200156211853,-0.0007635590736754239,-0.030695075169205666
1701881550387878100,6.513878173828125,0.0916270911693573,0.0029015245381742716,-0.024586603045463562
1701881550397469700,6.5234697265625,0.09773556143045425,0.012675080448389053,-0.016034740954637527
1701881550407062300,6.533062255859375,0.11361759155988693,0.031000498682260513,-0.012369656935334206
1701881550416656000,6.54265576171875,0.1185043677687645,0.051769305020570755,-0.011147962883114815
1701881550426248400,6.55224853515625,0.11239589750766754,0.06154286116361618,-0.00992626789957285
1701881550435840300,6.56184033203125,0.10384403169155121,0.06154286116361618,-0.0038177953101694584
1701881550445432800,6.571432861328125,0.09529217332601547,0.051769305020570755,0.0035123717971146107
1701881550455026200,6.581026123046875,0.08307522535324097,0.04077405482530594,0.009620844386518002
1701881550464618800,6.59061865234375,0.07696675509214401,0.033443886786699295,0.012064233422279358
1701881550474210600,6.60021044921875,0.07330167293548584,0.02489202655851841,0.013285927474498749
1701881550483803100,6.60980322265625,0.07085828483104706,0.017561858519911766,0.013285927474498749
1701881550493396500,6.619396484375,0.07207997888326645,0.01511846948415041,0.014507622458040714
1701881550502989000,6.628989013671875,0.08185353130102158,0.021226942539215088,0.01572931744158268
1701881550512580900,6.638580810546875,0.08185353130102158,0.02733541466295719,0.019394399598240852
1701881550522173400,6.64817333984375,0.0794101431965828,0.028557108715176582,0.026877280324697495
1701881550531766800,6.657766845703125,0.07696675509214401,0.033443886786699295,0.03298575058579445
1701881550541359400,6.667359375,0.07574506103992462,0.037108972668647766,0.03665083646774292
1701881550550951200,6.676951171875,0.07696675509214401,0.03833066672086716,0.0390942245721817
1701881550560543700,6.686543701171875,0.07696675509214401,0.034665580838918686,0.0390942245721817
1701881550570137000,6.69613720703125,0.0781884491443634,0.02733541466295719,0.03542914241552353
1701881550579729700,6.705729736328125,0.08063183724880219,0.016340164467692375,0.026877280324697495
1701881550589321500,6.715321533203125,0.0781884491443634,0.0029015245381742716,0.01572931744158268
1701881550598914000,6.7249140625,0.07085828483104706,-0.010537114925682545,0.0022906772792339325
1701881550608507400,6.73450732421875,0.0659715011715889,-0.016645587980747223,-0.007482878863811493
1701881550618100000,6.744099853515625,0.061084724962711334,-0.021532366052269936,-0.012369656935334206
1701881550627691800,6.75369189453125,0.05741964280605316,-0.023975754156708717,-0.013591351918876171
1701881550637284400,6.763284423828125,0.05497625470161438,-0.025197450071573257,-0.008704573847353458
1701881550646877700,6.772877685546875,0.05741964280605316,-0.025197450071573257,-0.0050394898280501366
1701881550656470300,6.78247021484375,0.0794101431965828,-0.01175880990922451,-0.00259610079228878
1701881550666062000,6.79206201171875,0.09040539711713791,0.005344913341104984,-0.00259610079228878
1701881550675654700,6.801654541015625,0.0916270911693573,0.004123218823224306,-0.00259610079228878
1701881550685248300,6.811248291015625,0.09529217332601547,0.004123218823224306,-0.0038177953101694584
1701881550694840600,6.820840576171875,0.09895725548267365,0.004123218823224306,-0.006261184345930815
1701881550704432400,6.830432373046875,0.10384403169155121,0.0065666078589856625,-0.011147962883114815
1701881550714025200,6.840025146484375,0.1050657257437706,0.011453386396169662,-0.01725643500685692
1701881550723618600,6.84961865234375,0.10384403169155121,0.018783552572131157,-0.023364907130599022
1701881550733211100,6.859211181640625,0.09651386737823486,0.02489202655851841,-0.028251685202121735
1701881550742802700,6.868802734375,0.08796200156211853,0.031000498682260513,-0.028251685202121735
1701881550752395500,6.8783955078125,0.08307522535324097,0.037108972668647766,-0.024586603045463562
1701881550761988900,6.88798876953125,0.07574506103992462,0.03955236077308655,-0.02092151902616024
1701881550771581400,6.89758154296875,0.06963659077882767,0.04077405482530594,-0.016034740954637527
1701881550781173200,6.90717333984375,0.05864133685827255,0.03833066672086716,-0.012369656935334206
1701881550790765800,6.916765869140625,0.05008947476744652,0.03588727489113808,-0.00992626789957285
1701881550800359200,6.926359130859375,0.04031591862440109,0.032222192734479904,-0.00992626789957285
1701881550809951700,6.93595166015625,0.03420744836330414,0.029778804630041122,-0.011147962883114815
1701881550819543600,6.94554345703125,0.03176405653357506,0.02489202655851841,-0.014813045971095562
1701881550829136100,6.95513623046875,0.028098974376916885,0.017561858519911766,-0.01847812905907631
1701881550838729500,6.9647294921875,0.026877280324697495,0.010231691412627697,-0.02092151902616024
1701881550848322000,6.974322021484375,0.021990500390529633,0.0065666078589856625,-0.023364907130599022
1701881550857913900,6.983913818359375,0.01832541823387146,0.0029015245381742716,-0.02214321307837963
1701881550867506400,6.99350634765625,0.014660334214568138,0.0016798300202935934,-0.01847812905907631
1701881550877099800,7.003099853515625,0.010995250195264816,0.0029015245381742716,-0.014813045971095562
1701881550886692400,7.0126923828125,0.008551862090826035,0.005344913341104984,-0.011147962883114815
1701881550896284200,7.0222841796875,0.008551862090826035,0.007788302376866341,-0.008704573847353458
1701881550905876700,7.031876708984375,0.013438640162348747,0.01511846948415041,-0.006261184345930815
1701881550915470000,7.041469970703125,0.010995250195264816,0.01511846948415041,-0.0038177953101694584
1701881550925062700,7.051062744140625,0.009773556143045425,0.017561858519911766,-0.001374406274408102
1701881550934654500,7.060654541015625,0.012216945178806782,0.017561858519911766,-0.001374406274408102
1701881550944247000,7.0702470703125,0.012216945178806782,0.013896775431931019,-0.001374406274408102
1701881550953840600,7.079840576171875,0.012216945178806782,0.012675080448389053,-0.001374406274408102
1701881550963433000,7.089432861328125,0.014660334214568138,0.010231691412627697,-0.0050394898280501366
1701881550973024800,7.099024658203125,0.01832541823387146,0.009009997360408306,-0.00992626789957285
1701881550982617300,7.108617431640625,0.021990500390529633,0.005344913341104984,-0.014813045971095562
1701881550992211000,7.1182109375,0.026877280324697495,0.0016798300202935934,-0.01725643500685692
1701881551001803300,7.12780322265625,0.029320668429136276,-0.001985253533348441,-0.02092151902616024
1701881551011395300,7.137395263671875,0.03298575058579445,-0.004428642801940441,-0.023364907130599022
1701881551020987600,7.146987548828125,0.03542914241552353,-0.005650337319821119,-0.024586603045463562
1701881551030581200,7.156581298828125,0.03787253051996231,-0.0068720318377017975,-0.027029991149902344
1701881551040173800,7.166173828125,0.0390942245721817,-0.009315420873463154,-0.030695075169205666
1701881551049765600,7.175765625,0.03787253051996231,-0.014202198944985867,-0.03436015918850899
1701881551059358200,7.185358154296875,0.03542914241552353,-0.020310672000050545,-0.03558185324072838
1701881551068951600,7.19495166015625,0.03298575058579445,-0.02641914412379265,-0.03436015918850899
1701881551078544100,7.204544189453125,0.03176405653357506,-0.03008422814309597,-0.030695075169205666
1701881551088136000,7.214135986328125,0.03176405653357506,-0.03374931216239929,-0.027029991149902344
1701881551097728500,7.223728515625,0.029320668429136276,-0.037414394319057465,-0.02214321307837963
1701881551107321900,7.23332177734375,0.028098974376916885,-0.038636088371276855,-0.01725643500685692
1701881551116914400,7.24291455078125,0.028098974376916885,-0.038636088371276855,-0.012369656935334206
1701881551126506200,7.25250634765625,0.028098974376916885,-0.038636088371276855,-0.008704573847353458
1701881551136098800,7.262098876953125,0.028098974376916885,-0.038636088371276855,-0.0050394898280501366
1701881551145692200,7.271692138671875,0.026877280324697495,-0.03374931216239929,-0.00259610079228878
1701881551155284700,7.28128466796875,0.025655584409832954,-0.02764083817601204,-0.00259610079228878
1701881551164876500,7.29087646484375,0.01954711228609085,-0.021532366052269936,-0.0050394898280501366
1701881551174469000,7.30046923828125,0.01710372418165207,-0.017867282032966614,-0.008704573847353458
1701881551184062500,7.3100625,0.012216945178806782,-0.012980503961443901,-0.00992626789957285
1701881551193655000,7.319655029296875,0.006108472589403391,-0.010537114925682545,-0.011147962883114815
1701881551203246800,7.329246826171875,-0.0012216945178806782,-0.008093725889921188,-0.008704573847353458
1701881551212839400,7.33883935546875,-0.007330167107284069,-0.004428642801940441,-0.006261184345930815
1701881551222432800,7.348432861328125,-0.007330167107284069,-0.0007635590736754239,-0.00259610079228878
1701881551232025300,7.358025390625,-0.007330167107284069,0.0016798300202935934,-0.00015271181473508477
1701881551241617200,7.3676171875,-0.007330167107284069,0.005344913341104984,-0.00015271181473508477
1701881551251209700,7.377209716796875,-0.006108472589403391,0.010231691412627697,-0.00015271181473508477
1701881551260803300,7.38680322265625,-0.004886778071522713,0.012675080448389053,-0.001374406274408102
1701881551270395600,7.396395751953125,-0.0036650835536420345,0.013896775431931019,-0.00259610079228878
1701881551279987500,7.405987548828125,-0.0012216945178806782,0.01511846948415041,-0.00259610079228878
1701881551289580000,7.415580078125,-0.0012216945178806782,0.013896775431931019,-0.001374406274408102
1701881551299173600,7.425173583984375,0,0.01511846948415041,-0.00015271181473508477
1701881551308766200,7.43476611328125,-0.0024433890357613564,0.011453386396169662,-0.00015271181473508477
1701881551318357800,7.444357666015625,-0.0036650835536420345,0.010231691412627697,-0.00259610079228878
1701881551327950600,7.45395068359375,-0.006108472589403391,0.007788302376866341,-0.001374406274408102
1701881551337544000,7.4635439453125,-0.008551862090826035,0.0065666078589856625,-0.00015271181473508477
1701881551347136500,7.473136474609375,-0.009773556143045425,0.007788302376866341,0.0022906772792339325
1701881551356728300,7.482728271484375,-0.008551862090826035,0.009009997360408306,0.0022906772792339325
1701881551366321000,7.49232080078125,-0.008551862090826035,0.007788302376866341,0.0035123717971146107
1701881551375914200,7.501914306640625,-0.009773556143045425,0.007788302376866341,0.0035123717971146107
1701881551385506800,7.5115068359375,-0.010995250195264816,0.005344913341104984,0.0022906772792339325
1701881551395098600,7.5210986328125,-0.012216945178806782,0.005344913341104984,0.0035123717971146107
1701881551404691200,7.530691162109375,-0.012216945178806782,0.005344913341104984,0.005955760832875967
1701881551414284500,7.540284423828125,-0.012216945178806782,0.0029015245381742716,0.010842538438737392
1701881551423877000,7.549877197265625,-0.013438640162348747,0.0029015245381742716,0.014507622458040714
1701881551433469000,7.559468994140625,-0.014660334214568138,0.0029015245381742716,0.01695101149380207
1701881551443061500,7.5690615234375,-0.013438640162348747,0.0029015245381742716,0.01817270554602146
1701881551452654800,7.57865478515625,-0.013438640162348747,0.0029015245381742716,0.01817270554602146
1701881551462247400,7.588247314453125,-0.014660334214568138,0.004123218823224306,0.01695101149380207
1701881551471839200,7.597839111328125,-0.01588202826678753,0.0029015245381742716,0.014507622458040714
1701881551481431800,7.607431884765625,-0.01710372418165207,0.0016798300202935934,0.013285927474498749
1701881551491025200,7.617025146484375,-0.01832541823387146,0.0016798300202935934,0.010842538438737392
1701881551500617700,7.62661767578125,-0.01832541823387146,-0.0007635590736754239,0.009620844386518002
1701881551510209500,7.63620947265625,-0.01954711228609085,-0.0032069480512291193,0.010842538438737392
1701881551519802000,7.645802001953125,-0.01832541823387146,-0.004428642801940441,0.010842538438737392
1701881551529395500,7.6553955078125,-0.01832541823387146,-0.004428642801940441,0.012064233422279358
1701881551538988000,7.664988037109375,-0.01954711228609085,-0.005650337319821119,0.014507622458040714
1701881551548579800,7.674579833984375,-0.02076880633831024,-0.004428642801940441,0.01572931744158268
1701881551558172400,7.68417236328125,-0.023212196305394173,-0.004428642801940441,0.01817270554602146
1701881551567765800,7.693765869140625,-0.026877280324697495,-0.004428642801940441,0.01817270554602146
1701881551577358300,7.7033583984375,-0.030542362481355667,-0.0032069480512291193,0.019394399598240852
1701881551586950100,7.7129501953125,-0.03542914241552353,-0.004428642801940441,0.020616095513105392
1701881551596542700,7.722542724609375,-0.0390942245721817,-0.0032069480512291193,0.020616095513105392
1701881551606136300,7.73213623046875,-0.04031591862440109,-0.0007635590736754239,0.01817270554602146
1701881551615728600,7.741728759765625,-0.042759306728839874,-0.0007635590736754239,0.019394399598240852
1701881551625320400,7.751320556640625,-0.042759306728839874,-0.001985253533348441,0.020616095513105392
1701881551634913300,7.760913330078125,-0.04031591862440109,-0.0007635590736754239,0.020616095513105392
1701881551644506600,7.770506591796875,-0.03787253051996231,0.0004581354442052543,0.020616095513105392
1701881551654099200,7.78009912109375,-0.03420744836330414,0.0029015245381742716,0.021837789565324783
1701881551663691000,7.78969091796875,-0.028098974376916885,0.005344913341104984,0.020616095513105392
1701881551673283600,7.79928369140625,-0.026877280324697495,0.0029015245381742716,0.021837789565324783
1701881551682877000,7.808876953125,-0.021990500390529633,0.004123218823224306,0.021837789565324783
1701881551692469500,7.818469482421875,-0.021990500390529633,0.004123218823224306,0.021837789565324783
1701881551702061300,7.828061279296875,-0.01954711228609085,0.005344913341104984,0.020616095513105392
1701881551711654000,7.83765380859375,-0.01710372418165207,0.010231691412627697,0.01695101149380207
1701881551721247200,7.847247314453125,-0.01588202826678753,0.012675080448389053,0.014507622458040714
1701881551730839800,7.85683984375,-0.01710372418165207,0.013896775431931019,0.012064233422279358
1701881551740431600,7.866431640625,-0.01588202826678753,0.016340164467692375,0.009620844386518002
1701881551750024200,7.876024169921875,-0.01588202826678753,0.01511846948415041,0.008399149402976036
1701881551759617500,7.885617431640625,-0.014660334214568138,0.016340164467692375,0.012064233422279358
1701881551769210000,7.895210205078125,-0.009773556143045425,0.02367033064365387,0.03665083646774292
1701881551778802000,7.904802001953125,-0.014660334214568138,0.016340164467692375,0.03542914241552353
1701881551788394500,7.91439453125,-0.012216945178806782,0.005344913341104984,0.024433890357613564
1701881551797987800,7.92398779296875,-0.008551862090826035,0.0004581354442052543,0.020616095513105392
1701881551807580400,7.933580322265625,-0.006108472589403391,0.004123218823224306,0.021837789565324783
1701881551817172200,7.943172119140625,-0.008551862090826035,0.004123218823224306,0.021837789565324783
1701881551826764800,7.952764892578125,-0.009773556143045425,0.0029015245381742716,0.019394399598240852
1701881551836358400,7.9623583984375,-0.008551862090826035,0.0004581354442052543,0.01572931744158268
1701881551845950700,7.97195068359375,-0.007330167107284069,-0.0032069480512291193,0.012064233422279358
1701881551855542500,7.98154248046875,-0.004886778071522713,-0.0032069480512291193,0.009620844386518002
1701881551865135000,7.991135009765625,-0.006108472589403391,-0.0007635590736754239,0.007177455350756645
1701881551874728700,8.000728759765625,-0.008551862090826035,0.0029015245381742716,0.0010689827613532543
1701881551884321000,8.010321044921875,-0.008551862090826035,0.005344913341104984,-0.00259610079228878
1701881551893912800,8.019912841796875,-0.010995250195264816,-0.001985253533348441,-0.0050394898280501366
1701881551903505400,8.02950537109375,-0.013438640162348747,-0.014202198944985867,-0.0050394898280501366
1701881551913099000,8.03909912109375,-0.010995250195264816,-0.02764083817601204,-0.00259610079228878
1701881551922691300,8.04869140625,-0.007330167107284069,-0.02886253222823143,-0.001374406274408102
1701881551932283400,8.058283447265625,-0.009773556143045425,-0.020310672000050545,-0.00015271181473508477
1701881551941875700,8.067875732421875,-0.013438640162348747,-0.01175880990922451,-0.001374406274408102
1701881551951469300,8.07746923828125,-0.01588202826678753,-0.012980503961443901,-0.00259610079228878
1701881551961062000,8.087061767578126,-0.013438640162348747,-0.020310672000050545,-0.00015271181473508477
1701881551970653700,8.09665380859375,-0.012216945178806782,-0.017867282032966614,0.005955760832875967
1701881551980246300,8.106246337890624,-0.014660334214568138,-0.010537114925682545,0.007177455350756645
1701881551989839600,8.115839599609375,-0.013438640162348747,-0.0032069480512291193,-0.00015271181473508477
1701881551999432200,8.12543212890625,-0.0012216945178806782,-0.0032069480512291193,-0.00992626789957285
1701881552009024000,8.13502392578125,-0.0024433890357613564,-0.008093725889921188,-0.00992626789957285
1701881552018616600,8.144616455078125,0.0024433890357613564,0.0004581354442052543,-0.0038177953101694584
1701881552028210000,8.1542099609375,0.0024433890357613564,0.007788302376866341,0.0010689827613532543
1701881552037802500,8.163802490234374,-0.0024433890357613564,0.009009997360408306,0.0022906772792339325
1701881552047394300,8.173394287109375,-0.007330167107284069,0.009009997360408306,0.0035123717971146107
1701881552056987000,8.18298681640625,-0.006108472589403391,0.005344913341104984,0.0035123717971146107
1701881552066580200,8.192580322265625,0,0.005344913341104984,0.004734066314995289
1701881552076172800,8.2021728515625,0.006108472589403391,0.010231691412627697,0.004734066314995289
1701881552085764600,8.2117646484375,0.009773556143045425,0.017561858519911766,0.0035123717971146107
1701881552095357200,8.221357177734374,0.014660334214568138,0.02367033064365387,0.009620844386518002
1701881552104950500,8.230950439453125,0.01710372418165207,0.017561858519911766,0.013285927474498749
1701881552114543000,8.240543212890625,0.013438640162348747,0.0016798300202935934,0.009620844386518002
1701881552124135000,8.250135009765625,0.01710372418165207,-0.012980503961443901,0.0035123717971146107
1701881552133727500,8.2597275390625,0.023212196305394173,-0.022754060104489326,-0.006261184345930815
1701881552143320800,8.26932080078125,0.028098974376916885,-0.03130592033267021,-0.01847812905907631
1701881552152913400,8.278913330078124,0.029320668429136276,-0.039857782423496246,-0.029473381116986275
1701881552162505200,8.288505126953124,0.026877280324697495,-0.04230117425322533,-0.03680354729294777
1701881552172097800,8.298097900390625,0.021990500390529633,-0.04718795046210289,-0.04046862944960594
1701881552181691400,8.30769140625,0.01588202826678753,-0.04963133856654167,-0.03924693539738655
1701881552191283700,8.31728369140625,0.008551862090826035,-0.04963133856654167,-0.0331384651362896
1701881552200875500,8.32687548828125,-0.0012216945178806782,-0.054518118500709534,-0.024586603045463562
1701881552210468400,8.33646826171875,-0.007330167107284069,-0.054518118500709534,-0.012369656935334206
1701881552220061700,8.346061767578124,-0.010995250195264816,-0.05329642444849014,-0.001374406274408102
1701881552229654300,8.355654296875,-0.012216945178806782,-0.05207473039627075,0.009620844386518002
1701881552239246000,8.36524609375,-0.012216945178806782,-0.04963133856654167,0.01695101149380207
1701881552248838700,8.374838623046875,-0.009773556143045425,-0.05207473039627075,0.01695101149380207
1701881552258432000,8.384431884765625,-0.0024433890357613564,-0.0594048947095871,0.012064233422279358
1701881552268024600,8.394024658203126,0.006108472589403391,-0.06673506647348404,0.004734066314995289
1701881552277616400,8.403616455078126,0.01588202826678753,-0.06673506647348404,-0.0050394898280501366
1701881552287209000,8.413208984375,0.024433890357613564,-0.06062658876180649,-0.01725643500685692
1701881552296802300,8.42280224609375,0.03420744836330414,-0.04963133856654167,-0.027029991149902344
1701881552306395000,8.432394775390625,0.043981000781059265,-0.03374931216239929,-0.03436015918850899
1701881552315986700,8.441986572265625,0.0525328628718853,-0.021532366052269936,-0.03924693539738655
1701881552325579300,8.451579345703125,0.05741964280605316,-0.010537114925682545,-0.04046862944960594
1701881552335172600,8.461172607421876,0.05986303091049194,-0.001985253533348441,-0.03924693539738655
1701881552344765200,8.47076513671875,0.061084724962711334,0.0029015245381742716,-0.03680354729294777
1701881552354357000,8.48035693359375,0.061084724962711334,0.004123218823224306,-0.0331384651362896
1701881552363949600,8.489949462890625,0.061084724962711334,0.0016798300202935934,-0.028251685202121735
1701881552373543000,8.49954296875,0.06352811306715012,-0.001985253533348441,-0.024586603045463562
1701881552383135500,8.509135498046875,0.0659715011715889,-0.0068720318377017975,-0.023364907130599022
1701881552392727300,8.518727294921876,0.0647498071193695,-0.004428642801940441,-0.016034740954637527
1701881552402320000,8.52831982421875,0.062306419014930725,-0.001985253533348441,-0.006261184345930815
1701881552411913200,8.537913330078124,0.05986303091049194,0.005344913341104984,0.004734066314995289
1701881552421505800,8.547505859375,0.05864133685827255,0.012675080448389053,0.010842538438737392
1701881552431097600,8.55709765625,0.05497625470161438,0.016340164467692375,0.012064233422279358
1701881552440690200,8.566690185546875,0.05008947476744652,0.02367033064365387,0.012064233422279358
1701881552450283500,8.576283447265626,0.046424392610788345,0.029778804630041122,0.009620844386518002
1701881552459876000,8.5858759765625,0.045202698558568954,0.032222192734479904,0.009620844386518002
1701881552469468000,8.595468017578124,0.042759306728839874,0.033443886786699295,0.007177455350756645
1701881552479060500,8.605060546875,0.03787253051996231,0.033443886786699295,0.004734066314995289
1701881552488654000,8.614654052734375,0.03298575058579445,0.029778804630041122,0.0035123717971146107
1701881552498246400,8.624246337890625,0.028098974376916885,0.0261137206107378,0.005955760832875967
1701881552507838200,8.633838134765625,0.02076880633831024,0.020005248486995697,0.009620844386518002
1701881552517430800,8.6434306640625,0.01832541823387146,0.01511846948415041,0.014507622458040714
1701881552527024400,8.6530244140625,0.01588202826678753,0.012675080448389053,0.01817270554602146
1701881552536617000,8.662616943359374,0.01710372418165207,0.016340164467692375,0.019394399598240852
1701881552546208800,8.672208740234375,0.014660334214568138,0.017561858519911766,0.014507622458040714
1701881552555801300,8.68180126953125,0.013438640162348747,0.021226942539215088,0.008399149402976036
1701881552565394700,8.691394775390625,0.008551862090826035,0.021226942539215088,0.0022906772792339325
1701881552574987300,8.7009873046875,0.0036650835536420345,0.020005248486995697,-0.00015271181473508477
1701881552584579000,8.7105791015625,-0.004886778071522713,0.012675080448389053,-0.00015271181473508477
1701881552594171600,8.720171630859374,-0.013438640162348747,0.009009997360408306,0.005955760832875967
1701881552603765000,8.729764892578125,-0.021990500390529633,0.007788302376866341,0.01817270554602146
1701881552613357600,8.739357666015625,-0.028098974376916885,0.005344913341104984,0.03176405653357506
1701881552622949400,8.748949462890625,-0.03176405653357506,0.005344913341104984,0.043981000781059265
1701881552632542000,8.7585419921875,-0.030542362481355667,0.0065666078589856625,0.05375456064939499
1701881552642135300,8.76813525390625,-0.028098974376916885,0.007788302376866341,0.061084724962711334
1701881552651728000,8.777727783203124,-0.024433890357613564,0.013896775431931019,0.06352811306715012
1701881552661319700,8.787319580078124,-0.01954711228609085,0.02367033064365387,0.061084724962711334
1701881552670912300,8.796912353515625,-0.014660334214568138,0.029778804630041122,0.0525328628718853
1701881552680505600,8.806505615234375,-0.009773556143045425,0.03588727489113808,0.04031591862440109
1701881552690098200,8.81609814453125,-0.004886778071522713,0.037108972668647766,0.028098974376916885
1701881552699690000,8.82568994140625,-0.0024433890357613564,0.037108972668647766,0.020616095513105392
1701881552709282600,8.835282470703126,-0.0024433890357613564,0.037108972668647766,0.01572931744158268
1701881552718876000,8.8448759765625,-0.004886778071522713,0.033443886786699295,0.012064233422279358
1701881552728468500,8.854468505859375,-0.008551862090826035,0.029778804630041122,0.013285927474498749
1701881552738060300,8.864060302734375,-0.014660334214568138,0.02489202655851841,0.014507622458040714
1701881552747652900,8.87365283203125,-0.01954711228609085,0.017561858519911766,0.019394399598240852
1701881552757246500,8.88324658203125,-0.02076880633831024,0.013896775431931019,0.025655584409832954
1701881552766838800,8.8928388671875,-0.02076880633831024,0.009009997360408306,0.030542362481355667
1701881552776430600,8.9024306640625,-0.02076880633831024,0.005344913341104984,0.03420744836330414
1701881552786023200,8.912023193359374,-0.01954711228609085,0.0029015245381742716,0.03420744836330414
1701881552795616800,8.92161669921875,-0.01588202826678753,0.004123218823224306,0.029320668429136276
1701881552805209000,8.931208984375,-0.010995250195264816,0.0004581354442052543,0.020616095513105392
1701881552814801200,8.94080126953125,-0.007330167107284069,-0.001985253533348441,0.008399149402976036
1701881552824393500,8.9503935546875,-0.004886778071522713,-0.0068720318377017975,-0.00259610079228878
1701881552833987000,8.959987060546876,-0.0036650835536420345,-0.012980503961443901,-0.013591351918876171
1701881552843579600,8.96957958984375,-0.0024433890357613564,-0.020310672000050545,-0.02092151902616024
1701881552853171500,8.97917138671875,-0.0012216945178806782,-0.023975754156708717,-0.02214321307837963
1701881552862764000,8.988763916015625,-0.0036650835536420345,-0.02886253222823143,-0.01725643500685692
1701881552872357400,8.998357421875,-0.004886778071522713,-0.03008422814309597,-0.011147962883114815
1701881552881950000,9.007949951171875,-0.007330167107284069,-0.02764083817601204,-0.001374406274408102
1701881552891541800,9.017541748046876,-0.009773556143045425,-0.025197450071573257,0.007177455350756645
1701881552901134300,9.02713427734375,-0.010995250195264816,-0.019088976085186005,0.012064233422279358
1701881552910727700,9.036727783203125,-0.012216945178806782,-0.010537114925682545,0.013285927474498749
1701881552920320300,9.0463203125,-0.012216945178806782,-0.004428642801940441,0.010842538438737392
1701881552929912000,9.055912109375,-0.013438640162348747,0.0029015245381742716,0.008399149402976036
1701881552939504600,9.065504638671875,-0.012216945178806782,0.017561858519911766,0.0022906772792339325
1701881552949098000,9.075097900390626,-0.007330167107284069,0.021226942539215088,-0.008704573847353458
1701881552958690600,9.084690673828124,-0.0036650835536420345,0.0016798300202935934,-0.02214321307837963
1701881552968282400,9.094282470703124,0.004886778071522713,-0.02886253222823143,-0.03924693539738655
1701881552977875000,9.103875,0.009773556143045425,-0.037414394319057465,-0.03924693539738655
1701881552987468300,9.11346826171875,0.010995250195264816,-0.036192700266838074,-0.028251685202121735
1701881552997060900,9.123060791015625,0.009773556143045425,-0.023975754156708717,-0.01847812905907631
1701881553006652700,9.132652587890625,0.004886778071522713,-0.014202198944985867,-0.007482878863811493
1701881553016245200,9.142245361328126,-0.0012216945178806782,-0.005650337319821119,0.0022906772792339325
1701881553025838600,9.151838623046874,-0.006108472589403391,0.0065666078589856625,0.012064233422279358
1701881553035431200,9.16143115234375,-0.009773556143045425,0.009009997360408306,0.01695101149380207
1701881553045023000,9.17102294921875,-0.009773556143045425,0.004123218823224306,0.013285927474498749
1701881553054615600,9.180615478515625,-0.008551862090826035,0.004123218823224306,0.005955760832875967
1701881553064209200,9.190209228515625,-0.004886778071522713,0.005344913341104984,-0.00259610079228878
1701881553073801500,9.199801513671876,0.0012216945178806782,0.004123218823224306,-0.008704573847353458
1701881553083393300,9.209393310546876,0.006108472589403391,0.004123218823224306,-0.00992626789957285
1701881553092986000,9.218986083984374,0.008551862090826035,0.012675080448389053,-0.001374406274408102
1701881553102579500,9.228579345703125,0.008551862090826035,0.020005248486995697,0.012064233422279358
1701881553112172000,9.238172119140625,0.008551862090826035,0.017561858519911766,0.01817270554602146
1701881553121763600,9.247763671875,0.009773556143045425,0.017561858519911766,0.023212196305394173
1701881553131356400,9.2573564453125,0.010995250195264816,0.020005248486995697,0.025655584409832954
1701881553140949800,9.26694970703125,0.012216945178806782,0.02367033064365387,0.028098974376916885
1701881553150542300,9.276542236328124,0.014660334214568138,0.020005248486995697,0.024433890357613564
1701881553160134100,9.286134033203124,0.02076880633831024,0.0065666078589856625,0.009620844386518002
1701881553169726700,9.295726806640625,0.025655584409832954,0.005344913341104984,-0.0050394898280501366
1701881553179320000,9.305320068359375,0.029320668429136276,0.0065666078589856625,-0.014813045971095562
1701881553188912600,9.31491259765625,0.030542362481355667,0.007788302376866341,-0.02092151902616024
1701881553198504400,9.32450439453125,0.029320668429136276,0.007788302376866341,-0.01725643500685692
1701881553208097000,9.334096923828126,0.025655584409832954,0.01511846948415041,-0.0038177953101694584
1701881553217690400,9.3436904296875,0.01832541823387146,0.021226942539215088,0.012064233422279358
1701881553227283000,9.353282958984375,0.01588202826678753,0.02244863659143448,0.024433890357613564
1701881553236874800,9.362874755859375,0.01710372418165207,0.010231691412627697,0.023212196305394173
1701881553246467300,9.37246728515625,0.01832541823387146,0.0065666078589856625,0.014507622458040714
1701881553256060700,9.382060791015626,0.02076880633831024,0.01511846948415041,0.005955760832875967
1701881553265653200,9.3916533203125,0.024433890357613564,0.021226942539215088,-0.00015271181473508477
1701881553275245000,9.4012451171875,0.030542362481355667,0.013896775431931019,-0.007482878863811493
1701881553284837600,9.410837646484374,0.03542914241552353,0.007788302376866341,-0.014813045971095562
1701881553294431000,9.420430908203125,0.03787253051996231,0.011453386396169662,-0.014813045971095562
1701881553304023600,9.4300234375,0.03542914241552353,0.013896775431931019,-0.013591351918876171
1701881553313615400,9.439615478515625,0.03176405653357506,0.016340164467692375,-0.012369656935334206
1701881553323208000,9.4492080078125,0.029320668429136276,0.020005248486995697,-0.011147962883114815
1701881553332801300,9.45880126953125,0.028098974376916885,0.012675080448389053,-0.00992626789957285
1701881553342393900,9.468393798828124,0.028098974376916885,0.0004581354442052543,-0.008704573847353458
1701881553351985700,9.477985595703124,0.030542362481355667,-0.009315420873463154,-0.006261184345930815
1701881553361578200,9.487578125,0.03176405653357506,-0.012980503961443901,-0.00259610079228878
1701881553371171800,9.497171875,0.03298575058579445,-0.016645587980747223,0.0010689827613532543
1701881553380764200,9.50676416015625,0.03176405653357506,-0.015423892997205257,0.0010689827613532543
1701881553390356000,9.51635595703125,0.030542362481355667,-0.01175880990922451,-0.00015271181473508477
1701881553399948500,9.525948486328126,0.028098974376916885,-0.0032069480512291193,0.0010689827613532543
1701881553409542100,9.535542236328125,0.024433890357613564,0.004123218823224306,0.004734066314995289
1701881553419134700,9.545134765625,0.01954711228609085,0.010231691412627697,0.008399149402976036
1701881553428726500,9.5547265625,0.01710372418165207,0.013896775431931019,0.010842538438737392
1701881553438319000,9.564319091796875,0.013438640162348747,0.012675080448389053,0.013285927474498749
1701881553447912400,9.573912353515626,0.010995250195264816,0.016340164467692375,0.013285927474498749
1701881553457505000,9.583505126953124,0.007330167107284069,0.016340164467692375,0.014507622458040714
1701881553467096800,9.593096923828124,0.0036650835536420345,0.018783552572131157,0.013285927474498749
1701881553476689400,9.602689453125,0,0.0261137206107378,0.01572931744158268
1701881553486282800,9.61228271484375,-0.004886778071522713,0.03588727489113808,0.019394399598240852
1701881553495875300,9.621875244140625,-0.008551862090826035,0.04932591691613197,0.021837789565324783
1701881553505467100,9.631467041015625,-0.010995250195264816,0.05665608495473862,0.020616095513105392
1701881553515059700,9.641059814453126,-0.0036650835536420345,0.05665608495473862,0.020616095513105392
1701881553524653000,9.650653076171874,0.010995250195264816,0.03833066672086716,0.01572931744158268
1701881553534245600,9.66024560546875,0.01954711228609085,0.02489202655851841,0.004734066314995289
1701881553543837400,9.66983740234375,0.024433890357613564,0.029778804630041122,-0.00015271181473508477
1701881553553430000,9.679429931640625,0.025655584409832954,0.037108972668647766,-0.0050394898280501366
1701881553563023400,9.6890234375,0.024433890357613564,0.0456608310341835,-0.006261184345930815
1701881553572616000,9.698615966796876,0.021990500390529633,0.04810422286391258,-0.00259610079228878
1701881553582207700,9.708207763671876,0.021990500390529633,0.0456608310341835,0.0035123717971146107
1701881553591800300,9.71780029296875,0.025655584409832954,0.031000498682260513,0.012064233422279358
1701881553601393700,9.7273935546875,0.029320668429136276,0.020005248486995697,0.01572931744158268
1701881553610986200,9.736986328125,0.030542362481355667,0.011453386396169662,0.009620844386518002
1701881553620578000,9.746578125,0.030542362481355667,0.005344913341104984,-0.00259610079228878
1701881553630170600,9.756170654296875,0.028098974376916885,0.004123218823224306,-0.016034740954637527
1701881553639764200,9.76576416015625,0.024433890357613564,0.005344913341104984,-0.024586603045463562
1701881553649356500,9.7753564453125,0.021990500390529633,0.0065666078589856625,-0.025808297097682953
1701881553658948400,9.7849482421875,0.01832541823387146,0.010231691412627697,-0.024586603045463562
1701881553668541000,9.794541015625,0.012216945178806782,0.016340164467692375,-0.02092151902616024
1701881553678134500,9.804134521484375,0.006108472589403391,0.031000498682260513,-0.013591351918876171
1701881553687727000,9.81372705078125,0,0.04688252881169319,-0.007482878863811493
1701881553697319000,9.82331884765625,0,0.04321744292974472,-0.00015271181473508477
1701881553706911200,9.8329111328125,0.0036650835536420345,0.02244863659143448,0.0035123717971146107
1701881553716504800,9.8425048828125,0.009773556143045425,0.0016798300202935934,0.0035123717971146107
1701881553726097400,9.852097412109375,0.012216945178806782,-0.008093725889921188,0.0022906772792339325
1701881553735689200,9.861689208984375,0.012216945178806782,-0.004428642801940441,0.0022906772792339325
1701881553745281800,9.87128173828125,0.012216945178806782,-0.001985253533348441,0.0010689827613532543
1701881553754875100,9.880875244140626,0.012216945178806782,-0.0007635590736754239,-0.0038177953101694584
1701881553764467700,9.8904677734375,0.013438640162348747,-0.0032069480512291193,-0.012369656935334206
1701881553774059500,9.9000595703125,0.013438640162348747,-0.0032069480512291193,-0.028251685202121735
1701881553783652000,9.909652099609374,0.013438640162348747,0.0065666078589856625,-0.045355409383773804
1701881553793245400,9.919245361328125,0.014660334214568138,0.01511846948415041,-0.05757235363125801
1701881553802838000,9.928838134765625,0.01588202826678753,0.021226942539215088,-0.06123743951320648
1701881553812429800,9.938429931640625,0.014660334214568138,0.0261137206107378,-0.05512896552681923
1701881553822022400,9.9480224609375,0.010995250195264816,0.037108972668647766,-0.045355409383773804
1701881553831615700,9.95761572265625,0.008551862090826035,0.050547610968351364,-0.03680354729294777
1701881553841208300,9.967208251953124,0.007330167107284069,0.05543438717722893,-0.028251685202121735
1701881553850800000,9.976800048828125,0.0024433890357613564,0.05421269312500954,-0.025808297097682953
1701881553860392700,9.986392822265625,-0.0012216945178806782,0.06276455521583557,-0.03436015918850899
1701881553869986000,9.995986083984375,0.0036650835536420345,0.06520794332027435,-0.05024218559265137
1701881553879578600,10.00557861328125,0.012216945178806782,0.06276455521583557,-0.07467607408761978
1701881553889170400,10.01517041015625,0.012216945178806782,0.06520794332027435,-0.10399674624204636
1701881553898763000,10.024762939453124,0.012216945178806782,0.07864658534526825,-0.13087402284145355
1701881553908356400,10.0343564453125,0.008551862090826035,0.09330692142248154,-0.15530791878700256
1701881553917949000,10.043948974609375,0.004886778071522713,0.09941539168357849,-0.1760767251253128
1701881553927540700,10.053540771484375,0.0036650835536420345,0.09941539168357849,-0.2017323076725006
1701881553937133300,10.06313330078125,0.0036650835536420345,0.09575030952692032,-0.22127941250801086
1701881553946727000,10.072726806640626,0.008551862090826035,0.09697200357913971,-0.2151709496974945
1701881553956319200,10.0823193359375,0.01588202826678753,0.09452861547470093,-0.18462859094142914
1701881553965911000,10.0919111328125,0.02076880633831024,0.09330692142248154,-0.14186927676200867
1701881553975504000,10.10150390625,0.021990500390529633,0.09208522737026215,-0.10277505218982697
1701881553985097200,10.11109716796875,0.02076880633831024,0.10185877978801727,-0.07834116369485855
1701881553994689800,10.120689697265625,0.01954711228609085,0.11407572776079178,-0.072232685983181
1701881554004281600,10.130281494140625,0.02076880633831024,0.13362284004688263,-0.08811471611261368
1701881554013874200,10.139874267578126,0.023212196305394173,0.1519482582807541,-0.1369825005531311
1701881554023467500,10.149467529296874,0.026877280324697495,0.14339639246463776,-0.19562382996082306
1701881554033060000,10.15906005859375,0.029320668429136276,0.10918894410133362,-0.2432699203491211
1701881554042651600,10.168651611328125,0.021990500390529633,0.08353336155414581,-0.26281702518463135
1701881554052244000,10.178243896484375,0.008551862090826035,0.07375980913639069,-0.254265159368515
1701881554061837300,10.18783740234375,-0.009773556143045425,0.07009471952915192,-0.22372281551361084
1701881554071430000,10.197429931640626,-0.030542362481355667,0.07620319724082947,-0.1895153671503067
1701881554081021700,10.207021728515626,-0.05375456064939499,0.08719844371080399,-0.1760767251253128
1701881554090614300,10.2166142578125,-0.07452336698770523,0.10185877978801727,-0.18462859094142914
1701881554100207600,10.22620751953125,-0.08429691940546036,0.09330692142248154,-0.2041756957769394
1701881554109800200,10.23580029296875,-0.08429691940546036,0.06398624926805496,-0.22250111401081085
1701881554119392000,10.24539208984375,-0.0781884491443634,0.020005248486995697,-0.23593975603580475
1701881554128984600,10.254984619140625,-0.06841489672660828,-0.02764083817601204,-0.23716144263744354
1701881554138578000,10.264577880859376,-0.061084724962711334,-0.058183200657367706,-0.22738789021968842
1701881554148170500,10.27417041015625,-0.05864133685827255,-0.06184828653931618,-0.20661908388137817
1701881554157762300,10.28376220703125,-0.04886778071522713,-0.04474456235766411,-0.1772984117269516
1701881554167355000,10.29335498046875,-0.029320668429136276,-0.03130592033267021,-0.14186927676200867
1701881554176948500,10.302948486328125,0.004886778071522713,-0.0459662564098835,-0.0978882759809494
1701881554186540800,10.312540771484375,0.03298575058579445,-0.10216420143842697,-0.051463883370161057
1701881554196132600,10.322132568359375,0.062306419014930725,-0.15714046359062195,-0.00992626789957285
1701881554205725400,10.331725341796876,0.09529217332601547,-0.2047865390777588,0.03542914241552353
1701881554215318800,10.34131884765625,0.12461283802986145,-0.23532891273498535,0.09407047927379608
1701881554224911400,10.350911376953125,0.1429382562637329,-0.24632415175437927,0.1588202863931656
1701881554234503200,10.360503173828125,0.15026842057704926,-0.24510246515274048,0.21257483959197998
1701881554244095700,10.370095703125,0.13682979345321655,-0.2292204350233078,0.24678228795528412
1701881554253689000,10.379689208984376,0.10873081535100937,-0.19745637476444244,0.27121618390083313
1701881554263281700,10.38928173828125,0.08551861345767975,-0.1779092699289322,0.3054236173629761
1701881554272873500,10.39887353515625,0.0647498071193695,-0.15591876208782196,0.365286648273468
1701881554282466000,10.408466064453124,0.043981000781059265,-0.11438114941120148,0.44958359003067017
1701881554292059400,10.418059326171875,0.026877280324697495,-0.0850604772567749,0.5143333673477173
1701881554301652000,10.42765185546875,0.01710372418165207,-0.06551336497068405,0.5607577562332153
1701881554311243800,10.437243896484375,0.004886778071522713,-0.03130592033267021,0.5876350402832031
1701881554320836400,10.44683642578125,-0.01832541823387146,-0.0032069480512291193,0.5851916670799255
1701881554330429700,10.4564296875,-0.03298575058579445,0.0261137206107378,0.5766398310661316
1701881554340022300,10.466022216796874,-0.047646086663007736,0.052990999072790146,0.5668662786483765
1701881554349614000,10.475614013671875,-0.062306419014930725,0.12262758612632751,0.546097457408905
1701881554359206700,10.48520654296875,-0.07452336698770523,0.19348587095737457,0.5302154421806335
1701881554368800000,10.494800048828125,-0.11117420345544815,0.10185877978801727,0.6145123243331909
1701881554378392600,10.504392578125,-0.10873081535100937,0.10918894410133362,0.6853706240653992
1701881554387984400,10.513984375,-0.07574506103992462,0.12873606383800507,0.7379034757614136
1701881554397577000,10.523576904296876,-0.042759306728839874,0.1385096162557602,0.8258655071258545
1701881554407170600,10.533170654296875,-0.013438640162348747,0.23746687173843384,0.9089407324790955
1701881554416763000,10.542762939453125,-0.03665083646774292,0.34375429153442383,0.9688037633895874
1701881554426354700,10.552354736328125,0.16492876410484314,0.2826695740222931,1.0824213027954102
1701881554435947300,10.561947265625,1.0030112266540527,0.18371231853961945,1.1923738718032837
1701881554445540900,10.571540771484376,1.1056334972381592,0.5331169366836548,1.2131426334381104
1701881554455133200,10.58113330078125,0.9688037633895874,0.4805840849876404,1.4660334587097168
1701881554464725200,10.590725341796874,0.8783983588218689,0.3205420970916748,1.8215465545654297
1701881554474317600,10.600317626953125,0.7550072073936462,0.3828485310077667,2.062220335006714
1701881554483911200,10.6099111328125,0.5790832042694092,0.45981526374816895,2.265021562576294
1701881554493503700,10.619503662109375,0.4056025743484497,0.37918344140052795,2.395742893218994
1701881554503095600,10.629095458984375,0.21501824259757996,0.32542887330055237,2.2515830993652344
1701881554512688000,10.638688232421876,-0.025655584409832954,0.37918344140052795,2.08298921585083
1701881554522281500,10.648281494140624,-0.15515519678592682,0.6113054156303406,2.3615355491638184
1701881554531874000,10.6578740234375,-0.261442631483078,0.5844281315803528,2.60953950881958
1701881554541465900,10.6674658203125,-0.416597843170166,0.557550847530365,2.516690731048584
1701881554551058400,10.677058349609375,-0.4434750974178314,0.7200362086296082,2.5093605518341064
1701881554560651800,10.68665185546875,-0.30786702036857605,1.0388984680175781,2.8013455867767334
1701881554570244400,10.696244384765626,-0.1575985997915268,1.2490298748016357,2.9699394702911377
1701881554579836200,10.705836181640626,-0.09407047927379608,1.511694312095642,3.1373114585876465
1701881554589428700,10.7154287109375,-0.07330167293548584,1.9234052896499634,3.5038199424743652
1701881554599022000,10.72502197265625,-0.2895416021347046,1.293010950088501,3.6699702739715576
1701881554608614700,10.73461474609375,-0.43858832120895386,1.0437852144241333,3.6211025714874268
1701881554618206500,10.74420654296875,-0.5094466209411621,1.5104725360870361,3.3926455974578857
1701881554627799000,10.753799072265625,-0.41537612676620483,2.1885130405426025,2.956500768661499
1701881554637392400,10.763392333984376,-0.3017585575580597,2.325342893600464,2.4336154460906982
1701881554646985000,10.77298486328125,-0.41171106696128845,2.04557466506958,1.6676130294799805
1701881554656576800,10.78257666015625,-0.6977402567863464,1.9734947681427002,0.5986303091049194
1701881554666169300,10.79216943359375,-0.9701781868934631,2.9374117851257324,0.237008735537529
1701881554675762700,10.8017626953125,-1.118003249168396,3.6142306327819824,0.18936264514923096
1701881554685355300,10.811355224609375,-1.3256912231445312,3.862387180328369,0.15515519678592682
1701881554694947000,10.820947021484375,-1.659213900566101,4.076183795928955,0.10995250940322876
1701881554704539600,10.83053955078125,-2.064816474914551,4.34617805480957,0.0781884491443634
1701881554714133200,10.84013330078125,-2.519286870956421,4.589295387268066,0.08429691940546036
1701881554723725600,10.8497255859375,-3.0238466262817383,4.707799911499023,0.13438639044761658
1701881554733317400,10.8593173828125,-3.5589487552642822,4.693139553070068,0.2235700935125351
1701881554742910000,10.868909912109375,-4.119706630706787,4.6125078201293945,0.3396310806274414
1701881554752503600,10.878503662109376,-4.702455043792725,4.533097743988037,0.48989951610565186
1701881554762096000,10.88809619140625,-5.327962398529053,4.448800563812256,0.6694886088371277
1701881554771688000,10.89768798828125,-5.984165191650391,4.342513084411621,0.8393041491508484
1701881554781280500,10.907280517578124,-6.613337993621826,4.221565246582031,0.9651386737823486
1701881554790873900,10.916873779296875,-7.133779525756836,4.12016487121582,1.0579874515533447
1701881554800466400,10.926466552734375,-7.497844696044922,4.046863079071045,1.1044118404388428
1701881554810058200,10.936058349609375,-7.695759296417236,3.9735615253448486,1.0702043771743774
1701881554819650800,10.94565087890625,-7.7947163581848145,3.9698963165283203,0.9956810474395752
1701881554829244200,10.955244140625,-7.901003837585449,4.362060070037842,1.1141854524612427
1701881554838836700,10.964836669921874,-7.932767868041992,4.6039557456970215,1.3560808897018433
1701881554848428500,10.974428466796875,-7.7629523277282715,4.50622034072876,1.4831371307373047
1701881554858021000,10.984021240234375,-7.525943756103516,4.162924289703369,1.5283398628234863
1701881554867614500,10.993614501953125,-7.330472469329834,3.864830493927002,1.5649906396865845
1701881554877207000,11.00320703125,-7.186312675476074,3.6606550216674805,1.6089717149734497
1701881554886798800,11.012798828125,-7.034822463989258,3.555589199066162,1.6382923126220703
1701881554896391400,11.022391357421874,-6.789261817932129,3.4822874069213867,1.595533013343811
1701881554905984800,11.03198486328125,-6.42275333404541,3.346679449081421,1.4257174730300903
1701881554915577300,11.041577392578125,-6.092895984649658,3.0815718173980713,1.123958945274353
1701881554925169200,11.051169189453125,-5.801980018615723,2.371767282485962,0.6181774139404297
1701881554934761700,11.06076171875,-5.4660139083862305,0.9680401682853699,-0.16752485930919647
1701881554944355000,11.07035498046875,-5.182580947875977,-0.37826716899871826,-0.8590039610862732
1701881554953947600,11.07994775390625,-5.137378215789795,-1.0489774942398071,-1.2548329830169678
1701881554963539500,11.08953955078125,-5.144708156585693,-1.5327684879302979,-1.4503041505813599
1701881554973132000,11.099132080078125,-4.965119361877441,-1.9531841278076172,-1.501615285873413
1701881554982725400,11.108725341796875,-4.631596565246582,-1.2823210954666138,-1.4991718530654907
1701881554992318000,11.11831787109375,-4.254093170166016,-0.01175880990922451,-1.4539692401885986
1701881555001909800,11.12790966796875,-3.813061237335205,0.982700526714325,-1.3953278064727783
1701881555011502600,11.137502685546876,-3.3170533180236816,1.5642271041870117,-1.3256912231445312
1701881555021096000,11.147095947265624,-2.8039417266845703,1.804900884628296,-1.2267340421676636
1701881555030688500,11.1566884765625,-2.2859432697296143,1.8415517807006836,-1.0764656066894531
1701881555040280000,11.166280029296875,-1.7581710815429688,1.7572548389434814,-0.8651124238967896
1701881555049873000,11.175872802734375,-1.2120736837387085,1.5581187009811401,-0.598783016204834
1701881555059466200,11.18546630859375,-0.6171084642410278,1.3040062189102173,-0.31168481707572937
1701881555069058800,11.195058837890626,0.0781884491443634,1.0853228569030762,-0.10277505218982697
1701881555078650600,11.204650634765626,0.6157340407371521,1.181836724281311,-0.05635065957903862
1701881555088243200,11.2142431640625,0.767224133014679,1.5361281633377075,-0.11377029865980148
1701881555097836500,11.22383642578125,0.7464553713798523,1.8366650342941284,-0.1907370537519455
1701881555107429000,11.23342919921875,0.6743753552436829,1.9295138120651245,-0.21883602440357208
1701881555117021000,11.24302099609375,0.6865923404693604,1.778023600578308,-0.14675605297088623
1701881555126613500,11.252613525390625,0.818535327911377,1.472599983215332,0.028098974376916885
1701881555136206800,11.262206787109376,0.9773555994033813,1.1048699617385864,0.24556060135364532
1701881555145799400,11.27179931640625,1.0482138395309448,0.8031114339828491,0.43981003761291504
1701881555155391200,11.28139111328125,1.0030112266540527,0.6381826996803284,0.569309651851654
1701881555164983800,11.29098388671875,0.8979454636573792,0.6235223412513733,0.6413896083831787
1701881555174577200,11.3005771484375,0.7696675658226013,0.7383615970611572,0.6951441764831543
1701881555184169700,11.310169677734375,0.6413896083831787,0.9374978542327881,0.7464553713798523
1701881555193761500,11.319761474609376,0.5045598149299622,1.1598461866378784,0.7623373866081238
1701881555203354000,11.32935400390625,0.3946073353290558,1.293010950088501,0.7012526392936707
1701881555212947500,11.338947509765624,0.35795649886131287,1.3003411293029785,0.5644228458404541
1701881555222540000,11.3485400390625,0.41048935055732727,1.2869024276733398,0.4043808877468109
1701881555232131800,11.3581318359375,0.5082249045372009,1.2954543828964233,0.25411245226860046
1701881555241724400,11.367724365234375,0.5864133834838867,1.278350591659546,0.13560809195041656
1701881555251318000,11.377318115234376,0.6157340407371521,1.21482253074646,0.08307522535324097
1701881555260910300,11.386910400390626,0.6035171151161194,1.1366339921951294,0.08796200156211853
1701881555270502100,11.396502197265624,0.5619794726371765,1.0816577672958374,0.10995250940322876
1701881555280094700,11.4060947265625,0.522885262966156,1.0792144536972046,0.129499614238739
1701881555289688300,11.415688232421875,0.5204418897628784,1.190388560295105,0.1319430023431778
1701881555299280600,11.42528076171875,0.5864133834838867,1.402963399887085,0.1050657257437706
1701881555308872700,11.434872802734375,0.7146912813186646,1.5996562242507935,0.062306419014930725
1701881555318465300,11.44446533203125,0.8661814332008362,1.6656277179718018,0.030542362481355667
1701881555328058600,11.45405859375,0.9309312105178833,1.560562014579773,-0.012369656935334206
1701881555337651200,11.463651123046875,0.809983491897583,1.2649120092391968,0.014507622458040714
1701881555347243000,11.473242919921875,0.5632011890411377,0.49890950322151184,-0.10277505218982697
1701881555356835600,11.482835693359375,0.4471401870250702,-0.04474456235766411,-0.21028417348861694
1701881555366429000,11.492428955078125,0.46302223205566406,-0.001985253533348441,-0.17118994891643524
1701881555376021500,11.502021484375,0.48989951610565186,0.2655658423900604,-0.09422318637371063
1701881555385613300,11.51161328125,0.4837910234928131,0.4537068009376526,-0.001374406274408102
1701881555395206000,11.521205810546874,0.41293275356292725,0.552664041519165,0.11972606182098389
1701881555404799200,11.53079931640625,0.33352261781692505,0.5868715047836304,0.29320669174194336
