time,seconds_elapsed,z,y,x
1701881491216184600,0.1241845703125,5.106881618499756,7.22871732711792,1.5257235765457153
1701881491225776400,0.1337763671875,5.8322062492370605,7.252645492553711,1.8993029594421387
1701881491235369000,0.143368896484375,6.128916263580322,6.865008354187012,3.0245277881622314
1701881491244962300,0.15296240234375,6.591030120849609,6.393322944641113,3.7618162631988525
1701881491254555000,0.162554931640625,7.057929515838623,6.311966896057129,4.18564510345459
1701881491264146400,0.172146484375,7.498507976531982,6.27577543258667,4.204787731170654
1701881491273739000,0.181739013671875,7.838587760925293,6.6708903312683105,3.725924015045166
1701881491283332400,0.191332275390625,8.161619186401367,6.776174545288086,3.3693933486938477
1701881491292925000,0.200925048828125,8.58784008026123,6.443572044372559,3.187239646911621
1701881491302516700,0.210516845703125,9.167202949523926,6.189633846282959,2.7804598808288574
1701881491312109300,0.220109375,9.770493507385254,6.113063812255859,2.741875648498535
1701881491321702700,0.22970263671875,10.02413272857666,5.868995666503906,2.8043880462646484
1701881491331295200,0.239295166015625,9.39452075958252,5.483452320098877,2.701197624206543
1701881491340886800,0.24888671875,8.441878318786621,5.394917964935303,2.6006991863250732
1701881491350479600,0.258479736328125,7.307082176208496,5.519344329833984,2.356631278991699
1701881491360072700,0.26807275390625,6.524031162261963,5.888138294219971,1.8011972904205322
1701881491369665300,0.277665283203125,6.004489421844482,6.2398834228515625,1.173978567123413
1701881491379257000,0.287257080078125,5.700600624084473,6.32871675491333,0.7381857633590698
1701881491388849700,0.296849609375,5.674279689788818,6.242276191711426,0.5802595019340515
1701881491398443000,0.306443115234375,5.932704448699951,6.08195686340332,0.6759724020957947
1701881491408035600,0.31603564453125,6.128916263580322,6.103492259979248,1.0013962984085083
1701881491417627100,0.325627197265625,6.16271448135376,6.093921184539795,1.4635101556777954
1701881491427220000,0.335219970703125,6.1313090324401855,6.134599208831787,1.8370895385742188
1701881491436813300,0.344813232421875,6.212964057922363,6.077171325683594,1.8658034801483154
1701881491446405600,0.354405517578125,6.557530403137207,5.749354839324951,1.7461622953414917
1701881491455997400,0.36399755859375,6.423532485961914,5.883352756500244,1.6238292455673218
1701881491465590000,0.373590087890625,6.208178520202637,6.043671607971191,1.5616158246994019
1701881491475183400,0.383183349609375,6.256034851074219,6.180062770843506,1.877767562866211
1701881491484776000,0.39277587890625,6.222535133361816,6.338288307189941,2.6485555171966553
1701881491494367700,0.40236767578125,5.829813480377197,6.2566328048706055,3.4148569107055664
1701881491503960300,0.411960205078125,6.449853420257568,5.974279880523682,3.989433526992798
1701881491513553700,0.4215537109375,6.868896484375,5.921638011932373,4.415356159210205
1701881491523146200,0.431146240234375,7.541578769683838,6.007779598236084,4.882255554199219
1701881491532738000,0.440738037109375,7.857730388641357,5.849853038787842,5.682056427001953
1701881491542330600,0.45033056640625,8.286046028137207,5.825924873352051,6.3499531745910645
1701881491551924000,0.459924072265625,8.063512802124023,5.717948913574219,6.684948444366455
1701881491561516300,0.469516357421875,7.462615489959717,5.655735492706299,6.3499531745910645
1701881491571108000,0.479108154296875,7.2711896896362305,5.696413516998291,5.820840358734131
1701881491580700700,0.48870068359375,7.378866672515869,5.665306568145752,5.4759745597839355
1701881491590294000,0.4982939453125,7.599006652832031,5.619843006134033,5.255835056304932
1701881491599886600,0.507886474609375,8.075477600097656,5.545665740966797,5.188836097717285
1701881491609478400,0.517478515625,8.61176872253418,5.481059551239014,5.282155990600586
1701881491619071000,0.527071044921875,8.920442581176758,5.36859655380249,5.306084156036377
1701881491628664300,0.536664306640625,8.657232284545898,5.265705108642578,5.375475883483887
1701881491638257000,0.5462568359375,8.410771369934082,5.030909538269043,5.284548759460449
1701881491647848700,0.5558486328125,8.475378036499023,4.894518852233887,5.052444934844971
1701881491657441300,0.565441162109375,8.408378601074219,4.8777689933776855,4.824827671051025
1701881491667034600,0.57503466796875,8.207082748413086,4.801198482513428,4.6286163330078125
1701881491676627000,0.584626953125,7.9845499992370605,4.844269275665283,4.446462631225586
1701881491686218800,0.59421875,7.872087478637695,4.892126083374023,4.338785648345947
1701881491695811600,0.6038115234375,7.89123010635376,4.820341110229492,4.19282341003418
1701881491705405000,0.613405029296875,7.6636128425598145,4.861019134521484,4.063611030578613
1701881491714997200,0.622997314453125,7.163213729858398,4.949553489685059,3.929612874984741
1701881491724589000,0.632589111328125,6.9598236083984375,4.9160542488098145,3.733102321624756
1701881491734181600,0.642181640625,6.766005039215088,4.741377830505371,3.575176239013672
1701881491743775000,0.65177490234375,6.674778938293457,4.508975028991699,3.371786117553711
1701881491753367600,0.661367431640625,6.722934246063232,4.4012980461120605,3.1680972576141357
1701881491762959400,0.67095947265625,6.756433963775635,4.154837608337402,3.1968109607696533
1701881491772552000,0.680552001953125,6.706184387207031,3.941577196121216,3.5392837524414062
1701881491782145300,0.690145263671875,6.641279220581055,4.022933006286621,3.8862431049346924
1701881491791737900,0.69973779296875,6.756433963775635,4.0420756340026855,4.647758960723877
1701881491801329700,0.70932958984375,6.904788970947266,3.5706896781921387,5.349154949188232
1701881491810922200,0.718922119140625,6.955038070678711,3.2401809692382812,5.978766441345215
1701881491820515600,0.728515625,6.650850772857666,3.24735951423645,6.129514217376709
1701881491830108200,0.738108154296875,6.440282344818115,3.010469913482666,5.8112688064575195
1701881491839700000,0.747699951171875,6.370890140533447,2.754138946533203,5.188836097717285
1701881491849292500,0.75729248046875,6.40438985824585,2.5746772289276123,4.412963390350342
1701881491858886000,0.766885986328125,6.837790012359619,2.3880369663238525,3.711566925048828
1701881491868478500,0.776478515625,7.264011383056641,2.1245274543762207,3.553640842437744
1701881491878070000,0.786070068359375,7.381259441375732,2.031207323074341,4.025325775146484
1701881491887662800,0.795662841796875,7.692326545715332,1.858924150466919,4.602295398712158
1701881491897256200,0.805256103515625,8.372187614440918,1.5954145193099976,5.14576530456543
1701881491906848500,0.8148486328125,8.927620887756348,1.41834557056427,5.4951171875
1701881491916440300,0.8244404296875,9.059525489807129,1.2699905633926392,5.456831932067871
1701881491926033000,0.834032958984375,8.968598365783691,1.0208379030227661,5.045266628265381
1701881491935626500,0.84362646484375,8.913264274597168,0.7887341380119324,3.9080774784088135
1701881491945218800,0.85321875,8.975776672363281,0.27397820353507996,3.10109806060791
1701881491954810600,0.862810546875,8.46580696105957,-0.04935196787118912,3.9224345684051514
1701881491964403200,0.8724033203125,7.290332317352295,0.15672987699508667,5.1768717765808105
1701881491973996500,0.88199658203125,6.437889099121094,0.28594231605529785,6.342774391174316
1701881491983589000,0.891589111328125,5.9183478355407715,0.23808585107326508,7.884649753570557
1701881491993181000,0.901180908203125,5.154737949371338,0.3314059376716614,8.959625244140625
1701881492002773500,0.9107734375,4.551447868347168,0.2835494875907898,9.864411354064941
1701881492012366800,0.920366943359375,4.247260093688965,0.2189432680606842,10.879566192626953
1701881492021959400,0.92995947265625,3.9529430866241455,0.23330020904541016,11.679068565368652
1701881492031551200,0.93955126953125,3.488436222076416,0.2883351147174835,12.136396408081055
1701881492041143800,0.949143798828125,3.0287153720855713,0.2356930375099182,12.462119102478027
1701881492050737200,0.958737060546875,2.707777976989746,0.041575293987989426,12.73729419708252
1701881492060329700,0.968329833984375,2.5689942836761475,-0.06849455088376999,12.687045097351074
1701881492069921500,0.977921630859375,2.693420886993408,-0.1091725304722786,12.167503356933594
1701881492079514000,0.98751416015625,2.9688947200775146,-0.20009979605674744,11.497213363647461
1701881492089107500,0.997107421875,3.4381871223449707,-0.4492524564266205,11.305788040161133
1701881492098700000,1.006699951171875,4.230510234832764,-0.6502495408058167,11.277073860168457
1701881492108291800,1.016291748046875,5.01086950302124,-0.9038887619972229,10.860424041748047
1701881492117884400,1.025884521484375,5.633601665496826,-1.2224332094192505,9.931410789489746
1701881492127477800,1.035477783203125,6.071488380432129,-1.344467282295227,8.483154296875
1701881492137070300,1.0450703125,6.6149582862854,-1.4138591289520264,7.130312442779541
1701881492146662100,1.054662109375,6.9430742263793945,-1.4952150583267212,6.2638115882873535
1701881492156254700,1.064254638671875,6.933502674102783,-1.6630117893218994,5.471189022064209
1701881492165848000,1.07384814453125,6.837790012359619,-1.919043779373169,4.465904235839844
1701881492175440600,1.083440673828125,6.593422889709473,-2.1562323570251465,3.4698920249938965
1701881492185032400,1.093032470703125,6.447460651397705,-2.1801605224609375,2.770589590072632
1701881492194625000,1.102625,6.399604320526123,-2.2208385467529297,2.490629196166992
1701881492204218400,1.11221826171875,5.985346794128418,-2.333301067352295,2.3111674785614014
1701881492213811000,1.12181103515625,5.710172176361084,-2.4003002643585205,2.200798511505127
1701881492223402500,1.131402587890625,5.472983360290527,-2.59411883354187,2.107478618621826
1701881492232995300,1.140995361328125,5.38205623626709,-2.9964120388031006,2.622234582901001
1701881492242588700,1.150588623046875,5.092525005340576,-3.3532419204711914,3.7594234943389893
1701881492252181000,1.160180908203125,4.335794448852539,-3.728914976119995,4.417748928070068
1701881492261773000,1.16977294921875,3.4597225189208984,-3.9565322399139404,5.004289627075195
1701881492271365600,1.17936572265625,2.724527597427368,-4.104887008666992,5.55733060836792
1701881492280959000,1.188958984375,2.0303099155426025,-4.602893352508545,6.079265117645264
1701881492290551600,1.198551513671875,1.6857435703277588,-5.172684192657471,6.941279411315918
1701881492300143400,1.208143310546875,1.4581263065338135,-5.4765729904174805,8.121539115905762
1701881492309736000,1.21773583984375,1.2092727422714233,-5.73768949508667,9.328120231628418
1701881492319329300,1.227329345703125,1.108774185180664,-5.898008823394775,9.967302322387695
1701881492328921900,1.236921875,1.0606186389923096,-6.0009002685546875,10.005587577819824
1701881492338513400,1.246513427734375,1.0151549577713013,-6.498906135559082,9.77826976776123
1701881492348106200,1.256106201171875,0.981655478477478,-6.805486679077148,9.299406051635742
1701881492357699600,1.265699462890625,0.8859425783157349,-6.939484596252441,8.945268630981445
1701881492367292000,1.2752919921875,0.06011966988444328,-7.413562774658203,9.510273933410645
1701881492376883700,1.2848837890625,-1.5774682760238647,-7.3848490715026855,10.534700393676758
1701881492386476500,1.2944765625,-3.8709888458251953,-7.4709906578063965,12.21057415008545
1701881492396070000,1.30406982421875,-4.828716278076172,-6.805486679077148,11.466107368469238
1701881492405662200,1.313662109375,-4.502993106842041,-6.190232276916504,9.196515083312988
1701881492415254000,1.32325390625,-4.156033992767334,-6.819843769073486,8.772686004638672
1701881492424846800,1.332846923828125,-3.990929126739502,-6.910770893096924,7.4847493171691895
1701881492434440200,1.342440185546875,-3.4737801551818848,-7.526025295257568,7.482356548309326
1701881492444032800,1.35203271484375,-2.341377019882202,-8.260921478271484,7.566105365753174
1701881492453624300,1.361624267578125,-0.701396107673645,-8.703892707824707,6.043372631072998
1701881492463217200,1.371217041015625,0.7854440212249756,-9.412467002868652,6.345167636871338
1701881492472810500,1.380810546875,1.6666009426116943,-9.987342834472656,6.601199626922607
1701881492482402800,1.39040283203125,14.898611068725586,-20.885154724121094,20.01775550842285
1701881492491994600,1.39999462890625,14.826826095581055,-12.826725959777832,14.860923767089844
1701881492501587200,1.409587158203125,4.118047714233398,-7.382455825805664,4.609473705291748
1701881492511180800,1.419180908203125,-0.9143573641777039,-8.344968795776367,5.248656272888184
1701881492520773000,1.428773193359375,-2.9087750911712646,-8.572287559509277,7.249953269958496
1701881492530365000,1.438364990234375,-2.8223342895507812,-7.561917781829834,6.629913330078125
1701881492539957500,1.44795751953125,-1.1009975671768188,-8.888439178466797,5.725127220153809
1701881492549550800,1.45755078125,-0.24167509377002716,-9.106185913085938,4.666901588439941
1701881492559143700,1.467143798828125,-0.23210379481315613,-8.938688278198242,4.954040050506592
1701881492568735200,1.4767353515625,0.44775694608688354,-9.082257270812988,5.559723377227783
1701881492578327800,1.486327880859375,0.4980062246322632,-9.099007606506348,5.605485916137695
1701881492587921200,1.495921142578125,1.5155540704727173,-8.953044891357422,5.337191104888916
1701881492597514000,1.505513916015625,1.6522440910339355,-8.639286041259766,5.0907301902771
1701881492607105500,1.51510546875,1.4413765668869019,-8.438288688659668,4.58793830871582
1701881492616698400,1.524698486328125,1.2595219612121582,-7.9881391525268555,4.331607341766357
1701881492626291500,1.53429150390625,1.1207382678985596,-7.81346321105957,4.133002758026123
1701881492635884000,1.543884033203125,1.0654042959213257,-8.024031639099121,3.6182470321655273
1701881492645475800,1.553475830078125,1.2762718200683594,-8.48853874206543,3.5344982147216797
1701881492655068400,1.563068359375,1.1183454990386963,-8.45743179321289,3.4555349349975586
1701881492664662000,1.572662109375,0.7471588850021362,-7.640881061553955,3.115455150604248
1701881492674254300,1.58225439453125,0.7256234884262085,-7.796713352203369,3.790530204772949
1701881492683846100,1.59184619140625,0.8117650747299194,-7.866105556488037,4.094717979431152
1701881492693438700,1.601438720703125,0.8045865893363953,-8.134101867675781,4.4033918380737305
1701881492703032000,1.611031982421875,0.8189435601234436,-8.663214683532715,4.453640937805176
1701881492712624600,1.620624755859375,0.97926265001297,-9.103793144226074,4.5185465812683105
1701881492722216400,1.630216552734375,0.8548358678817749,-9.359825134277344,4.243072986602783
1701881492731809000,1.63980908203125,0.521934449672699,-9.235398292541504,3.6972100734710693
1701881492741402400,1.64940234375,0.2706880569458008,-8.433503150939941,2.629412889480591
1701881492750995000,1.658994873046875,-0.6511468887329102,-7.571488857269287,1.6719847917556763
1701881492760586800,1.668586669921875,-0.42352959513664246,-4.468895435333252,-0.4612165689468384
1701881492770179300,1.678179443359375,-0.6152545213699341,-4.878067970275879,-0.6002993583679199
1701881492779772700,1.687772705078125,0.0768694281578064,-5.80708122253418,-0.5760720372200012
1701881492789365200,1.697365234375,0.29700911045074463,-5.847759246826172,-0.3966103494167328
1701881492798957000,1.70695703125,0.706480860710144,-6.467799663543701,-0.8012964725494385
1701881492808549600,1.716549560546875,0.521934449672699,-6.652346134185791,0.08464609831571579
1701881492818143000,1.72614306640625,-1.1201400756835938,-4.899603366851807,1.8969101905822754
1701881492827735600,1.735735595703125,-5.338686466217041,-7.6911301612854,-3.559323787689209
1701881492837327400,1.745327392578125,-5.855835437774658,-9.24736213684082,-9.037093162536621
1701881492846920000,1.754919921875,7.603792190551758,-9.821938514709473,-2.082054853439331
1701881492856513300,1.76451318359375,-1.316650629043579,-7.1886372566223145,2.3662025928497314
1701881492866105900,1.77410595703125,-1.1081759929656982,-6.082555294036865,4.575973987579346
1701881492875697700,1.78369775390625,-0.5407779216766357,-6.223731517791748,4.06839656829834
1701881492885290200,1.793290283203125,-1.7979071140289307,-7.133303165435791,2.6030919551849365
1701881492894883600,1.802883544921875,-3.0092735290527344,-8.313861846923828,2.0093727111816406
1701881492904476200,1.81247607421875,-2.9374887943267822,-8.61057186126709,1.5831513404846191
1701881492914068000,1.82206787109375,-0.9622138142585754,-9.470193862915039,1.0013962984085083
1701881492923660500,1.83166064453125,1.0558329820632935,-10.652846336364746,0.8267202377319336
1701881492933254000,1.84125390625,1.4629119634628296,-11.225029945373535,0.0008973084622994065
1701881492942846500,1.850846435546875,0.06729813665151596,-11.730215072631836,-0.24825534224510193
1701881492952438300,1.860438232421875,-2.0491535663604736,-15.067604064941406,-1.7231314182281494
1701881492962030800,1.87003076171875,-3.384946823120117,-38.187355041503906,-6.781857490539551
1701881492971624200,1.879624267578125,-0.026021946221590042,-46.557151794433594,6.46241569519043
1701881492981216800,1.889216796875,2.916252613067627,-19.331314086914062,4.53290319442749
1701881492990808600,1.89880859375,0.9529415965080261,-4.684249401092529,-4.124329090118408
1701881493000401200,1.908401123046875,-1.4315061569213867,-7.655237674713135,-1.002293586730957
1701881493009994500,1.917994384765625,-1.673181176185608,-10.803594589233398,1.3199408054351807
1701881493019587000,1.927587158203125,-1.0770692825317383,-9.553942680358887,0.18035900592803955
1701881493029179000,1.937178955078125,-0.7540382146835327,-9.22582721710205,-0.4301098585128784
1701881493038771500,1.946771484375,-0.8162516355514526,-9.400503158569336,-0.28654050827026367
1701881493048364800,1.95636474609375,-0.7612167000770569,-9.537193298339844,-0.09990034252405167
1701881493057957400,1.965957275390625,-0.5599204897880554,-9.865009307861328,-0.11665010452270508
1701881493067549200,1.975549072265625,-0.4426721930503845,-10.245767593383789,-0.1860419660806656
1701881493077141800,1.985141845703125,-0.5479564070701599,-10.508977890014648,-0.1908276081085205
1701881493086735000,1.994735107421875,-0.6296114325523376,-10.74138069152832,-0.09511470049619675
1701881493096327700,2.00432763671875,-0.6176473498344421,-10.782058715820312,-0.013459627516567707
1701881493105919500,2.01391943359375,-0.6320042610168457,-10.245767593383789,-0.08315058797597885
1701881493115512000,2.023511962890625,-0.6990033388137817,-9.920044898986816,-0.3320041298866272
1701881493125105400,2.03310546875,-0.9430712461471558,-10.020842552185059,-0.29371899366378784
1701881493134698000,2.042697998046875,-1.1368898153305054,-9.264111518859863,-0.6337988972663879
1701881493144289800,2.052289794921875,-0.5934200286865234,-7.873283863067627,-1.9002002477645874
1701881493153882400,2.06188232421875,-1.158425211906433,-8.4502534866333,-1.3519448041915894
1701881493163475700,2.071475830078125,-1.0531411170959473,-8.893224716186523,-0.91136634349823
1701881493173068300,2.081068359375,-1.1512467861175537,-10.07587718963623,-0.6649056077003479
1701881493182660000,2.09066015625,-0.7253243923187256,-11.244173049926758,-0.5186443328857422
1701881493192252700,2.100252685546875,-0.4953143000602722,-10.233803749084473,-1.1988041400909424
1701881493201846000,2.109845947265625,-1.1153544187545776,-9.948758125305176,-0.6314060688018799
1701881493211438600,2.1194384765625,-1.2185449600219727,-9.975079536437988,-0.2961117923259735
1701881493221030400,2.129030517578125,-1.0316057205200195,-9.920044898986816,-0.4420739710330963
1701881493230623000,2.138623046875,-0.8784649968147278,-9.829116821289062,-0.4707878530025482
1701881493240216300,2.14821630859375,-0.7995018362998962,-9.807581901550293,-0.4540380835533142
1701881493249809000,2.157808837890625,-0.8234301209449768,-9.833903312683105,-0.35114672780036926
1701881493259400700,2.167400634765625,-0.8784649968147278,-9.853045463562012,-0.28175488114356995
1701881493268993300,2.1769931640625,-0.9239286184310913,-9.915258407592773,-0.25304099917411804
1701881493278586600,2.186586669921875,-0.9382855892181396,-9.970293998718262,-0.15254244208335876
1701881493288179200,2.19617919921875,-0.9239286184310913,-10.044770240783691,-0.14057832956314087
1701881493297771000,2.20577099609375,-0.9047860503196716,-10.078269958496094,-0.05922235921025276
1701881493307363600,2.215363525390625,-0.8401798605918884,-10.085448265075684,0.020039889961481094
1701881493316957000,2.22495703125,-0.8306085467338562,-10.028020858764648,0.1133599728345871
1701881493326549500,2.234549560546875,-0.8353942036628723,-9.924830436706543,0.16121642291545868
1701881493336141300,2.244141357421875,-0.8306085467338562,-9.80518913269043,0.20907287299633026
1701881493345734000,2.25373388671875,-0.8497511148452759,-9.783653259277344,0.3454637825489044
1701881493355327200,2.2633271484375,-0.88803631067276,-9.800403594970703,0.41485562920570374
1701881493364919800,2.272919921875,-0.9287142753601074,-9.793225288391113,0.4938187599182129
1701881493374511600,2.28251171875,-0.9454640746116638,-9.81954574584961,0.6065805554389954
1701881493384104200,2.292104248046875,-0.9981061220169067,-9.857831001281738,0.6951149702072144
1701881493393697500,2.301697509765625,-1.0100702047348022,-9.881759643554688,0.747757077217102
1701881493403290000,2.3112900390625,-1.0100702047348022,-9.867402076721191,0.778863787651062
1701881493412881700,2.320881591796875,-1.0004990100860596,-9.92961597442627,0.7956135272979736
1701881493422474500,2.330474609375,-0.9837492108345032,-10.023235321044922,0.8267202377319336
1701881493432067800,2.34006787109375,-0.9837492108345032,-10.071091651916504,0.8219345808029175
1701881493441660200,2.34966015625,-1.0052846670150757,-10.099804878234863,0.7860422134399414
1701881493451252200,2.359252197265625,-1.0794621706008911,-10.109376907348633,0.7214360237121582
1701881493460844800,2.3688447265625,-1.1321041584014893,-10.06869888305664,0.6496513485908508
1701881493470438100,2.378438232421875,-1.1560324430465698,-10.035199165344238,0.623330295085907
1701881493480030700,2.38803076171875,-1.1560324430465698,-9.98973560333252,0.6089733839035034
1701881493489622300,2.397622314453125,-1.2376874685287476,-9.972686767578125,0.5946164131164551
1701881493499215000,2.407215087890625,-1.2448660135269165,-9.955936431884766,0.5276173949241638
1701881493508808400,2.416808349609375,-1.2233306169509888,-9.915258407592773,0.4507479667663574
1701881493518401000,2.426401123046875,-1.2065808773040771,-9.888937950134277,0.4507479667663574
1701881493527992600,2.43599267578125,-1.2424731254577637,-9.872187614440918,0.3813561201095581
1701881493537585200,2.445585205078125,-1.280758261680603,-9.886545181274414,0.3454637825489044
1701881493547178800,2.4551787109375,-1.3070793151855469,-9.939187049865723,0.3071786165237427
1701881493556771000,2.46477099609375,-1.3214362859725952,-9.896116256713867,0.23778675496578217
1701881493566363000,2.47436279296875,-1.3142578601837158,-9.888937950134277,0.17557336390018463
1701881493575955700,2.483955810546875,-1.3645070791244507,-9.888937950134277,0.18514464795589447
1701881493585548800,2.493548828125,-1.3405789136886597,-9.932008743286133,0.2186441719532013
1701881493595141400,2.503141357421875,-1.3621143102645874,-10.030413627624512,0.2952145040035248
1701881493604733200,2.512733154296875,-1.409970760345459,-9.68076229095459,0.20189441740512848
1701881493614325800,2.52232568359375,-1.4075778722763062,-9.642477035522461,0.15164513885974884
1701881493623919400,2.53191943359375,-1.3453645706176758,-9.853045463562012,0.31435707211494446
1701881493633511700,2.54151171875,-1.2376874685287476,-9.917651176452637,0.30957141518592834
1701881493643103500,2.551103515625,-1.1416754722595215,-9.853045463562012,0.27846473455429077
1701881493652696000,2.560696044921875,-1.158425211906433,-9.776474952697754,0.3358924686908722
1701881493662289400,2.570289306640625,-1.1754741668701172,-9.728618621826172,0.40289151668548584
1701881493671882000,2.579882080078125,-1.1754741668701172,-9.659226417541504,0.31435707211494446
1701881493681473800,2.589473876953125,-1.129711389541626,-9.613762855529785,0.2593221664428711
1701881493691066400,2.59906640625,-1.1177473068237305,-9.630513191223145,0.14685949683189392
1701881493700659700,2.60865966796875,-1.09381902217865,-9.683155059814453,0.010468599386513233
1701881493710252300,2.618252197265625,-1.0698908567428589,-9.733404159545898,-0.12143574655056
1701881493719844000,2.627843994140625,-1.0770692825317383,-9.81236743927002,-0.22911277413368225
1701881493729436700,2.637436767578125,-1.1105687618255615,-9.90568733215332,-0.31764721870422363
1701881493739030000,2.647030029296875,-1.1081759929656982,-10.013663291931152,-0.43489551544189453
1701881493748622600,2.65662255859375,-1.0459625720977783,-10.138090133666992,-0.5401797294616699
1701881493758214400,2.66621435546875,-0.9646066427230835,-10.202696800231934,-0.6457630395889282
1701881493767807000,2.675806884765625,-0.8760721683502197,-10.217053413391113,-0.7510471940040588
1701881493777400300,2.685400390625,-0.8018946647644043,-10.195518493652344,-0.8324031829833984
1701881493786993000,2.694992919921875,-0.7301099896430969,-10.147662162780762,-0.8946165442466736
1701881493796584700,2.704584716796875,-0.6631109714508057,-10.12134075164795,-0.8850452899932861
1701881493806177300,2.71417724609375,-0.48813581466674805,-10.104591369628906,-0.913759171962738
1701881493815770600,2.7237705078125,-0.3732803463935852,-9.999306678771973,-0.9448658227920532
1701881493825363200,2.73336328125,-0.33738797903060913,-9.927223205566406,-0.9544371366500854
1701881493834955000,2.742955078125,-0.24406790733337402,-9.876974105834961,-0.9544371366500854
1701881493844547600,2.752547607421875,-0.13878370821475983,-9.893723487854004,-0.9616156220436096
1701881493854141000,2.762140869140625,-0.11246266216039658,-9.860223770141602,-0.9329017400741577
1701881493863733500,2.7717333984375,-0.03798605874180794,-9.876974105834961,-0.8946165442466736
1701881493873325300,2.7813251953125,0.007477570790797472,-9.831509590148926,-0.88025963306427
1701881493882918000,2.79091796875,-0.026021946221590042,-9.853045463562012,-0.8706883192062378
1701881493892511200,2.80051123046875,-0.026021946221590042,-9.850652694702148,-0.844367265701294
1701881493902103800,2.810103759765625,0.036191441118717194,-9.879366874694824,-0.7701897621154785
1701881493911695400,2.8196953125,0.134297177195549,-9.855438232421875,-0.7007979154586792
1701881493921288200,2.8292880859375,0.14386846125125885,-9.809974670410156,-0.5593222975730896
1701881493930881500,2.838881591796875,0.19172491133213043,-9.81954574584961,-0.4133601188659668
1701881493940474000,2.84847412109375,0.26111677289009094,-9.89850902557373,-0.2961117923259735
1701881493950065700,2.858065673828125,0.1989033818244934,-9.958329200744629,-0.18364913761615753
1701881493959658500,2.867658447265625,0.10079765319824219,-10.049555778503418,-0.07118647545576096
1701881493969251800,2.877251953125,0.06969095766544342,-9.987342834472656,-0.0975075215101242
1701881493978844200,2.88684423828125,0.029012974351644516,-9.960722923278809,-0.12861421704292297
1701881493988436000,2.89643603515625,0.20608185231685638,-10.051948547363281,0.12771691381931305
1701881493998028500,2.906028564453125,-0.2392822653055191,-10.071091651916504,-0.04247260093688965
1701881494007622000,2.915621826171875,-0.31345975399017334,-10.059126853942871,-0.047258246690034866
1701881494017214500,2.92521435546875,-0.5623133182525635,-9.984950065612793,-0.25304099917411804
1701881494026806300,2.93480615234375,-0.36610186100006104,-10.06869888305664,-0.1860419660806656
1701881494036398800,2.94439892578125,-0.12681959569454193,-10.188340187072754,0.05832505226135254
1701881494045992200,2.9539921875,0.16301104426383972,-10.224231719970703,0.3358924686908722
1701881494055586800,2.9635869140625,0.41186460852622986,-10.236196517944336,0.6544370055198669
1701881494065177600,2.973177490234375,0.4046861231327057,-10.284052848815918,0.8937192559242249
1701881494074770400,2.9827705078125,0.08165507018566132,-10.45633602142334,0.9152546525001526
1701881494084363500,2.992363525390625,-0.03080759197473526,-10.774880409240723,0.8554341197013855
1701881494093956400,3.001956298828125,0.03858426585793495,-11.018948554992676,0.8003991842269897
1701881494103548000,3.0115478515625,0.13190434873104095,-10.951949119567871,0.8410771489143372
1701881494113140700,3.021140625,-0.09092725813388824,-10.523334503173828,0.6831508874893188
1701881494122734000,3.030734130859375,-0.38763725757598877,-9.987342834472656,0.5970092415809631
1701881494132326400,3.040326416015625,-0.4833501875400543,-9.594620704650879,0.592223584651947
1701881494141918200,3.049918212890625,-0.44027936458587646,-9.393324851989746,0.5443671345710754
1701881494151510800,3.0595107421875,-0.42352959513664246,-9.388538360595703,0.46749773621559143
1701881494161104100,3.069104248046875,-0.34695929288864136,-9.568299293518066,0.45553362369537354
1701881494170696700,3.07869677734375,-0.12921242415905,-9.833903312683105,0.5009972453117371
1701881494180288500,3.08828857421875,0.1534397453069687,-10.080662727355957,0.5587241053581238
1701881494189881000,3.097881103515625,0.40229329466819763,-10.21466064453125,0.6065805554389954
1701881494199474400,3.107474365234375,0.5700899958610535,-10.272088050842285,0.6640082597732544
1701881494209067000,3.11706689453125,0.6203392744064331,-10.341480255126953,0.776470959186554
1701881494218658800,3.126658935546875,0.6203392744064331,-10.396514892578125,0.898504912853241
1701881494228251400,3.13625146484375,0.5246263742446899,-10.468299865722656,0.8721838593482971
1701881494237844700,3.1458447265625,0.39990049600601196,-10.571490287780762,0.8578268885612488
1701881494247437300,3.155437255859375,0.30658039450645447,-10.578668594360352,0.8602197170257568
1701881494257029000,3.165029052734375,0.26111677289009094,-10.523334503173828,0.8817551732063293
1701881494266621700,3.17462158203125,0.1462612897157669,-10.403694152832031,0.9726824164390564
1701881494276215000,3.184215087890625,0.012263216078281403,-10.343873023986816,1.0301101207733154
1701881494285807600,3.1938076171875,-0.011665010824799538,-10.329516410827637,0.9631111025810242
1701881494295399400,3.2033994140625,0.012263216078281403,-10.255338668823242,0.8003991842269897
1701881494304992000,3.212991943359375,0.07447660714387894,-10.11416244506836,0.6903293132781982
1701881494314585300,3.22258544921875,0.08404789865016937,-9.934401512145996,0.5443671345710754
1701881494324178000,3.232177978515625,-0.040677983313798904,-9.685547828674316,0.3406781256198883
1701881494333769500,3.24176953125,-0.20817556977272034,-9.400503158569336,0.07746763527393341
1701881494343362300,3.2513623046875,-0.2967100143432617,-9.15404224395752,-0.1621137410402298
1701881494352955600,3.26095556640625,-0.22971096634864807,-9.039186477661133,-0.372682124376297
1701881494362548000,3.2705478515625,-0.11006984114646912,-9.010472297668457,-0.5210371017456055
1701881494372139800,3.280139892578125,0.06011966988444328,-9.087042808532715,-0.602692186832428
1701881494381732400,3.289732421875,0.21804596483707428,-9.288040161132812,-0.638584554195404
1701881494391326000,3.299325927734375,0.23240290582180023,-9.506086349487305,-0.6242275834083557
1701881494400918300,3.308918212890625,0.17497515678405762,-9.678369522094727,-0.6122635006904602
1701881494410510000,3.318510009765625,0.10797612369060516,-9.893723487854004,-0.5955137610435486
1701881494420102700,3.3281025390625,0.04576273262500763,-10.130911827087402,-0.5955137610435486
1701881494429696000,3.337696044921875,-0.03798605874180794,-10.374979972839355,-0.5979065299034119
1701881494439288600,3.34728857421875,-0.18903298676013947,-10.60977554321289,-0.5784648656845093
1701881494448880400,3.35688037109375,-0.28953152894973755,-10.762916564941406,-0.5521438121795654
1701881494458473000,3.366472900390625,-0.3397808074951172,-10.849058151245117,-0.5282155871391296
1701881494468066300,3.37606640625,-0.34695929288864136,-10.84427261352539,-0.4013960063457489
1701881494477659000,3.385658935546875,-0.2871387302875519,-10.688738822937012,-0.33918261528015137
1701881494487250700,3.395250732421875,-0.1986042857170105,-10.468299865722656,-0.39421752095222473
1701881494496843300,3.40484326171875,-0.1339980661869049,-10.236196517944336,-0.45164528489112854
1701881494506436600,3.4144365234375,-0.12442677468061447,-10.023235321044922,-0.48035913705825806
1701881494516029200,3.424029296875,-0.14835500717163086,-9.831509590148926,-0.4612165689468384
1701881494525621000,3.43362109375,-0.19142581522464752,-9.66640567779541,-0.4468596279621124
1701881494535213600,3.443213623046875,-0.2727817893028259,-9.575477600097656,-0.3846462368965149
1701881494544807000,3.452806884765625,-0.35892340540885925,-9.568299293518066,-0.3846462368965149
1701881494554399500,3.4623994140625,-0.4259224236011505,-9.597013473510742,-0.4372883439064026
1701881494563991000,3.471990966796875,-0.4498506486415863,-9.683155059814453,-0.4612165689468384
1701881494573584000,3.481583984375,-0.4307080805301666,-9.771689414978027,-0.4660021960735321
1701881494583177200,3.49117724609375,-0.3397808074951172,-9.867402076721191,-0.49710890650749207
1701881494592769500,3.50076953125,-0.2632105052471161,-9.972686767578125,-0.5330012440681458
1701881494602361300,3.510361328125,-0.1866401731967926,-10.073484420776367,-0.5688936114311218
1701881494611954000,3.519953857421875,-0.15074782073497772,-10.145268440246582,-0.5880361795425415
1701881494621547500,3.529547607421875,-0.12203395366668701,-10.188340187072754,-0.5856433510780334
1701881494631139800,3.539139892578125,-0.10049854964017868,-10.20030403137207,-0.5569294691085815
1701881494640731600,3.548731689453125,-0.13160525262355804,-10.21466064453125,-0.5306084156036377
1701881494650324200,3.55832421875,-0.23449662327766418,-10.21466064453125,-0.4588237404823303
1701881494659917600,3.56791748046875,-0.2847459018230438,-10.205089569091797,-0.4301098585128784
1701881494669510100,3.57751025390625,-0.3565305769443512,-10.142875671386719,-0.42771705985069275
1701881494679102000,3.58710205078125,-0.44027936458587646,-10.044770240783691,-0.4085744619369507
1701881494688694500,3.596694580078125,-0.4785645306110382,-9.958329200744629,-0.4420739710330963
1701881494698287900,3.606287841796875,-0.4953143000602722,-9.888937950134277,-0.43968117237091064
1701881494707880400,3.61588037109375,-0.5024927258491516,-9.833903312683105,-0.4133601188659668
1701881494717472300,3.62547216796875,-0.5264210104942322,-9.81954574584961,-0.41575294733047485
1701881494727064800,3.63506494140625,-0.5407779216766357,-9.821938514709473,-0.37507495284080505
1701881494736658200,3.644658203125,-0.5383850932121277,-9.814760208129883,-0.3367897868156433
1701881494746250500,3.65425048828125,-0.5024927258491516,-9.81954574584961,-0.28175488114356995
1701881494755842600,3.663842529296875,-0.4498506486415863,-9.843474388122559,-0.25064817070961
1701881494765435100,3.67343505859375,-0.41156548261642456,-9.872187614440918,-0.21714866161346436
1701881494775028500,3.683028564453125,-0.397208571434021,-9.91286563873291,-0.20039889216423035
1701881494784620800,3.692620849609375,-0.40677985548973083,-9.932008743286133,-0.18843477964401245
1701881494794212600,3.702212646484375,-0.41874396800994873,-9.972686767578125,-0.19322042167186737
1701881494803805200,3.71180517578125,-0.45942193269729614,-10.0040922164917,-0.22432711720466614
1701881494813398500,3.7213984375,-0.46420758962631226,-10.016056060791016,-0.25064817070961
1701881494822991000,3.7309912109375,-0.4450650215148926,-10.037591934204102,-0.25782662630081177
1701881494832583000,3.7405830078125,-0.4307080805301666,-10.025628089904785,-0.27696922421455383
1701881494842175500,3.750175537109375,-0.37806597352027893,-10.023235321044922,-0.2793620526790619
1701881494851768800,3.759768798828125,-0.30149564146995544,-10.049555778503418,-0.26979073882102966
1701881494861361400,3.769361328125,-0.30149564146995544,-10.042377471923828,-0.24825534224510193
1701881494870953200,3.778953125,-0.3158525824546814,-10.030413627624512,-0.21954147517681122
1701881494880545800,3.7885458984375,-0.35413774847984314,-10.028020858764648,-0.1860419660806656
1701881494890139100,3.79813916015625,-0.397208571434021,-10.032806396484375,-0.15493527054786682
1701881494899731700,3.807731689453125,-0.4091726839542389,-10.037591934204102,-0.1381855010986328
1701881494909323500,3.817323486328125,-0.4259224236011505,-10.039984703063965,-0.08793623000383377
1701881494918916000,3.826916015625,-0.42352959513664246,-10.039984703063965,-0.0687936544418335
1701881494928509400,3.836509521484375,-0.42831525206565857,-10.032806396484375,-0.052043892443180084
1701881494938102000,3.84610205078125,-0.4091726839542389,-10.037591934204102,-0.03768695518374443
1701881494947693600,3.855693603515625,-0.4019941985607147,-10.028020858764648,-0.03768695518374443
1701881494957286400,3.865286376953125,-0.39481574296951294,-10.037591934204102,-0.023030918091535568
1701881494966879700,3.874879638671875,-0.39481574296951294,-10.008877754211426,-0.07836493849754333
1701881494976472000,3.88447216796875,-0.36610186100006104,-10.001699447631836,-0.12861421704292297
1701881494986064000,3.89406396484375,-0.34217363595962524,-10.006484985351562,-0.16689938306808472
1701881494995656400,3.903656494140625,-0.33499518036842346,-10.011270523071289,-0.15493527054786682
1701881495005249800,3.913249755859375,-0.3397808074951172,-10.006484985351562,-0.1860419660806656
1701881495014842400,3.92284228515625,-0.35413774847984314,-10.0040922164917,-0.19561325013637543
1701881495024434200,3.93243408203125,-0.3756731450557709,-9.98973560333252,-0.23629122972488403
1701881495034026800,3.94202685546875,-0.4043870270252228,-9.965508460998535,-0.25782662630081177
1701881495043620000,3.9516201171875,-0.4331009089946747,-9.955936431884766,-0.28654050827026367
1701881495053212700,3.961212646484375,-0.41874396800994873,-9.967901229858398,-0.32243284583091736
1701881495062804500,3.970804443359375,-0.4043870270252228,-9.965508460998535,-0.32721850275993347
1701881495072397000,3.98039697265625,-0.34695929288864136,-9.960722923278809,-0.35832518339157104
1701881495081990400,3.989990478515625,-0.34217363595962524,-9.946365356445312,-0.3678964674472809
1701881495091583000,3.9995830078125,-0.33020952343940735,-9.951150894165039,-0.38703906536102295
1701881495101174800,4.0091748046875,-0.33020952343940735,-9.960722923278809,-0.39182472229003906
1701881495110767400,4.018767333984375,-0.35413774847984314,-9.987342834472656,-0.39421752095222473
1701881495120360700,4.028360595703125,-0.3684946894645691,-10.008877754211426,-0.4085744619369507
1701881495129953000,4.037953125,-0.380458801984787,-10.018449783325195,-0.39900317788124084
1701881495139544800,4.047544921875,-0.3684946894645691,-10.028020858764648,-0.4013960063457489
1701881495149137700,4.0571376953125,-0.36610186100006104,-10.028020858764648,-0.39182472229003906
1701881495158731000,4.06673095703125,-0.34217363595962524,-10.035199165344238,-0.35832518339157104
1701881495168323300,4.0763232421875,-0.3326023519039154,-10.032806396484375,-0.3439682424068451
1701881495177915100,4.0859150390625,-0.34217363595962524,-10.023235321044922,-0.355932354927063
1701881495187507700,4.0955078125,-0.33020952343940735,-10.018449783325195,-0.3607180118560791
1701881495197101000,4.10510107421875,-0.31106695532798767,-10.0040922164917,-0.3655036687850952
1701881495206693600,4.114693603515625,-0.2967100143432617,-10.011270523071289,-0.35832518339157104
1701881495216285400,4.124285400390625,-0.29431718587875366,-10.001699447631836,-0.36311084032058716
1701881495225878000,4.1338779296875,-0.28953152894973755,-9.98973560333252,-0.355932354927063
1701881495235471400,4.143471435546875,-0.2919243574142456,-9.994521141052246,-0.3439682424068451
1701881495245064000,4.15306396484375,-0.31106695532798767,-10.001699447631836,-0.3200400173664093
1701881495254655700,4.16265576171875,-0.33499518036842346,-9.999306678771973,-0.2961117923259735
1701881495264248300,4.172248291015625,-0.3278166949748993,-9.99691390991211,-0.2913261651992798
1701881495273841700,4.181841552734375,-0.32542386651039124,-9.994521141052246,-0.2841476798057556
1701881495283434000,4.19143408203125,-0.34217363595962524,-9.992128372192383,-0.28175488114356995
1701881495293025800,4.20102587890625,-0.32303106784820557,-9.987342834472656,-0.2602194547653198
1701881495302618400,4.210618408203125,-0.31106695532798767,-9.951150894165039,-0.24825534224510193
1701881495312212000,4.2202119140625,-0.32542386651039124,-9.951150894165039,-0.22911277413368225
1701881495321804300,4.22980419921875,-0.3206382393836975,-9.94397258758545,-0.19800607860088348
1701881495331396000,4.23939599609375,-0.2967100143432617,-9.967901229858398,-0.15972091257572174
1701881495340988700,4.24898876953125,-0.30149564146995544,-9.98255729675293,-0.15972091257572174
1701881495350582000,4.25858203125,-0.3206382393836975,-9.987342834472656,-0.16929219663143158
1701881495360174600,4.268174560546875,-0.31345975399017334,-9.98973560333252,-0.18843477964401245
1701881495369766400,4.277766357421875,-0.28953152894973755,-9.967901229858398,-0.21954147517681122
1701881495379359000,4.28735888671875,-0.2679961323738098,-9.963115692138672,-0.22911277413368225
1701881495388952300,4.296952392578125,-0.275174617767334,-9.975079536437988,-0.24107688665390015
1701881495398545000,4.306544921875,-0.28235307335853577,-9.980164527893066,-0.2386840581893921
1701881495408136700,4.31613671875,-0.28235307335853577,-10.008877754211426,-0.26500511169433594
1701881495417729300,4.325729248046875,-0.29431718587875366,-10.018449783325195,-0.25064817070961
1701881495427322600,4.335322509765625,-0.2991028428077698,-10.0040922164917,-0.2913261651992798
1701881495436915200,4.344915283203125,-0.3158525824546814,-10.001699447631836,-0.2913261651992798
1701881495446506800,4.3545068359375,-0.31824541091918945,-9.987342834472656,-0.3080759048461914
1701881495456099600,4.364099609375,-0.32542386651039124,-9.980164527893066,-0.32243284583091736
1701881495465693000,4.37369287109375,-0.3086741268634796,-9.960722923278809,-0.3415754437446594
1701881495475285200,4.38328515625,-0.27756741642951965,-9.98255729675293,-0.35114672780036926
1701881495484877000,4.392876953125,-0.24885354936122894,-9.980164527893066,-0.355932354927063
1701881495494469600,4.4024697265625,-0.24885354936122894,-9.970293998718262,-0.3152543902397156
1701881495504063000,4.41206298828125,-0.24406790733337402,-9.965508460998535,-0.32961133122444153
1701881495513655600,4.421655517578125,-0.24167509377002716,-9.960722923278809,-0.3320041298866272
1701881495523247400,4.431247314453125,-0.24167509377002716,-9.972686767578125,-0.35114672780036926
1701881495532840000,4.44083984375,-0.2584248483181,-9.999306678771973,-0.3487538993358612
1701881495542433300,4.450433349609375,-0.27038896083831787,-10.011270523071289,-0.3846462368965149
1701881495552025900,4.46002587890625,-0.2799602448940277,-10.025628089904785,-0.40378883481025696
1701881495561617700,4.46961767578125,-0.26560330390930176,-10.011270523071289,-0.4085744619369507
1701881495571210200,4.479210205078125,-0.26081767678260803,-10.006484985351562,-0.42293140292167664
1701881495580803600,4.488803466796875,-0.25363919138908386,-9.992128372192383,-0.4420739710330963
1701881495590396200,4.498396240234375,-0.275174617767334,-9.98973560333252,-0.4420739710330963
1701881495599987700,4.50798779296875,-0.27756741642951965,-10.0040922164917,-0.4468596279621124
1701881495609580300,4.517580322265625,-0.23210379481315613,-9.999306678771973,-0.45643091201782227
1701881495619173600,4.527173583984375,-0.22492532432079315,-9.99691390991211,-0.4540380835533142
1701881495628766200,4.53676611328125,-0.20817556977272034,-10.0040922164917,-0.4325026869773865
1701881495638358000,4.54635791015625,-0.2105683982372284,-10.016056060791016,-0.4325026869773865
1701881495647950600,4.55595068359375,-0.20817556977272034,-9.999306678771973,-0.4325026869773865
1701881495657544000,4.5655439453125,-0.2153540402650833,-9.994521141052246,-0.4181457459926605
1701881495667136500,4.575136474609375,-0.17946170270442963,-9.977771759033203,-0.4181457459926605
1701881495676728300,4.584728271484375,-0.1746760457754135,-9.977771759033203,-0.42293140292167664
1701881495686321000,4.59432080078125,-0.16031911969184875,-10.001699447631836,-0.4301098585128784
1701881495695914200,4.603914306640625,-0.15553347766399384,-10.006484985351562,-0.41575294733047485
1701881495705506800,4.6135068359375,-0.1746760457754135,-10.011270523071289,-0.42293140292167664
1701881495715098400,4.623098388671875,-0.21774685382843018,-10.008877754211426,-0.43489551544189453
1701881495724691200,4.632691162109375,-0.1866401731967926,-10.008877754211426,-0.45164528489112854
1701881495734284500,4.642284423828125,-0.13639089465141296,-10.059126853942871,-0.46360939741134644
1701881495743876900,4.651876953125,-0.11724831163883209,-10.06869888305664,-0.44446679949760437
1701881495753468700,4.66146875,-0.10049854964017868,-10.056734085083008,-0.4612165689468384
1701881495763061200,4.671061279296875,-0.0933200865983963,-10.018449783325195,-0.4827519655227661
1701881495772654600,4.680654541015625,-0.05742774158716202,-9.963115692138672,-0.5138586759567261
1701881495782247200,4.6902470703125,0.033798620104789734,-9.910472869873047,-0.5760720372200012
1701881495791839000,4.6998388671875,0.11036894470453262,-9.915258407592773,-0.6170491576194763
1701881495801431600,4.709431640625,0.1534397453069687,-9.963115692138672,-0.6266204118728638
1701881495811025000,4.71902490234375,0.17976079881191254,-9.98973560333252,-0.667298436164856
1701881495820617500,4.728617431640625,0.1821536272764206,-10.006484985351562,-0.7079764008522034
1701881495830209300,4.738209228515625,0.1701895147562027,-9.970293998718262,-0.7701897621154785
1701881495839801900,4.7478017578125,0.17497515678405762,-9.915258407592773,-0.8204390406608582
1701881495849395200,4.757395263671875,0.16301104426383972,-9.869794845581055,-0.846760094165802
1701881495858987800,4.76698779296875,0.1989033818244934,-9.853045463562012,-0.8706883192062378
1701881495868579300,4.776579345703125,0.23001007735729218,-9.893723487854004,-0.8850452899932861
1701881495878172000,4.786171875,0.21326032280921936,-9.872187614440918,-0.8850452899932861
1701881495887765200,4.79576513671875,0.2515454888343811,-9.879366874694824,-0.8539385795593262
1701881495897357800,4.80535791015625,0.38315072655677795,-9.896116256713867,-0.877866804599762
1701881495906949600,4.81494970703125,0.48364928364753723,-9.81954574584961,-0.9257232546806335
1701881495916542200,4.824542236328125,0.5147559642791748,-9.735796928405762,-0.8730811476707458
1701881495926135600,4.834135498046875,0.5724828243255615,-9.620942115783691,-0.8324031829833984
1701881495935728000,4.84372802734375,0.6538388133049011,-9.568299293518066,-0.8706883192062378
1701881495945320000,4.85331982421875,0.6107679605484009,-9.661619186401367,-0.913759171962738
1701881495954912500,4.86291259765625,0.5724828243255615,-9.690333366394043,-0.9640084505081177
1701881495964505900,4.872505859375,0.5485545992851257,-9.68794059753418,-0.9616156220436096
1701881495974098400,4.882098388671875,0.5653043389320374,-9.723833084106445,-1.0501500368118286
1701881495983690000,4.89168994140625,0.7495517134666443,-9.66640567779541,-1.2323036193847656
1701881495993282800,4.90128271484375,0.8261220455169678,-9.618548393249512,-1.3710874319076538
1701881496002876200,4.910876220703125,0.8237292170524597,-9.553942680358887,-1.3854442834854126
1701881496012468500,4.920468505859375,0.7088736891746521,-9.534799575805664,-1.3591232299804688
1701881496022060300,4.930060302734375,0.5772684812545776,-9.429515838623047,-1.5050854682922363
1701881496031652900,4.93965283203125,0.5246263742446899,-9.441479682922363,-1.3591232299804688
1701881496041246200,4.94924609375,0.5581258535385132,-9.54197883605957,-1.306481122970581
1701881496050838800,4.9588388671875,0.7040880918502808,-9.721440315246582,-1.2442678213119507
1701881496060430600,4.9684306640625,0.8165507316589355,-9.917651176452637,-1.275374412536621
1701881496070023200,4.978023193359375,0.7782655358314514,-10.066306114196777,-1.4859428405761719
1701881496079616500,4.987616455078125,0.6323033571243286,-10.327123641967773,-1.6773686408996582
1701881496089209000,4.997208984375,0.6203392744064331,-10.626524925231934,-1.9719849824905396
1701881496098801000,5.00680078125,1.0079765319824219,-10.85145092010498,-2.345564365386963
1701881496108393500,5.0163935546875,1.139880895614624,-10.85145092010498,-2.503490686416626
1701881496117986800,5.02598681640625,0.5123631358146667,-10.796415328979492,-2.7020950317382812
1701881496127579100,5.0355791015625,-0.349352091550827,-10.581061363220215,-3.1402807235717773
1701881496137171000,5.0451708984375,0.04815555736422539,-10.626524925231934,-2.761915445327759
1701881496146763500,5.054763427734375,0.40229329466819763,-11.248958587646484,-1.8140586614608765
1701881496156356900,5.06435693359375,-0.07657032459974289,-11.670393943786621,-1.3256237506866455
1701881496165949400,5.073949462890625,-0.6200401782989502,-11.703893661499023,-1.3351950645446777
1701881496175541200,5.083541259765625,-0.6631109714508057,-11.512168884277344,-1.5314065217971802
1701881496185133800,5.0931337890625,-0.6535396575927734,-11.179566383361816,-1.7470595836639404
1701881496194727200,5.10272705078125,-0.43549370765686035,-10.794022560119629,-1.960020899772644
1701881496204319700,5.11231982421875,-0.07896314561367035,-10.358230590820312,-1.9959131479263306
1701881496213911600,5.12191162109375,0.2228316068649292,-9.862616539001465,-1.9671993255615234
1701881496223504100,5.131504150390625,0.27786654233932495,-9.300004005432129,-1.9217356443405151
1701881496233097500,5.141097412109375,0.1414756327867508,-8.90518856048584,-1.7973089218139648
1701881496242689800,5.150689697265625,0.17736798524856567,-8.498109817504883,-1.7156537771224976
1701881496252281600,5.160281494140625,0.21804596483707428,-8.258528709411621,-1.545763373374939
1701881496261874200,5.169874267578125,0.12233305722475052,-8.184350967407227,-1.3950155973434448
1701881496271467500,5.179467529296875,0.12472587823867798,-8.102994918823242,-0.9783653616905212
1701881496281060000,5.18906005859375,0.18933209776878357,-8.052745819091797,-0.7510471940040588
1701881496290652000,5.19865185546875,0.35922250151634216,-7.844570159912109,-0.8419744968414307
1701881496300244500,5.208244384765625,0.4668995141983032,-8.467002868652344,-0.7821539044380188
1701881496309837800,5.217837890625,0.5341976284980774,-9.02243709564209,-0.7606185078620911
1701881496319430400,5.227430419921875,0.4621138870716095,-9.661619186401367,-0.6840481758117676
1701881496329022200,5.237022216796875,0.19172491133213043,-10.195518493652344,-0.7199404835700989
1701881496338614800,5.24661474609375,0.12711870670318604,-10.712666511535645,-1.3040883541107178
1701881496348208000,5.2562080078125,-0.20099709928035736,-11.105388641357422,-0.9759725332260132
1701881496357800400,5.265800537109375,-0.6894320249557495,-11.155638694763184,-0.968794047832489
1701881496367392300,5.275392333984375,-1.1512467861175537,-11.052447319030762,-1.2083754539489746
1701881496376984800,5.28498486328125,-1.4482558965682983,-10.72702407836914,-1.5026925802230835
1701881496386578200,5.294578125,-1.6157535314559937,-10.480263710021973,-1.710868239402771
1701881496396170800,5.304170654296875,-1.3549357652664185,-10.250553131103516,-2.072483539581299
1701881496405762600,5.313762451171875,-0.8928219676017761,-9.893723487854004,-2.3647069931030273
1701881496415355100,5.323355224609375,-0.5096712112426758,-9.778867721557617,-2.651845693588257
1701881496424948500,5.332948486328125,-0.17706887423992157,-9.68794059753418,-2.71645188331604
1701881496434541000,5.342541015625,0.007477570790797472,-10.008877754211426,-2.4699912071228027
1701881496444132900,5.3521328125,0.16779668629169464,-10.195518493652344,-2.2495524883270264
1701881496453725400,5.361725341796875,0.012263216078281403,-10.269695281982422,-1.8427724838256836
1701881496463318800,5.37131884765625,-0.016450656577944756,-10.571490287780762,-1.4572290182113647
1701881496472911000,5.3809111328125,0.17258232831954956,-10.272088050842285,-0.9807581901550293
1701881496482503000,5.3905029296875,0.04576273262500763,-9.750154495239258,-0.5401797294616699
1701881496492095700,5.400095703125,-0.17706887423992157,-9.091828346252441,-0.3032902777194977
1701881496501688800,5.409688720703125,-0.11485548317432404,-8.672785758972168,0.010468599386513233
1701881496511281400,5.419281494140625,0.03858426585793495,-8.498109817504883,0.07028916478157043
1701881496520873200,5.428873291015625,0.012263216078281403,-8.512466430664062,-0.14057832956314087
1701881496530465800,5.4384658203125,-0.07417750358581543,-8.778069496154785,-0.3152543902397156
1701881496540059100,5.44805908203125,0.06251249462366104,-9.089435577392578,-0.4205385744571686
1701881496549651700,5.457651611328125,0.06251249462366104,-9.010472297668457,-0.6649056077003479
1701881496559243500,5.467243408203125,-0.00687936507165432,-9.352646827697754,-0.8970093727111816
1701881496568836000,5.476836181640625,-0.05742774158716202,-9.537193298339844,-1.1171491146087646
1701881496578429400,5.486429443359375,0.031405795365571976,-9.721440315246582,-1.3208380937576294
1701881496588022000,5.49602197265625,-0.12681959569454193,-9.436694145202637,-1.3926228284835815
1701881496597613600,5.505613525390625,-0.3038884699344635,-9.661619186401367,-1.5194423198699951
1701881496607206100,5.5152060546875,-0.20099709928035736,-9.592227935791016,-1.6103696823120117
1701881496616799500,5.524799560546875,-0.24167509377002716,-9.719047546386719,-1.550549030303955
1701881496626392000,5.53439208984375,-0.39481574296951294,-10.65523910522461,-1.2681959867477417
1701881496635984000,5.54398388671875,0.48364928364753723,-10.248160362243652,-1.3399807214736938
1701881496645576400,5.553576416015625,0.27308088541030884,-9.345467567443848,-1.4428720474243164
1701881496655169800,5.563169677734375,-0.03559323772788048,-9.017651557922363,-1.710868239402771
1701881496664762400,5.572762451171875,0.012263216078281403,-9.166006088256836,-1.7877376079559326
1701881496674354200,5.582354248046875,0.1582254022359848,-9.470193862915039,-1.6558332443237305
1701881496683946800,5.59194677734375,0.3089732229709625,-9.675976753234863,-1.3232308626174927
1701881496693540000,5.6015400390625,0.45972105860710144,-9.843474388122559,-1.0094720125198364
1701881496703132400,5.61113232421875,0.10797612369060516,-10.162018775939941,-0.7486543655395508
1701881496712724200,5.62072412109375,0.3161516785621643,-10.444372177124023,-0.7007979154586792
1701881496722316800,5.63031689453125,0.23718854784965515,-8.493324279785156,-0.6314060688018799
1701881496731910100,5.63991015625,-0.610468864440918,-8.131709098815918,-0.5979065299034119
1701881496741502700,5.649502685546875,-0.612861692905426,-8.440681457519531,-0.32961133122444153
1701881496751094500,5.659094482421875,-0.7779664397239685,-8.799605369567871,-0.14775680005550385
1701881496760687000,5.66868701171875,-0.643968403339386,-8.955437660217285,-0.25304099917411804
1701881496770280400,5.678280517578125,-0.7947162389755249,-9.084650039672852,-0.4588237404823303
1701881496779873000,5.687873046875,-0.7779664397239685,-9.623334884643555,-0.43968117237091064
1701881496789464800,5.69746484375,-0.021236300468444824,-9.783653259277344,-0.602692186832428
1701881496799057400,5.707057373046875,0.1055833026766777,-8.84506893157959,-0.6337988972663879
1701881496808650800,5.716650634765625,-0.7205387353897095,-8.414361000061035,-0.5665007829666138
1701881496818243000,5.7262431640625,-0.9143573641777039,-9.36461067199707,-0.5569294691085815
1701881496827835000,5.7358349609375,-1.3022937774658203,-10.19312572479248,-0.2721835672855377
1701881496837427500,5.745427490234375,-1.0507482290267944,-11.277671813964844,0.2952145040035248
1701881496847020800,5.755020751953125,-0.14356936514377594,-10.028020858764648,-0.05922235921025276
1701881496856613400,5.76461328125,0.2228316068649292,-8.306683540344238,-0.42293140292167664
1701881496866205200,5.774205078125,-0.5455635786056519,-7.909176349639893,-0.544965386390686
1701881496875797800,5.7837978515625,-0.9598209857940674,-8.794819831848145,-0.5210371017456055
1701881496885391000,5.79339111328125,-1.567897081375122,-11.15085220336914,-0.4013960063457489
1701881496894983700,5.802983642578125,-0.7827520966529846,-9.175577163696289,0.06071787327528
1701881496904575500,5.812575439453125,-0.9143573641777039,-8.730213165283203,0.40289151668548584
1701881496914168000,5.82216796875,-1.1416754722595215,-9.144471168518066,0.39092740416526794
1701881496923761400,5.831761474609375,-1.0100702047348022,-9.477372169494629,0.2665006220340729
1701881496933353700,5.841353759765625,-0.3086741268634796,-8.6967134475708,0.47228336334228516
1701881496942945500,5.850945556640625,-0.9263214468955994,-8.227421760559082,0.25692933797836304
1701881496952538000,5.8605380859375,-1.0603195428848267,-9.958329200744629,-0.049651071429252625
1701881496962131500,5.87013134765625,-0.7899305820465088,-9.144471168518066,-0.032602209597826004
1701881496971724000,5.87972412109375,-0.7396813035011292,-8.210671424865723,0.08464609831571579
1701881496981315800,5.88931591796875,-1.2376874685287476,-8.28724193572998,0.017647067084908485
1701881496990908400,5.898908447265625,-1.2711870670318604,-8.366504669189453,0.30957141518592834
1701881497000501800,5.908501708984375,-1.7883358001708984,-9.072686195373535,0.44835513830184937
1701881497010094300,5.91809423828125,-1.9725831747055054,-9.134899139404297,0.7716853022575378
1701881497019686000,5.927685791015625,-2.130509376525879,-8.99133014678955,1.1955139636993408
1701881497029278500,5.937278564453125,-2.233400821685791,-9.98255729675293,1.413260817527771
1701881497038871800,5.946871826171875,-2.441875457763672,-11.282458305358887,1.3462618589401245
1701881497048464400,5.95646435546875,-1.7715860605239868,-10.643275260925293,2.1960129737854004
1701881497058056200,5.96605615234375,-2.2357935905456543,-10.23141098022461,2.749054193496704
1701881497067648800,5.975648681640625,-2.3222343921661377,-11.169995307922363,3.177668571472168
1701881497077242000,5.9852421875,-2.480160713195801,-11.097911834716797,3.5177483558654785
1701881497086834700,5.994834716796875,-2.647658348083496,-11.1676025390625,3.670889139175415
1701881497096426500,6.004426513671875,-2.6452653408050537,-11.105388641357422,3.8407795429229736
1701881497106019000,6.01401904296875,-2.848954439163208,-10.906485557556152,3.8336009979248047
1701881497115612400,6.0236123046875,-3.0643084049224854,-10.422836303710938,3.843172311782837
1701881497125204700,6.033204833984375,-3.1432716846466064,-10.240982055664062,3.8718862533569336
1701881497134796500,6.042796630859375,-3.186342477798462,-10.06152057647705,3.8336009979248047
1701881497144389000,6.05238916015625,-3.2940194606781006,-9.862616539001465,3.7618162631988525
1701881497153982500,6.061982421875,-3.5814573764801025,-9.78843879699707,3.7378880977630615
1701881497163575000,6.071574951171875,-4.014857292175293,-9.888937950134277,3.8718862533569336
1701881497173166800,6.081166748046875,-4.390530586242676,-10.164411544799805,4.147359848022461
1701881497182759400,6.090759521484375,-4.701896667480469,-10.453943252563477,4.393820762634277
1701881497192352800,6.100352783203125,-4.914857864379883,-10.664810180664062,4.647758960723877
1701881497201945300,6.1099453125,-4.993820667266846,-10.712666511535645,4.753043174743652
1701881497211537200,6.119537109375,-4.934000492095947,-10.576275825500488,4.729115009307861
1701881497221129700,6.129129638671875,-4.768895626068115,-10.31515884399414,4.6286163330078125
1701881497230723000,6.13872314453125,-4.67078971862793,-9.941579818725586,4.645366191864014
1701881497240315400,6.1483154296875,-4.514957427978516,-9.496515274047852,4.631009101867676
1701881497249907200,6.1579072265625,-4.438386917114258,-9.072686195373535,4.678865432739258
1701881497259499800,6.167499755859375,-4.36181640625,-8.684749603271484,4.599902629852295
1701881497269093000,6.177093017578125,-4.316352844238281,-8.38564682006836,4.4946184158325195
1701881497278685700,6.186685791015625,-4.2852463722229,-8.086244583129883,4.482654094696045
1701881497288277500,6.196277587890625,-4.144069671630859,-7.715058326721191,4.288536548614502
1701881497297870000,6.2058701171875,-4.4048871994018555,-7.669594764709473,4.575973987579346
1701881497307463400,6.21546337890625,-4.491028785705566,-7.530810832977295,4.336392879486084
1701881497317056000,6.225055908203125,-4.536791801452637,-7.442276477813721,4.2000017166137695
1701881497326647600,6.2346474609375,-4.567898273468018,-7.346563816070557,4.1760735511779785
1701881497336240400,6.244240478515625,-4.603790760040283,-7.22452974319458,4.1760735511779785
1701881497345833500,6.25383349609375,-4.627718925476074,-7.205387115478516,4.226323127746582
1701881497355426000,6.263426025390625,-4.658825874328613,-7.09501838684082,4.219144344329834
1701881497365017900,6.273017822265625,-4.661218643188477,-6.961019992828369,4.276572227478027
1701881497374610400,6.2826103515625,-4.680361270904541,-6.939484596252441,4.357928276062012
1701881497384203800,6.292203857421875,-4.764110088348389,-6.927520751953125,4.547260284423828
1701881497393796400,6.30179638671875,-4.838287353515625,-6.834200382232666,4.714757919311523
1701881497403388000,6.311387939453125,-4.8574299812316895,-6.6954169273376465,4.858327388763428
1701881497412980700,6.320980712890625,-4.862215518951416,-6.709774017333984,4.994718074798584
1701881497422574000,6.330573974609375,-4.828716278076172,-6.700202465057373,5.016552448272705
1701881497432166400,6.34016650390625,-4.761716842651367,-6.688238620758057,5.057230472564697
1701881497441758200,6.34975830078125,-4.826323509216309,-6.776772975921631,5.172086238861084
1701881497451350800,6.359350830078125,-4.917250633239746,-6.803093910217285,5.078765869140625
1701881497460944100,6.368944091796875,-4.989035129547119,-6.7049880027771,5.054837703704834
1701881497470536700,6.37853662109375,-5.118546962738037,-6.62841796875,4.970789909362793
1701881497480128500,6.38812841796875,-5.309972763061523,-6.580262184143066,4.90618371963501
1701881497489721000,6.39772119140625,-5.4056854248046875,-6.436692714691162,4.865505695343018
1701881497499314400,6.407314453125,-5.484648704528809,-6.391229152679443,4.9037909507751465
1701881497508906800,6.41690673828125,-5.573183059692383,-6.300302028656006,4.894219398498535
1701881497518498600,6.42649853515625,-5.647360324859619,-6.32662296295166,4.8367919921875
1701881497528091100,6.436091064453125,-5.774479389190674,-6.338587284088135,4.932504653930664
1701881497537684500,6.4456845703125,-5.8343000411987305,-6.434299945831299,4.827220439910889
1701881497547277000,6.455277099609375,-5.9060845375061035,-6.45822811126709,4.800899505615234
1701881497556868900,6.464868896484375,-5.927619934082031,-6.38883638381958,4.827220439910889
1701881497566461400,6.47446142578125,-5.8749775886535645,-6.4701924324035645,4.784149646759033
1701881497576054800,6.4840546875,-5.84147834777832,-6.439085960388184,4.707579612731934
1701881497585647400,6.4936474609375,-5.733801364898682,-6.460621356964111,4.623830795288086
1701881497595239200,6.5032392578125,-5.7792649269104,-6.3529438972473145,4.631009101867676
1701881497604831700,6.512831787109375,-5.757729530334473,-6.379265308380127,4.559224605560303
1701881497614425000,6.522425048828125,-5.748157978057861,-6.293123722076416,4.4946184158325195
1701881497624017400,6.532017333984375,-5.750551223754883,-6.226124286651611,4.477868556976318
1701881497633609200,6.541609130859375,-5.800800323486328,-6.178267955780029,4.566402912139893
1701881497643201800,6.551201904296875,-5.791228771209717,-6.2500529289245605,4.6046881675720215
1701881497652795100,6.560795166015625,-5.822335720062256,-6.309873104095459,4.631009101867676
1701881497662387700,6.5703876953125,-5.896512985229492,-6.427121639251709,4.662116050720215
1701881497671979500,6.5799794921875,-5.915655612945557,-6.4941205978393555,4.709972381591797
1701881497681572000,6.589572021484375,-5.949155330657959,-6.530013084411621,4.767399787902832
1701881497691165400,6.59916552734375,-5.90369176864624,-6.544369697570801,4.748257637023926
1701881497700757800,6.6087578125,-5.851049423217773,-6.544369697570801,4.721936225891113
1701881497710349600,6.618349609375,-5.8749775886535645,-6.467799663543701,4.666901588439941
1701881497719942100,6.627942138671875,-5.829514026641846,-6.403193473815918,4.64297342300415
1701881497729535500,6.637535400390625,-5.798407554626465,-6.364908218383789,4.6525444984436035
1701881497739128000,6.647128173828125,-5.767300605773926,-6.31944465637207,4.6286163330078125
1701881497748719900,6.656719970703125,-5.671587944030762,-6.314659118652344,4.647758960723877
1701881497758312400,6.6663125,-5.635396480560303,-6.348158359527588,4.65015172958374
1701881497767905800,6.67590576171875,-5.589932918548584,-6.39601469039917,4.664508819580078
1701881497777498400,6.685498291015625,-5.534897804260254,-6.4079790115356445,4.70518684387207
1701881497787090200,6.695090087890625,-5.4535417556762695,-6.467799663543701,4.7386860847473145
1701881497796682800,6.704682861328125,-5.441577911376953,-6.51326322555542,4.877470016479492
1701881497806275800,6.71427587890625,-5.355436325073242,-6.546762943267822,4.958825588226318
1701881497815868400,6.723868408203125,-5.283651351928711,-6.515655994415283,5.0811591148376465
1701881497825460200,6.733460205078125,-5.238187789916992,-6.474977970123291,5.174479007720947
1701881497835052800,6.743052734375,-5.214259624481201,-6.4701924324035645,5.198407173156738
1701881497844646100,6.752646240234375,-5.168796062469482,-6.44387149810791,5.162514686584473
1701881497854238700,6.76223876953125,-5.274080276489258,-6.417550563812256,5.277370452880859
1701881497863830500,6.77183056640625,-5.283651351928711,-6.38165807723999,5.24626350402832
1701881497873423000,6.781423095703125,-5.317151069641113,-6.369693756103516,5.255835056304932
1701881497883016400,6.791016357421875,-5.336293697357178,-6.343372821807861,5.24626350402832
1701881497892608800,6.80060888671875,-5.319543838500977,-6.355337142944336,5.234299659729004
1701881497902200600,6.81020068359375,-5.353043556213379,-6.3840508460998535,5.260620594024658
1701881497911793200,6.819793212890625,-5.343472003936768,-6.410371780395508,5.227120876312256
1701881497921386500,6.829386474609375,-5.379364490509033,-6.436692714691162,5.1768717765808105
1701881497930979000,6.83897900390625,-5.343472003936768,-6.51326322555542,5.150550842285156
1701881497940571000,6.84857080078125,-5.331508159637451,-6.551548480987549,5.117051124572754
1701881497950163500,6.85816357421875,-5.309972763061523,-6.570691108703613,5.107480049133301
1701881497959756800,6.8677568359375,-5.341079235076904,-6.594619274139404,5.102694511413574
1701881497969349000,6.87734912109375,-5.283651351928711,-6.626025199890137,5.1290154457092285
1701881497978941000,6.88694091796875,-5.326722145080566,-6.62841796875,5.14576530456543
1701881497988533500,6.896533447265625,-5.350650310516357,-6.601797580718994,5.133800983428955
1701881497998126800,6.906126953125,-5.353043556213379,-6.546762943267822,5.119443893432617
1701881498007719400,6.915719482421875,-5.348257541656494,-6.52044153213501,5.100301265716553
1701881498017311200,6.925311279296875,-5.336293697357178,-6.419943332672119,5.052444934844971
1701881498026903800,6.93490380859375,-5.338686466217041,-6.350551128387451,5.030909538269043
1701881498036497200,6.9444970703125,-5.254937648773193,-6.314659118652344,4.939683437347412
1701881498046089700,6.95408984375,-5.231009483337402,-6.283552169799805,4.896612644195557
1701881498055681300,6.963681396484375,-5.281258583068848,-6.238088607788086,4.882255554199219
1701881498065274000,6.973274169921875,-5.365007400512695,-6.192625045776367,4.908576488494873
1701881498074867500,6.982867431640625,-5.396114349365234,-6.168696880340576,4.9277191162109375
1701881498084459800,6.992459716796875,-5.496612548828125,-6.185446739196777,4.989932537078857
1701881498094051600,7.002051513671875,-5.609075546264648,-6.221338748931885,5.066802024841309
1701881498103644200,7.01164404296875,-5.688337802886963,-6.305087566375732,5.136193752288818
1701881498113237500,7.021237548828125,-5.731408596038818,-6.398407936096191,5.140979290008545
1701881498122830000,7.030830078125,-5.791228771209717,-6.455835342407227,5.164907455444336
1701881498132422000,7.040421875,-5.798407554626465,-6.453442573547363,5.162514686584473
1701881498142014500,7.050014404296875,-5.7170515060424805,-6.412764549255371,5.160121917724609
1701881498151607800,7.05960791015625,-5.592325687408447,-6.386443614959717,5.1290154457092285
1701881498161200000,7.0692001953125,-5.513362407684326,-6.348158359527588,5.052444934844971
1701881498170792000,7.0787919921875,-5.458327770233154,-6.3361945152282715,4.977968215942383
1701881498180384500,7.088384521484375,-5.441577911376953,-6.355337142944336,4.875077247619629
1701881498189977900,7.097977783203125,-5.4535417556762695,-6.367300987243652,4.8176493644714355
1701881498199570400,7.1075703125,-5.465506076812744,-6.3840508460998535,4.772185802459717
1701881498209162200,7.117162353515625,-5.487041473388672,-6.417550563812256,4.7697930335998535
1701881498218754600,7.126754638671875,-5.4774699211120605,-6.448657035827637,4.7697930335998535
1701881498228348200,7.13634814453125,-5.487041473388672,-6.4941205978393555,4.784149646759033
1701881498237940500,7.1459404296875,-5.510969638824463,-6.532405853271484,4.827220439910889
1701881498247532300,7.1555322265625,-5.499005317687988,-6.553941249847412,4.884648323059082
1701881498257124900,7.165124755859375,-5.465506076812744,-6.561119556427002,4.944468975067139
1701881498266718200,7.17471826171875,-5.417649745941162,-6.503692150115967,4.989932537078857
1701881498276310800,7.184310791015625,-5.39132833480835,-6.467799663543701,5.040481090545654
1701881498285902600,7.193902587890625,-5.398507118225098,-6.441478729248047,5.088337421417236
1701881498295495200,7.2034951171875,-5.420042514801025,-6.439085960388184,5.100301265716553
1701881498305088500,7.213088623046875,-5.434399127960205,-6.434299945831299,5.107480049133301
1701881498314680800,7.222680908203125,-5.44636344909668,-6.412764549255371,5.073980331420898
1701881498324272600,7.232272705078125,-5.465506076812744,-6.422336101531982,5.030909538269043
1701881498333865200,7.241865234375,-5.465506076812744,-6.434299945831299,4.992325305938721
1701881498343458600,7.25145849609375,-5.472684383392334,-6.434299945831299,4.973182678222656
1701881498353051100,7.261051025390625,-5.489434242248535,-6.417550563812256,4.942076206207275
1701881498362643000,7.270642822265625,-5.678766250610352,-6.238088607788086,4.908576488494873
1701881498372235500,7.280235595703125,-5.50139856338501,-6.551548480987549,4.9995036125183105
1701881498381828900,7.289828857421875,-5.458327770233154,-6.577869415283203,5.013860702514648
1701881498391421400,7.29942138671875,-5.331508159637451,-6.683452606201172,5.047659397125244
1701881498401013200,7.30901318359375,-5.235795021057129,-6.621239185333252,5.045266628265381
1701881498410605800,7.318605712890625,-5.142475128173828,-6.5874409675598145,5.088337421417236
1701881498420199200,7.32819921875,-5.202295303344727,-6.522834300994873,5.107480049133301
1701881498429791500,7.33779150390625,-5.214259624481201,-6.527620315551758,5.107480049133301
1701881498439383300,7.34738330078125,-5.2477593421936035,-6.551548480987549,5.131408214569092
1701881498448976000,7.356975830078125,-5.300401210784912,-6.553941249847412,5.143372058868408
1701881498458569200,7.3665693359375,-5.343472003936768,-6.527620315551758,5.1529436111450195
1701881498468161800,7.376161865234375,-5.3578290939331055,-6.5180487632751465,5.162514686584473
1701881498477753600,7.385753662109375,-5.331508159637451,-6.477370738983154,5.169693470001221
1701881498487346200,7.39534619140625,-5.396114349365234,-6.276373863220215,5.057230472564697
1701881498496939500,7.404939453125,-5.305186748504639,-6.419943332672119,5.1290154457092285
1701881498506531800,7.41453173828125,-5.348257541656494,-6.367300987243652,5.011467933654785
1701881498516123600,7.42412353515625,-5.326722145080566,-6.386443614959717,4.973182678222656
1701881498525716200,7.43371630859375,-5.3339009284973145,-6.410371780395508,4.915754795074463
1701881498535309600,7.4433095703125,-5.43918514251709,-6.372086524963379,4.887041091918945
1701881498544902100,7.452902099609375,-5.5085768699646,-6.38883638381958,4.875077247619629
1701881498554494000,7.462493896484375,-5.5707902908325195,-6.393621921539307,4.860720157623291
1701881498564086500,7.47208642578125,-5.5947184562683105,-6.398407936096191,4.860720157623291
1701881498573679900,7.481679931640625,-5.618646621704102,-6.3840508460998535,4.853541851043701
1701881498583272200,7.491272216796875,-5.630610942840576,-6.38165807723999,4.853541851043701
1701881498592864000,7.500864013671875,-5.611468315124512,-6.369693756103516,4.84397029876709
1701881498602456600,7.51045654296875,-5.628218173980713,-6.350551128387451,4.841577529907227
1701881498612050000,7.5200498046875,-5.652445316314697,-6.362515449523926,4.84397029876709
1701881498621642500,7.529642578125,-5.695516109466553,-6.374479293823242,4.815256595611572
1701881498631234300,7.539234375,-5.721837043762207,-6.364908218383789,4.78893518447876
1701881498640827000,7.548826904296875,-5.72422981262207,-6.448657035827637,4.867898464202881
1701881498650420200,7.558420166015625,-5.72422981262207,-6.412764549255371,4.863112926483154
1701881498660012500,7.568012451171875,-5.702694416046143,-6.427121639251709,4.896612644195557
1701881498669604400,7.577604248046875,-5.642574787139893,-6.422336101531982,4.918148040771484
1701881498679197000,7.587197021484375,-5.585147380828857,-6.4319071769714355,4.942076206207275
1701881498688790300,7.596790283203125,-5.506184101104736,-6.419943332672119,4.970789909362793
1701881498698382800,7.6063828125,-5.386542797088623,-6.3840508460998535,4.9995036125183105
1701881498707974700,7.615974609375,-5.269294738769531,-6.254838466644287,5.066802024841309
1701881498717567200,7.625567138671875,-5.156831741333008,-6.1950178146362305,5.119443893432617
1701881498727160600,7.63516064453125,-4.711467742919922,-6.092126369476318,5.313262462615967
1701881498736753000,7.6447529296875,-4.852644443511963,-6.034399509429932,5.36351203918457
1701881498746344700,7.6543447265625,-5.1783671379089355,-6.005685806274414,5.172086238861084
1701881498755937300,7.663937255859375,-5.388935565948486,-6.484549522399902,5.217549800872803
1701881498765530600,7.673530517578125,-5.90369176864624,-6.889235496520996,4.96121883392334
1701881498775123200,7.683123291015625,-5.963512420654297,-7.109375,4.611866474151611
1701881498784715000,7.692715087890625,-5.851049423217773,-6.9083781242370605,4.398606300354004
1701881498794307600,7.7023076171875,-5.683551788330078,-6.702595233917236,4.4635114669799805
1701881498803901000,7.71190087890625,-5.534897804260254,-6.561119556427002,4.693222522735596
1701881498813493500,7.721493408203125,-5.372185707092285,-6.474977970123291,4.918148040771484
1701881498823085000,7.7310849609375,-5.2166523933410645,-6.415157318115234,5.114658355712891
1701881498832677600,7.740677734375,-5.144867897033691,-6.44387149810791,5.236692428588867
1701881498842271000,7.75027099609375,-5.140082359313965,-6.553941249847412,5.296513080596924
1701881498851863600,7.759863525390625,-5.156831741333008,-6.623631954193115,5.272584915161133
1701881498861455400,7.769455322265625,-5.142475128173828,-6.597012042999268,5.172086238861084
1701881498871048000,7.7790478515625,-5.173581600189209,-6.52044153213501,5.064409255981445
1701881498880641300,7.788641357421875,-5.221437931060791,-6.4701924324035645,4.946861743927002
1701881498890233900,7.79823388671875,-5.257330417633057,-6.446264266967773,4.848755836486816
1701881498899825400,7.807825439453125,-5.309972763061523,-6.453442573547363,4.796113967895508
1701881498909418200,7.817418212890625,-5.369792938232422,-6.52044153213501,4.78175687789917
1701881498919011300,7.82701123046875,-5.432006359100342,-6.570691108703613,4.77457857131958
1701881498928604000,7.83660400390625,-5.50139856338501,-6.623631954193115,4.784149646759033
1701881498938195700,7.84619580078125,-5.56361198425293,-6.681059837341309,4.753043174743652
1701881498947788300,7.855788330078125,-5.597111225128174,-6.702595233917236,4.753043174743652
1701881498957381600,7.865381591796875,-5.582754135131836,-6.6954169273376465,4.741078853607178
1701881498966974200,7.87497412109375,-5.597111225128174,-6.683452606201172,4.707579612731934
1701881498976565800,7.884565673828125,-5.592325687408447,-6.64277458190918,4.702793598175049
1701881498986158600,7.89415869140625,-5.604289531707764,-6.594619274139404,4.729115009307861
1701881498995752000,7.903751953125,-5.609075546264648,-6.546762943267822,4.7626142501831055
1701881499005344300,7.91334423828125,-5.606682777404785,-6.50608491897583,4.834399223327637
1701881499014936000,7.92293603515625,-5.609075546264648,-6.4941205978393555,4.908576488494873
1701881499024528600,7.932528564453125,-5.5947184562683105,-6.472585201263428,4.980361461639404
1701881499034122000,7.9421220703125,-5.558825969696045,-6.465406894683838,5.030909538269043
1701881499043714600,7.951714599609375,-5.465506076812744,-6.460621356964111,5.030909538269043
1701881499053306400,7.961306396484375,-5.379364490509033,-6.436692714691162,4.9995036125183105
1701881499062899000,7.97089892578125,-5.302793979644775,-6.398407936096191,4.954040050506592
1701881499072492300,7.9804921875,-5.250152111053467,-6.4079790115356445,4.889433860778809
1701881499082084600,7.990084716796875,-5.226223945617676,-6.44387149810791,4.865505695343018
1701881499091676400,7.999676513671875,-5.187938690185547,-6.496513366699219,4.84397029876709
1701881499101269000,8.00926904296875,-5.2477593421936035,-6.527620315551758,4.875077247619629
1701881499110862300,8.0188623046875,-5.300401210784912,-6.5419769287109375,4.90618371963501
1701881499120455000,8.028454833984375,-5.32193660736084,-6.551548480987549,4.970789909362793
1701881499130046700,8.038046630859375,-5.400899887084961,-6.508477687835693,5.016552448272705
1701881499139639300,8.047639404296875,-5.455934524536133,-6.527620315551758,5.069194793701172
1701881499149232600,8.057232666015626,-5.510969638824463,-6.553941249847412,5.042873859405518
1701881499158825000,8.066824951171874,-5.558825969696045,-6.592226505279541,5.030909538269043
1701881499168416800,8.076416748046874,-5.6018967628479,-6.570691108703613,4.970789909362793
1701881499178009300,8.08600927734375,-5.568397521972656,-6.563512325286865,4.920540809631348
1701881499187602700,8.095602783203125,-5.465506076812744,-6.611668109893799,4.848755836486816
1701881499197195300,8.1051953125,-5.518147945404053,-6.62841796875,4.9133620262146
1701881499206787000,8.114787109375,-5.513362407684326,-6.56829833984375,4.824827671051025
1701881499216379600,8.124379638671876,-5.489434242248535,-6.544369697570801,4.846363067626953
1701881499225973000,8.133972900390624,-5.463113307952881,-6.489335060119629,4.877470016479492
1701881499235565300,8.1435654296875,-5.4296135902404785,-6.484549522399902,4.9133620262146
1701881499245157000,8.1531572265625,-5.410470962524414,-6.460621356964111,4.934897422790527
1701881499254749700,8.162749755859375,-5.3817572593688965,-6.446264266967773,4.956432819366455
1701881499264343000,8.172343017578125,-5.386542797088623,-6.405586242675781,4.925326347351074
1701881499273935600,8.181935546875,-5.520540714263916,-6.183053493499756,4.8176493644714355
1701881499283527400,8.19152734375,-5.427220821380615,-6.441478729248047,5.02133846282959
1701881499293120000,8.2011201171875,-5.355436325073242,-6.530013084411621,4.985146999359131
1701881499302713300,8.21071337890625,-5.412863731384277,-6.489335060119629,4.954040050506592
1701881499312305700,8.2203056640625,-5.417649745941162,-6.530013084411621,4.96121883392334
1701881499321897500,8.2298974609375,-5.420042514801025,-6.527620315551758,4.96121883392334
1701881499331490000,8.239489990234375,-5.460720539093018,-6.477370738983154,4.949254512786865
1701881499341083400,8.24908349609375,-5.458327770233154,-6.465406894683838,4.925326347351074
1701881499350676000,8.258676025390624,-5.487041473388672,-6.460621356964111,4.908576488494873
1701881499360267800,8.268267822265624,-5.489434242248535,-6.436692714691162,4.865505695343018
1701881499369860400,8.2778603515625,-5.582754135131836,-6.309873104095459,4.798506736755371
1701881499379453700,8.28745361328125,-5.599503993988037,-6.3361945152282715,4.85114860534668
1701881499389046000,8.2970458984375,-5.575575828552246,-6.417550563812256,4.829613208770752
1701881499398637800,8.306637939453125,-5.568397521972656,-6.515655994415283,4.810471057891846
1701881499408230400,8.31623046875,-5.566004753112793,-6.522834300994873,4.820042133331299
1701881499417823700,8.32582373046875,-5.580361366271973,-6.51326322555542,4.808077812194824
1701881499427416300,8.335416259765625,-5.6018967628479,-6.537191390991211,4.832006454467773
1701881499437008100,8.345008056640625,-5.642574787139893,-6.455835342407227,4.78175687789917
1701881499446600400,8.354600341796875,-5.652445316314697,-6.429514408111572,4.784149646759033
1701881499456194000,8.364194091796875,-5.6548380851745605,-6.415157318115234,4.757828712463379
1701881499465786400,8.373786376953126,-5.642574787139893,-6.415157318115234,4.748257637023926
1701881499475378200,8.383378173828126,-5.618646621704102,-6.410371780395508,4.729115009307861
1701881499484970800,8.392970703125,-5.587540149688721,-6.400800704956055,4.717150688171387
1701881499494564000,8.402564208984375,-5.592325687408447,-6.398407936096191,4.688436985015869
1701881499504156700,8.41215673828125,-5.573183059692383,-6.424728870391846,4.698008060455322
1701881499513748500,8.42174853515625,-5.580361366271973,-6.460621356964111,4.709972381591797
1701881499523341000,8.431341064453125,-5.606682777404785,-6.503692150115967,4.731507778167725
1701881499532934400,8.440934326171876,-5.616253852844238,-6.544369697570801,4.726722240447998
1701881499542526700,8.450526611328126,-5.6018967628479,-6.573083877563477,4.753043174743652
1701881499552118500,8.460118408203124,-5.573183059692383,-6.58265495300293,4.743471622467041
1701881499561711000,8.469711181640625,-5.549254894256592,-6.592226505279541,4.7626142501831055
1701881499571304400,8.479304443359375,-5.518147945404053,-6.556334018707275,4.760221481323242
1701881499580897000,8.48889697265625,-5.465506076812744,-6.52044153213501,4.77457857131958
1701881499590488800,8.49848876953125,-5.467898845672607,-6.491727828979492,4.7626142501831055
1701881499600081400,8.508081298828126,-5.4774699211120605,-6.489335060119629,4.779364109039307
1701881499609674800,8.5176748046875,-5.4774699211120605,-6.482156753540039,4.820042133331299
1701881499619267000,8.52726708984375,-5.487041473388672,-6.501298904418945,4.865505695343018
1701881499628859000,8.53685888671875,-5.484648704528809,-6.508477687835693,4.9037909507751465
1701881499638451500,8.546451416015625,-5.487041473388672,-6.51326322555542,4.9133620262146
1701881499648044800,8.556044921875,-5.482255935668945,-6.537191390991211,4.939683437347412
1701881499657637400,8.565637451171876,-5.489434242248535,-6.527620315551758,4.944468975067139
1701881499667229200,8.575229248046876,-5.470291614532471,-6.522834300994873,4.949254512786865
1701881499676821800,8.58482177734375,-5.465506076812744,-6.51326322555542,4.944468975067139
1701881499686415000,8.5944150390625,-5.460720539093018,-6.503692150115967,4.966004371643066
1701881499696007400,8.60400732421875,-5.470291614532471,-6.498906135559082,4.963611602783203
1701881499705599200,8.61359912109375,-5.458327770233154,-6.498906135559082,4.946861743927002
1701881499715191800,8.62319189453125,-5.441577911376953,-6.52044153213501,4.9516472816467285
1701881499724785200,8.63278515625,-5.4296135902404785,-6.5180487632751465,4.973182678222656
1701881499734377700,8.642377685546874,-5.43918514251709,-6.503692150115967,5.018945693969727
1701881499743969500,8.651969482421874,-5.422435283660889,-6.484549522399902,5.030909538269043
1701881499753562000,8.66156201171875,-5.398507118225098,-6.498906135559082,5.011467933654785
1701881499763155500,8.671155517578125,-5.388935565948486,-6.515655994415283,4.970789909362793
1701881499772747800,8.680747802734375,-5.39132833480835,-6.534798622131348,4.915754795074463
1701881499782339600,8.690339599609375,-5.39132833480835,-6.5491557121276855,4.875077247619629
1701881499791932200,8.69993212890625,-5.417649745941162,-6.527620315551758,4.891826629638672
1701881499801525500,8.709525390625,-5.44636344909668,-6.51326322555542,4.901398181915283
1701881499811118000,8.7191181640625,-5.467898845672607,-6.510870456695557,4.884648323059082
1701881499820710000,8.7287099609375,-5.518147945404053,-6.532405853271484,4.908576488494873
1701881499830302500,8.738302490234375,-5.554040431976318,-6.606583118438721,4.96121883392334
1701881499839895800,8.747895751953125,-5.520540714263916,-6.563512325286865,5.0356950759887695
1701881499849488100,8.757488037109376,-5.475077152252197,-6.446264266967773,5.124229907989502
1701881499859080000,8.767079833984376,-5.424828052520752,-6.38883638381958,5.071587562561035
1701881499868672500,8.776672607421874,-5.403292655944824,-6.233303070068359,4.8559346199035645
1701881499878265900,8.786265869140625,-5.465506076812744,-6.271588325500488,4.805685043334961
1701881499887858400,8.7958583984375,-5.4296135902404785,-6.534798622131348,4.726722240447998
1701881499897450200,8.8054501953125,-5.558825969696045,-6.441478729248047,4.645366191864014
1701881499907042800,8.815042724609375,-5.6018967628479,-6.563512325286865,4.638187408447266
1701881499916636200,8.82463623046875,-5.697908878326416,-6.633203506469727,4.64297342300415
1701881499926228500,8.834228515625,-5.776872158050537,-6.664309978485107,4.707579612731934
1701881499935820300,8.8438203125,-5.774479389190674,-6.645167350769043,4.7626142501831055
1701881499945412900,8.853412841796874,-5.7409796714782715,-6.606583118438721,4.7937211990356445
1701881499955006200,8.863006103515625,-5.7170515060424805,-6.532405853271484,4.78893518447876
1701881499964598800,8.872598876953125,-5.635396480560303,-6.527620315551758,4.815256595611572
1701881499974190600,8.882190673828125,-5.554040431976318,-6.453442573547363,4.812863826751709
1701881499983783200,8.891783203125,-5.355436325073242,-6.3840508460998535,4.810471057891846
1701881499993376500,8.90137646484375,-5.43918514251709,-6.412764549255371,4.932504653930664
1701881500002968800,8.91096875,-5.360221862792969,-6.5419769287109375,4.9995036125183105
1701881500012560600,8.920560546875,-5.482255935668945,-6.410371780395508,5.004289627075195
1701881500022153200,8.9301533203125,-5.463113307952881,-6.398407936096191,5.052444934844971
1701881500031746600,8.93974658203125,-5.4774699211120605,-6.379265308380127,5.114658355712891
1701881500041339100,8.949339111328126,-5.451148986816406,-6.4319071769714355,5.117051124572754
1701881500050931000,8.958930908203126,-5.415256977081299,-6.427121639251709,5.095515727996826
1701881500060523500,8.9685234375,-5.415256977081299,-6.369693756103516,5.009075164794922
1701881500070116900,8.978116943359375,-5.420042514801025,-6.372086524963379,4.963611602783203
1701881500079709200,8.987709228515625,-5.4774699211120605,-6.288337707519531,4.8367919921875
1701881500089301000,8.997301025390625,-5.532505035400391,-6.32662296295166,4.85114860534668
1701881500098893600,9.0068935546875,-5.5157551765441895,-6.465406894683838,4.9133620262146
1701881500108487000,9.01648681640625,-5.460720539093018,-6.657131671905518,4.980361461639404
1701881500118079500,9.02607958984375,-5.415256977081299,-6.685845375061035,4.956432819366455
1701881500127671300,9.03567138671875,-5.482255935668945,-6.702595233917236,4.9755754470825195
1701881500137263900,9.045263916015625,-5.436792373657227,-6.733702182769775,4.96839714050293
1701881500146857200,9.054857177734375,-5.403292655944824,-6.693024158477783,4.970789909362793
1701881500156449500,9.064449462890625,-5.37697172164917,-6.637989044189453,4.920540809631348
1701881500166041300,9.074041259765625,-5.360221862792969,-6.551548480987549,4.834399223327637
1701881500175634000,9.083634033203126,-5.388935565948486,-6.508477687835693,4.748257637023926
1701881500185227300,9.093227294921874,-5.39132833480835,-6.4510498046875,4.6764726638793945
1701881500194819800,9.10281982421875,-5.400899887084961,-6.417550563812256,4.65733003616333
1701881500204411600,9.11241162109375,-5.417649745941162,-6.424728870391846,4.690829753875732
1701881500214004200,9.122004150390625,-5.420042514801025,-6.439085960388184,4.726722240447998
1701881500223597600,9.13159765625,-5.415256977081299,-6.515655994415283,4.800899505615234
1701881500233190000,9.14118994140625,-5.410470962524414,-6.626025199890137,4.846363067626953
1701881500242781700,9.15078173828125,-5.396114349365234,-6.69063138961792,4.930111885070801
1701881500252374300,9.160374267578124,-5.355436325073242,-6.712166786193848,4.973182678222656
1701881500261967600,9.169967529296875,-5.307579517364502,-6.637989044189453,4.973182678222656
1701881500271560200,9.179560302734375,-5.300401210784912,-6.565905570983887,4.934897422790527
1701881500281152000,9.189152099609375,-5.32911491394043,-6.44387149810791,4.9037909507751465
1701881500290744600,9.19874462890625,-5.393721103668213,-6.357729911804199,4.7697930335998535
1701881500300338000,9.208337890625,-5.460720539093018,-6.355337142944336,4.741078853607178
1701881500309930200,9.21793017578125,-5.549254894256592,-6.355337142944336,4.702793598175049
1701881500319522000,9.22752197265625,-5.640182018280029,-6.38165807723999,4.623830795288086
1701881500329114600,9.237114501953124,-5.709873199462891,-6.491727828979492,4.597509384155273
1701881500338708000,9.2467080078125,-5.769693374633789,-6.681059837341309,4.609473705291748
1701881500348300500,9.256300537109375,-5.7720866203308105,-6.82223653793335,4.736293315887451
1701881500357892400,9.265892333984375,-5.678766250610352,-6.803093910217285,4.84397029876709
1701881500367485000,9.27548486328125,-5.518147945404053,-6.728916168212891,4.865505695343018
1701881500377078000,9.285078125,-5.403292655944824,-6.5252275466918945,4.841577529907227
1701881500386670600,9.294670654296874,-5.319543838500977,-6.38165807723999,4.841577529907227
1701881500396262400,9.304262451171875,-5.338686466217041,-6.293123722076416,4.7697930335998535
1701881500405855000,9.31385498046875,-5.4296135902404785,-6.283552169799805,4.70518684387207
1701881500415448300,9.3234482421875,-5.5707902908325195,-6.329015731811523,4.717150688171387
1701881500425041000,9.333041015625,-5.7170515060424805,-6.211767673492432,4.614259243011475
1701881500434632400,9.342632568359376,-5.84865665435791,-6.273981094360352,4.71954345703125
1701881500444225300,9.352225341796874,-5.889334678649902,-6.44387149810791,4.824827671051025
1701881500453818400,9.361818359375,-5.781657695770264,-6.621239185333252,4.889433860778809
1701881500463411000,9.371410888671875,-5.807978630065918,-6.577869415283203,4.858327388763428
1701881500473002800,9.381002685546875,-5.697908878326416,-6.561119556427002,4.820042133331299
1701881500482595300,9.39059521484375,-5.556433200836182,-6.649953365325928,4.7937211990356445
1701881500492188700,9.400188720703126,-5.496612548828125,-6.64277458190918,4.748257637023926
1701881500501781200,9.40978125,-5.441577911376953,-6.611668109893799,4.686044216156006
1701881500511372800,9.419372802734374,-5.408078193664551,-6.606583118438721,4.662116050720215
1701881500520965600,9.428965576171874,-5.417649745941162,-6.558726787567139,4.645366191864014
1701881500530558700,9.438558837890625,-5.39132833480835,-6.5491557121276855,4.686044216156006
1701881500540151300,9.4481513671875,-5.415256977081299,-6.551548480987549,4.733900547027588
1701881500549743000,9.4577431640625,-5.436792373657227,-6.539584159851074,4.78175687789917
1701881500559335700,9.467335693359376,-5.467898845672607,-6.537191390991211,4.829613208770752
1701881500568929000,9.476928955078124,-5.503791332244873,-6.563512325286865,4.84397029876709
1701881500578521600,9.486521484375,-5.6018967628479,-6.666703224182129,4.827220439910889
1701881500588113200,9.496113037109374,-5.56361198425293,-6.8294148445129395,4.944468975067139
1701881500597705700,9.505705810546875,-5.568397521972656,-6.44387149810791,4.707579612731934
1701881500607299000,9.515299072265625,-5.398507118225098,-6.290730953216553,4.5568318367004395
1701881500616891600,9.5248916015625,-5.3339009284973145,-6.235695838928223,4.499403953552246
1701881500626483500,9.5344833984375,-5.422435283660889,-6.259624004364014,4.564010143280029
1701881500636076000,9.544075927734376,-5.518147945404053,-6.314659118652344,4.623830795288086
1701881500645669400,9.55366943359375,-5.616253852844238,-6.355337142944336,4.666901588439941
1701881500655261700,9.56326171875,-5.738586902618408,-6.412764549255371,4.7004008293151855
1701881500664853500,9.572853515625,-5.760122299194336,-6.522834300994873,4.745864391326904
1701881500674446000,9.582446044921875,-5.760122299194336,-6.63559627532959,4.776971340179443
1701881500684039400,9.592039306640626,-5.731408596038818,-6.649953365325928,4.791328430175781
1701881500693632000,9.601632080078126,-5.712265968322754,-6.678667068481445,4.827220439910889
1701881500703223800,9.611223876953124,-5.712265968322754,-6.707380771636963,4.872684001922607
1701881500712816400,9.62081640625,-5.669195175170898,-6.69780969619751,4.827220439910889
1701881500722409700,9.63040966796875,-5.630610942840576,-6.645167350769043,4.755435943603516
1701881500732002000,9.640001953125,-5.575575828552246,-6.589833736419678,4.671687126159668
1701881500741593900,9.64959375,-5.611468315124512,-6.551548480987549,4.614259243011475
1701881500751186400,9.6591865234375,-5.599503993988037,-6.594619274139404,4.566402912139893
1701881500760779800,9.66877978515625,-5.510969638824463,-6.774380207061768,4.552045822143555
1701881500770372400,9.678372314453124,-5.671587944030762,-6.748058795928955,4.635794639587402
1701881500779964200,9.687964111328125,-5.702694416046143,-6.565905570983887,4.616652011871338
1701881500789556700,9.697556640625,-5.592325687408447,-6.570691108703613,4.573581218719482
1701881500799150000,9.707150146484375,-5.609075546264648,-6.400800704956055,4.614259243011475
1701881500808742400,9.716742431640625,-5.530112266540527,-6.52044153213501,4.607080936431885
1701881500818334200,9.726334228515626,-5.719444274902344,-6.410371780395508,4.748257637023926
1701881500827926800,9.7359267578125,-5.738586902618408,-6.173482418060303,4.702793598175049
1701881500837520100,9.74552001953125,-5.510969638824463,-6.410371780395508,4.619044780731201
1701881500847112700,9.75511279296875,-5.5468621253967285,-6.57547664642334,4.635794639587402
1701881500856704500,9.76470458984375,-5.678766250610352,-6.522834300994873,4.666901588439941
1701881500866297000,9.774297119140625,-5.745765209197998,-6.1088762283325195,4.559224605560303
1701881500875890400,9.783890380859376,-5.673980712890625,-6.130411624908447,4.53290319442749
1701881500885482800,9.793482666015626,-5.647360324859619,-6.307480335235596,4.611866474151611
1701881500895074600,9.803074462890624,-5.671587944030762,-6.379265308380127,4.537689208984375
1701881500904667100,9.812667236328124,-5.6931233406066895,-6.448657035827637,4.542474746704102
1701881500914260500,9.822260498046875,-5.743372440338135,-6.4701924324035645,4.602295398712158
1701881500923853000,9.83185302734375,-5.707480430603027,-6.585047721862793,4.65015172958374
1701881500933444600,9.841444580078125,-5.7170515060424805,-6.5180487632751465,4.743471622467041
1701881500943037400,9.851037353515625,-5.671587944030762,-6.57547664642334,4.827220439910889
1701881500952630800,9.860630859375,-5.604289531707764,-6.913163661956787,4.944468975067139
1701881500962223000,9.87022314453125,-5.580361366271973,-7.09501838684082,5.02133846282959
1701881500971815000,9.87981494140625,-5.6548380851745605,-6.8533430099487305,4.9995036125183105
1701881500981407500,9.889407470703125,-5.941977024078369,-6.616453647613525,4.937290191650391
1701881500991000800,9.899000732421875,-4.809573650360107,-6.477370738983154,4.267001152038574
1701881501000593400,9.908593505859375,-5.681159019470215,-5.960222244262695,4.698008060455322
1701881501010185200,9.918185302734376,-5.355436325073242,-5.787939071655273,4.571188449859619
1701881501019777500,9.927777587890626,-5.142475128173828,-6.10169792175293,4.686044216156006
1701881501029371000,9.937370849609374,-5.32911491394043,-6.199803352355957,4.820042133331299
1701881501038963500,9.94696337890625,-5.568397521972656,-6.135197162628174,4.889433860778809
1701881501048555300,9.95655517578125,-5.748157978057861,-6.25723123550415,4.963611602783203
1701881501058147800,9.96614794921875,-5.72422981262207,-6.305087566375732,4.977968215942383
1701881501067741200,9.9757412109375,-5.616253852844238,-6.477370738983154,4.9516472816467285
1701881501077333800,9.985333740234376,-5.5468621253967285,-6.793522357940674,4.932504653930664
1701881501086925300,9.99492529296875,-5.44636344909668,-7.154839038848877,4.96121883392334
1701881501096518100,10.00451806640625,-5.458327770233154,-7.150053024291992,4.779364109039307
1701881501106111200,10.014111328125,-5.599503993988037,-7.044768810272217,4.709972381591797
1701881501115703800,10.023703857421875,-5.66201639175415,-6.681059837341309,4.803292274475098
1701881501125295600,10.033295654296875,-5.582754135131836,-6.534798622131348,4.745864391326904
1701881501134888200,10.04288818359375,-5.580361366271973,-6.556334018707275,4.841577529907227
1701881501144481500,10.0524814453125,-5.537290573120117,-6.441478729248047,4.803292274475098
1701881501154074000,10.06207421875,-5.561218738555908,-6.681059837341309,4.870291233062744
1701881501163665700,10.071665771484374,-5.604289531707764,-6.4941205978393555,4.767399787902832
1701881501173258200,10.08125830078125,-5.681159019470215,-6.147161483764648,4.590331077575684
1701881501182851600,10.0908515625,-5.637789249420166,-6.032006740570068,4.552045822143555
1701881501192444200,10.100444091796875,-5.5396833419799805,-6.283552169799805,4.621438026428223
1701881501202036000,10.110035888671876,-5.506184101104736,-6.843771934509277,4.84397029876709
1701881501211628500,10.119628662109376,-5.767300605773926,-7.051947593688965,4.772185802459717
1701881501221222000,10.129221923828124,-5.589932918548584,-6.736094951629639,4.925326347351074
1701881501230814200,10.138814208984375,-5.568397521972656,-5.790331840515137,4.412963390350342
1701881501240406000,10.148406005859375,-4.989035129547119,-5.680262088775635,4.106681823730469
1701881501249998600,10.15799853515625,-5.254937648773193,-6.3529438972473145,4.71236515045166
1701881501259592000,10.167592041015626,-5.2405805587768555,-6.4510498046875,4.7386860847473145
1701881501269184500,10.1771845703125,-5.269294738769531,-6.788736820220947,4.688436985015869
1701881501278776300,10.1867763671875,-5.408078193664551,-7.011269569396973,4.767399787902832
1701881501288369000,10.196368896484374,-5.554040431976318,-7.406384468078613,4.860720157623291
1701881501297962200,10.205962158203125,-5.628218173980713,-7.34177827835083,4.860720157623291
1701881501307554600,10.215554443359375,-5.690730571746826,-7.004090785980225,4.832006454467773
1701881501317146400,10.225146484375,-5.657230854034424,-6.783951282501221,4.8367919921875
1701881501326739000,10.234739013671875,-5.582754135131836,-6.4941205978393555,4.757828712463379
1701881501336332300,10.244332275390626,-5.575575828552246,-6.38165807723999,4.784149646759033
1701881501345924900,10.2539248046875,-5.577968597412109,-6.305087566375732,4.7386860847473145
1701881501355516700,10.2635166015625,-5.5468621253967285,-6.223731517791748,4.6525444984436035
1701881501365109200,10.273109130859375,-5.549254894256592,-6.0777692794799805,4.654937267303467
1701881501374702600,10.28270263671875,-5.427220821380615,-6.135197162628174,4.597509384155273
1701881501384295000,10.292294921875,-5.475077152252197,-6.2189459800720215,4.599902629852295
1701881501393886700,10.30188671875,-5.487041473388672,-6.2500529289245605,4.578367233276367
1701881501403479300,10.311479248046876,-5.558825969696045,-6.269195556640625,4.544867515563965
1701881501413072600,10.32107275390625,-5.566004753112793,-6.693024158477783,4.125824451446533
1701881501422665200,10.330665283203125,-5.635396480560303,-6.800701141357422,4.681258201599121
1701881501432256800,10.3402568359375,-5.781657695770264,-6.305087566375732,4.497011184692383
1701881501441849600,10.349849609375,-5.810371398925781,-6.3122663497924805,4.779364109039307
1701881501451442700,10.359442626953125,-5.709873199462891,-6.532405853271484,4.7386860847473145
1701881501461035300,10.36903515625,-5.776872158050537,-7.006484031677246,4.858327388763428
1701881501470627000,10.378626953125,-5.415256977081299,-7.573882102966309,4.8559346199035645
1701881501480219600,10.3882197265625,-5.479863166809082,-6.716952323913574,4.796113967895508
1701881501489813000,10.39781298828125,-5.367400169372559,-6.544369697570801,4.796113967895508
1701881501499405600,10.407405517578125,-5.288437366485596,-6.7432732582092285,4.810471057891846
1701881501508997000,10.4169970703125,-5.353043556213379,-7.059125900268555,4.96839714050293
1701881501518590000,10.42658984375,-5.31475830078125,-6.97776985168457,4.985146999359131
1701881501528183000,10.43618310546875,-5.348257541656494,-6.961019992828369,5.0356950759887695
1701881501537775600,10.445775634765624,-5.338686466217041,-6.951448917388916,5.018945693969727
1701881501547367400,10.455367431640624,-5.360221862792969,-6.949056148529053,5.057230472564697
1701881501556960000,10.4649599609375,-5.365007400512695,-6.9705915451049805,5.0811591148376465
1701881501566553300,10.47455322265625,-5.331508159637451,-6.827022075653076,5.088337421417236
1701881501576145700,10.484145751953125,-5.290830135345459,-6.757630348205566,5.100301265716553
1701881501585737500,10.493737548828125,-5.18315315246582,-6.63559627532959,5.054837703704834
1701881501595330000,10.503330078125,-5.125725269317627,-6.570691108703613,4.9995036125183105
1701881501604923400,10.51292333984375,-5.1544389724731445,-6.522834300994873,5.001896858215332
1701881501614516000,10.522515869140625,-5.187938690185547,-6.305087566375732,4.915754795074463
1701881501624107800,10.532107666015625,-5.298008441925049,-6.333801746368408,4.9516472816467285
1701881501633700400,10.541700439453125,-5.362614631652832,-6.252445697784424,4.910969257354736
1701881501643293700,10.551293701171875,-5.408078193664551,-6.221338748931885,4.910969257354736
1701881501652886000,10.560885986328126,-5.424828052520752,-6.269195556640625,4.922933578491211
1701881501662477800,10.570477783203126,-5.432006359100342,-6.3529438972473145,4.894219398498535
1701881501672070400,10.5800703125,-5.458327770233154,-6.460621356964111,4.9133620262146
1701881501681663700,10.589663818359375,-5.491827011108398,-6.58265495300293,4.944468975067139
1701881501691256300,10.59925634765625,-5.534897804260254,-6.681059837341309,4.958825588226318
1701881501700848000,10.60884814453125,-5.589932918548584,-6.762415885925293,4.9755754470825195
1701881501710440700,10.618440673828125,-5.597111225128174,-6.812664985656738,4.958825588226318
1701881501720034000,10.628033935546876,-5.630610942840576,-6.858129024505615,4.930111885070801
1701881501729626400,10.63762646484375,-5.688337802886963,-6.779165744781494,4.875077247619629
1701881501739218200,10.64721826171875,-5.683551788330078,-6.616453647613525,4.8176493644714355
1701881501748810800,10.656810791015625,-5.6330037117004395,-6.508477687835693,4.78175687789917
1701881501758404000,10.666404052734375,-5.597111225128174,-6.446264266967773,4.772185802459717
1701881501767996700,10.67599658203125,-5.472684383392334,-6.329015731811523,4.678865432739258
1701881501777588500,10.68558837890625,-5.484648704528809,-6.247660160064697,4.631009101867676
1701881501787180800,10.695180908203126,-5.436792373657227,-6.178267955780029,4.621438026428223
1701881501796774100,10.704774169921874,-5.3578290939331055,-6.1950178146362305,4.602295398712158
1701881501806366700,10.71436669921875,-5.44636344909668,-6.391229152679443,4.745864391326904
1701881501815958500,10.72395849609375,-5.518147945404053,-6.446264266967773,4.8176493644714355
1701881501825551000,10.733551025390625,-5.56361198425293,-6.429514408111572,4.8559346199035645
1701881501835144400,10.74314453125,-5.551647663116455,-6.45822811126709,4.882255554199219
1701881501844737000,10.752737060546876,-5.530112266540527,-6.372086524963379,4.872684001922607
1701881501854328600,10.76232861328125,-5.475077152252197,-6.410371780395508,4.884648323059082
1701881501863921400,10.77192138671875,-5.472684383392334,-6.422336101531982,4.860720157623291
1701881501873514500,10.781514404296875,-5.39132833480835,-6.434299945831299,4.865505695343018
1701881501883107000,10.791107177734375,-5.369792938232422,-6.429514408111572,4.834399223327637
1701881501892699000,10.800698974609375,-5.3578290939331055,-6.44387149810791,4.824827671051025
1701881501902291500,10.81029150390625,-5.369792938232422,-6.539584159851074,4.834399223327637
1701881501911884800,10.819884765625,-5.455934524536133,-6.4701924324035645,4.853541851043701
1701881501921477000,10.82947705078125,-5.491827011108398,-6.479763507843018,4.896612644195557
1701881501931069000,10.83906884765625,-5.496612548828125,-6.56829833984375,4.887041091918945
1701881501940661500,10.84866162109375,-5.503791332244873,-6.7432732582092285,4.937290191650391
1701881501950254800,10.8582548828125,-5.506184101104736,-6.984948635101318,4.944468975067139
1701881501959847400,10.867847412109375,-5.436792373657227,-7.186244487762451,4.910969257354736
1701881501969439200,10.877439208984375,-5.465506076812744,-7.289135932922363,4.932504653930664
1701881501979031800,10.88703173828125,-5.494219779968262,-7.459026336669922,4.982754230499268
1701881501988625200,10.896625244140624,-5.520540714263916,-7.358527660369873,4.915754795074463
1701881501998217500,10.906217529296875,-5.554040431976318,-7.222136974334717,4.930111885070801
1701881502007809300,10.915809326171875,-5.43918514251709,-7.325028419494629,4.939683437347412
1701881502017401900,10.92540185546875,-5.417649745941162,-7.387241840362549,5.059623718261719
1701881502026995200,10.9349951171875,-5.585147380828857,-7.191030025482178,4.937290191650391
1701881502036587800,10.944587890625,-5.319543838500977,-7.5978102684021,5.227120876312256
1701881502046179600,10.9541796875,-5.3339009284973145,-7.277172088623047,5.026124000549316
1701881502055772200,10.963772216796874,-5.173581600189209,-7.025626182556152,5.02851676940918
1701881502065365500,10.973365478515625,-5.3578290939331055,-7.308278560638428,5.0811591148376465
1701881502074957800,10.982957763671875,-4.675575256347656,-6.803093910217285,5.040481090545654
1701881502084549600,10.992549560546875,-5.3339009284973145,-6.69780969619751,5.133800983428955
1701881502094142200,11.00214208984375,-5.348257541656494,-6.020042896270752,4.753043174743652
1701881502103735600,11.011735595703126,-5.647360324859619,-6.300302028656006,4.78175687789917
1701881502113328000,11.021328125,-5.975476264953613,-8.057531356811523,3.8455650806427
1701881502122919700,11.030919677734374,-4.244568347930908,-7.940282821655273,3.795315742492676
1701881502132512500,11.040512451171875,-4.481457710266113,-8.352147102355957,4.075575351715088
1701881502142105600,11.050105712890625,-4.335495471954346,-8.28724193572998,4.815256595611572
1701881502151698200,11.0596982421875,-4.258925437927246,-8.914759635925293,4.84397029876709
1701881502161290000,11.0692900390625,-3.8662030696868896,-8.773283958435059,4.616652011871338
1701881502170882600,11.078882568359376,-3.5886356830596924,-8.835497856140137,5.267798900604248
1701881502180476000,11.088475830078124,-3.8590247631073,-8.45743179321289,5.523830890655518
1701881502190068500,11.098068359375,-4.010071754455566,-8.541180610656738,5.0356950759887695
1701881502199660000,11.107659912109375,-4.60139799118042,-9.209076881408691,5.636592864990234
1701881502209252600,11.117252685546875,-4.768895626068115,-9.405288696289062,6.285346984863281
1701881502218846000,11.126845947265625,-4.455136775970459,-9.685547828674316,5.746662616729736
1701881502228438500,11.1364384765625,-4.086641788482666,-9.297611236572266,4.441677093505859
1701881502238030300,11.1460302734375,-6.114260196685791,-9.872187614440918,4.7937211990356445
1701881502247623000,11.155622802734374,-5.209474086761475,-8.773283958435059,4.448855400085449
1701881502257216300,11.16521630859375,-2.733799934387207,-9.094221115112305,4.987539768218994
1701881502266808600,11.17480859375,-5.748157978057861,-8.541180610656738,5.56450891494751
1701881502276400400,11.184400390625,-5.587540149688721,-8.847461700439453,5.480760097503662
1701881502285993000,11.193992919921875,-5.152046203613281,-9.518050193786621,4.051646709442139
1701881502295586300,11.20358642578125,-3.614956855773926,-7.118946552276611,3.5344982147216797
1701881502305179000,11.213178955078124,-4.450351238250732,-8.110173225402832,4.791328430175781
1701881502314770700,11.222770751953124,-4.426422595977783,-9.209076881408691,5.193621635437012
1701881502324363300,11.23236328125,-4.093820571899414,-9.506086349487305,5.449653625488281
1701881502333956600,11.24195654296875,-3.974179267883301,-9.66640567779541,5.95962381362915
1701881502343549000,11.251548828125,-3.851846218109131,-9.359825134277344,6.361917018890381
1701881502353140700,11.261140625,-4.01246452331543,-9.288040161132812,6.876673221588135
1701881502362733300,11.2707333984375,-4.646861553192139,-9.335896492004395,8.775078773498535
1701881502372326700,11.28032666015625,-4.000500202178955,-9.489336013793945,9.241978645324707
1701881502381919200,11.289919189453125,-6.083153247833252,-8.902795791625977,8.566903114318848
1701881502391511000,11.299510986328125,-5.640182018280029,-8.342576026916504,8.50708293914795
1701881502401103600,11.309103515625,-2.9566314220428467,-8.220243453979492,10.092028617858887
1701881502410696700,11.31869677734375,-6.246164321899414,-8.368897438049316,11.995220184326172
1701881502420289300,11.328289306640626,-5.5157551765441895,-7.423133850097656,13.292728424072266
1701881502429881000,11.337881103515626,-1.3573286533355713,-5.754439353942871,12.483654975891113
1701881502439473700,11.3474736328125,-1.5990036725997925,-6.027221202850342,13.13958740234375
1701881502449067000,11.35706689453125,-1.7691932916641235,-6.56829833984375,14.805889129638672
1701881502458659600,11.36665966796875,-0.646361231803894,-6.415157318115234,15.033206939697266
1701881502468251100,11.376251220703125,1.5753746032714844,-5.7424750328063965,14.116456985473633
1701881502477844000,11.385843994140625,3.6415770053863525,-5.301896572113037,13.36451244354248
1701881502487437300,11.395437255859376,5.147559642791748,-5.139184951782227,12.996018409729004
1701881502497029600,11.405029541015624,5.987739562988281,-4.921138763427734,12.770793914794922
1701881502506621400,11.414621337890624,6.030810356140137,-4.921138763427734,12.766008377075195
1701881502516214000,11.424214111328125,5.518447399139404,-4.878067970275879,12.639188766479492
1701881502525807400,11.433807373046875,4.927121162414551,-4.808676242828369,12.220145225524902
1701881502535399700,11.443399658203125,5.140381336212158,-4.423431873321533,11.751152038574219
1701881502544991500,11.452991455078125,4.924727916717529,-5.14875602722168,12.074183464050293
1701881502554584000,11.462583984375,5.135595798492432,-6.070590972900391,11.82293701171875
1701881502564177400,11.472177490234374,4.695017337799072,-7.298707485198975,11.047063827514648
1701881502573770000,11.48177001953125,4.477270126342773,-8.57468032836914,10.278668403625488
1701881502583361800,11.49136181640625,4.132404804229736,-9.297611236572266,8.894720077514648
1701881502592954400,11.500954345703125,3.8617167472839355,-9.553942680358887,7.336394309997559
1701881502602547700,11.510547607421875,3.5386855602264404,-9.472586631774902,5.5621161460876465
1701881502612140000,11.52014013671875,3.1244282722473145,-9.189934730529785,3.958326816558838
1701881502621731800,11.52973193359375,1.755135416984558,-9.00568675994873,3.146561861038208
1701881502631324400,11.539324462890624,-0.45224347710609436,-8.701499938964844,3.8096728324890137
1701881502640917800,11.548917724609375,-0.2632105052471161,-8.328219413757324,3.2279176712036133
1701881502650510300,11.55851025390625,0.2347957193851471,-7.399205684661865,1.6094722747802734
1701881502660102100,11.56810205078125,1.7766708135604858,-6.137589931488037,0.15643078088760376
1701881502669694700,11.57769482421875,3.4860434532165527,-4.4976091384887695,-0.7462615370750427
1701881502679288000,11.5872880859375,5.2384867668151855,-3.1686954498291016,-0.9927222728729248
1701881502688880400,11.59688037109375,6.634100914001465,-2.0315065383911133,-1.4811571836471558
1701881502698472200,11.60647216796875,7.407580852508545,-1.1099705696105957,-1.4524433612823486
1701881502708064800,11.616064697265625,7.666005611419678,-0.3005983531475067,-1.1362916231155396
1701881502717658000,11.625658203125,7.701898097991943,0.21655045449733734,-0.9616156220436096
1701881502727250700,11.635250732421875,7.845766544342041,0.4247260093688965,-0.8611170649528503
1701881502736842200,11.64484228515625,7.986942768096924,0.9849455952644348,-1.2251251935958862
1701881502746435000,11.65443505859375,8.63330364227295,2.0359928607940674,-1.8092730045318604
1701881502756028200,11.664028076171874,9.418449401855469,3.3143584728240967,-2.2953150272369385
1701881502765620700,11.673620849609375,9.260522842407227,4.11415958404541,-2.261516571044922
1701881502775212500,11.683212646484375,8.599804878234863,4.568795680999756,-1.6175481081008911
1701881502784805000,11.69280517578125,8.863015174865723,5.591129302978516,-1.1027921438217163
1701881502794398500,11.7023984375,9.016454696655273,6.153741836547852,-0.40378883481025696
1701881502803991000,11.711990966796876,9.583852767944336,5.557629585266113,1.1907284259796143
1701881502813582600,11.72158251953125,9.957133293151855,4.748556613922119,3.170490026473999
1701881502823175200,11.731175048828124,8.31715202331543,5.148158073425293,3.9559340476989746
1701881502832768500,11.7407685546875,6.766005039215088,5.114658355712891,3.433999538421631
1701881502842361000,11.750361083984375,6.866503715515137,4.331906318664551,2.449951171875
1701881502851953000,11.759952880859375,7.52004337310791,4.200301170349121,1.0516455173492432
1701881502861545500,11.76954541015625,8.583054542541504,4.185944080352783,-0.20039889216423035
1701881502871138800,11.779138916015626,10.45513916015625,4.23858642578125,-0.8491529226303101
1701881502880731100,11.788731201171874,11.956336975097656,4.2194437980651855,-0.7630113363265991
1701881502890323000,11.798322998046874,12.020942687988281,3.9008991718292236,-0.06161518394947052
1701881502899915500,11.80791552734375,11.254940032958984,3.5156545639038086,1.085145115852356
1701881502909508900,11.8175087890625,10.723434448242188,3.261716365814209,2.176870346069336
1701881502919101400,11.827101318359375,10.57956600189209,3.206681489944458,2.739482879638672
1701881502928693200,11.836693359375,10.718648910522461,3.302394390106201,3.1992039680480957
1701881502938285600,11.84628564453125,10.723434448242188,3.3741791248321533,3.716352701187134
1701881502947879200,11.855879150390624,10.297213554382324,3.525225877761841,4.231108665466309
1701881502957471500,11.865471435546874,9.392127990722656,3.7669010162353516,4.3411784172058105
1701881502967063300,11.875063232421875,8.415556907653809,4.126123428344727,4.020540237426758
1701881502976656000,11.88465576171875,7.8888373374938965,4.4946184158325195,3.4698920249938965
1701881502986249200,11.894249267578125,7.876873016357422,4.707878589630127,2.9240293502807617
1701881502995841800,11.903841796875,7.756932735443115,4.6887359619140625,2.4786651134490967
1701881503005433600,11.91343359375,7.8194451332092285,4.578367233276367,2.0787646770477295
1701881503015026200,11.923026123046874,8.010870933532715,4.513761043548584,1.7820546627044678
1701881503024619300,11.932619384765625,8.013263702392578,4.513761043548584,1.7988044023513794
1701881503034211800,11.9422119140625,7.857730388641357,4.528117656707764,2.0644078254699707
1701881503043803600,11.9518037109375,7.5272216796875,4.406083583831787,2.323131799697876
1701881503053396200,11.961396240234375,7.378866672515869,4.185944080352783,2.3183460235595703
1701881503062989600,11.970989501953126,7.455437183380127,3.920041799545288,2.0093727111816406
1701881503072582100,11.98058203125,8.101798057556152,3.481856107711792,1.6310077905654907
1701881503082173700,11.990173583984374,9.79681396484375,3.2641091346740723,1.6166508197784424
1701881503091766500,11.9997666015625,9.825528144836426,3.675973892211914,0.8410771489143372
1701881503101359600,12.009359619140625,9.646066665649414,4.008575916290283,-0.5979065299034119
1701881503110952200,12.0189521484375,9.234201431274414,3.96789813041687,-1.1434701681137085
1701881503120544000,12.0285439453125,8.738588333129883,3.6544384956359863,-1.0357930660247803
1701881503130136600,12.038136474609376,8.154440879821777,3.865006685256958,-0.9711868762969971
1701881503139730000,12.04772998046875,7.433901786804199,4.157230377197266,-0.5473581552505493
1701881503149322200,12.057322265625,6.8258256912231445,4.267300128936768,0.3000001311302185
1701881503158914000,12.0669140625,6.67717170715332,4.276871204376221,1.0803594589233398
1701881503168506600,12.076506591796875,6.588637351989746,4.645665168762207,1.0492527484893799
