time,seconds_elapsed,z,y,x
1701857847328769500,0.15576953125,6.891609191894531,6.611288547515869,-2.2286713123321533
1701857847338363000,0.16536279296875,6.932225704193115,6.508134365081787,-2.3997550010681152
1701857847347956700,0.174956787109375,6.991577625274658,6.4323530197143555,-2.4316775798797607
1701857847357549800,0.1845498046875,7.027948379516602,6.40822696685791,-2.3901805877685547
1701857847367142400,0.194142333984375,7.031533718109131,6.426446437835693,-2.3299601078033447
1701857847376735500,0.203735595703125,7.02125358581543,6.4568047523498535,-2.2764151096343994
1701857847386329600,0.21332958984375,7.0111470222473145,6.480640411376953,-2.2395339012145996
1701857847395922700,0.222922607421875,7.018546104431152,6.47593355178833,-2.229950189590454
1701857847405515000,0.232514892578125,7.039228439331055,6.4361419677734375,-2.2794129848480225
1701857847415108400,0.2421083984375,7.068538665771484,6.380185604095459,-2.345075845718384
1701857847424702500,0.251702392578125,7.10539436340332,6.332119464874268,-2.3639020919799805
1701857847434295600,0.261295654296875,7.170557498931885,6.278478622436523,-2.3095877170562744
1701857847443887900,0.270887939453125,7.268334865570068,6.215116500854492,-2.1711812019348145
1701857847453481200,0.280481201171875,7.398518085479736,6.127901077270508,-1.970062017440796
1701857847463075000,0.290074951171875,7.556178569793701,6.010550498962402,-1.7169259786605835
1701857847472668400,0.29966845703125,7.704057216644287,5.898557186126709,-1.4229923486709595
1701857847482260700,0.3092607421875,7.828419208526611,5.796163558959961,-1.1360996961593628
1701857847491853800,0.318853759765625,7.869978427886963,5.774746417999268,-0.9413573741912842
1701857847501448000,0.328447998046875,7.874535083770752,5.784822940826416,-0.8354090452194214
1701857847511041000,0.338041015625,7.918916702270508,5.739307403564453,-0.7221383452415466
1701857847520633600,0.347633544921875,8.00422477722168,5.639822006225586,-0.5433058738708496
1701857847530226700,0.357226806640625,8.109869956970215,5.504459381103516,-0.3183155953884125
1701857847539820800,0.36682080078125,8.2146577835083,5.355347156524658,-0.10014413297176361
1701857847549414000,0.376413818359375,8.297411918640137,5.226573467254639,0.07911413162946701
1701857847559006200,0.386006103515625,8.353418350219727,5.131735324859619,0.23684033751487732
1701857847568599600,0.395599609375,8.387721061706543,5.06575345993042,0.3932649791240692
1701857847578193400,0.405193359375,8.400826454162598,5.029224395751953,0.5508133172988892
1701857847587786800,0.414786865234375,8.392723083496094,5.022949695587158,0.7089163064956665
1701857847597379000,0.424379150390625,8.366695404052734,5.043715000152588,0.8542450070381165
1701857847606972400,0.433972412109375,8.32565689086914,5.088100433349609,0.9823690056800842
1701857847616566300,0.443566162109375,8.27377986907959,5.148862361907959,1.0973461866378784
1701857847626159600,0.45315966796875,8.21966552734375,5.210831165313721,1.206113338470459
1701857847635752000,0.462751953125,8.168453216552734,5.266664505004883,1.3072826862335205
1701857847645345000,0.472344970703125,8.127147674560547,5.308907508850098,1.391172170639038
1701857847654939100,0.481939208984375,8.100619316101074,5.333560466766357,1.4503436088562012
1701857847664532200,0.4915322265625,8.087512969970703,5.342043876647949,1.4916683435440063
1701857847674124800,0.501124755859375,8.082382202148438,5.339662075042725,1.527579665184021
1701857847683718000,0.5107177734375,8.078577995300293,5.334584712982178,1.5649837255477905
1701857847693311700,0.520311767578125,8.070508003234863,5.333560943603516,1.609482765197754
1701857847702905000,0.529905029296875,8.05499267578125,5.340505599975586,1.663270354270935
1701857847712497400,0.539497314453125,8.031856536865234,5.356790542602539,1.721763253211975
1701857847722090800,0.5490908203125,8.004356384277344,5.380430698394775,1.7752838134765625
1701857847731684600,0.5586845703125,7.976724624633789,5.407810211181641,1.8159960508346558
1701857847741278000,0.56827783203125,7.954635143280029,5.432126998901367,1.8401533365249634
1701857847750870300,0.577870361328125,7.940500259399414,5.449068546295166,1.851077675819397
1701857847760463400,0.58746337890625,7.932336807250977,5.45745849609375,1.8613362312316895
1701857847770057500,0.597057373046875,7.928487300872803,5.45723295211792,1.8783209323883057
1701857847779650600,0.606650634765625,7.928788661956787,5.4490437507629395,1.9006905555725098
1701857847789243100,0.6162431640625,7.930884838104248,5.437075138092041,1.9260499477386475
1701857847798836200,0.625836181640625,7.931343078613281,5.426486968994141,1.9538193941116333
1701857847808430300,0.635430419921875,7.928779602050781,5.419991970062256,1.9820501804351807
1701857847818023400,0.6450234375,7.922824859619141,5.418498992919922,2.0097525119781494
1701857847827615700,0.65461572265625,7.913621425628662,5.421891689300537,2.036682367324829
1701857847837209000,0.664208984375,7.902687072753906,5.427425861358643,2.064213991165161
1701857847846803000,0.673802978515625,7.8915791511535645,5.432649612426758,2.0927700996398926
1701857847856396300,0.683396240234375,7.882565975189209,5.434206485748291,2.1224846839904785
1701857847865988600,0.692988525390625,7.877505779266357,5.429598808288574,2.152843952178955
1701857847875582000,0.70258203125,7.876680374145508,5.416750431060791,2.1879465579986572
1701857847885175800,0.71217578125,7.879546165466309,5.396425247192383,2.2274951934814453
1701857847894769200,0.72176904296875,7.884842395782471,5.370856761932373,2.270142078399658
1701857847904361500,0.731361572265625,7.891742706298828,5.341534614562988,2.3149049282073975
1701857847913954600,0.74095458984375,7.90055513381958,5.309445858001709,2.358262538909912
1701857847923548700,0.750548583984375,7.911727428436279,5.275595664978027,2.396462917327881
1701857847933141800,0.760141845703125,7.925879001617432,5.2412919998168945,2.4248082637786865
1701857847942734300,0.769734375,7.9422287940979,5.207039833068848,2.445019006729126
1701857847952327400,0.779327392578125,7.959944248199463,5.172002792358398,2.461718797683716
1701857847961921300,0.78892138671875,7.976657390594482,5.135700225830078,2.4835286140441895
1701857847971514600,0.7985146484375,7.990757465362549,5.098486423492432,2.514681816101074
1701857847981107000,0.80810693359375,8.001346588134766,5.060941696166992,2.556504249572754
1701857847990700300,0.8177001953125,8.008177757263184,5.023589611053467,2.6082606315612793
1701857848000294100,0.827294189453125,8.011738777160645,4.988470077514648,2.6641345024108887
1701857848009887500,0.836887451171875,8.013574600219727,4.956061840057373,2.718543291091919
1701857848019479800,0.846479736328125,8.014625549316406,4.92586088180542,2.7698471546173096
1701857848029073000,0.856072998046875,8.016240119934082,4.897197246551514,2.815626382827759
1701857848038667000,0.8656669921875,8.018321990966797,4.870326042175293,2.8560173511505127
1701857848048260000,0.875260009765625,8.019278526306152,4.8459978103637695,2.89445424079895
1701857848057852700,0.884852783203125,8.01673412322998,4.826305866241455,2.9341320991516113
1701857848067445800,0.89444580078125,8.009982109069824,4.811726093292236,2.9762187004089355
1701857848077039900,0.904039794921875,7.999078750610352,4.8024420738220215,3.0202109813690186
1701857848086633000,0.913633056640625,7.984739780426025,4.799073696136475,3.0632026195526123
1701857848096225300,0.923225341796875,7.968123435974121,4.800528049468994,3.103922128677368
1701857848105818600,0.932818603515625,7.95028829574585,4.805820465087891,3.1412415504455566
1701857848115412500,0.94241259765625,7.931277275085449,4.814756870269775,3.1754283905029297
1701857848125005800,0.952005859375,7.910236358642578,4.828571796417236,3.2067813873291016
1701857848134598100,0.96159814453125,7.886902332305908,4.848211765289307,3.2345027923583984
1701857848144191500,0.97119140625,7.862671375274658,4.874500274658203,3.2539260387420654
1701857848153785300,0.980785400390625,7.8398613929748535,4.905770301818848,3.261957883834839
1701857848163378700,0.990378662109375,7.820329189300537,4.939183712005615,3.2584218978881836
1701857848172971000,0.999970947265625,7.805232048034668,4.972363471984863,3.2441246509552
1701857848182564000,1.009564208984375,7.794957160949707,5.003782272338867,3.220435380935669
1701857848192158200,1.019158203125,7.789470672607422,5.031993865966797,3.1896045207977295
1701857848201751300,1.028751220703125,7.787958145141602,5.056356430053711,3.154574155807495
1701857848211343600,1.038343505859375,7.788550853729248,5.077587127685547,3.1188108921051025
1701857848220937000,1.04793701171875,7.790192127227783,5.096312999725342,3.0839717388153076
1701857848230531000,1.057531005859375,7.792514801025391,5.113009929656982,3.0502846240997314
1701857848240124200,1.067124267578125,7.794894695281982,5.128177165985107,3.018578290939331
1701857848249716500,1.076716552734375,7.79672908782959,5.1430158615112305,2.9884426593780518
1701857848259309800,1.086309814453125,7.797745227813721,5.158366680145264,2.95919132232666
1701857848268903700,1.095903564453125,7.797340393066406,5.1749444007873535,2.931180715560913
1701857848278497000,1.1054970703125,7.7966084480285645,5.191782474517822,2.9032182693481445
1701857848288089300,1.11508935546875,7.797059535980225,5.206925392150879,2.8747496604919434
1701857848297682700,1.1246826171875,7.800336837768555,5.217524528503418,2.8465003967285156
1701857848307276500,1.134276611328125,7.807760238647461,5.221188545227051,2.8192996978759766
1701857848316870000,1.143869873046875,7.819412708282471,5.216538429260254,2.7955162525177
1701857848326462200,1.153462158203125,7.834447383880615,5.203739166259766,2.7772133350372314
1701857848336055300,1.16305517578125,7.851252555847168,5.183528900146484,2.7675352096557617
1701857848345649400,1.1726494140625,7.8678178787231445,5.157332420349121,2.769432783126831
1701857848355242500,1.182242431640625,7.8826446533203125,5.128594875335693,2.7806143760681152
1701857848364834800,1.191834716796875,7.893472194671631,5.102692127227783,2.7975001335144043
1701857848374428200,1.20142822265625,7.898204326629639,5.083820343017578,2.8184292316436768
1701857848384022300,1.211022216796875,7.895798683166504,5.073477745056152,2.8436880111694336
1701857848393615400,1.220615478515625,7.885753631591797,5.073299884796143,2.871739625930786
1701857848403207700,1.230207763671875,7.8692216873168945,5.082335472106934,2.9009668827056885
1701857848412801000,1.239801025390625,7.84806489944458,5.098506450653076,2.9297597408294678
1701857848422395000,1.249394775390625,7.824665546417236,5.119342803955078,2.9558959007263184
1701857848431988200,1.25898828125,7.800887584686279,5.142877578735352,2.9778084754943848
1701857848441580500,1.26858056640625,7.778201103210449,5.167341232299805,2.99475359916687
1701857848451174000,1.278173828125,7.758100986480713,5.18997859954834,3.007718563079834
1701857848460767700,1.287767822265625,7.741170883178711,5.209821701049805,3.017021894454956
1701857848470361000,1.297361083984375,7.727202415466309,5.2272233963012695,3.022726535797119
1701857848479953400,1.306953369140625,7.715717792510986,5.242733478546143,3.025200128555298
1701857848489546500,1.31654638671875,7.706356525421143,5.257436752319336,3.023543357849121
1701857848499140600,1.326140625,7.69840669631958,5.273365020751953,3.01604962348938
1701857848508733700,1.335733642578125,7.69111967086792,5.291963577270508,3.0020296573638916
1701857848518326300,1.345326171875,7.683605670928955,5.313753128051758,2.982719659805298
1701857848527919400,1.35491943359375,7.676238536834717,5.338657379150391,2.9571073055267334
1701857848537513500,1.364513427734375,7.669406414031982,5.365635395050049,2.925841808319092
1701857848547106600,1.3741064453125,7.66387939453125,5.392360687255859,2.8909850120544434
1701857848556699000,1.383698974609375,7.6601433753967285,5.416474342346191,2.855590343475342
1701857848566292200,1.393292236328125,7.658134937286377,5.4369215965271,2.8219215869903564
1701857848575886000,1.402885986328125,7.657012462615967,5.454923629760742,2.790043830871582
1701857848585479400,1.4124794921875,7.656190395355225,5.472000598907471,2.7586874961853027
1701857848595071700,1.42207177734375,7.654409408569336,5.489601135253906,2.728494167327881
1701857848604665000,1.4316650390625,7.651034832000732,5.508331775665283,2.7000598907470703
1701857848614259000,1.441259033203125,7.646319389343262,5.52838659286499,2.6722898483276367
1701857848623852300,1.450852294921875,7.641340255737305,5.549362659454346,2.6428911685943604
1701857848633444600,1.460444580078125,7.636966228485107,5.570582866668701,2.610697031021118
1701857848643038000,1.470037841796875,7.633805751800537,5.591235637664795,2.5755558013916016
1701857848652631800,1.4796318359375,7.633087635040283,5.610077381134033,2.5364127159118652
1701857848662225000,1.489224853515625,7.635642051696777,5.625635147094727,2.4939119815826416
1701857848671817500,1.4988173828125,7.641278266906738,5.637200355529785,2.450148344039917
1701857848681410600,1.50841064453125,7.649181365966797,5.644933223724365,2.40731143951416
1701857848691004700,1.518004638671875,7.658665180206299,5.649514198303223,2.366056442260742
1701857848700597800,1.52759765625,7.668771266937256,5.652407646179199,2.3260741233825684
1701857848710190000,1.537190185546875,7.678794860839844,5.654244422912598,2.2882328033447266
1701857848719783400,1.546783447265625,7.6884660720825195,5.6550421714782715,2.2535271644592285
1701857848729377500,1.55637744140625,7.697673320770264,5.655491352081299,2.220729112625122
1701857848738970600,1.565970703125,7.706949710845947,5.6554484367370605,2.188429594039917
1701857848748563000,1.57556298828125,7.717226505279541,5.654829025268555,2.153534412384033
1701857848758156300,1.58515625,7.730154991149902,5.651882171630859,2.114551544189453
1701857848767750100,1.594750244140625,7.747467517852783,5.64447546005249,2.0705134868621826
1701857848777343500,1.604343505859375,7.7702107429504395,5.631223678588867,2.02077579498291
1701857848786935800,1.613935791015625,7.79812479019165,5.612052917480469,1.965833067893982
1701857848796529200,1.623529052734375,7.830087184906006,5.587689399719238,1.9073152542114258
1701857848806123000,1.633123046875,7.864208221435547,5.559189319610596,1.8493306636810303
1701857848815716400,1.64271630859375,7.89853572845459,5.528651237487793,1.7937496900558472
1701857848825308700,1.65230859375,7.931626319885254,5.497768878936768,1.7419047355651855
1701857848834901800,1.66190185546875,7.9629130363464355,5.467574119567871,1.693527102470398
1701857848844496000,1.671495849609375,7.991978645324707,5.439039707183838,1.6478843688964844
1701857848854089000,1.6810888671875,8.018951416015625,5.412511825561523,1.6035969257354736
1701857848863681300,1.690681396484375,8.04460620880127,5.386697292327881,1.5614675283432007
1701857848873274600,1.700274658203125,8.069663047790527,5.360629081726074,1.521375298500061
1701857848882868700,1.70986865234375,8.094574928283691,5.333496570587158,1.483934998512268
1701857848892461800,1.7194619140625,8.118953704833984,5.305485725402832,1.450792908668518
1701857848902054100,1.72905419921875,8.141679763793945,5.27813196182251,1.422938346862793
1701857848911647500,1.7386474609375,8.161646842956543,5.253111839294434,1.4009709358215332
1701857848921241300,1.748241455078125,8.178518295288086,5.230770587921143,1.3860979080200195
1701857848930834700,1.757834716796875,8.192214965820312,5.211267948150635,1.3786556720733643
1701857848940427000,1.767427001953125,8.202644348144531,5.195183277130127,1.377349615097046
1701857848950020400,1.777020263671875,8.209699630737305,5.18356990814209,1.3790624141693115
1701857848959614200,1.7866142578125,8.214123725891113,5.176224708557129,1.3803061246871948
1701857848969207600,1.79620751953125,8.21644401550293,5.172677516937256,1.3797953128814697
1701857848978799900,1.8057998046875,8.217082023620605,5.17203426361084,1.3784109354019165
1701857848988393000,1.81539306640625,8.216154098510742,5.173752307891846,1.3774880170822144
1701857848997987000,1.824987060546875,8.213769912719727,5.177164554595947,1.3788951635360718
1701857849007580200,1.834580078125,8.209692001342773,5.182447910308838,1.3833175897598267
1701857849017172500,1.84417236328125,8.20413589477539,5.189333915710449,1.3904509544372559
1701857849026765800,1.853765869140625,8.198162078857422,5.196479797363281,1.39897620677948
1701857849036360000,1.86335986328125,8.19256591796875,5.2029500007629395,1.4076812267303467
1701857849045953000,1.872953125,8.18803596496582,5.208032608032227,1.4152209758758545
1701857849055545300,1.88254541015625,8.184647560119629,5.212238788604736,1.419329285621643
1701857849065138700,1.892138671875,8.182408332824707,5.215785980224609,1.4192073345184326
1701857849074732500,1.901732666015625,8.18099594116211,5.219208717346191,1.4147602319717407
1701857849084326000,1.911325927734375,8.18050479888916,5.2223615646362305,1.4059401750564575
1701857849093918200,1.920918212890625,8.180745124816895,5.2250590324401855,1.3944669961929321
1701857849103511600,1.930511474609375,8.181146621704102,5.227108478546143,1.384398102760315
1701857849113105400,1.94010546875,8.180699348449707,5.22898006439209,1.3799667358398438
1701857849122698500,1.949698486328125,8.177760124206543,5.23222017288208,1.385095477104187
1701857849132291000,1.959291015625,8.171055793762207,5.238659381866455,1.400244951248169
1701857849141884200,1.96888427734375,8.160917282104492,5.248729705810547,1.4215017557144165
1701857849151478300,1.978478271484375,8.14889907836914,5.260793209075928,1.4456392526626587
1701857849161071400,1.9880712890625,8.137408256530762,5.272220134735107,1.4685636758804321
1701857849170663700,1.99766357421875,8.128705978393555,5.280543327331543,1.4867366552352905
1701857849180257000,2.007257080078125,8.123873710632324,5.284370422363281,1.4994957447052002
1701857849189851000,2.016850830078125,8.122735977172852,5.283793926239014,1.5076693296432495
1701857849199444200,2.0264443359375,8.124349594116211,5.280311584472656,1.5111749172210693
1701857849209036500,2.03603662109375,8.12763500213623,5.275268077850342,1.5111241340637207
1701857849218630000,2.0456298828125,8.131539344787598,5.269491672515869,1.51027250289917
1701857849228223700,2.0552236328125,8.13515567779541,5.263846397399902,1.5104767084121704
1701857849237817000,2.064817138671875,8.13747787475586,5.259143829345703,1.5143468379974365
1701857849247409400,2.074409423828125,8.137517929077148,5.256293296813965,1.5239953994750977
1701857849257002500,2.08400244140625,8.13535213470459,5.255220890045166,1.5391836166381836
1701857849266596600,2.0935966796875,8.131708145141602,5.254940032958984,1.559263825416565
1701857849276189700,2.103189697265625,8.127659797668457,5.254671096801758,1.5811303853988647
1701857849285782300,2.1127822265625,8.123211860656738,5.2543134689331055,1.6049978733062744
1701857849295375400,2.122375244140625,8.118430137634277,5.254675388336182,1.6278400421142578
1701857849304969500,2.131969482421875,8.113486289978027,5.2561750411987305,1.6475310325622559
1701857849314562600,2.1415625,8.108431816101074,5.258793354034424,1.663977026939392
1701857849324155000,2.15115478515625,8.103723526000977,5.260900020599365,1.6801764965057373
1701857849333748200,2.160748291015625,8.099674224853516,5.262282371520996,1.695298433303833
1701857849343342000,2.170342041015625,8.096320152282715,5.263176441192627,1.708496332168579
1701857849352935400,2.179935302734375,8.092955589294434,5.263538837432861,1.7232592105865479
1701857849362527700,2.18952783203125,8.087908744812012,5.265143394470215,1.7419487237930298
1701857849372121000,2.19912109375,8.081730842590332,5.267404079437256,1.7636518478393555
1701857849381715000,2.20871484375,8.073942184448242,5.270659923553467,1.78941011428833
1701857849391308300,2.218308349609375,8.064693450927734,5.273563385009766,1.8222613334655762
1701857849400900600,2.227900634765625,8.054682731628418,5.276684284210205,1.8571643829345703
1701857849410493700,2.23749365234375,8.044329643249512,5.281002521514893,1.8894853591918945
1701857849420087800,2.247087890625,8.034557342529297,5.285992622375488,1.916911005973816
1701857849429681000,2.256680908203125,8.027228355407715,5.288677215576172,1.9400696754455566
1701857849439273200,2.266273193359375,8.02418041229248,5.28672456741333,1.9579260349273682
1701857849448866600,2.275866455078125,8.027196884155273,5.278337478637695,1.9681599140167236
1701857849458460700,2.285460693359375,8.03690242767334,5.264106750488281,1.966661810874939
1701857849468053800,2.2950537109375,8.055761337280273,5.23854398727417,1.9577430486679077
1701857849477646000,2.30464599609375,8.081830978393555,5.204469203948975,1.9411044120788574
1701857849487239400,2.314239501953125,8.110992431640625,5.165384769439697,1.9237958192825317
1701857849496833300,2.323833251953125,8.139338493347168,5.1251726150512695,1.9115880727767944
1701857849506426600,2.333426513671875,8.161945343017578,5.0831499099731445,1.9273300170898438
1701857849516019000,2.34301904296875,8.174227714538574,5.047057151794434,1.9696701765060425
1701857849525612000,2.352612060546875,8.174673080444336,5.022956371307373,2.0285494327545166
1701857849535206100,2.3622060546875,8.151893615722656,5.022383689880371,2.1195948123931885
1701857849544799200,2.37179931640625,8.114434242248535,5.028768062591553,2.244508743286133
1701857849554391800,2.381391845703125,8.057836532592773,5.042158126831055,2.412116289138794
1701857849563985000,2.39098486328125,7.978562831878662,5.062449932098389,2.6238391399383545
1701857849573579000,2.4005791015625,7.873811721801758,5.088719367980957,2.877223014831543
1701857849583172000,2.410172119140625,7.740445137023926,5.11797571182251,3.1720986366271973
1701857849592764400,2.419764404296875,7.575020790100098,5.145694255828857,3.508742570877075
1701857849602357800,2.429357666015625,7.373199462890625,5.1626081466674805,3.8927886486053467
1701857849611951600,2.43895166015625,7.128794193267822,5.159864902496338,4.327409744262695
1701857849621545000,2.448544921875,6.8377366065979,5.133577346801758,4.802303314208984
1701857849631137300,2.45813720703125,6.5072712898254395,5.0828752517700195,5.2905755043029785
1701857849640730600,2.467730712890625,6.150479793548584,5.000563621520996,5.773763656616211
1701857849650324500,2.477324462890625,5.774832725524902,4.880941390991211,6.244847774505615
1701857849659917800,2.486917724609375,5.382801055908203,4.725893020629883,6.697894096374512
1701857849669510100,2.49651025390625,4.972225189208984,4.541276931762695,7.129107475280762
1701857849679103200,2.506103271484375,4.545922756195068,4.335127353668213,7.5307135581970215
1701857849688697300,2.515697265625,4.11577033996582,4.112702369689941,7.89408016204834
1701857849698290400,2.52529052734375,3.7059919834136963,3.8750929832458496,8.210948944091797
1701857849707882800,2.5348828125,3.336665630340576,3.621483087539673,8.48067855834961
1701857849717476000,2.54447607421875,3.012197971343994,3.357041597366333,8.70788860321045
1701857849727070000,2.554070068359375,2.734396457672119,3.0898303985595703,8.896427154541016
1701857849736663300,2.563663330078125,2.51237416267395,2.819439649581909,9.050366401672363
1701857849746255600,2.573255615234375,2.3521251678466797,2.5424792766571045,9.174622535705566
1701857849755849000,2.582848876953125,2.2523069381713867,2.257967948913574,9.273569107055664
1701857849765442800,2.59244287109375,2.2070233821868896,1.9703365564346313,9.349717140197754
1701857849775036200,2.6020361328125,2.206310749053955,1.6860321760177612,9.405311584472656
1701857849784628500,2.61162841796875,2.2302913665771484,1.4098490476608276,9.445025444030762
1701857849794221600,2.6212216796875,2.2562148571014404,1.140662431716919,9.475166320800781
1701857849803815700,2.630815673828125,2.265510320663452,0.8737103939056396,9.501287460327148
1701857849813408800,2.64040869140625,2.2439844608306885,0.6034548878669739,9.527368545532227
1701857849823001000,2.6500009765625,2.1897189617156982,0.31864556670188904,9.553742408752441
1701857849832594400,2.659594482421875,2.1103198528289795,0.008104502223432064,9.576892852783203
1701857849842188300,2.669188232421875,2.0103721618652344,-0.3358325958251953,9.592497825622559
1701857849851781600,2.67878173828125,1.8809524774551392,-0.7125555872917175,9.598159790039062
1701857849861374000,2.6883740234375,1.6641035079956055,-1.0699083805084229,9.605021476745605
1701857849870967300,2.69796728515625,1.312784194946289,-1.354710340499878,9.623499870300293
1701857849880561200,2.70756103515625,0.9485449194908142,-1.6431849002838135,9.621360778808594
1701857849890154200,2.717154296875,0.6239618062973022,-1.998578429222107,9.58053970336914
1701857849899742200,2.7267421875,0.38998356461524963,-2.437372922897339,9.490917205810547
1701857849909335600,2.73633544921875,0.2866625487804413,-2.925602674484253,9.355696678161621
1701857849918929400,2.745929443359375,0.28794950246810913,-3.4132604598999023,9.18896770477295
1701857849928522500,2.7555224609375,0.4123843312263489,-3.8099939823150635,9.026864051818848
1701857849938115000,2.765114990234375,0.5750344395637512,-4.05540132522583,8.910299301147461
1701857849947708200,2.774708251953125,0.5891705751419067,-4.1847734451293945,8.849347114562988
1701857849957302300,2.78430224609375,0.4217003285884857,-4.308558940887451,8.799367904663086
1701857849966895400,2.793895263671875,0.333796888589859,-4.442338466644287,8.736394882202148
1701857849976487700,2.80348779296875,0.2861541211605072,-4.598684310913086,8.656824111938477
1701857849986081000,2.8130810546875,0.2507561147212982,-4.767278671264648,8.566246032714844
1701857849995675000,2.8226748046875,0.22149549424648285,-4.939459323883057,8.46894645690918
1701857850005268200,2.832268310546875,0.2006424069404602,-5.116166591644287,8.363907814025879
1701857850014860500,2.841860595703125,0.1779259294271469,-5.311233043670654,8.241936683654785
1701857850024453600,2.85145361328125,0.14287903904914856,-5.513432025909424,8.108762741088867
1701857850034047700,2.8610478515625,0.10394547879695892,-5.70357084274292,7.976769924163818
1701857850043640800,2.870640869140625,0.06182268261909485,-5.894476413726807,7.83720064163208
1701857850053233200,2.880233154296875,0.021404320374131203,-6.098511219024658,7.679718971252441
1701857850062826500,2.889826416015625,-0.01872267946600914,-6.320631980895996,7.497976303100586
1701857850072420600,2.899420654296875,-0.07103470712900162,-6.548680782318115,7.299322605133057
1701857850082013700,2.909013671875,-0.12995292246341705,-6.757665157318115,7.1054534912109375
1701857850091606000,2.91860595703125,-0.19259849190711975,-6.942690849304199,6.923318386077881
1701857850101199400,2.928199462890625,-0.26452577114105225,-7.118409633636475,6.740078449249268
1701857850110793200,2.937793212890625,-0.34177690744400024,-7.286337375640869,6.554605960845947
1701857850120386600,2.947386474609375,-0.41234418749809265,-7.440279483795166,6.375154972076416
1701857850129979000,2.956978759765625,-0.45861855149269104,-7.5792083740234375,6.206099033355713
1701857850139572000,2.966572021484375,-0.47845664620399475,-7.707738876342773,6.044189929962158
1701857850149166000,2.976166015625,-0.49024641513824463,-7.795879364013672,5.929107189178467
1701857850158759200,2.98575927734375,-0.48716461658477783,-7.859259128570557,5.845092296600342
1701857850168351500,2.9953515625,-0.47212186455726624,-7.905131816864014,5.784149169921875
1701857850177944800,3.00494482421875,-0.4423908591270447,-7.930936336517334,5.751079559326172
1701857850187539000,3.0145390625,-0.40776172280311584,-7.937112331390381,5.745116710662842
1701857850197132000,3.024132080078125,-0.37905532121658325,-7.9215087890625,5.768568992614746
1701857850206724400,3.033724365234375,-0.33963069319725037,-7.895448684692383,5.806626796722412
1701857850216317700,3.043317626953125,-0.2785027325153351,-7.88006067276001,5.8307342529296875
1701857850225911600,3.05291162109375,-0.20254285633563995,-7.874435901641846,5.841456890106201
1701857850235505000,3.0625048828125,-0.1152963638305664,-7.865540981292725,5.855797290802002
1701857850245097200,3.07209716796875,-0.05367866903543472,-7.868485927581787,5.852728843688965
1701857850254690300,3.081690185546875,-0.03560516983270645,-7.8924126625061035,5.820560455322266
1701857850264284400,3.091284423828125,-0.05699913576245308,-7.930908679962158,5.767827987670898
1701857850273877500,3.10087744140625,-0.08420269191265106,-7.996730327606201,5.675879001617432
1701857850283469800,3.1104697265625,-0.10869205743074417,-8.079841613769531,5.556503772735596
1701857850293063200,3.120063232421875,-0.13166093826293945,-8.172906875610352,5.418178081512451
1701857850302657000,3.129656982421875,-0.13891562819480896,-8.268913269042969,5.2703094482421875
1701857850312250400,3.13925048828125,-0.13859350979328156,-8.367445945739746,5.1124396324157715
1701857850321842700,3.1488427734375,-0.13137337565422058,-8.473509788513184,4.934850692749023
1701857850331436000,3.15843603515625,-0.10876533389091492,-8.587403297424316,4.734455585479736
1701857850341030000,3.16802978515625,-0.06805706769227982,-8.708684921264648,4.50827693939209
1701857850350623000,3.177623046875,-0.022701309993863106,-8.830370903015137,4.2654924392700195
1701857850360215600,3.187215576171875,0.010756222531199455,-8.941276550292969,4.027885913848877
1701857850369808600,3.19680859375,0.02229248732328415,-9.035475730895996,3.8118345737457275
1701857850379402800,3.20640283203125,0.013084456324577332,-9.106507301330566,3.638921022415161
1701857850388995800,3.215995849609375,-0.0036893028300255537,-9.148346900939941,3.5324366092681885
1701857850398588200,3.225588134765625,-0.018755760043859482,-9.157461166381836,3.508695363998413
1701857850408181500,3.235181396484375,-0.02693418599665165,-9.1438570022583,3.543943405151367
1701857850417775400,3.244775390625,-0.026640664786100388,-9.130542755126953,3.578108549118042
1701857850427368700,3.25436865234375,-0.018215075135231018,-9.122929573059082,3.5975279808044434
1701857850436961000,3.2639609375,0.0005324785597622395,-9.118377685546875,3.609097719192505
1701857850446554000,3.27355419921875,0.025918399915099144,-9.113734245300293,3.620711326599121
1701857850456148200,3.283148193359375,0.021064860746264458,-9.112760543823242,3.6231939792633057
1701857850465741300,3.2927412109375,-0.048755303025245667,-9.1282320022583,3.583768606185913
1701857850475333600,3.302333740234375,-0.05087244138121605,-9.142034530639648,3.548380136489868
1701857850484927000,3.311927001953125,-0.030421286821365356,-9.149020195007324,3.530564785003662
1701857850494521000,3.32152099609375,-0.025652021169662476,-9.157252311706543,3.5091989040374756
1701857850504114200,3.3311142578125,-0.04395540803670883,-9.174054145812988,3.464848279953003
1701857850513706500,3.34070654296875,-0.07984264194965363,-9.195859909057617,3.4059011936187744
1701857850523299800,3.3502998046875,-0.12410395592451096,-9.21269702911377,3.358750343322754
1701857850532893700,3.359893798828125,-0.17648819088935852,-9.223601341247559,3.3263204097747803
1701857850542487000,3.369487060546875,-0.24397315084934235,-9.239911079406738,3.2764151096343994
1701857850552079400,3.379079345703125,-0.313511461019516,-9.267938613891602,3.1902048587799072
1701857850561672400,3.38867236328125,-0.382790744304657,-9.306875228881836,3.066908359527588
1701857850571266600,3.3982666015625,-0.4393042027950287,-9.351622581481934,2.919687032699585
1701857850580859600,3.407859619140625,-0.46322476863861084,-9.392583847045898,2.781221628189087
1701857850590452000,3.417451904296875,-0.4685814678668976,-9.42672061920166,2.6622838973999023
1701857850600045300,3.42704541015625,-0.45983952283859253,-9.454998016357422,2.56162691116333
1701857850609639200,3.43663916015625,-0.4449634552001953,-9.47558307647705,2.4871115684509277
1701857850619232500,3.446232421875,-0.43726232647895813,-9.487613677978516,2.4422037601470947
1701857850628824800,3.455824951171875,-0.42369091510772705,-9.492429733276367,2.4258294105529785
1701857850638418200,3.465418212890625,-0.3997707664966583,-9.493147850036621,2.427082061767578
1701857850648012000,3.475011962890625,-0.3630192279815674,-9.493253707885742,2.432436466217041
1701857850657605000,3.484605224609375,-0.3189813494682312,-9.493313789367676,2.4383671283721924
1701857850667197700,3.49419775390625,-0.27198487520217896,-9.493311882019043,2.4440598487854004
1701857850676790800,3.503790771484375,-0.22437217831611633,-9.492853164672852,2.4506702423095703
1701857850686385000,3.513385009765625,-0.17601370811462402,-9.491697311401367,2.4590835571289062
1701857850695978000,3.52297802734375,-0.12910090386867523,-9.490212440490723,2.467711925506592
1701857850705570300,3.5325703125,-0.08571717143058777,-9.488653182983398,2.475584030151367
1701857850715163600,3.54216357421875,-0.04670222848653793,-9.487077713012695,2.4826526641845703
1701857850724757500,3.551757568359375,-0.011911299079656601,-9.485655784606934,2.4884872436523438
1701857850734350600,3.5613505859375,0.018611682578921318,-9.48475170135498,2.4918911457061768
1701857850743943200,3.570943115234375,0.043733611702919006,-9.48451042175293,2.4924938678741455
1701857850753536300,3.580536376953125,0.06078871339559555,-9.485016822814941,2.4902114868164062
1701857850763130400,3.59013037109375,0.06069569289684296,-9.48593807220459,2.486701250076294
1701857850772723500,3.599723388671875,0.048021335154771805,-9.487336158752441,2.481637954711914
1701857850782315800,3.609315673828125,0.04383067041635513,-9.489809036254883,2.472243070602417
1701857850791909000,3.6189091796875,0.04102727025747299,-9.49182415008545,2.4645450115203857
1701857850801503000,3.6285029296875,0.038401585072278976,-9.49315357208252,2.4594614505767822
1701857850811096300,3.638096435546875,0.040744662284851074,-9.4941987991333,2.4553847312927246
1701857850820688600,3.647688720703125,0.04485509544610977,-9.494571685791016,2.453871250152588
1701857850830282000,3.657281982421875,0.049784060567617416,-9.494339942932129,2.454674243927002
1701857850839875800,3.666875732421875,0.055023856461048126,-9.493528366088867,2.457697868347168
1701857850849469000,3.676468994140625,0.060468923300504684,-9.492177963256836,2.462780475616455
1701857850859061500,3.6860615234375,0.06631962209939957,-9.49034595489502,2.469679355621338
1701857850868654600,3.695654541015625,0.07258489727973938,-9.488076210021973,2.478207588195801
1701857850878248700,3.705248779296875,0.07929914444684982,-9.485458374023438,2.488004684448242
1701857850887841800,3.714841796875,0.08649729937314987,-9.482662200927734,2.498403787612915
1701857850897434000,3.72443408203125,0.09354719519615173,-9.479805946350098,2.5089683532714844
1701857850907027500,3.73402734375,0.10065057873725891,-9.477006912231445,2.5192458629608154
1701857850916621300,3.743621337890625,0.10780085623264313,-9.47433090209961,2.5289952754974365
1701857850926214400,3.75321435546875,0.114792600274086,-9.471846580505371,2.537973642349243
1701857850935807000,3.762806884765625,0.12211976945400238,-9.469534873962402,2.546247959136963
1701857850945400000,3.772400146484375,0.12977732717990875,-9.467432022094727,2.553677797317505
1701857850954994200,3.781994140625,0.13770551979541779,-9.465529441833496,2.5603067874908447
1701857850964587300,3.791587158203125,0.14573173224925995,-9.463794708251953,2.5662689208984375
1701857850974179600,3.8011796875,0.15359194576740265,-9.462149620056152,2.571871519088745
1701857850983773000,3.81077294921875,0.1612665206193924,-9.460572242736816,2.5771982669830322
1701857850993366800,3.82036669921875,0.16854217648506165,-9.459012031555176,2.58245587348938
1701857851002960100,3.829960205078125,0.1753438264131546,-9.457389831542969,2.5879342555999756
1701857851012552400,3.839552490234375,0.18168208003044128,-9.455635070800781,2.5939066410064697
1701857851022145500,3.8491455078125,0.1878996193408966,-9.453752517700195,2.6003150939941406
1701857851031739600,3.85873974609375,0.19400210678577423,-9.451742172241211,2.6071643829345703
1701857851041332700,3.868332763671875,0.1998864710330963,-9.449661254882812,2.614255666732788
1701857851050925000,3.877925048828125,0.2054656594991684,-9.447566986083984,2.621382236480713
1701857851060518400,3.887518310546875,0.21058033406734467,-9.445538520812988,2.6282777786254883
1701857851070112300,3.8971123046875,0.2153666466474533,-9.44361400604248,2.6347999572753906
1701857851079705600,3.90670556640625,0.22012852132320404,-9.441779136657715,2.6409754753112793
1701857851089298000,3.9162978515625,0.2251995950937271,-9.440071105957031,2.6466472148895264
1701857851098891000,3.92589111328125,0.23099172115325928,-9.438493728637695,2.651766777038574
1701857851108485000,3.935485107421875,0.23751886188983917,-9.437018394470215,2.656438112258911
1701857851118078200,3.945078125,0.24428802728652954,-9.435677528381348,2.660583257675171
1701857851127670800,3.9546708984375,0.25128641724586487,-9.436063766479492,2.6585612297058105
1701857851137263900,3.964263916015625,0.2574588358402252,-9.436625480651855,2.655974864959717
1701857851146857700,3.973857666015625,0.26349735260009766,-9.437255859375,2.653140068054199
1701857851156451000,3.983451171875,0.2717544436454773,-9.437835693359375,2.6502459049224854
1701857851166043400,3.99304345703125,0.27862292528152466,-9.438899040222168,2.6457362174987793
1701857851175636700,4.00263671875,0.283164381980896,-9.440248489379883,2.6404404640197754
1701857851185230600,4.012230712890625,0.28972098231315613,-9.441723823547363,2.6344449520111084
1701857851194824000,4.021823974609375,0.2973993420600891,-9.443655967712402,2.6266534328460693
1701857851204416300,4.031416259765625,0.3050614595413208,-9.44583797454834,2.617915630340576
1701857851214009300,4.04100927734375,0.31281667947769165,-9.448819160461426,2.606210708618164
1701857851223603500,4.050603515625,0.3198642432689667,-9.45257568359375,2.591698408126831
1701857851233196500,4.060196533203125,0.32661888003349304,-9.45663070678711,2.576012134552002
1701857851242788900,4.069788818359375,0.3349349796772003,-9.460650444030762,2.56013822555542
1701857851252382200,4.07938232421875,0.34585440158843994,-9.464031219482422,2.5461490154266357
1701857851261976000,4.08897607421875,0.35926204919815063,-9.46672248840332,2.53426456451416
1701857851271569400,4.0985693359375,0.3731226325035095,-9.469171524047852,2.5230846405029297
1701857851281161700,4.10816162109375,0.38660481572151184,-9.47132396697998,2.5129554271698
1701857851290754800,4.1177548828125,0.39933058619499207,-9.47303581237793,2.5044970512390137
1701857851300349000,4.127348876953125,0.41167956590652466,-9.474451065063477,2.4971349239349365
1701857851309942000,4.13694189453125,0.42353683710098267,-9.475780487060547,2.4901010990142822
1701857851319534300,4.146534423828125,0.4348892569541931,-9.477356910705566,2.4821293354034424
1701857851329127700,4.156127685546875,0.4459547698497772,-9.478819847106934,2.4745683670043945
1701857851338721500,4.165721435546875,0.4574379026889801,-9.479999542236328,2.4679465293884277
1701857851348315000,4.17531494140625,0.4697760343551636,-9.481083869934082,2.461452007293701
1701857851357907200,4.1849072265625,0.4810870885848999,-9.4818754196167,2.4562106132507324
1701857851367500300,4.194500244140625,0.49092376232147217,-9.48243522644043,2.452103614807129
1701857851377094400,4.204094482421875,0.49944907426834106,-9.482831001281738,2.448847770690918
1701857851386687500,4.2136875,0.5077435970306396,-9.483044624328613,2.4463155269622803
1701857851396279800,4.22327978515625,0.5165126323699951,-9.483003616333008,2.444636583328247
1701857851405873200,4.232873046875,0.526639997959137,-9.48249340057373,2.4444527626037598
1701857851415467000,4.242467041015625,0.538713812828064,-9.481611251831055,2.4452474117279053
1701857851425060400,4.252060302734375,0.5528401732444763,-9.480461120605469,2.4465508460998535
1701857851434652700,4.261652587890625,0.5675100684165955,-9.47917652130127,2.4481706619262695
1701857851444246000,4.27124609375,0.5815205574035645,-9.477932929992676,2.4496965408325195
1701857851453840000,4.28083984375,0.5946375727653503,-9.476808547973633,2.4508931636810303
1701857851463433000,4.290432861328125,0.6066379547119141,-9.475926399230957,2.4513654708862305
1701857851473025500,4.300025634765625,0.6179525256156921,-9.475221633911133,2.451262950897217
1701857851482618600,4.30961865234375,0.6276013255119324,-9.474544525146484,2.4514291286468506
1701857851492212700,4.319212646484375,0.6361525654792786,-9.473883628845215,2.4517815113067627
1701857851501805800,4.328805908203125,0.6437516212463379,-9.473057746887207,2.452986240386963
1701857851511398100,4.338398193359375,0.6507301926612854,-9.471956253051758,2.455399751663208
1701857851520991500,4.347991455078125,0.6577064394950867,-9.47062873840332,2.458656072616577
1701857851530585300,4.35758544921875,0.665398359298706,-9.469100952148438,2.462473154067993
1701857851540178700,4.3671787109375,0.6731795072555542,-9.467411994934082,2.4668476581573486
1701857851549771000,4.37677099609375,0.6808204650878906,-9.465556144714355,2.471867799758911
1701857851559364000,4.386364013671875,0.6885154247283936,-9.4636869430542,2.476886510848999
1701857851568958200,4.395958251953125,0.6957498788833618,-9.46186637878418,2.4818170070648193
1701857851578551300,4.40555126953125,0.702875554561615,-9.460281372070312,2.4858429431915283
1701857851588143600,4.4151435546875,0.7100726962089539,-9.458824157714844,2.4893460273742676
1701857851597737000,4.424737060546875,0.7161174416542053,-9.457528114318848,2.4925339221954346
1701857851607330800,4.434330810546875,0.7210304141044617,-9.456446647644043,2.495222568511963
1701857851616924200,4.443924072265625,0.724514901638031,-9.455573081970215,2.497519016265869
1701857851626516500,4.4535166015625,0.7251322865486145,-9.454938888549805,2.4997377395629883
1701857851636109600,4.463109619140625,0.7249236702919006,-9.454421043395996,2.5017569065093994
1701857851645703700,4.47270361328125,0.724364161491394,-9.45401668548584,2.5034468173980713
1701857851655296800,4.482296875,0.72376948595047,-9.453594207763672,2.5052132606506348
1701857851664889000,4.49188916015625,0.7236336469650269,-9.453023910522461,2.507406711578369
1701857851674482400,4.501482421875,0.7237133383750916,-9.452347755432129,2.509932279586792
1701857851684076300,4.511076171875,0.7231493592262268,-9.451655387878418,2.512697458267212
1701857851693669600,4.520669677734375,0.7230997681617737,-9.450895309448242,2.515570878982544
1701857851703262000,4.530261962890625,0.7232863306999207,-9.45035171508789,2.51755952835083
1701857851712855300,4.539855224609375,0.7230381965637207,-9.450139045715332,2.518427610397339
1701857851722449200,4.54944921875,0.7234466075897217,-9.449968338012695,2.518951177597046
1701857851732042200,4.559042236328125,0.7238233089447021,-9.449943542480469,2.5189332962036133
1701857851741634600,4.568634521484375,0.7250428795814514,-9.449934959411621,2.5186140537261963
1701857851751228000,4.578227783203125,0.7271080017089844,-9.44998836517334,2.517819404602051
1701857851760822000,4.587822021484375,0.730491578578949,-9.450132369995117,2.5163044929504395
1701857851770415000,4.5974150390625,0.7354609370231628,-9.450362205505371,2.513990879058838
1701857851780007400,4.60700732421875,0.7417666912078857,-9.450846672058105,2.510312080383301
1701857851789600800,4.616600830078125,0.749018669128418,-9.45157241821289,2.5054237842559814
1701857851799194600,4.626194580078125,0.757138192653656,-9.452653884887695,2.4988937377929688
1701857851808788000,4.6357880859375,0.7657075524330139,-9.454092979431152,2.4908244609832764
1701857851818380300,4.64538037109375,0.7744991779327393,-9.45560359954834,2.4823598861694336
1701857851827973400,4.654973388671875,0.7835897207260132,-9.45726203918457,2.473170757293701
1701857851837567500,4.6645673828125,0.7927514910697937,-9.458972930908203,2.463693141937256
1701857851847160600,4.67416064453125,0.8018836379051208,-9.460822105407715,2.453613042831421
1701857851856753000,4.6837529296875,0.8105462193489075,-9.462751388549805,2.4433040618896484
1701857851866346200,4.69334619140625,0.8190196752548218,-9.464701652526855,2.4329042434692383
1701857851875940000,4.702940185546875,0.8266350626945496,-9.466622352600098,2.4228334426879883
1701857851885533400,4.712533447265625,0.8338477611541748,-9.468461990356445,2.4131550788879395
1701857851895125800,4.722125732421875,0.8400442600250244,-9.470250129699707,2.4039714336395264
1701857851904718800,4.73171875,0.8447943925857544,-9.471969604492188,2.395519971847534
1701857851914313000,4.74131298828125,0.8481780290603638,-9.47367000579834,2.387584924697876
1701857851923906000,4.750906005859375,0.8513343334197998,-9.475276947021484,2.380075693130493
1701857851933498400,4.760498291015625,0.8543458580970764,-9.476783752441406,2.372981548309326
1701857851943091700,4.770091796875,0.8579549789428711,-9.478093147277832,2.366443634033203
1701857851952685600,4.779685546875,0.8620758056640625,-9.479138374328613,2.360755681991577
1701857851962279000,4.78927880859375,0.8667955994606018,-9.479910850524902,2.355914831161499
1701857851971871200,4.798871337890625,0.8721068501472473,-9.480549812316895,2.35137939453125
1701857851981464600,4.808464599609375,0.8776631355285645,-9.4810152053833,2.3474373817443848
1701857851991058400,4.818058349609375,0.8836414813995361,-9.481463432312012,2.3433761596679688
1701857852000651500,4.827651611328125,0.8895750641822815,-9.481983184814453,2.33902645111084
1701857852010243800,4.837243896484375,0.8961849212646484,-9.482441902160645,2.334636926651001
1701857852019837200,4.846837158203125,0.9024713039398193,-9.482891082763672,2.3303894996643066
1701857852029431000,4.85643115234375,0.9082830548286438,-9.483379364013672,2.326136589050293
1701857852039024400,4.8660244140625,0.9137990474700928,-9.483718872070312,2.322591543197632
1701857852048616700,4.87561669921875,0.9192671179771423,-9.484182357788086,2.3185391426086426
1701857852058210000,4.8852099609375,0.9249606728553772,-9.484650611877441,2.3143513202667236
1701857852067804000,4.894803955078125,0.9308150410652161,-9.485116958618164,2.310091018676758
1701857852077397000,4.90439697265625,0.9370256662368774,-9.485518455505371,2.305929183959961
1701857852086989600,4.913989501953125,0.9438683390617371,-9.485930442810059,2.3014397621154785
1701857852096582700,4.923582763671875,0.9510279297828674,-9.486327171325684,2.2968506813049316
1701857852106176800,4.9331767578125,0.9587267637252808,-9.486664772033691,2.2922520637512207
1701857852115769900,4.942769775390625,0.9665020704269409,-9.487052917480469,2.287376880645752
1701857852125362200,4.952362060546875,0.9745109677314758,-9.48736572265625,2.2826755046844482
1701857852134955500,4.96195556640625,0.9822850227355957,-9.487672805786133,2.278062105178833
1701857852144549400,4.97154931640625,0.9904150366783142,-9.487885475158691,2.2736504077911377
1701857852154142500,4.981142578125,0.9989379644393921,-9.488106727600098,2.2689974308013916
1701857852163735000,4.990735107421875,1.0074843168258667,-9.488348007202148,2.2642014026641846
1701857852173328100,5.000328125,1.0163742303848267,-9.488568305969238,2.259303331375122
1701857852182922200,5.009922119140625,1.025120735168457,-9.488592147827148,2.25524640083313
1701857852192515300,5.019515380859375,1.0326833724975586,-9.488653182983398,2.251533031463623
1701857852202107600,5.029107666015625,1.0403800010681152,-9.488760948181152,2.247530937194824
1701857852211701000,5.038700927734375,1.0480575561523438,-9.488675117492676,2.244331121444702
1701857852221294800,5.048294921875,1.0556557178497314,-9.488420486450195,2.2418406009674072
1701857852230888200,5.05788818359375,1.0634658336639404,-9.48812484741211,2.239400863647461
1701857852240480500,5.06748046875,1.0714572668075562,-9.4877290725708,2.23726749420166
1701857852250073900,5.077073974609375,1.0801116228103638,-9.487399101257324,2.234504461288452
1701857852259667700,5.086667724609375,1.0897727012634277,-9.48709487915039,2.231102228164673
1701857852269260800,5.0962607421875,1.0993508100509644,-9.486976623535156,2.226897954940796
1701857852278853400,5.105853271484375,1.1084320545196533,-9.48725414276123,2.221208333969116
1701857852288446500,5.115446533203125,1.115873098373413,-9.487979888916016,2.2143728733062744
1701857852298040600,5.12504052734375,1.1234902143478394,-9.488995552062988,2.206155776977539
1701857852307633700,5.134633544921875,1.1310592889785767,-9.489886283874512,2.1984446048736572
1701857852317226000,5.14422607421875,1.139793872833252,-9.490551948547363,2.1910452842712402
1701857852326819300,5.1538193359375,1.1503198146820068,-9.490872383117676,2.1841495037078857
1701857852336413200,5.1634130859375,1.1636431217193604,-9.49067211151123,2.177948236465454
1701857852346006300,5.17300634765625,1.1797876358032227,-9.490163803100586,2.1714694499969482
1701857852355598800,5.182598876953125,1.198979139328003,-9.489301681518555,2.164713144302368
1701857852365192000,5.19219189453125,1.2220776081085205,-9.488115310668945,2.15697979927063
1701857852374786000,5.2017861328125,1.249262809753418,-9.486825942993164,2.1470608711242676
1701857852384379100,5.211379150390625,1.2795872688293457,-9.485456466674805,2.1352171897888184
1701857852393971500,5.220971435546875,1.3113127946853638,-9.484231948852539,2.121366262435913
1701857852403564800,5.230564697265625,1.3439186811447144,-9.483258247375488,2.105252742767334
1701857852413158700,5.24015869140625,1.3765673637390137,-9.482778549194336,2.0862324237823486
1701857852422752000,5.249751953125,1.4080426692962646,-9.482426643371582,2.0667335987091064
1701857852432344300,5.25934423828125,1.4366270303726196,-9.482763290405273,2.0454068183898926
1701857852441937700,5.268937744140625,1.461215615272522,-9.483678817749023,2.023629665374756
1701857852451531500,5.278531494140625,1.4812071323394775,-9.485187530517578,2.0019021034240723
1701857852461124600,5.28812451171875,1.497967004776001,-9.487160682678223,1.9799638986587524
1701857852470717200,5.29771728515625,1.5124945640563965,-9.489282608032227,1.9586389064788818
1701857852480310300,5.307310302734375,1.526091456413269,-9.491450309753418,1.9374696016311646
1701857852489904000,5.316904052734375,1.5393062829971313,-9.493853569030762,1.9151177406311035
1701857852499497500,5.32649755859375,1.5500696897506714,-9.49692440032959,1.8910565376281738
1701857852509089800,5.33608984375,1.5515851974487305,-9.501749992370605,1.8653994798660278
1701857852518683100,5.34568310546875,1.5420176982879639,-9.508549690246582,1.838488221168518
1701857852528277000,5.355277099609375,1.5237845182418823,-9.51687240600586,1.8104156255722046
1701857852537870000,5.3648701171875,1.4953935146331787,-9.526673316955566,1.7823269367218018
1701857852547462700,5.374462646484375,1.4581423997879028,-9.536977767944336,1.7579169273376465
1701857852557055700,5.3840556640625,1.409895896911621,-9.547639846801758,1.7393007278442383
1701857852566649900,5.39364990234375,1.3552260398864746,-9.557520866394043,1.728450894355774
1701857852576243000,5.403242919921875,1.302804946899414,-9.564655303955078,1.729291319847107
1701857852585835300,5.412835205078125,1.252260684967041,-9.569181442260742,1.7415510416030884
1701857852595428600,5.4224287109375,1.2003062963485718,-9.571009635925293,1.7678836584091187
1701857852605022500,5.4320224609375,1.1542940139770508,-9.573700904846191,1.7838852405548096
1701857852614615800,5.44161572265625,1.1043099164962769,-9.575389862060547,1.8063180446624756
1701857852624208100,5.4512080078125,1.0537077188491821,-9.57606029510498,1.832800030708313
1701857852633801200,5.46080126953125,1.0061203241348267,-9.575664520263672,1.8613877296447754
1701857852643395300,5.470395263671875,0.9625304937362671,-9.574579238891602,1.8898063898086548
1701857852652988400,5.479988525390625,0.9243239164352417,-9.57326889038086,1.9153409004211426
1701857852662581000,5.4895810546875,0.893347978591919,-9.572025299072266,1.936142086982727
1701857852672174000,5.499174072265625,0.8710355162620544,-9.570998191833496,1.9513291120529175
1701857852681768000,5.508767822265625,0.8582751750946045,-9.570262908935547,1.9605615139007568
1701857852691361300,5.518361328125,0.8586568832397461,-9.569381713867188,1.9646971225738525
1701857852700953600,5.52795361328125,0.8725763559341431,-9.568426132202148,1.9632186889648438
1701857852710547000,5.537546875,0.8971716165542603,-9.56767749786377,1.955765724182129
1701857852720140800,5.547140869140625,0.9287179112434387,-9.567275047302246,1.9429692029953003
1701857852729734000,5.55673388671875,0.9652408957481384,-9.567566871643066,1.923633337020874
1701857852739326500,5.566326416015625,1.0096262693405151,-9.568577766418457,1.8956141471862793
1701857852748919600,5.57591943359375,1.0653024911880493,-9.570241928100586,1.8563355207443237
1701857852758513700,5.585513671875,1.1307082176208496,-9.572354316711426,1.8060753345489502
1701857852768106800,5.595106689453125,1.2016268968582153,-9.574636459350586,1.74723219871521
1701857852777699000,5.604698974609375,1.2751275300979614,-9.57689094543457,1.6815437078475952
1701857852787292400,5.61429248046875,1.3501685857772827,-9.578904151916504,1.6099748611450195
1701857852796886300,5.62388623046875,1.4264206886291504,-9.580836296081543,1.5307774543762207
1701857852806479600,5.633479736328125,1.5019129514694214,-9.583020210266113,1.4423428773880005
1701857852816072000,5.643072021484375,1.5743714570999146,-9.585770606994629,1.3434069156646729
1701857852825665000,5.6526650390625,1.6413153409957886,-9.589469909667969,1.2322958707809448
1701857852835259100,5.662259033203125,1.7011113166809082,-9.59426212310791,1.1075793504714966
1701857852844852200,5.671852294921875,1.752657413482666,-9.599925994873047,0.9695400595664978
1701857852854444500,5.681444580078125,1.7911556959152222,-9.60677433013916,0.8197668194770813
1701857852864038000,5.691037841796875,1.8091922998428345,-9.615696907043457,0.6599913239479065
1701857852873631700,5.7006318359375,1.801247477531433,-9.627152442932129,0.4938126802444458
1701857852883225000,5.71022509765625,1.76496422290802,-9.641007423400879,0.32599735260009766
1701857852892817400,5.7198173828125,1.6983134746551514,-9.657081604003906,0.16400405764579773
1701857852902410800,5.72941064453125,1.6097382307052612,-9.673629760742188,0.003564424579963088
1701857852912004600,5.739004638671875,1.5079853534698486,-9.688730239868164,-0.1577295958995819
1701857852921597700,5.74859765625,1.397683024406433,-9.701372146606445,-0.3166244924068451
1701857852931190000,5.75818994140625,1.2809183597564697,-9.711421012878418,-0.4668566584587097
1701857852940783400,5.767783447265625,1.1645549535751343,-9.718201637268066,-0.6088923215866089
1701857852950377500,5.77737744140625,1.0529835224151611,-9.721430778503418,-0.7452518343925476
1701857852959970600,5.786970458984375,0.9372212290763855,-9.722583770751953,-0.8737033009529114
1701857852969563000,5.79656298828125,0.8048701882362366,-9.72305965423584,-0.9923068881034851
1701857852979156200,5.80615625,0.6560662388801575,-9.72255802154541,-1.1008261442184448
1701857852988750000,5.81575,0.5046037435531616,-9.721264839172363,-1.1886035203933716
1701857852998343400,5.825343505859375,0.3898141086101532,-9.718358039855957,-1.2537809610366821
1701857853007935700,5.834935791015625,0.3318328261375427,-9.713754653930664,-1.3050791025161743
1701857853017528800,5.84452880859375,0.3404768407344818,-9.7062349319458,-1.3577418327331543
1701857853027123000,5.854123046875,0.41151541471481323,-9.691658020019531,-1.4397307634353638
1701857853036716000,5.863716064453125,0.5203762650489807,-9.670671463012695,-1.5419865846633911
1701857853046308400,5.873308349609375,0.6408067941665649,-9.64937686920166,-1.6276618242263794
1701857853055901700,5.882901611328125,0.7689566612243652,-9.627959251403809,-1.6975007057189941
1701857853065495600,5.89249560546875,0.9071594476699829,-9.601741790771484,-1.7759507894515991
1701857853075089000,5.9020888671875,1.0748718976974487,-9.565675735473633,-1.8742703199386597
1701857853084681200,5.91168115234375,1.2884888648986816,-9.514280319213867,-1.9971593618392944
1701857853094274300,5.9212744140625,1.5234016180038452,-9.450072288513184,-2.13208270072937
1701857853103868400,5.930868408203125,1.7403857707977295,-9.38040542602539,-2.269235134124756
1701857853113461500,5.94046142578125,1.9173550605773926,-9.312787055969238,-2.4012739658355713
1701857853123053800,5.9500537109375,2.0469629764556885,-9.251773834228516,-2.526859998703003
1701857853132647200,5.959647216796875,2.143852472305298,-9.194918632507324,-2.650991678237915
1701857853142241300,5.9692412109375,2.2283782958984375,-9.13674259185791,-2.779326915740967
1701857853151834400,5.97883447265625,2.320307731628418,-9.072922706604004,-2.9100937843322754
1701857853161426700,5.9884267578125,2.4306154251098633,-9.00132942199707,-3.039498805999756
1701857853171020000,5.99802001953125,2.5640034675598145,-8.920412063598633,-3.1658339500427246
1701857853180614000,6.00761376953125,2.716480255126953,-8.8319730758667,-3.2844128608703613
1701857853190207200,6.017207275390625,2.878788471221924,-8.73597526550293,-3.4008395671844482
1701857853199799600,6.026799560546875,3.0429134368896484,-8.632182121276855,-3.520864486694336
1701857853209392600,6.036392578125,3.204450845718384,-8.521142959594727,-3.645817756652832
1701857853218986800,6.04598681640625,3.3640239238739014,-8.404502868652344,-3.770685911178589
1701857853228579800,6.055579833984375,3.5205729007720947,-8.285888671875,-3.8884425163269043
1701857853238172200,6.065172119140625,3.6659460067749023,-8.170730590820312,-3.996297597885132
1701857853247765500,6.074765625,3.8013274669647217,-8.060905456542969,-4.091709136962891
1701857853257359400,6.084359375,3.9350762367248535,-7.950842380523682,-4.179671764373779
1701857853266952700,6.09395263671875,4.065823554992676,-7.840722560882568,-4.261752128601074
1701857853276545000,6.103544921875,4.196064472198486,-7.731075763702393,-4.335191249847412
1701857853286138000,6.11313818359375,4.3238420486450195,-7.623883247375488,-4.398998737335205
1701857853295732200,6.122732177734375,4.442015647888184,-7.524080753326416,-4.452763080596924
1701857853305325300,6.1323251953125,4.5467305183410645,-7.432692527770996,-4.500301361083984
1701857853314917600,6.141917724609375,4.63707971572876,-7.349061012268066,-4.545238494873047
1701857853324511000,6.151510986328125,4.716668128967285,-7.270140171051025,-4.590042591094971
1701857853334104800,6.161104736328125,4.78872013092041,-7.194591045379639,-4.6342644691467285
1701857853343698200,6.1706982421875,4.854552268981934,-7.122122287750244,-4.677509307861328
1701857853353290500,6.18029052734375,4.914279460906982,-7.0526933670043945,-4.7201433181762695
1701857853362883800,6.1898837890625,4.968751430511475,-6.986193656921387,-4.76182746887207
1701857853372477700,6.199477783203125,5.01298189163208,-6.924862861633301,-4.804859638214111
1701857853382070800,6.20907080078125,5.039982795715332,-6.871976375579834,-4.852309703826904
1701857853391663400,6.218663330078125,5.046861171722412,-6.830362796783447,-4.9036431312561035
1701857853401256400,6.22825634765625,5.037191390991211,-6.801394939422607,-4.953595161437988
1701857853410850600,6.2378505859375,5.015196800231934,-6.787099361419678,-4.995345592498779
1701857853420443600,6.247443603515625,4.980477333068848,-6.790399551391602,-5.025506496429443
1701857853430036000,6.257035888671875,4.9291205406188965,-6.8126983642578125,-5.045918941497803
1701857853439629300,6.26662939453125,4.859467029571533,-6.851772308349609,-5.060552597045898
1701857853449223200,6.27622314453125,4.769262313842773,-6.909778594970703,-5.067492485046387
1701857853458816500,6.28581640625,4.659801483154297,-6.987840175628662,-5.062284469604492
1701857853468408800,6.295408935546875,4.535556793212891,-7.08320426940918,-5.042550563812256
1701857853478002000,6.305001953125,4.397767543792725,-7.192508697509766,-5.009774208068848
1701857853487596000,6.314595947265625,4.248744964599609,-7.313418865203857,-4.96311092376709
1701857853497189000,6.324189208984375,4.094502925872803,-7.4416961669921875,-4.901691913604736
1701857853506781400,6.333781494140625,3.937356472015381,-7.5746026039123535,-4.826283931732178
1701857853516374800,6.343374755859375,3.7752935886383057,-7.711305618286133,-4.738492488861084
1701857853525968600,6.35296875,3.60794734954834,-7.850876331329346,-4.638624668121338
1701857853535562000,6.36256201171875,3.4347963333129883,-7.9944987297058105,-4.523334980010986
1701857853545154300,6.372154296875,3.256188154220581,-8.142502784729004,-4.389450550079346
1701857853554747600,6.38174755859375,3.083989143371582,-8.284184455871582,-4.246372222900391
1701857853564341500,6.391341552734375,2.9338414669036865,-8.41085147857666,-4.101284503936768
1701857853573934600,6.4009345703125,2.813452959060669,-8.519949913024902,-3.9579434394836426
1701857853583527200,6.410527099609375,2.7264506816864014,-8.611774444580078,-3.8176188468933105
1701857853593120300,6.420120361328125,2.6752097606658936,-8.686633110046387,-3.681851387023926
1701857853602714400,6.42971435546875,2.6583831310272217,-8.744780540466309,-3.5541832447052
1701857853612307500,6.439307373046875,2.6773598194122314,-8.785099029541016,-3.438628673553467
1701857853621899800,6.448899658203125,2.750393867492676,-8.80133056640625,-3.338007926940918
1701857853631493000,6.4584931640625,2.8933370113372803,-8.784183502197266,-3.2614567279815674
1701857853641087000,6.4680869140625,3.103264570236206,-8.725887298583984,-3.2247531414031982
1701857853650680300,6.477680419921875,3.360074281692505,-8.621516227722168,-3.248037099838257
1701857853660272600,6.487272705078125,3.637099504470825,-8.473726272583008,-3.3373425006866455
1701857853669865700,6.49686572265625,3.906083583831787,-8.297525405883789,-3.4733221530914307
1701857853679459800,6.5064599609375,4.159778118133545,-8.115396499633789,-3.6065168380737305
1701857853689053000,6.516052978515625,4.383780002593994,-7.950204372406006,-3.7077102661132812
1701857853698645200,6.525645263671875,4.5828022956848145,-7.8108038902282715,-3.7629306316375732
1701857853708238600,6.535238525390625,4.774368762969971,-7.6964111328125,-3.76045823097229
1701857853717832400,6.54483251953125,4.948911666870117,-7.601879596710205,-3.7269413471221924
1701857853727425800,6.55442578125,5.103437900543213,-7.509871482849121,-3.7050139904022217
1701857853737018000,6.56401806640625,5.250638484954834,-7.412535190582275,-3.695336103439331
1701857853746611500,6.573611572265625,5.396674156188965,-7.311254978179932,-3.686711549758911
1701857853756205300,6.583205322265625,5.5400590896606445,-7.21232271194458,-3.6688597202301025
1701857853765798400,6.59279833984375,5.674275875091553,-7.121344566345215,-3.6413495540618896
1701857853775390700,6.602390625,5.790369033813477,-7.04304838180542,-3.610743999481201
1701857853784984000,6.611984130859375,5.878948211669922,-6.982579708099365,-3.584960460662842
1701857853794578200,6.621578125,5.936751842498779,-6.94219970703125,-3.5680835247039795
1701857853804171300,6.631171142578125,5.967645645141602,-6.919235706329346,-3.5611467361450195
1701857853813763600,6.640763671875,5.976089000701904,-6.909784317016602,-3.565335988998413
1701857853823357000,6.65035693359375,5.9640398025512695,-6.911238670349121,-3.5826528072357178
1701857853832950800,6.65995068359375,5.930239200592041,-6.923620700836182,-3.6147100925445557
1701857853842543900,6.6695439453125,5.875830173492432,-6.9461350440979,-3.6600828170776367
1701857853852136400,6.679136474609375,5.80723237991333,-6.975314140319824,-3.713681936264038
1701857853861729500,6.6887294921875,5.73085880279541,-7.007091522216797,-3.7720441818237305
1701857853871323600,6.69832373046875,5.653158187866211,-7.037479877471924,-3.8322410583496094
1701857853880916700,6.707916748046875,5.579655170440674,-7.063013076782227,-3.892516851425171
1701857853890509000,6.717509033203125,5.513823509216309,-7.081762790679932,-3.9518067836761475
1701857853900102400,6.727102294921875,5.458271026611328,-7.092989444732666,-4.008386611938477
1701857853909696300,6.7366962890625,5.413627624511719,-7.097319602966309,-4.060922145843506
1701857853919289600,6.74628955078125,5.37874698638916,-7.096673965454102,-4.108124256134033
1701857853928882000,6.7558818359375,5.35303258895874,-7.093107223510742,-4.147680759429932
1701857853938475000,6.76547509765625,5.336885929107666,-7.087456226348877,-4.178036689758301
1701857853948069000,6.775069091796875,5.331553936004639,-7.079421520233154,-4.198418140411377
1701857853957662200,6.784662109375,5.338576316833496,-7.067902565002441,-4.208888053894043
1701857853967254500,6.794254638671875,5.358314037322998,-7.051690578460693,-4.210999488830566
1701857853976848000,6.803847900390625,5.389533519744873,-7.030419826507568,-4.206723213195801
1701857853986441700,6.813441650390625,5.430106163024902,-7.004469871520996,-4.197825908660889
1701857853996035000,6.82303515625,5.47731876373291,-6.975029945373535,-4.185490608215332
1701857854005627400,6.83262744140625,5.528050422668457,-6.943994045257568,-4.170371055603027
1701857854015220700,6.842220703125,5.579752445220947,-6.91373348236084,-4.151751518249512
1701857854024814600,6.851814697265625,5.630384922027588,-6.886483669281006,-4.128620147705078
1701857854034407700,6.86140771484375,5.678102016448975,-6.864190101623535,-4.100295543670654
1701857854044000300,6.871000244140625,5.721190452575684,-6.848146915435791,-4.0670952796936035
1701857854053593300,6.88059326171875,5.758159160614014,-6.8389506340026855,-4.030227184295654
1701857854063187500,6.8901875,5.788727283477783,-6.835657119750977,-3.9918441772460938
1701857854072780500,6.899780517578125,5.813353061676025,-6.836523532867432,-3.954397678375244
1701857854082372900,6.909372802734375,5.83265495300293,-6.8398871421813965,-3.920009136199951
1701857854091966200,6.91896630859375,5.846693515777588,-6.844309329986572,-3.8912723064422607
1701857854101560000,6.92856005859375,5.85528564453125,-6.849112033843994,-3.869843006134033
1701857854111153400,6.9381533203125,5.857855796813965,-6.854268550872803,-3.8568015098571777
1701857854120745700,6.947745849609375,5.853217124938965,-6.861191749572754,-3.851529836654663
1701857854130338800,6.9573388671875,5.8397932052612305,-6.871857643127441,-3.8528923988342285
1701857854139933000,6.966932861328125,5.816092491149902,-6.887799263000488,-3.8602688312530518
1701857854149526000,6.976526123046875,5.782042026519775,-6.909391403198242,-3.8728127479553223
1701857854159118300,6.986118408203125,5.738740921020508,-6.936140537261963,-3.8893675804138184
1701857854168711700,6.995711669921875,5.687100410461426,-6.967607498168945,-3.9089272022247314
1701857854178305500,7.005305419921875,5.627520561218262,-7.003192901611328,-3.9314985275268555
1701857854187899000,7.01489892578125,5.56168270111084,-7.041680335998535,-3.9563639163970947
1701857854197491200,7.0244912109375,5.4915571212768555,-7.081752777099609,-3.9827075004577637
1701857854207084300,7.034084228515625,5.419106483459473,-7.122152328491211,-4.009815216064453
1701857854216678400,7.043678466796875,5.346028804779053,-7.161717414855957,-4.037347316741943
1701857854226271500,7.053271484375,5.274131774902344,-7.199525833129883,-4.064572334289551
1701857854235864000,7.062864013671875,5.204436302185059,-7.235238075256348,-4.090910911560059
1701857854245457200,7.07245703125,5.13724422454834,-7.268824100494385,-4.116224765777588
1701857854255051000,7.082051025390625,5.072594165802002,-7.30017614364624,-4.140844821929932
1701857854264644400,7.091644287109375,5.009551525115967,-7.329654216766357,-4.16544771194458
1701857854274236700,7.101236572265625,4.946979999542236,-7.358142852783203,-4.1899285316467285
1701857854283830000,7.110830078125,4.884267807006836,-7.38615608215332,-4.214145183563232
1701857854293423900,7.120423828125,4.821561813354492,-7.413765907287598,-4.2378058433532715
1701857854303017200,7.130017333984375,4.760383605957031,-7.440314769744873,-4.260380744934082
1701857854312609500,7.139609619140625,4.702679634094238,-7.465237140655518,-4.280820846557617
1701857854322202600,7.14920263671875,4.649298667907715,-7.487840175628662,-4.2996134757995605
1701857854331796700,7.158796630859375,4.600240707397461,-7.50830078125,-4.316664218902588
1701857854341389800,7.168389892578125,4.555152416229248,-7.526951313018799,-4.331970691680908
1701857854350982100,7.177982177734375,4.5131516456604,-7.5441083908081055,-4.346065998077393
1701857854360575500,7.187575439453125,4.473954200744629,-7.560434341430664,-4.3582048416137695
1701857854370169300,7.19716943359375,4.436651229858398,-7.576586723327637,-4.368276596069336
1701857854379762700,7.2067626953125,4.400477409362793,-7.592348098754883,-4.377492427825928
1701857854389355000,7.21635498046875,4.365243434906006,-7.607930660247803,-4.385707378387451
1701857854398948000,7.225947998046875,4.330196380615234,-7.624227523803711,-4.392145156860352
1701857854408542200,7.235542236328125,4.294496059417725,-7.641807556152344,-4.39664363861084
1701857854418135300,7.24513525390625,4.257065296173096,-7.659102439880371,-4.4029459953308105
1701857854427728000,7.254727783203125,4.219344139099121,-7.676342964172363,-4.409226417541504
1701857854437321000,7.264321044921875,4.1808247566223145,-7.694038391113281,-4.415072917938232
1701857854446914800,7.273914794921875,4.141313552856445,-7.7124528884887695,-4.420179843902588
1701857854456508200,7.283508056640625,4.100614547729492,-7.7317280769348145,-4.424446105957031
1701857854466100500,7.2931005859375,4.0586066246032715,-7.751594066619873,-4.428418159484863
1701857854475693800,7.30269384765625,4.014987945556641,-7.772069454193115,-4.432291507720947
1701857854485287700,7.31228759765625,3.9705989360809326,-7.793704986572266,-4.434285640716553
1701857854494881000,7.321881103515625,3.925196886062622,-7.817478656768799,-4.432860374450684
1701857854504473300,7.331473388671875,3.877377510070801,-7.841275215148926,-4.432914733886719
1701857854514066400,7.34106640625,3.8272769451141357,-7.864509105682373,-4.4352946281433105
1701857854523660500,7.35066064453125,3.7756762504577637,-7.886991024017334,-4.4395976066589355
1701857854533253600,7.360253662109375,3.721412420272827,-7.907602787017822,-4.448740482330322
1701857854542846000,7.369845947265625,3.666177749633789,-7.927432537078857,-4.459298610687256
1701857854552439300,7.379439208984375,3.6099140644073486,-7.94730281829834,-4.469817638397217
1701857854562033200,7.389033203125,3.5538270473480225,-7.968569278717041,-4.476897239685059
1701857854571626500,7.39862646484375,3.4982330799102783,-7.993039608001709,-4.477063179016113
1701857854581218800,7.40821875,3.4402952194213867,-8.01621150970459,-4.480525493621826
1701857854590812000,7.41781201171875,3.3809564113616943,-8.037413597106934,-4.487706661224365
1701857854600406000,7.427406005859375,3.322087287902832,-8.056477546691895,-4.49747371673584
1701857854609999000,7.4369990234375,3.263366937637329,-8.074319839477539,-4.508457660675049
1701857854619591400,7.44659130859375,3.205331802368164,-8.091429710388184,-4.519402503967285
1701857854629184800,7.456184814453125,3.1487293243408203,-8.110353469848633,-4.525268077850342
1701857854638779000,7.46577880859375,3.092323064804077,-8.128670692443848,-4.531295299530029
1701857854648372000,7.4753720703125,3.0366194248199463,-8.145998001098633,-4.537846088409424
1701857854657964300,7.48496435546875,2.981919288635254,-8.161017417907715,-4.547124862670898
1701857854667557600,7.4945576171875,2.929753303527832,-8.173388481140137,-4.558799743652344
1701857854677151500,7.5041513671875,2.8804678916931152,-8.184619903564453,-4.570042133331299
1701857854686744800,7.513744873046875,2.832310914993286,-8.19495964050293,-4.581599235534668
1701857854696337200,7.523337158203125,2.78538179397583,-8.204808235168457,-4.592728137969971
1701857854705930200,7.53293017578125,2.7389309406280518,-8.216059684753418,-4.600545883178711
1701857854715524400,7.5425244140625,2.6921796798706055,-8.229223251342773,-4.604609966278076
1701857854725117400,7.552117431640625,2.644429922103882,-8.242860794067383,-4.607886791229248
1701857854734709800,7.561709716796875,2.5965518951416016,-8.255746841430664,-4.612042427062988
1701857854744303000,7.57130322265625,2.5495030879974365,-8.267866134643555,-4.616580009460449
1701857854753897000,7.58089697265625,2.5040977001190186,-8.280116081237793,-4.619476795196533
1701857854763490300,7.590490234375,2.4604299068450928,-8.292452812194824,-4.62081241607666
1701857854773082600,7.60008251953125,2.4180054664611816,-8.305436134338379,-4.6198883056640625
1701857854782675700,7.60967578125,2.375680446624756,-8.318340301513672,-4.618630409240723
1701857854792269800,7.619269775390625,2.3339736461639404,-8.33045482635498,-4.6180596351623535
1701857854801863000,7.62886279296875,2.2924206256866455,-8.34308910369873,-4.616065502166748
1701857854811455200,7.638455322265625,2.2504818439483643,-8.356768608093262,-4.611954212188721
1701857854821048600,7.648048583984375,2.207184076309204,-8.37017822265625,-4.6085615158081055
1701857854830642700,7.657642578125,2.162367582321167,-8.38319206237793,-4.606152534484863
1701857854840235800,7.66723583984375,2.1156654357910156,-8.396854400634766,-4.602952480316162
1701857854849828000,7.676828125,2.0665338039398193,-8.411553382873535,-4.5984344482421875
1701857854859421400,7.68642138671875,2.0148801803588867,-8.4258394241333,-4.59520149230957
1701857854869015300,7.696015380859375,1.962539792060852,-8.440977096557617,-4.59006929397583
1701857854878608600,7.705608642578125,1.9097660779953003,-8.456987380981445,-4.582852840423584
1701857854888201000,7.715200927734375,1.857743501663208,-8.473577499389648,-4.573583126068115
1701857854897794000,7.7247939453125,1.8064640760421753,-8.4917573928833,-4.560388088226318
1701857854907388200,7.73438818359375,1.7559276819229126,-8.511551856994629,-4.543191432952881
1701857854916981200,7.743981201171875,1.7072021961212158,-8.531611442565918,-4.524097442626953
1701857854926573600,7.753573486328125,1.6592669486999512,-8.548934936523438,-4.5092058181762695
1701857854936167000,7.7631669921875,1.6135730743408203,-8.563916206359863,-4.49734354019165
1701857854945760800,7.7727607421875,1.568716049194336,-8.57749080657959,-4.487334728240967
1701857854955354000,7.78235400390625,1.523870825767517,-8.591633796691895,-4.475716590881348
1701857854964946400,7.791946533203125,1.4799922704696655,-8.606204986572266,-4.462425708770752
1701857854974539500,7.80153955078125,1.437686562538147,-8.621186256408691,-4.447312831878662
1701857854984133600,7.811133544921875,1.3981083631515503,-8.6361665725708,-4.430833339691162
1701857854993726700,7.820726806640625,1.3620374202728271,-8.65060043334961,-4.413882732391357
1701857855003319000,7.830319091796875,1.3293802738189697,-8.664474487304688,-4.396590709686279
1701857855012912400,7.839912353515625,1.3001881837844849,-8.676956176757812,-4.38067626953125
1701857855022506200,7.84950634765625,1.2732394933700562,-8.688273429870605,-4.36613655090332
1701857855032099600,7.859099609375,1.2477308511734009,-8.699918746948242,-4.350282669067383
1701857855041692000,7.86869189453125,1.2226072549819946,-8.711633682250977,-4.333944797515869
1701857855051285200,7.87828515625,1.197314977645874,-8.72352409362793,-4.3170552253723145
1701857855060879000,7.887879150390625,1.170852541923523,-8.735716819763184,-4.299621105194092
1701857855070472400,7.897472412109375,1.1428817510604858,-8.748043060302734,-4.2820515632629395
1701857855080064800,7.907064697265625,1.1130861043930054,-8.760514259338379,-4.264366149902344
1701857855089657900,7.916657958984375,1.0819153785705566,-8.77316951751709,-4.246333599090576
1701857855099252000,7.926251953125,1.050310730934143,-8.785541534423828,-4.228652000427246
1701857855108845000,7.935844970703125,1.0188370943069458,-8.79764175415039,-4.211158752441406
1701857855118437400,7.945437255859375,0.9885101914405823,-8.808829307556152,-4.194969177246094
1701857855128030700,7.95503076171875,0.9607605934143066,-8.817514419555664,-4.183154582977295
1701857855137624600,7.96462451171875,0.9346168041229248,-8.827054023742676,-4.168933391571045
1701857855147218000,7.974218017578125,0.9105242490768433,-8.83626651763916,-4.154721736907959
1701857855156810200,7.983810302734375,0.8882910013198853,-8.844552040100098,-4.141886234283447
1701857855166403300,7.9934033203125,0.8677040934562683,-8.851402282714844,-4.13160514831543
1701857855175997400,8.00299755859375,0.8477543592453003,-8.856910705566406,-4.1239333152771
1701857855185590500,8.012590576171876,0.8273211717605591,-8.861479759216309,-4.1182637214660645
1701857855195182800,8.022182861328124,0.8054614067077637,-8.865300178527832,-4.114373207092285
1701857855204776200,8.031776123046875,0.7812409400939941,-8.868535041809082,-4.112072467803955
1701857855214370000,8.0413701171875,0.75447016954422,-8.871209144592285,-4.111303329467773
1701857855223963400,8.05096337890625,0.7251232266426086,-8.873422622680664,-4.111804485321045
1701857855233555700,8.0605556640625,0.6931039094924927,-8.875435829162598,-4.112982749938965
1701857855243149000,8.070149169921875,0.658727765083313,-8.877028465270996,-4.1151957511901855
1701857855252743000,8.079742919921875,0.622134804725647,-8.87861156463623,-4.117473602294922
1701857855262336000,8.0893359375,0.5834026336669922,-8.880208015441895,-4.119701385498047
1701857855271928600,8.098928466796876,0.5436719655990601,-8.88184928894043,-4.121598243713379
1701857855281521700,8.108521728515624,0.5032514333724976,-8.883466720581055,-4.12324333190918
1701857855291115800,8.11811572265625,0.4624355733394623,-8.885201454162598,-4.124286651611328
1701857855300708900,8.127708984375,0.4215036928653717,-8.887301445007324,-4.124149799346924
1701857855310301200,8.13730126953125,0.3807012438774109,-8.89022445678711,-4.121814250946045
1701857855319894500,8.14689453125,0.34078750014305115,-8.89392375946045,-4.117325782775879
1701857855329488400,8.15648828125,0.3025451898574829,-8.89831829071045,-4.110812187194824
1701857855339081700,8.166081787109375,0.266828715801239,-8.903112411499023,-4.102898597717285
1701857855348674000,8.175674072265625,0.2341759204864502,-8.908099174499512,-4.09406042098999
1701857855358267100,8.18526708984375,0.20433171093463898,-8.91325855255127,-4.084418296813965
1701857855367861200,8.194861328125,0.1771216094493866,-8.918466567993164,-4.074306964874268
1701857855377454300,8.204454345703125,0.1568233072757721,-8.925307273864746,-4.060133457183838
1701857855387046700,8.214046630859375,0.13877499103546143,-8.931689262390137,-4.046732425689697
1701857855396640000,8.223639892578126,0.12230291962623596,-8.937909126281738,-4.033509254455566
1701857855406233900,8.23323388671875,0.10696526616811752,-8.943345069885254,-4.021881103515625
1701857855415827200,8.2428271484375,0.09380552172660828,-8.948582649230957,-4.010543346405029
1701857855425419500,8.25241943359375,0.08336178213357925,-8.953320503234863,-4.000185489654541
1701857855435012900,8.262012939453125,0.07501282542943954,-8.956674575805664,-3.9928338527679443
1701857855444606700,8.271606689453124,0.06699194759130478,-8.957164764404297,-3.9918789863586426
1701857855454199800,8.28119970703125,0.05858564376831055,-8.958760261535645,-3.988429069519043
1701857855463792000,8.290792236328125,0.051178157329559326,-8.96204662322998,-3.98114013671875
1701857855473385500,8.300385498046875,0.044588539749383926,-8.964334487915039,-3.976064682006836
1701857855482979600,8.3099794921875,0.038372162729501724,-8.965232849121094,-3.9741053581237793
1701857855492572700,8.31957275390625,0.0319155678153038,-8.965709686279297,-3.973085880279541
1701857855502165000,8.3291650390625,0.02485516108572483,-8.966046333312988,-3.9723777770996094
1701857855511758300,8.33875830078125,0.01741449534893036,-8.966444969177246,-3.9715185165405273
1701857855521352200,8.348352294921876,0.009452767670154572,-8.967058181762695,-3.9701595306396484
1701857855530945300,8.3579453125,0.0017618130659684539,-8.967918395996094,-3.968229055404663
1701857855540537900,8.367537841796874,-0.005786160938441753,-8.969054222106934,-3.9656548500061035
1701857855550131000,8.377130859375,-0.015566019341349602,-8.97040843963623,-3.9625656604766846
1701857855559725000,8.38672509765625,-0.027249639853835106,-8.972307205200195,-3.9582014083862305
1701857855569318100,8.396318115234376,-0.04037982225418091,-8.97463321685791,-3.952813148498535
1701857855578910500,8.405910400390624,-0.05459082871675491,-8.976612091064453,-3.9481441974639893
1701857855588503800,8.41550390625,-0.06877565383911133,-8.976377487182617,-3.948456287384033
1701857855598097700,8.42509765625,-0.08468923717737198,-8.977156639099121,-3.946373462677002
1701857855607690800,8.434690673828126,-0.10094064474105835,-8.979426383972168,-3.940824031829834
1701857855617283300,8.444283447265626,-0.11769052594900131,-8.980974197387695,-3.9368302822113037
1701857855626876400,8.45387646484375,-0.1349685788154602,-8.982195854187012,-3.9334890842437744
1701857855636470500,8.463470458984375,-0.1529461145401001,-8.983122825622559,-3.9307124614715576
1701857855646063600,8.473063720703125,-0.17295967042446136,-8.984119415283203,-3.9276034832000732
1701857855655656000,8.482656005859376,-0.1944335550069809,-8.984846115112305,-3.9249370098114014
1701857855665249300,8.492249267578124,-0.21681299805641174,-8.98576545715332,-3.921656847000122
1701857855674843100,8.501843017578125,-0.24092179536819458,-8.987343788146973,-3.91662859916687
1701857855684436500,8.5114365234375,-0.2670121192932129,-8.98892593383789,-3.9113049507141113
1701857855694028800,8.52102880859375,-0.29394346475601196,-8.991206169128418,-3.9041244983673096
1701857855703622100,8.5306220703125,-0.3175203204154968,-8.993948936462402,-3.8959555625915527
1701857855713216000,8.540216064453125,-0.33903998136520386,-8.994976997375488,-3.8917644023895264
1701857855722809000,8.54980908203125,-0.3588826358318329,-8.996173858642578,-3.887213945388794
1701857855732401400,8.5594013671875,-0.37689408659935,-8.998970031738281,-3.8790299892425537
1701857855741994800,8.568994873046876,-0.3937201499938965,-9.001395225524902,-3.8717262744903564
1701857855751588600,8.578588623046874,-0.40953266620635986,-9.003203392028809,-3.8658740520477295
1701857855761182000,8.588181884765625,-0.425638347864151,-9.005034446716309,-3.8598685264587402
1701857855770774300,8.597774169921875,-0.44132164120674133,-9.006731986999512,-3.854142189025879
1701857855780367400,8.607367431640625,-0.4562407433986664,-9.008047103881836,-3.8493289947509766
1701857855789961500,8.61696142578125,-0.47075724601745605,-9.00918960571289,-3.844902276992798
1701857855799554600,8.626554443359375,-0.48400676250457764,-9.01020622253418,-3.8408727645874023
1701857855809147100,8.636147216796875,-0.4959254860877991,-9.011059761047363,-3.837348222732544
1701857855818740200,8.645740234375,-0.5069392323493958,-9.011744499206543,-3.8343005180358887
1701857855828334000,8.655333984375,-0.5165511965751648,-9.012418746948242,-3.831429958343506
1701857855837927400,8.664927490234374,-0.5250486135482788,-9.012782096862793,-3.8294222354888916
1701857855847519700,8.674519775390625,-0.5316206812858582,-9.013349533081055,-3.827179193496704
1701857855857113000,8.684113037109375,-0.5362533926963806,-9.014229774475098,-3.8244571685791016
1701857855866707000,8.69370703125,-0.5385758876800537,-9.014326095581055,-3.823904514312744
1701857855876300000,8.703300048828124,-0.5389673113822937,-9.01530933380127,-3.8215293884277344
1701857855885892600,8.712892578125,-0.5379014015197754,-9.015080451965332,-3.822218894958496
1701857855895485700,8.722485595703125,-0.5360150933265686,-9.014307975769043,-3.8243086338043213
1701857855905079800,8.732079833984375,-0.5335687398910522,-9.013236045837402,-3.827173948287964
1701857855914673000,8.7416728515625,-0.5318198204040527,-9.011884689331055,-3.8305978775024414
1701857855924265200,8.75126513671875,-0.5298566818237305,-9.010665893554688,-3.8337345123291016
1701857855933858600,8.760858642578125,-0.5288017988204956,-9.009651184082031,-3.8362679481506348
1701857855943452400,8.770452392578125,-0.5288018584251404,-9.008712768554688,-3.8384687900543213
1701857855953045800,8.780045654296876,-0.5301251411437988,-9.00777816772461,-3.8404788970947266
1701857855962638000,8.78963818359375,-0.5330378413200378,-9.007015228271484,-3.8418664932250977
1701857855972231200,8.799231201171875,-0.5368594527244568,-9.00657844543457,-3.8423569202423096
1701857855981825300,8.8088251953125,-0.541299045085907,-9.006412506103516,-3.842122793197632
1701857855991418400,8.81841845703125,-0.5456320643424988,-9.006274223327637,-3.8418335914611816
1701857856001010700,8.8280107421875,-0.5490145683288574,-9.006221771240234,-3.841478109359741
1701857856010604000,8.83760400390625,-0.5507868528366089,-9.006329536437988,-3.840968370437622
1701857856020198000,8.847197998046875,-0.5516939759254456,-9.006593704223633,-3.840219736099243
1701857856029791200,8.856791259765625,-0.5526930093765259,-9.006860733032227,-3.839449882507324
1701857856039383600,8.866383544921876,-0.5538038015365601,-9.007259368896484,-3.8383564949035645
1701857856048976600,8.8759765625,-0.5554612278938293,-9.007935523986816,-3.836528778076172
1701857856058570800,8.88557080078125,-0.5556495189666748,-9.008705139160156,-3.834691286087036
1701857856068163800,8.895163818359375,-0.5533708930015564,-9.010152816772461,-3.8316214084625244
1701857856077756200,8.904756103515625,-0.551235556602478,-9.011878967285156,-3.8278651237487793
1701857856087349500,8.914349609375,-0.5488094091415405,-9.013790130615234,-3.8237130641937256
1701857856096943400,8.923943359375,-0.5461951494216919,-9.016051292419434,-3.8187549114227295
1701857856106536700,8.93353662109375,-0.543077290058136,-9.018695831298828,-3.8129491806030273
1701857856116129000,8.94312890625,-0.5396844148635864,-9.021306991577148,-3.807248830795288
1701857856125722000,8.95272216796875,-0.5361156463623047,-9.023618698120117,-3.8022732734680176
1701857856135316200,8.962316162109374,-0.5323136448860168,-9.02556324005127,-3.798187732696533
1701857856144909300,8.971909423828125,-0.5283949375152588,-9.026755332946777,-3.7959017753601074
1701857856154501600,8.981501708984375,-0.5245715379714966,-9.02733039855957,-3.7950658798217773
1701857856164095000,8.991094970703125,-0.5211609601974487,-9.027324676513672,-3.7955493927001953
1701857856173688800,9.000688720703126,-0.5183342099189758,-9.026969909667969,-3.796779155731201
1701857856183282200,9.0102822265625,-0.5164105892181396,-9.026533126831055,-3.7980799674987793
1701857856192874500,9.01987451171875,-0.5163350105285645,-9.026106834411621,-3.7991015911102295
1701857856202467600,9.029467529296875,-0.517934262752533,-9.025741577148438,-3.799750804901123
1701857856212061700,9.039061767578126,-0.5206051468849182,-9.025513648986816,-3.7999279499053955
1701857856221654800,9.04865478515625,-0.5242969989776611,-9.02551555633545,-3.79941725730896
1701857856231247000,9.0582470703125,-0.5284799337387085,-9.02554988861084,-3.7987542152404785
1701857856240840400,9.06784033203125,-0.5328525304794312,-9.025782585144043,-3.797593355178833
1701857856250434300,9.077434326171876,-0.5375569462776184,-9.026019096374512,-3.7963688373565674
1701857856260027600,9.087027587890624,-0.5419737696647644,-9.026345252990723,-3.7949657440185547
1701857856269620000,9.096619873046874,-0.5458908677101135,-9.026448249816895,-3.7941548824310303
1701857856279213300,9.10621337890625,-0.5498665571212769,-9.026464462280273,-3.793544292449951
1701857856288807200,9.11580712890625,-0.5540452599525452,-9.02633285522461,-3.7932510375976562
1701857856298400300,9.125400146484376,-0.5576287508010864,-9.02614688873291,-3.793165445327759
1701857856307992600,9.13499267578125,-0.5598480105400085,-9.02587604522705,-3.7934844493865967
1701857856317586000,9.1445859375,-0.5606734752655029,-9.025530815124512,-3.794184684753418
1701857856327180000,9.154179931640625,-0.5602057576179504,-9.025155067443848,-3.79514479637146
1701857856336773000,9.163773193359376,-0.5588895678520203,-9.024796485900879,-3.7961924076080322
1701857856346365400,9.173365478515626,-0.5567169785499573,-9.024589538574219,-3.7970032691955566
1701857856355958800,9.182958740234374,-0.5531788468360901,-9.024800300598145,-3.797020196914673
1701857856365552600,9.192552734375,-0.5487443804740906,-9.025247573852539,-3.796600818634033
1701857856375146000,9.20214599609375,-0.5432929992675781,-9.025470733642578,-3.796854019165039
1701857856384738300,9.21173828125,-0.5369656682014465,-9.025483131408691,-3.797724485397339
1701857856394331400,9.221331298828124,-0.5298126339912415,-9.025425910949707,-3.7988638877868652
1701857856403925500,9.230925537109375,-0.5224888324737549,-9.02511978149414,-3.8006057739257812
1701857856413518600,9.2405185546875,-0.5160747766494751,-9.024619102478027,-3.8026721477508545
1701857856423111000,9.25011083984375,-0.5105603337287903,-9.02402400970459,-3.804828405380249
1701857856432704300,9.259704345703126,-0.5066326260566711,-9.023219108581543,-3.807262659072876
1701857856442298000,9.269298095703125,-0.5046581625938416,-9.02227783203125,-3.809751510620117
1701857856451891500,9.278891357421875,-0.5040297508239746,-9.021430015563965,-3.8118419647216797
1701857856461483800,9.28848388671875,-0.5038089752197266,-9.020520210266113,-3.814023494720459
1701857856471076900,9.298076904296876,-0.5035807490348816,-9.019617080688477,-3.816190719604492
1701857856480671000,9.3076708984375,-0.5030632019042969,-9.01874828338623,-3.8183090686798096
1701857856490264000,9.31726416015625,-0.5020219683647156,-9.017842292785645,-3.820587158203125
1701857856499856400,9.3268564453125,-0.5010231137275696,-9.016956329345703,-3.822808027267456
1701857856509449700,9.33644970703125,-0.5004159808158875,-9.016091346740723,-3.8249282836914062
1701857856519043600,9.346043701171874,-0.4999029338359833,-9.01530933380127,-3.8268375396728516
1701857856528637000,9.355636962890625,-0.4998582899570465,-9.014753341674805,-3.8281502723693848
1701857856538229200,9.365229248046875,-0.5007164478302002,-9.014199256896973,-3.829343557357788
1701857856547822300,9.374822265625,-0.5015860795974731,-9.013753890991211,-3.8302793502807617
1701857856557416400,9.38441650390625,-0.5026090145111084,-9.013646125793457,-3.830397844314575
1701857856567009500,9.394009521484374,-0.503861129283905,-9.013662338256836,-3.8301942348480225
1701857856576601900,9.403601806640625,-0.5050018429756165,-9.013872146606445,-3.82955265045166
1701857856586195200,9.4131953125,-0.5059056878089905,-9.014008522033691,-3.8291103839874268
1701857856595789000,9.4227890625,-0.5063285827636719,-9.014337539672852,-3.8282811641693115
1701857856605382400,9.43238232421875,-0.506389319896698,-9.014620780944824,-3.827606678009033
1701857856614974700,9.441974609375,-0.505964457988739,-9.014915466308594,-3.826967716217041
1701857856624567800,9.45156787109375,-0.505281388759613,-9.015157699584961,-3.826488733291626
1701857856634162000,9.461161865234375,-0.5035404562950134,-9.015445709228516,-3.826037645339966
1701857856643755000,9.470755126953126,-0.5011919736862183,-9.015521049499512,-3.8261706829071045
1701857856653347300,9.480347412109374,-0.4984498918056488,-9.015286445617676,-3.827080011367798
1701857856662940700,9.489940673828125,-0.4950087070465088,-9.01499080657959,-3.8282227516174316
1701857856672534500,9.499534423828125,-0.4912450611591339,-9.014567375183105,-3.8297080993652344
1701857856682128000,9.5091279296875,-0.4873000681400299,-9.014124870300293,-3.831251382827759
1701857856691720200,9.51872021484375,-0.4835536479949951,-9.013581275939941,-3.8330037593841553
1701857856701313300,9.528313232421874,-0.4801695644855499,-9.012925148010254,-3.834972858428955
1701857856710907400,9.537907470703125,-0.47673746943473816,-9.012320518493652,-3.8368213176727295
1701857856720500500,9.54750048828125,-0.47400766611099243,-9.011800765991211,-3.8383796215057373
1701857856730092800,9.5570927734375,-0.4742473065853119,-9.011455535888672,-3.839158535003662
1701857856739686100,9.56668603515625,-0.4749452769756317,-9.010544776916504,-3.8412106037139893
1701857856749280000,9.576280029296875,-0.47206076979637146,-9.008631706237793,-3.846050977706909
1701857856758873300,9.585873291015625,-0.46681588888168335,-9.006887435913086,-3.8507730960845947
1701857856768465700,9.595465576171875,-0.4637286365032196,-9.005599021911621,-3.8541574478149414
1701857856778059000,9.60505908203125,-0.4598240852355957,-9.004496574401855,-3.8572022914886475
1701857856787652900,9.61465283203125,-0.4652426540851593,-9.006568908691406,-3.8517098426818848
1701857856797246000,9.624245849609375,-0.465772420167923,-9.007755279541016,-3.8488686084747314
1701857856806838300,9.63383837890625,-0.4646540582180023,-9.007524490356445,-3.849543809890747
1701857856816431600,9.643431640625,-0.46090567111968994,-9.006979942321777,-3.851269483566284
1701857856826025500,9.653025390625,-0.45616668462753296,-9.005964279174805,-3.854208469390869
1701857856835618800,9.662618896484375,-0.4490566849708557,-9.00418472290039,-3.8591952323913574
1701857856845211100,9.672211181640625,-0.447334349155426,-9.00389575958252,-3.860072135925293
1701857856854804500,9.681804443359376,-0.44691896438598633,-9.00501823425293,-3.8574984073638916
1701857856864398300,9.6913984375,-0.4471944272518158,-9.005979537963867,-3.855224847793579
1701857856873991400,9.700991455078125,-0.447458952665329,-9.006759643554688,-3.853367328643799
1701857856883583700,9.710583740234375,-0.44687652587890625,-9.007145881652832,-3.8525338172912598
1701857856893177000,9.720177001953125,-0.44585567712783813,-9.006792068481445,-3.853477954864502
1701857856902771200,9.729771240234374,-0.44398289918899536,-9.006587982177734,-3.854170083999634
1701857856912364300,9.7393642578125,-0.4414684474468231,-9.006442070007324,-3.854801654815674
1701857856921956600,9.74895654296875,-0.43931981921195984,-9.006363868713379,-3.855229616165161
1701857856931550000,9.758550048828125,-0.43722155690193176,-9.006148338317871,-3.855971097946167
1701857856941143800,9.768143798828126,-0.4347531199455261,-9.005925178527832,-3.8567745685577393
1701857856950737000,9.77773681640625,-0.4316492974758148,-9.005895614624023,-3.8571882247924805
1701857856960329500,9.78732958984375,-0.42740339040756226,-9.005515098571777,-3.8585519790649414
1701857856969922600,9.796922607421875,-0.42324957251548767,-9.004920959472656,-3.86039400100708
1701857856979516700,9.8065166015625,-0.41910502314567566,-9.00550365447998,-3.8594858646392822
1701857856989109800,9.81610986328125,-0.4156399369239807,-9.006664276123047,-3.8571553230285645
1701857856998702000,9.8257021484375,-0.4129541218280792,-9.007384300231934,-3.85575795173645
1701857857008295400,9.83529541015625,-0.4105932414531708,-9.007369995117188,-3.8560450077056885
1701857857017889300,9.84488916015625,-0.4085046052932739,-9.007473945617676,-3.8560268878936768
1701857857027482400,9.854482421875,-0.4066733717918396,-9.007277488708496,-3.8566782474517822
1701857857037075000,9.864074951171874,-0.4049742817878723,-9.006689071655273,-3.8582308292388916
1701857857046668000,9.87366796875,-0.40342622995376587,-9.006300926208496,-3.8592967987060547
1701857857056262100,9.88326220703125,-0.4022851884365082,-9.006104469299316,-3.8598740100860596
1701857857065855200,9.892855224609375,-0.4022643566131592,-9.006146430969238,-3.859780788421631
1701857857075447600,9.902447509765626,-0.4029896855354309,-9.006494522094727,-3.8588926792144775
1701857857085041000,9.912041015625,-0.40281498432159424,-9.006865501403809,-3.858043670654297
1701857857094634800,9.921634765625,-0.4040394127368927,-9.007375717163086,-3.8567256927490234
1701857857104228000,9.93122802734375,-0.40882638096809387,-9.008695602416992,-3.8531363010406494
1701857857113820400,9.9408203125,-0.40957382321357727,-9.008479118347168,-3.8535611629486084
1701857857123413500,9.95041357421875,-0.4120901823043823,-9.008769989013672,-3.852611780166626
1701857857133007600,9.960007568359375,-0.4187834560871124,-9.010945320129395,-3.8468008041381836
1701857857142600700,9.9696005859375,-0.4238285422325134,-9.010333061218262,-3.847682237625122
1701857857152193000,9.979193115234375,-0.42699000239372253,-9.009533882141113,-3.8492014408111572
1701857857161786400,9.988786376953126,-0.4285750389099121,-9.00897216796875,-3.850341796875
1701857857171380200,9.998380126953125,-0.4277643859386444,-9.00801944732666,-3.852660894393921
1701857857180973600,10.0079736328125,-0.4265652596950531,-9.007636070251465,-3.853689193725586
1701857857190566000,10.01756591796875,-0.42364200949668884,-9.007583618164062,-3.8541338443756104
1701857857200159000,10.027158935546876,-0.41922327876091003,-9.007550239562988,-3.8546953201293945
1701857857209753000,10.036753173828124,-0.411614328622818,-9.007564544677734,-3.855483055114746
1701857857219346200,10.04634619140625,-0.4047843813896179,-9.007723808288574,-3.8558332920074463
1701857857228938500,10.0559384765625,-0.40038859844207764,-9.00839614868164,-3.854721784591675
1701857857238531800,10.06553173828125,-0.3971323072910309,-9.009235382080078,-3.8530960083007812
1701857857248125700,10.075125732421874,-0.3945731818675995,-9.010339736938477,-3.8507754802703857
1701857857257719000,10.084718994140625,-0.3949680030345917,-9.01235580444336,-3.846013069152832
1701857857267311400,10.094311279296875,-0.3953441083431244,-9.014726638793945,-3.84041428565979
1701857857276904400,10.103904541015625,-0.39501962065696716,-9.016390800476074,-3.8365397453308105
1701857857286498600,10.11349853515625,-0.39681681990623474,-9.01762866973877,-3.8334434032440186
1701857857296091600,10.123091552734374,-0.399551659822464,-9.018457412719727,-3.831212282180786
1701857857305684200,10.132684326171875,-0.4009070098400116,-9.017687797546387,-3.8328795433044434
1701857857315277300,10.14227734375,-0.40085726976394653,-9.015050888061523,-3.839082717895508
1701857857324871200,10.15187109375,-0.40015190839767456,-9.011507987976074,-3.847463369369507
1701857857334464500,10.161464599609374,-0.4018246531486511,-9.009550094604492,-3.851874351501465
1701857857344056800,10.171056884765624,-0.4016893208026886,-9.007258415222168,-3.8572440147399902
1701857857353650200,10.180650146484375,-0.4030596911907196,-9.004326820373535,-3.863940954208374
1701857857363244000,10.190244140625,-0.4037573039531708,-9.001325607299805,-3.87085223197937
1701857857372837000,10.199837158203126,-0.4060629606246948,-8.999541282653809,-3.8747568130493164
1701857857382429700,10.2094296875,-0.40559306740760803,-8.99802303314209,-3.8783316612243652
1701857857392022800,10.219022705078125,-0.4042479991912842,-8.997532844543457,-3.8796112537384033
1701857857401616600,10.22861669921875,-0.40165722370147705,-8.99609088897705,-3.8832201957702637
1701857857411210000,10.2382099609375,-0.40030306577682495,-8.99445915222168,-3.8871402740478516
1701857857420802300,10.24780224609375,-0.39878255128860474,-8.993314743041992,-3.889941453933716
1701857857430395600,10.257395751953124,-0.3962423801422119,-8.99472427368164,-3.8869400024414062
1701857857439989500,10.266989501953125,-0.3987729549407959,-8.995597839355469,-3.884661912918091
1701857857449582600,10.27658251953125,-0.4039198160171509,-8.998849868774414,-3.8765878677368164
1701857857459175200,10.286175048828126,-0.4029971957206726,-8.998307228088379,-3.8779420852661133
1701857857468768300,10.295768310546874,-0.3980318307876587,-8.991011619567871,-3.895338535308838
1701857857478362400,10.3053623046875,-0.39428165555000305,-8.984636306762695,-3.910400152206421
1701857857487955500,10.31495556640625,-0.388070672750473,-8.977456092834473,-3.9274752140045166
1701857857497547800,10.3245478515625,-0.38051608204841614,-8.971854209899902,-3.9409914016723633
1701857857507141000,10.33414111328125,-0.38047337532043457,-8.968499183654785,-3.9486243724823
1701857857516735000,10.34373486328125,-0.37918803095817566,-8.967004776000977,-3.9521448612213135
1701857857526328300,10.353328369140625,-0.37853801250457764,-8.964856147766113,-3.9570772647857666
1701857857535920600,10.362920654296875,-0.3798149526119232,-8.964422225952148,-3.9579365253448486
1701857857545513700,10.372513671875,-0.38287755846977234,-8.968502044677734,-3.948387384414673
1701857857555107800,10.38210791015625,-0.382953405380249,-8.96990966796875,-3.945181131362915
1701857857564701000,10.391700927734375,-0.37972790002822876,-8.968733787536621,-3.9481654167175293
1701857857574293200,10.401293212890625,-0.3704295754432678,-8.969401359558105,-3.947531223297119
1701857857583886600,10.410886474609375,-0.3637029826641083,-8.963409423828125,-3.961742639541626
1701857857593480400,10.42048046875,-0.3635765016078949,-8.956768035888672,-3.9767472743988037
1701857857603073800,10.43007373046875,-0.3638449013233185,-8.948263168334961,-3.995819330215454
1701857857612666000,10.439666015625,-0.3694354295730591,-8.94585132598877,-4.000707626342773
1701857857622259200,10.44925927734375,-0.3787270486354828,-8.949728012084961,-3.9911551475524902
1701857857631853300,10.458853271484376,-0.38617491722106934,-8.953062057495117,-3.9829540252685547
1701857857641446400,10.4684462890625,-0.3951414227485657,-8.952788352966309,-3.982692241668701
1701857857651038700,10.478038818359375,-0.4059307277202606,-8.953508377075195,-3.9799864292144775
1701857857660632000,10.487632080078125,-0.415235698223114,-8.959467887878418,-3.9655892848968506
1701857857670226000,10.497225830078126,-0.4266715943813324,-8.964238166809082,-3.95357608795166
1701857857679819300,10.5068193359375,-0.4349796772003174,-8.966058731079102,-3.948542833328247
1701857857689411600,10.51641162109375,-0.44571825861930847,-8.968256950378418,-3.942347526550293
1701857857699004700,10.526004638671875,-0.45343926548957825,-8.970596313476562,-3.936138868331909
1701857857708598800,10.535598876953125,-0.45949438214302063,-8.972318649291992,-3.9315085411071777
1701857857718191900,10.54519189453125,-0.4635007977485657,-8.974377632141113,-3.926335573196411
1701857857727784200,10.5547841796875,-0.4651220738887787,-8.976356506347656,-3.921616315841675
1701857857737377500,10.56437744140625,-0.46506816148757935,-8.977931022644043,-3.918016195297241
1701857857746971400,10.573971435546875,-0.4655928313732147,-8.980774879455566,-3.911431074142456
1701857857756564700,10.583564697265626,-0.46852636337280273,-8.98486042022705,-3.9016849994659424
1701857857766157000,10.593156982421876,-0.47645312547683716,-8.992298126220703,-3.883549928665161
1701857857775750400,10.60275048828125,-0.48665112257003784,-9.002272605895996,-3.859100580215454
1701857857785344300,10.61234423828125,-0.49165457487106323,-9.016684532165527,-3.824664831161499
1701857857794937300,10.621937255859375,-0.4979759752750397,-9.025923728942871,-3.801987886428833
1701857857804529700,10.63152978515625,-0.5041995644569397,-9.035054206848145,-3.779412031173706
1701857857814123000,10.641123046875,-0.5107337832450867,-9.045397758483887,-3.753706455230713
1701857857823717000,10.650717041015625,-0.5167743563652039,-9.056772232055664,-3.7253475189208984
1701857857833310200,10.660310302734375,-0.521729588508606,-9.070029258728027,-3.692255735397339
1701857857842902500,10.669902587890626,-0.5231599807739258,-9.085709571838379,-3.6532959938049316
1701857857852496000,10.679495849609374,-0.5260514616966248,-9.102088928222656,-3.6118741035461426
1701857857862089700,10.68908984375,-0.5258548855781555,-9.121232986450195,-3.563278913497925
1701857857871683000,10.69868310546875,-0.5155385732650757,-9.141207695007324,-3.5132505893707275
1701857857881275400,10.708275390625,-0.4973682463169098,-9.159391403198242,-3.4682211875915527
1701857857890868500,10.717868408203126,-0.47540292143821716,-9.177894592285156,-3.4220778942108154
1701857857900462600,10.727462646484375,-0.453879177570343,-9.199044227600098,-3.367784261703491
1701857857910055700,10.7370556640625,-0.42985475063323975,-9.222046852111816,-3.3074865341186523
1701857857919648000,10.74664794921875,-0.41004231572151184,-9.242624282836914,-3.252098798751831
1701857857929241300,10.756241455078126,-0.4040088951587677,-9.259207725524902,-3.205345630645752
1701857857938835200,10.765835205078124,-0.4103566110134125,-9.264763832092285,-3.18843936920166
1701857857948428500,10.775428466796875,-0.4185726046562195,-9.263123512268066,-3.1921353340148926
1701857857958020900,10.785020751953125,-0.4196229577064514,-9.261474609375,-3.196779489517212
1701857857967614000,10.794614013671875,-0.4190247654914856,-9.260905265808105,-3.1985068321228027
1701857857977208000,10.8042080078125,-0.4100074768066406,-9.263711929321289,-3.1915383338928223
1701857857986801200,10.81380126953125,-0.391198992729187,-9.265870094299316,-3.1876327991485596
1701857857996393500,10.8233935546875,-0.37505215406417847,-9.274980545043945,-3.162982225418091
1701857858005986800,10.83298681640625,-0.37399226427078247,-9.288496017456055,-3.123197078704834
1701857858015580700,10.84258056640625,-0.38900110125541687,-9.306838989257812,-3.0662403106689453
1701857858025174000,10.852174072265624,-0.41085436940193176,-9.330320358276367,-2.9911048412323
1701857858034766300,10.861766357421875,-0.44234809279441833,-9.355205535888672,-2.907721757888794
1701857858044359400,10.871359375,-0.4698640704154968,-9.377050399780273,-2.8320558071136475
1701857858053953500,10.88095361328125,-0.4786606729030609,-9.397002220153809,-2.763625144958496
1701857858063546600,10.890546630859374,-0.4654476046562195,-9.421268463134766,-2.6820626258850098
1701857858073139000,10.900138916015624,-0.45282208919525146,-9.449725151062012,-2.58225154876709
1701857858082732300,10.909732177734375,-0.4320259690284729,-9.472914695739746,-2.499523878097534
1701857858092326100,10.919326171875,-0.4036305844783783,-9.485987663269043,-2.4542837142944336
1701857858101919500,10.92891943359375,-0.36883309483528137,-9.4889554977417,-2.448279619216919
1701857858111511800,10.93851171875,-0.33603888750076294,-9.481627464294434,-2.4811739921569824
1701857858121105000,10.94810498046875,-0.30517783761024475,-9.46343994140625,-2.553537607192993
1701857858130699000,10.957698974609375,-0.28104308247566223,-9.436469078063965,-2.6541385650634766
1701857858140292000,10.9672919921875,-0.27538490295410156,-9.412801742553711,-2.7374656200408936
1701857858149884400,10.976884521484376,-0.2704615592956543,-9.391852378845215,-2.8089747428894043
1701857858159477800,10.986477783203124,-0.2586330771446228,-9.374005317687988,-2.8690621852874756
1701857858169071600,10.996071533203125,-0.2404269576072693,-9.360391616821289,-2.914731979370117
1701857858178665000,11.0056650390625,-0.22448453307151794,-9.353058815002441,-2.9394354820251465
1701857858188257300,11.01525732421875,-0.23984932899475098,-9.353654861450195,-2.9363255500793457
1701857858197850400,11.024850341796874,-0.30752667784690857,-9.351214408874512,-2.937786817550659
1701857858207444500,11.034444580078125,-0.326638400554657,-9.322166442871094,-3.0266976356506348
1701857858217037600,11.04403759765625,-0.34565913677215576,-9.282047271728516,-3.145552635192871
1701857858226630000,11.0536298828125,-0.35034751892089844,-9.251176834106445,-3.2347118854522705
1701857858236223200,11.06322314453125,-0.3445543050765991,-9.238837242126465,-3.2704062461853027
1701857858245817000,11.072817138671875,-0.3312719762325287,-9.23904800415039,-3.271184206008911
1701857858255410400,11.082410400390625,-0.31280168890953064,-9.2424898147583,-3.263267755508423
1701857858265002800,11.092002685546875,-0.2845088541507721,-9.246222496032715,-3.255274772644043
1701857858274596000,11.10159619140625,-0.22014255821704865,-9.24724292755127,-3.2573652267456055
1701857858284190000,11.11118994140625,-0.13559149205684662,-9.253695487976074,-3.2436294555664062
1701857858293783000,11.120782958984375,-0.06605214625597,-9.272421836853027,-3.1919000148773193
1701857858303375400,11.130375244140625,-0.025619182735681534,-9.292987823486328,-3.132108688354492
1701857858312968700,11.13996875,-0.028338680043816566,-9.305636405944824,-3.0943052768707275
1701857858322562600,11.1495625,-0.05014606565237045,-9.314584732055664,-3.066981554031372
1701857858332156000,11.159156005859375,-0.040695298463106155,-9.314269065856934,-3.068084239959717
1701857858341748200,11.168748291015625,-0.006301346234977245,-9.30501651763916,-3.0962915420532227
1701857858351341600,11.178341552734375,0.05436841771006584,-9.294576644897461,-3.1270225048065186
1701857858360935400,11.187935302734376,0.1546373814344406,-9.281965255737305,-3.160947322845459
1701857858370528500,11.197528564453124,0.29814648628234863,-9.265012741088867,-3.200159788131714
1701857858380121000,11.20712109375,0.46200743317604065,-9.243305206298828,-3.243185043334961
1701857858389714200,11.216714111328125,0.6316559910774231,-9.22229290008545,-3.27424693107605
1701857858399308300,11.226308349609376,0.7938381433486938,-9.20209789276123,-3.295691728591919
1701857858408901400,11.2359013671875,0.9301750659942627,-9.180960655212402,-3.3189029693603516
1701857858418493700,11.24549365234375,1.0395264625549316,-9.160185813903809,-3.3437671661376953
1701857858428086800,11.255086669921875,1.1522291898727417,-9.144811630249023,-3.3489058017730713
1701857858437681000,11.264680908203125,1.2542996406555176,-9.13922119140625,-3.3274240493774414
1701857858447274000,11.27427392578125,1.3579727411270142,-9.140711784362793,-3.2823290824890137
1701857858456866600,11.283866455078124,1.4508414268493652,-9.148435592651367,-3.220491409301758
1701857858466459600,11.293459716796875,1.5610160827636719,-9.158344268798828,-3.139798641204834
1701857858476053500,11.303053466796875,1.6208208799362183,-9.201203346252441,-2.980133533477783
1701857858485646800,11.312646728515626,1.6921330690383911,-9.270890235900879,-2.7124998569488525
1701857858495239200,11.3222392578125,1.7759953737258911,-9.352853775024414,-2.353795051574707
1701857858504832300,11.331832275390624,1.8480252027511597,-9.44199275970459,-1.8984100818634033
1701857858514426400,11.34142626953125,1.891628623008728,-9.525702476501465,-1.3612885475158691
1701857858524019500,11.35101953125,1.897301435470581,-9.590325355529785,-0.7722012400627136
1701857858533612000,11.360612060546876,1.853265404701233,-9.628562927246094,-0.1630288064479828
1701857858543205000,11.370205078125,1.75826096534729,-9.637572288513184,0.44284188747406006
1701857858552799000,11.379799072265625,1.6374783515930176,-9.613815307617188,1.031318187713623
1701857858562392300,11.389392333984375,1.5318734645843506,-9.552685737609863,1.6031074523925781
1701857858571984600,11.398984619140625,1.480588674545288,-9.448652267456055,2.168231248855591
1701857858581578000,11.408577880859376,1.5075088739395142,-9.29833984375,2.7273924350738525
1701857858591171800,11.418171875,1.6146471500396729,-9.099361419677734,3.2809925079345703
1701857858600765000,11.427764892578125,1.7769986391067505,-8.85268783569336,3.8265633583068848
1701857858610357500,11.437357421875,1.9585247039794922,-8.562509536743164,4.360962867736816
1701857858619950600,11.44695068359375,2.131213903427124,-8.23652172088623,4.877295970916748
1701857858629544400,11.45654443359375,2.2856457233428955,-7.885972023010254,5.362616539001465
1701857858639137800,11.4661376953125,2.430663824081421,-7.518374443054199,5.808297157287598
1701857858648730000,11.475730224609375,2.5713839530944824,-7.131600379943848,6.220824241638184
1701857858658323500,11.485323486328125,2.7098119258880615,-6.72213077545166,6.606077194213867
1701857858667917300,11.494917236328124,2.8502631187438965,-6.2908501625061035,6.962153911590576
1701857858677510400,11.504510498046875,3.003664255142212,-5.834210395812988,7.287686347961426
1701857858687103000,11.51410302734375,3.179785966873169,-5.346416473388672,7.581238269805908
1701857858696696000,11.523696044921875,3.372103452682495,-4.8352131843566895,7.837092876434326
1701857858706290000,11.5332900390625,3.575453758239746,-4.309511661529541,8.050753593444824
1701857858715883300,11.54288330078125,3.788447141647339,-3.7776641845703125,8.218716621398926
1701857858725475600,11.5524755859375,4.0060858726501465,-3.2466084957122803,8.341535568237305
1701857858735069000,11.56206884765625,4.220283508300781,-2.723849058151245,8.422603607177734
1701857858744662800,11.571662841796876,4.42683744430542,-2.2189064025878906,8.464630126953125
1701857858754256000,11.581255859375,4.623317241668701,-1.743066430091858,8.470952987670898
1701857858763848200,11.59084814453125,4.818103790283203,-1.3092632293701172,8.44050407409668
1701857858773441500,11.600441650390625,5.02529764175415,-0.9362173080444336,8.369007110595703
1701857858783035400,11.610035400390625,5.261482238769531,-0.6352260708808899,8.251283645629883
1701857858792628700,11.619628662109376,5.527175426483154,-0.40596210956573486,8.090483665466309
1701857858802221000,11.629220947265624,5.797508716583252,-0.24404478073120117,7.905677318572998
1701857858811814400,11.638814453125,6.053395748138428,-0.133278951048851,7.71420955657959
1701857858821408300,11.648408203125,6.279716491699219,-0.04656065255403519,7.532156944274902
1701857858831001300,11.65800146484375,6.467868328094482,0.033280856907367706,7.371293067932129
1701857858840593700,11.66759375,6.61987829208374,0.11121739447116852,7.234310150146484
1701857858850187000,11.67718701171875,6.741304874420166,0.18875066936016083,7.1196608543396
1701857858859781000,11.686781005859375,6.8476481437683105,0.26612991094589233,7.014933109283447
1701857858869374200,11.696374267578125,6.953230381011963,0.3429686427116394,6.906905174255371
1701857858878966500,11.705966552734376,7.064436912536621,0.41540634632110596,6.78907585144043
1701857858888559900,11.715559814453124,7.184417724609375,0.4728470742702484,6.658149242401123
1701857858898153700,11.72515380859375,7.321600437164307,0.5027217268943787,6.504754543304443
1701857858907746800,11.734746826171875,7.4872355461120605,0.5023171305656433,6.313427448272705
1701857858917339100,11.744339111328125,7.682905673980713,0.47915729880332947,6.075669765472412
1701857858926932500,11.753932373046876,7.900611400604248,0.4507102966308594,5.792028427124023
1701857858936526600,11.763526611328125,8.1316499710083,0.4422714114189148,5.463611125946045
1701857858946119700,11.77311962890625,8.365458488464355,0.4709532856941223,5.095851421356201
1701857858955712000,11.7827119140625,8.594077110290527,0.5357218980789185,4.693103313446045
1701857858965305300,11.792305419921876,8.801994323730469,0.6209114193916321,4.278988838195801
1701857858974899200,11.801899169921874,8.975605964660645,0.7235236167907715,3.8839919567108154
1701857858984492300,11.8114921875,9.118792533874512,0.8532154560089111,3.505713701248169
1701857858994084600,11.821084716796875,9.237833023071289,1.0217876434326172,3.1287026405334473
1701857859003678000,11.830677978515626,9.330110549926758,1.2339551448822021,2.7562270164489746
1701857859013272000,11.84027197265625,9.384675979614258,1.4809937477111816,2.4300012588500977
1701857859022865200,11.849865234375,9.386474609375,1.745379090309143,2.2401177883148193
1701857859032457500,11.85945751953125,9.312708854675293,1.990191102027893,2.3415746688842773
1701857859042050800,11.86905078125,9.190900802612305,2.191396951675415,2.625929355621338
1701857859051644700,11.878644775390624,9.069417953491211,2.3608388900756836,2.8883354663848877
1701857859061237800,11.88823779296875,8.96079158782959,2.5370445251464844,3.0721347332000732
1701857859070830000,11.897830078125,8.869573593139648,2.7160210609436035,3.1818666458129883
1701857859080423400,11.90742333984375,8.802273750305176,2.8877432346343994,3.217343807220459
1701857859090017500,11.917017578125,8.762929916381836,3.0443308353424072,3.1801741123199463
1701857859099610600,11.926610595703124,8.749478340148926,3.1814961433410645,3.0814123153686523
1701857859109203000,11.936202880859375,8.761780738830566,3.2985243797302246,2.9191315174102783
1701857859118796300,11.94579638671875,8.798164367675781,3.3951544761657715,2.689908504486084
1701857859128390100,11.95539013671875,8.845767974853516,3.4640183448791504,2.4337971210479736
1701857859137983200,11.964983154296876,8.888402938842773,3.49349308013916,2.2275960445404053
1701857859147575600,11.974575439453124,8.924680709838867,3.484311103820801,2.09285306930542
1701857859157169000,11.9841689453125,8.967293739318848,3.449127674102783,1.9650827646255493
1701857859166762800,11.9937626953125,9.023406028747559,3.3999149799346924,1.785805583000183
1701857859176356000,12.003356201171876,9.086899757385254,3.34456729888916,1.5532249212265015
1701857859185948400,12.012948486328124,9.146316528320312,3.2917888164520264,1.2959187030792236
1701857859195541800,12.022541748046875,9.192384719848633,3.25382924079895,1.0406943559646606
1701857859205135600,12.032135498046875,9.223215103149414,3.2344579696655273,0.8006076216697693
1701857859214728700,12.041728759765626,9.239667892456055,3.2336745262145996,0.5850342512130737
1701857859224321000,12.051321044921876,9.235879898071289,3.26888370513916,0.4281204044818878
1701857859233914400,12.060914306640624,9.220586776733398,3.3210318088531494,0.3491417169570923
1701857859243508200,12.07050830078125,9.195314407348633,3.3973991870880127,0.27248743176460266
1701857859253101600,12.0801015625,9.154753684997559,3.5126547813415527,0.14871692657470703
1701857859262694000,12.08969384765625,9.101322174072266,3.6518657207489014,0.014136143028736115
1701857859272287200,12.099287353515624,9.038949966430664,3.802097797393799,-0.1088079884648323
1701857859281881000,12.108881103515625,8.967638969421387,3.9627583026885986,-0.2199992537498474
1701857859291474200,12.11847412109375,8.890949249267578,4.125904083251953,-0.31356367468833923
1701857859301066500,12.12806640625,8.81380558013916,4.282197952270508,-0.3872970640659332
1701857859310659800,12.137659912109376,8.740030288696289,4.425466537475586,-0.4444107115268707
1701857859320253700,12.147253662109375,8.672706604003906,4.5510945320129395,-0.49202850461006165
1701857859329847000,12.156846923828125,8.614226341247559,4.656129360198975,-0.5347389578819275
1701857859339439400,12.166439453125,8.565963745117188,4.7400736808776855,-0.571264922618866
1701857859349032700,12.17603271484375,8.526721000671387,4.807049751281738,-0.5980544090270996
1701857859358626600,12.18562646484375,8.493138313293457,4.863893032073975,-0.6160598993301392
1701857859368219600,12.1952197265625,8.460927963256836,4.917431354522705,-0.6340097188949585
1701857859377812000,12.20481201171875,8.427314758300781,4.971217632293701,-0.6616230607032776
1701857859387405300,12.2144052734375,8.39199161529541,5.0239763259887695,-0.7102983593940735
1701857859396999200,12.223999267578124,8.356291770935059,5.072397232055664,-0.7833071351051331
1701857859406592500,12.233592529296875,8.32114315032959,5.114917278289795,-0.8755512237548828
1701857859416184800,12.243184814453125,8.286373138427734,5.152681827545166,-0.9778986573219299
1701857859425778200,12.252778076171875,8.252373695373535,5.187138080596924,-1.0781090259552002
1701857859435372000,12.2623720703125,8.218792915344238,5.2213029861450195,-1.1661162376403809
1701857859444965000,12.271965087890624,8.184297561645508,5.259202480316162,-1.2363086938858032
1701857859454557400,12.281557373046875,8.147360801696777,5.3046722412109375,-1.2850439548492432
1701857859464150800,12.29115087890625,8.106651306152344,5.359410762786865,-1.315032958984375
1701857859473744600,12.30074462890625,8.06164836883545,5.4219770431518555,-1.3350582122802734
1701857859483338000,12.310337890625,8.012405395507812,5.489737033843994,-1.3544456958770752
1701857859492930300,12.319930419921874,7.959542274475098,5.559516906738281,-1.3812483549118042
1701857859502523600,12.329523681640625,7.905422687530518,5.626827716827393,-1.4189797639846802
1701857859512117500,12.339117431640625,7.852919578552246,5.687625885009766,-1.4672945737838745
1701857859521710600,12.348710693359376,7.803800582885742,5.74019193649292,-1.523574948310852
1701857859531303000,12.358302978515624,7.7586565017700195,5.785545349121094,-1.5814859867095947
1701857859540896300,12.367896240234375,7.717550277709961,5.82587194442749,-1.6337156295776367
1701857859550490000,12.377489990234375,7.680957794189453,5.862696647644043,-1.6739345788955688
1701857859560083500,12.38708349609375,7.649811744689941,5.896805286407471,-1.6966017484664917
1701857859569675800,12.39667578125,7.625563144683838,5.92750358581543,-1.698786973953247
1701857859579269000,12.40626904296875,7.610171318054199,5.952296733856201,-1.6810237169265747
1701857859588863000,12.415863037109375,7.604233264923096,5.968698978424072,-1.6494426727294922
