time,seconds_elapsed,z,y,x
1701881518578924800,0.0959248046875,0,0,0
1701881518588517400,0.105517333984375,0.09044933319091797,0.5044460296630859,-0.915095329284668
1701881518598109200,0.115109130859375,-0.19803333282470703,0.807105541229248,-1.6700307130813599
1701881518607701800,0.12470166015625,-2.6576285362243652,0.6202530860900879,-1.2115380764007568
1701881518617295000,0.134295166015625,-1.3330187797546387,-0.169281005859375,-0.5641214847564697
1701881518626887700,0.1438876953125,-1.6255879402160645,-0.41825437545776367,-0.1522308588027954
1701881518636479500,0.1534794921875,-0.6032271385192871,-0.1578664779663086,0.6915903091430664
1701881518646072000,0.163072021484375,0.39513111114501953,-0.025946617126464844,0.6993429660797119
1701881518655665400,0.17266552734375,0.9577202796936035,0.09325647354125977,0.5164971351623535
1701881518665258000,0.182258056640625,1.392868995666504,0.4783778190612793,-0.1205129623413086
1701881518674849500,0.191849609375,1.196765422821045,0.17754840850830078,-0.771188497543335
1701881518684442000,0.201442138671875,0.530667781829834,-0.49539661407470703,-1.0698941946029663
1701881518694035700,0.21103564453125,-0.09473419189453125,-0.8036298751831055,-1.145004391670227
1701881518703628000,0.2206279296875,-0.5094890594482422,-0.6544146537780762,-1.181427001953125
1701881518713219800,0.2302197265625,-0.46317529678344727,-0.15772390365600586,-1.2262084484100342
1701881518722812400,0.2398125,-0.08855915069580078,0.32660341262817383,-1.4621742963790894
1701881518732405800,0.24940576171875,0.4341549873352051,0.6034073829650879,-2.015860080718994
1701881518741998300,0.258998291015625,0.7821636199951172,0.8147168159484863,-2.5658657550811768
1701881518751590100,0.268590087890625,0.46763134002685547,0.9553189277648926,-2.5407392978668213
1701881518761182700,0.2781826171875,0.41080570220947266,0.8734526634216309,-1.8927278518676758
1701881518770776000,0.287776123046875,0.09206581115722656,0.31153106689453125,-0.8197252154350281
1701881518780368600,0.29736865234375,0.007296085357666016,-0.10050249099731445,0.2862434387207031
1701881518789960400,0.30696044921875,0.03950643539428711,-0.20017719268798828,1.056061863899231
1701881518799553000,0.316552978515625,0.18466997146606445,-0.19085168838500977,1.3737379312515259
1701881518809146400,0.326146484375,0.6065974235534668,-0.18973064422607422,1.3260201215744019
1701881518818739000,0.335739013671875,0.9482741355895996,-0.23595333099365234,0.9663459062576294
1701881518828330800,0.345330810546875,0.9800910949707031,-0.10847330093383789,0.4165799617767334
1701881518837923300,0.35492333984375,0.5071702003479004,0.22881412506103516,-0.024172306060791016
1701881518847516700,0.3645166015625,-0.12138557434082031,0.31798315048217773,-0.08326292037963867
1701881518857109200,0.374109130859375,-0.9620165824890137,0.20839881896972656,0.12551403045654297
1701881518866701000,0.383701171875,-1.786592960357666,0.03657054901123047,0.3305279016494751
1701881518876293600,0.393293701171875,-1.7918891906738281,-0.003124237060546875,0.4920542240142822
1701881518885887000,0.402886962890625,-1.3780407905578613,0.5658888816833496,-0.16698765754699707
1701881518895479600,0.4124794921875,-1.3219542503356934,0.7042551040649414,-0.30837011337280273
1701881518905071000,0.422071044921875,-0.940366268157959,0.41495466232299805,-0.32383203506469727
1701881518914663700,0.43166357421875,-0.45050907135009766,0.17702388763427734,-0.01098930835723877
1701881518924257000,0.441257080078125,-0.04749298095703125,-0.019147396087646484,0.47905874252319336
1701881518933849900,0.450849853515625,0.4501819610595703,-0.05599164962768555,0.6147540807723999
1701881518943441400,0.46044140625,1.0154457092285156,0.01529836654663086,0.6035089492797852
1701881518953034000,0.470033935546875,1.3453736305236816,-0.08010005950927734,0.7071399688720703
1701881518962627300,0.47962744140625,1.6449508666992188,-0.3571333885192871,0.823915958404541
1701881518972220000,0.489219970703125,1.921177864074707,-0.5773191452026367,0.7818899154663086
1701881518981811700,0.498811767578125,1.9493327140808105,-0.6695232391357422,0.486391544342041
1701881518991404300,0.508404296875,1.5442705154418945,-0.7950477600097656,0.2503089904785156
1701881519000997600,0.51799755859375,0.9449176788330078,-0.7986068725585938,0.03162693977355957
1701881519010590200,0.527590087890625,0.3904900550842285,-0.7344093322753906,-0.12907791137695312
1701881519020182000,0.53718212890625,-0.012480735778808594,-0.6107354164123535,-0.1901688575744629
1701881519029774600,0.546774658203125,-0.38640737533569336,-0.53009033203125,-0.14321041107177734
1701881519039368000,0.556367919921875,-0.5516233444213867,-0.4229435920715332,-0.07598304748535156
1701881519048960500,0.56596044921875,-0.5820093154907227,-0.31367063522338867,-0.0932002067565918
1701881519058552300,0.57555224609375,-0.6227016448974609,-0.2731294631958008,-0.14696455001831055
1701881519068145000,0.585144775390625,-0.6987581253051758,-0.1872997283935547,-0.2989654541015625
1701881519077738200,0.59473828125,-0.5878138542175293,-0.08791065216064453,-0.466658353805542
1701881519087330600,0.60433056640625,-0.5212564468383789,-0.0036182403564453125,-0.5334348678588867
1701881519096922600,0.613922607421875,-0.5651707649230957,0.13912343978881836,-0.5313317775726318
1701881519106515200,0.62351513671875,-0.5234570503234863,0.21503829956054688,-0.5062713623046875
1701881519116108500,0.633108642578125,-0.3635125160217285,0.19242286682128906,-0.5518894195556641
1701881519125700900,0.642700927734375,-0.23677778244018555,0.3243083953857422,-0.47255992889404297
1701881519135292700,0.652292724609375,-0.033762454986572266,0.5104093551635742,-0.20153427124023438
1701881519144885200,0.66188525390625,0.20856618881225586,0.6642241477966309,-0.1850752830505371
1701881519154478600,0.671478515625,0.4397087097167969,0.8297452926635742,-0.2657170295715332
1701881519164071200,0.6810712890625,0.8038821220397949,0.9028916358947754,-0.2787487506866455
1701881519173663000,0.6906630859375,1.136277198791504,0.8948793411254883,-0.32098984718322754
1701881519183255600,0.700255615234375,1.2613444328308105,0.935786247253418,-0.3897566795349121
1701881519192849000,0.709848876953125,1.2949256896972656,0.9137411117553711,-0.3274726867675781
1701881519202441500,0.71944140625,1.2061491012573242,0.8466696739196777,-0.24657487869262695
1701881519212033300,0.729033203125,1.0113039016723633,0.8146429061889648,-0.2964932918548584
1701881519221625900,0.7386259765625,0.7719302177429199,0.7814335823059082,-0.4334526062011719
1701881519231219200,0.74821923828125,0.5304183959960938,0.7038993835449219,-0.4995441436767578
1701881519240811800,0.757811767578125,0.39385080337524414,0.6280107498168945,-0.5530300140380859
1701881519250403600,0.767403564453125,0.3696622848510742,0.6144633293151855,-0.5051543712615967
1701881519259996200,0.77699609375,0.38665294647216797,0.5901942253112793,-0.29163050651550293
1701881519269589500,0.786589599609375,0.42307186126708984,0.5709290504455566,-0.12104940414428711
1701881519279182000,0.79618212890625,0.34281301498413086,0.571131706237793,-0.061492919921875
1701881519288773600,0.805773681640625,0.19443273544311523,0.4954094886779785,-0.14172053337097168
1701881519298366500,0.815366455078125,0.0038514137268066406,0.35446691513061523,-0.3524336814880371
1701881519307959800,0.824959716796875,-0.04601097106933594,0.18892335891723633,-0.6865212917327881
1701881519317552000,0.83455224609375,0.1579570770263672,0.06035280227661133,-0.935065746307373
1701881519327144000,0.84414404296875,0.5085792541503906,0.01081085205078125,-1.1194932460784912
1701881519336736800,0.85373681640625,0.9247550964355469,-0.04555702209472656,-1.3648087978363037
1701881519346330000,0.863330078125,1.2833237648010254,-0.03944873809814453,-1.6589727401733398
1701881519355922400,0.87292236328125,1.3987584114074707,-0.0617985725402832,-1.8379018306732178
1701881519365514200,0.88251416015625,1.361863613128662,-0.1322956085205078,-2.0647075176239014
1701881519375106800,0.89210693359375,1.1027288436889648,-0.1537470817565918,-2.2434639930725098
1701881519384700200,0.9017001953125,0.9846982955932617,-0.2039494514465332,-2.153059482574463
1701881519394292700,0.911292724609375,1.5520062446594238,-0.3626422882080078,-1.5846631526947021
1701881519403884500,0.920884521484375,2.1196670532226562,-0.489901065826416,-0.9156129360198975
1701881519413477000,0.93047705078125,2.3237686157226562,-0.6534514427185059,-0.7135624885559082
1701881519423070500,0.940070556640625,2.1837635040283203,-0.7255940437316895,-1.112335205078125
1701881519432663000,0.9496630859375,1.4979195594787598,-0.6718020439147949,-1.4259545803070068
1701881519442254800,0.9592548828125,0.5155949592590332,-0.5851311683654785,-1.6892945766448975
1701881519451847400,0.968847412109375,-0.18973064422607422,-0.47664690017700195,-1.9371364116668701
1701881519461440800,0.978440673828125,-0.7742552757263184,-0.34781408309936523,-1.9946885108947754
1701881519471033300,0.988033447265625,-1.0332770347595215,-0.37224292755126953,-1.689509391784668
1701881519480625200,0.997625244140625,-0.6596775054931641,-0.5579795837402344,-1.096306324005127
1701881519490217700,1.0072177734375,-0.05846261978149414,-0.7449266910552979,-0.910797119140625
1701881519499811000,1.01681103515625,0.4891080856323242,-0.9836363792419434,-1.614384651184082
1701881519509403600,1.026403564453125,1.1102533340454102,-1.2674572467803955,-2.7176694869995117
1701881519518995200,1.0359951171875,1.6983041763305664,-1.6338584423065186,-3.2462306022644043
1701881519528588000,1.045588134765625,1.8337087631225586,-1.978971242904663,-3.1202359199523926
1701881519538181400,1.055181396484375,1.6419920921325684,-2.473280429840088,-3.0967111587524414
1701881519547773700,1.064773681640625,1.4783592224121094,-2.987577438354492,-2.9435062408447266
1701881519557365500,1.074365478515625,1.7914485931396484,-3.1948082447052,-2.5807595252990723
1701881519566958000,1.0839580078125,2.261814594268799,-3.462369203567505,-2.528595447540283
1701881519576551700,1.0935517578125,2.9663498401641846,-3.4258997440338135,-2.739724636077881
1701881519586144000,1.10314404296875,3.6036856174468994,-3.437354564666748,-2.984854221343994
1701881519595735800,1.11273583984375,4.0291314125061035,-3.5867624282836914,-3.1740736961364746
1701881519605328400,1.122328369140625,4.0201005935668945,-3.504703998565674,-2.707202911376953
1701881519614921700,1.131921630859375,3.099701404571533,-3.914425849914551,-1.534531593322754
1701881519624514300,1.141514404296875,2.092475175857544,-4.721279144287109,-0.39707088470458984
1701881519634106000,1.151106201171875,1.058592677116394,-5.279227256774902,0.5010709762573242
1701881519643698700,1.16069873046875,0.42991435527801514,-5.136829376220703,0.9730463027954102
1701881519653292000,1.1702919921875,-0.334047794342041,-4.200429439544678,0.054123878479003906
1701881519662884600,1.179884521484375,-1.34445059299469,-3.3540546894073486,-1.0975513458251953
1701881519672476400,1.189476318359375,-2.7327585220336914,-3.4961066246032715,-0.9863691329956055
1701881519682069000,1.199069091796875,-4.686228275299072,-3.402985095977783,-0.25293731689453125
1701881519691662300,1.208662353515625,-6.391509532928467,-2.8652775287628174,0.4172201156616211
1701881519701255000,1.2182548828125,-7.972492694854736,-2.4471468925476074,1.0053377151489258
1701881519710846700,1.2278466796875,-8.608294486999512,-1.975078821182251,1.5499820709228516
1701881519720439300,1.237439208984375,-8.103218078613281,-1.1193058490753174,2.0134220123291016
1701881519730032600,1.24703271484375,-7.3878960609436035,-0.255887508392334,2.6853504180908203
1701881519739625200,1.256625244140625,-6.938258647918701,0.37143850326538086,2.9051408767700195
1701881519749216800,1.266216796875,-6.958419322967529,0.6468100547790527,2.570693016052246
1701881519758809600,1.2758095703125,-7.257267951965332,0.6214489936828613,2.2985010147094727
1701881519768402700,1.285402587890625,-7.933362007141113,0.38816165924072266,2.498556137084961
1701881519777995500,1.29499560546875,-7.936275482177734,0.25481319427490234,2.077071189880371
1701881519787587000,1.304587158203125,-6.791984558105469,-0.02906942367553711,1.1691293716430664
1701881519797179600,1.3141796875,-4.313619136810303,-0.5540890693664551,0.4564037322998047
1701881519806773000,1.32377294921875,-1.5614778995513916,-0.9666538238525391,0.34235572814941406
1701881519816365600,1.333365478515625,0.6852210760116577,-1.1526603698730469,0.1965794563293457
1701881519825957400,1.342957275390625,1.8474323749542236,-1.4647502899169922,0.4215092658996582
1701881519835550000,1.352550048828125,2.3780791759490967,-1.9623394012451172,1.107893466949463
1701881519845143300,1.362143310546875,2.868363857269287,-2.165712833404541,1.1541295051574707
1701881519854736000,1.37173583984375,2.57865047454834,-2.1344728469848633,0.8053479194641113
1701881519864327700,1.38132763671875,1.8415015935897827,-2.13547420501709,0.2661752700805664
1701881519873920300,1.390920166015625,1.0388588905334473,-2.2396068572998047,0.26036930084228516
1701881519883513600,1.400513671875,0.5318507552146912,-1.9202098846435547,0.39696836471557617
1701881519893106200,1.410106201171875,0.16504937410354614,-1.1987085342407227,0.6519293785095215
1701881519902698000,1.419697998046875,-0.2453446388244629,-0.806175708770752,0.5763840675354004
1701881519912290600,1.42929052734375,-0.9664947390556335,-1.3296599388122559,0.6596269607543945
1701881519921884000,1.4388837890625,0.001563429832458496,-5.792076587677002,3.6964497566223145
1701881519931476200,1.448476318359375,1.0500825643539429,-3.402179718017578,0.7345418930053711
1701881519941068300,1.458068359375,1.1647396087646484,-1.4490103721618652,-1.3854756355285645
1701881519950660900,1.467660888671875,1.535785436630249,-0.9482135772705078,-1.600135326385498
1701881519960254200,1.477254150390625,1.6257882118225098,-0.39751195907592773,-0.9149994850158691
1701881519969846500,1.486846435546875,1.0341919660568237,-0.14204120635986328,-0.46088743209838867
1701881519979438300,1.496438232421875,0.08769309520721436,0.9847817420959473,-1.2504444122314453
1701881519989031000,1.506031005859375,-0.4732697606086731,0.8910202980041504,-1.492518424987793
1701881519998624300,1.515624267578125,-0.14266031980514526,1.620837688446045,-5.318043231964111
1701881520008216800,1.525216796875,-1.8481616973876953,0.2296123504638672,-5.663179874420166
1701881520017808600,1.53480859375,-4.095329761505127,-0.2726020812988281,-4.860799789428711
1701881520027401200,1.544401123046875,-7.068370819091797,-0.26313304901123047,-1.6156251430511475
1701881520036994600,1.55399462890625,0.6622938513755798,-1.4773406982421875,8.353521347045898
1701881520046587100,1.563587158203125,6.1651291847229,-1.2372255325317383,10.925735473632812
1701881520056179000,1.573178955078125,6.226937770843506,-0.7844676971435547,6.847048759460449
1701881520065771500,1.582771484375,1.4785430431365967,-0.6603212356567383,2.823831558227539
1701881520075364900,1.59236474609375,-2.7165448665618896,-0.5758218765258789,0.5014195442199707
1701881520084957400,1.60195751953125,-3.3286077976226807,-0.38715171813964844,-0.6983613967895508
1701881520094549200,1.61154931640625,-1.9472211599349976,-0.3102750778198242,-0.9104890823364258
1701881520104141800,1.621141845703125,-0.1785571426153183,-0.22750282287597656,-1.2560393810272217
1701881520113735200,1.630735107421875,0.7298225164413452,-0.14727115631103516,-1.555830717086792
1701881520123327700,1.64032763671875,0.6292498707771301,-0.0797128677368164,-1.847027063369751
1701881520132919300,1.649919189453125,0.32277339696884155,-0.05316448211669922,-1.248314619064331
1701881520142512000,1.65951220703125,0.10507012903690338,0.4204587936401367,-0.3353114128112793
1701881520152105500,1.66910546875,-0.007753193378448486,0.8691921234130859,0.682896614074707
1701881520161697800,1.67869775390625,-0.14557574689388275,1.0259580612182617,1.5690231323242188
1701881520171289600,1.68828955078125,-0.6705088019371033,0.9441184997558594,0.6581368446350098
1701881520180882200,1.697882080078125,-1.2422618865966797,0.18841075897216797,0.17190933227539062
1701881520190475800,1.707475830078125,-0.3842378258705139,-0.5032196044921875,0.6907744407653809
1701881520200068000,1.717068115234375,0.48309117555618286,0.18836307525634766,0.5614652633666992
1701881520209660000,1.726659912109375,0.4667147994041443,0.9698123931884766,0.37551069259643555
1701881520219252500,1.73625244140625,0.47922587394714355,1.0074238777160645,0.9099814891815186
1701881520228845800,1.745845703125,2.0782692432403564,0.32576942443847656,1.4184463024139404
1701881520238438400,1.7554384765625,2.7307209968566895,-0.35686779022216797,-0.5364258289337158
1701881520248030200,1.7650302734375,1.612108826637268,-1.607217788696289,-1.1903948783874512
1701881520257622800,1.774622802734375,-0.0065139830112457275,-1.4506187438964844,-0.32836008071899414
1701881520267216100,1.784216064453125,0.14643311500549316,-0.8849773406982422,-0.9870395660400391
1701881520276808700,1.79380859375,-0.13631893694400787,-1.88800048828125,0.04931640625
1701881520286400500,1.803400390625,-1.812523365020752,-3.7648487091064453,1.0323500633239746
1701881520295993000,1.8129931640625,-1.1828504800796509,-2.6542892456054688,-0.9272613525390625
1701881520305586400,1.82258642578125,0.3884691596031189,-0.13893413543701172,-2.4244539737701416
1701881520315179000,1.832178955078125,0.48791468143463135,1.209890365600586,-2.1713907718658447
1701881520324770800,1.841770751953125,0.28104621171951294,1.463921070098877,-1.5097991228103638
1701881520334363400,1.85136328125,0.12986096739768982,0.5771007537841797,-0.6540303230285645
1701881520343956700,1.860956787109375,0.784267783164978,0.3183135986328125,0.07938623428344727
1701881520353549300,1.87054931640625,0.8187211155891418,0.23989391326904297,0.17331695556640625
1701881520363140900,1.880140869140625,0.015986979007720947,0.33738136291503906,0.3124558925628662
1701881520372733700,1.889733642578125,-1.433835744857788,1.605545997619629,1.0484659671783447
1701881520382327000,1.8993271484375,-1.7512688636779785,2.519340991973877,0.5645323991775513
1701881520391919600,1.908919677734375,-0.49017930030822754,3.039921760559082,-0.008015990257263184
1701881520401511200,1.91851123046875,0.23636013269424438,2.915874481201172,-0.08955419063568115
1701881520411103700,1.928103759765625,0.10824340581893921,2.754213809967041,-0.3220248818397522
1701881520420697000,1.937697021484375,0.8726580739021301,2.1962366104125977,-0.736147940158844
1701881520430289700,1.94728955078125,0.6528368592262268,2.8924126625061035,-0.6269673705101013
1701881520439881500,1.956881591796875,0.7514197826385498,3.3860220909118652,-0.36698079109191895
1701881520449474000,1.96647412109375,1.0360310077667236,3.299190044403076,-0.2613356411457062
1701881520459067400,1.9760673828125,0.20881909132003784,0.6441831588745117,-0.38555192947387695
1701881520468660000,1.985659912109375,0.9338688850402832,-1.3990564346313477,0.2975619435310364
1701881520478251800,1.995251708984375,0.044416069984436035,1.5932121276855469,1.2231121063232422
1701881520487844400,2.00484423828125,-3.1498403549194336,2.2209115028381348,1.0846891403198242
1701881520497437700,2.014437744140625,-3.4364757537841797,1.441706657409668,0.6576970219612122
1701881520507030300,2.0240302734375,-2.4844164848327637,1.2199516296386719,-0.3246275782585144
1701881520516622000,2.0336220703125,-0.1387702226638794,1.1436395645141602,-1.2478394508361816
1701881520526214700,2.043214599609375,1.9161560535430908,0.8522443771362305,-1.6017378568649292
1701881520535808000,2.05280810546875,2.5191338062286377,-0.0796051025390625,-1.3195891380310059
1701881520545400600,2.062400634765625,1.3787734508514404,-0.9860067367553711,-0.9757431745529175
1701881520554992000,2.0719921875,-0.018634140491485596,-3.052504539489746,0.971000075340271
1701881520564585000,2.0815849609375,-0.9188718199729919,-3.3764476776123047,0.46151310205459595
1701881520574178300,2.09117822265625,-1.0780847072601318,-5.325125694274902,-2.2186200618743896
1701881520583770600,2.1007705078125,-0.8062569499015808,-20.259502410888672,-3.505253553390503
1701881520593362400,2.110362548828125,0.7015957832336426,-25.831449508666992,5.822782516479492
1701881520602955300,2.119955322265625,2.1106772422790527,-5.231313705444336,2.973473072052002
1701881520612548600,2.129548583984375,0.08417874574661255,2.6768317222595215,-1.2535879611968994
1701881520622141000,2.139140869140625,0.0810280442237854,0.9211740493774414,-0.547945499420166
1701881520631732700,2.148732666015625,0.23447227478027344,-0.2898902893066406,-0.29481393098831177
1701881520641325300,2.1583251953125,-0.031374216079711914,0.044198036193847656,-0.2531125545501709
1701881520650918700,2.167918701171875,-0.24021947383880615,0.2621469497680664,-0.2468172311782837
1701881520660511200,2.17751123046875,-0.08768665790557861,0.3576927185058594,-0.24140852689743042
1701881520670103000,2.18710302734375,0.1563856601715088,0.8061714172363281,-0.46086961030960083
1701881520679695600,2.196695556640625,0.055092453956604004,1.1485881805419922,-0.8639357089996338
1701881520689289000,2.2062890625,-0.13723552227020264,0.6246347427368164,-0.8520204424858093
1701881520698881500,2.215881591796875,0.16714996099472046,0.4938364028930664,-0.7870328426361084
1701881520708473300,2.225473388671875,0.3872917890548706,-0.294921875,-1.1768535375595093
1701881520718066000,2.23506591796875,0.4358207583427429,-1.3365774154663086,-1.2294807434082031
1701881520727659300,2.2446591796875,-0.12023532390594482,-0.8039665222167969,-1.1965835094451904
1701881520737251800,2.254251953125,0.27031999826431274,-0.15128040313720703,-1.2772598266601562
1701881520746843600,2.26384375,-0.25025689601898193,-0.37988758087158203,-1.029207706451416
1701881520756436200,2.273436279296875,-0.4313548803329468,-0.2973613739013672,-0.8272654414176941
1701881520766029600,2.283029541015625,-0.3390086889266968,-0.12001609802246094,-0.9133234024047852
1701881520775622000,2.292621826171875,-0.20429682731628418,-0.09147167205810547,-1.046623706817627
1701881520785213700,2.302213623046875,-0.09921324253082275,-0.12282276153564453,-1.0738846063613892
1701881520794806500,2.311806640625,-0.014196157455444336,-0.16135311126708984,-1.0693439245224
1701881520804399600,2.321399658203125,-0.022977709770202637,-0.15938758850097656,-1.0048469305038452
1701881520813992200,2.3309921875,-0.13291478157043457,-0.1981372833251953,-0.8505207300186157
1701881520823584000,2.340583984375,-0.062204837799072266,-0.1821117401123047,-0.8098169565200806
1701881520833176600,2.350176513671875,-0.04558897018432617,-0.14007091522216797,-0.7861182689666748
1701881520842770000,2.35977001953125,-0.057431936264038086,-0.1364126205444336,-0.6054679155349731
1701881520852362500,2.369362548828125,-0.03638601303100586,-0.15420055389404297,-0.42825594544410706
1701881520861954300,2.378954345703125,0.009227275848388672,-0.18131542205810547,-0.21414726972579956
1701881520871547000,2.388546875,0.07450449466705322,-0.13661670684814453,-0.11523497104644775
1701881520881140200,2.39814013671875,0.08574354648590088,-0.14443683624267578,0.07821297645568848
1701881520890732800,2.40773291015625,0.03217196464538574,-0.12358570098876953,0.19452810287475586
1701881520900324600,2.41732470703125,0.0026645660400390625,-0.08138275146484375,0.28635311126708984
1701881520909917200,2.426917236328125,0.042133212089538574,-0.06316471099853516,0.38749802112579346
1701881520919510500,2.436510498046875,0.18602466583251953,0.05050849914550781,0.328094482421875
1701881520929103000,2.44610302734375,0.21154451370239258,0.08050060272216797,0.3805784583091736
1701881520938695000,2.45569482421875,0.21843278408050537,0.1941680908203125,0.42281901836395264
1701881520948287500,2.46528759765625,0.1133960485458374,0.27439022064208984,0.5312029719352722
1701881520957880800,2.474880859375,-0.02630472183227539,0.31406116485595703,0.6120111346244812
1701881520967473200,2.48447314453125,-0.1644432544708252,0.2727470397949219,0.6698563694953918
1701881520977065000,2.49406494140625,-0.2554081678390503,0.2103443145751953,0.7476986050605774
1701881520986657500,2.503657470703125,-0.3515530824661255,0.12209701538085938,0.8331114649772644
1701881520996251000,2.5132509765625,-0.3860074281692505,-0.001453399658203125,0.9354354739189148
1701881521005843700,2.52284375,-0.38062894344329834,-0.0886220932006836,1.0330746173858643
1701881521015435300,2.532435302734375,-0.3473844528198242,-0.14673328399658203,1.0757403373718262
1701881521025027800,2.54202783203125,-0.3218052387237549,-0.15924835205078125,1.1138546466827393
1701881521034621200,2.55162109375,-0.3010982275009155,-0.12160682678222656,1.1309216022491455
1701881521044213800,2.5612138671875,-0.2704200744628906,-0.057908058166503906,1.0985066890716553
1701881521053805600,2.5708056640625,-0.18898272514343262,-0.04698753356933594,1.0071343183517456
1701881521063398100,2.580398193359375,-0.08556878566741943,0.044867515563964844,0.9708792567253113
1701881521072991500,2.589991455078125,0.039191603660583496,0.1649761199951172,0.7873166799545288
1701881521082584000,2.599583984375,0.09339606761932373,0.18455886840820312,0.6879117488861084
1701881521092176000,2.60917578125,0.05972003936767578,0.20901012420654297,0.5646050572395325
1701881521101768400,2.6187685546875,-0.011959314346313477,0.25983619689941406,0.41744160652160645
1701881521111361800,2.62836181640625,-0.08815467357635498,0.26535892486572266,0.2222203016281128
1701881521120954400,2.637954345703125,-0.14547228813171387,0.22577381134033203,0.0836864709854126
1701881521130546200,2.647546142578125,-0.13644134998321533,0.12455558776855469,-0.005517780780792236
1701881521140138800,2.657138671875,-0.11457550525665283,0.20038318634033203,-0.23675528168678284
1701881521149732000,2.666732177734375,-0.1470240354537964,0.14965438842773438,-0.2573391795158386
1701881521159324400,2.676324462890625,-0.1378633975982666,0.1159048080444336,-0.2994843125343323
1701881521168916200,2.685916259765625,-0.1591363549232483,-0.0011310577392578125,-0.2708495855331421
1701881521178509000,2.695509033203125,-0.1720021367073059,0.09465599060058594,-0.4156651198863983
1701881521188102400,2.705102294921875,-0.18953841924667358,0.1209268569946289,-0.467817097902298
1701881521197694700,2.71469482421875,-0.16380935907363892,0.12087535858154297,-0.5106920003890991
1701881521207286500,2.72428662109375,-0.1020088791847229,0.14708232879638672,-0.5010170936584473
1701881521216879000,2.733879150390625,-0.051712632179260254,0.030029296875,-0.4133533239364624
1701881521226472400,2.743472412109375,-0.0481564998626709,-0.14637088775634766,-0.2726705074310303
1701881521236065000,2.75306494140625,-0.007415294647216797,-0.30324745178222656,-0.15408286452293396
1701881521245656800,2.76265673828125,0.08936887979507446,-0.5194320678710938,0.029757052659988403
1701881521255249400,2.77224951171875,0.16382688283920288,-0.4726371765136719,-0.08040010929107666
1701881521264842800,2.7818427734375,0.2400496006011963,-0.4429044723510742,-0.0872046947479248
1701881521274435300,2.791435302734375,0.23473817110061646,-0.41825008392333984,-0.08411091566085815
1701881521284027100,2.801027099609375,0.23668920993804932,-0.36765289306640625,-0.12599587440490723
1701881521293619700,2.81061962890625,0.21937036514282227,-0.4415245056152344,-0.049403995275497437
1701881521303213000,2.820213134765625,0.22271806001663208,-0.40320873260498047,-0.024706512689590454
1701881521312805600,2.8298056640625,0.22449809312820435,-0.3747119903564453,-0.05411633849143982
1701881521322397400,2.8393974609375,0.21703016757965088,-0.3201627731323242,-0.03466203808784485
1701881521331990000,2.848989990234375,0.15896880626678467,-0.28968048095703125,-0.018797606229782104
1701881521341583400,2.858583251953125,0.13110417127609253,-0.2306661605834961,0.033846110105514526
1701881521351176000,2.868176025390625,0.11140018701553345,-0.15272140502929688,0.05416807532310486
1701881521360767500,2.877767578125,0.07619208097457886,-0.06784820556640625,0.05917942523956299
1701881521370360300,2.8873603515625,-0.012191951274871826,0.002429962158203125,0.10639625787734985
1701881521379953700,2.89695361328125,-0.05791407823562622,0.07248783111572266,0.08408823609352112
1701881521389546000,2.9065458984375,-0.001336514949798584,-0.0652761459350586,0.19736483693122864
1701881521399137800,2.9161376953125,0.029114902019500732,0.18633174896240234,0.11777633428573608
1701881521408730400,2.92573046875,0.07184457778930664,0.29871177673339844,0.11860683560371399
1701881521418323700,2.93532373046875,0.09763354063034058,0.3415660858154297,0.10432097315788269
1701881521427916300,2.944916259765625,0.04174637794494629,0.24355602264404297,0.13435527682304382
1701881521437508000,2.954508056640625,-0.08089280128479004,0.1292123794555664,0.1944710612297058
1701881521447100700,2.9641005859375,-0.1509140133857727,-0.00618743896484375,0.22225308418273926
1701881521456694000,2.973694091796875,-0.12100183963775635,-0.10768985748291016,0.22736933827400208
1701881521466286600,2.98328662109375,-0.17537391185760498,-0.16600704193115234,0.29603928327560425
1701881521475878400,2.99287841796875,-0.23200953006744385,-0.2586679458618164,0.4052283763885498
1701881521485471000,3.002470947265625,-0.1280866265296936,-0.24619579315185547,0.3666764497756958
1701881521495064300,3.012064208984375,-0.11477106809616089,-0.23397541046142578,0.2821055054664612
1701881521504657000,3.021656982421875,-0.07968160510063171,-0.14667701721191406,0.35475876927375793
1701881521514248700,3.031248779296875,-0.07289588451385498,-0.009102821350097656,0.3833571672439575
1701881521523841300,3.04084130859375,-0.2895178198814392,-0.008092880249023438,0.2733061909675598
1701881521533434600,3.0504345703125,-0.473415344953537,-0.009537696838378906,0.17574790120124817
1701881521543027200,3.060027099609375,-0.7793916463851929,-0.2040557861328125,0.07519856095314026
1701881521552618800,3.06961865234375,-0.5370805263519287,-0.48248767852783203,-0.1488674134016037
1701881521562211300,3.07921142578125,-0.31463947892189026,-0.5162162780761719,-0.46450501680374146
1701881521571804700,3.0888046875,-0.11959388852119446,-0.36585330963134766,-0.5038120746612549
1701881521581397500,3.0983974609375,0.0957014262676239,-0.2110271453857422,-0.34875398874282837
1701881521590989000,3.107989013671875,0.26372164487838745,-0.09649658203125,-0.09716342389583588
1701881521600581600,3.11758154296875,0.23975054919719696,-0.18868732452392578,-0.0036948174238204956
1701881521610175000,3.127175048828125,0.553608775138855,-0.18746662139892578,-0.038559943437576294
1701881521619767600,3.136767578125,0.6819384098052979,-0.3298463821411133,-0.0824718177318573
1701881521629359400,3.146359375,0.6566901206970215,-0.3898124694824219,-0.21051821112632751
1701881521638952000,3.155951904296875,0.7098209857940674,-0.36406517028808594,-0.2988102436065674
1701881521648545300,3.165545166015625,0.6868988275527954,-0.2541074752807617,-0.322437584400177
1701881521658137900,3.175137939453125,0.5789475440979004,-0.08725929260253906,-0.39270538091659546
1701881521667729700,3.184729736328125,0.44151806831359863,-0.033949851989746094,-0.48491328954696655
1701881521677322200,3.194322265625,0.39388972520828247,0.020748138427734375,-0.5168340802192688
1701881521686915600,3.20391552734375,0.37607574462890625,0.09569358825683594,-0.5181102752685547
1701881521696508200,3.213508056640625,0.439064085483551,0.11526775360107422,-0.5419033169746399
1701881521706100000,3.223099853515625,0.42451876401901245,0.08514022827148438,-0.5601029396057129
1701881521715692500,3.232692626953125,0.36602023243904114,0.039109230041503906,-0.6290796995162964
1701881521725286000,3.242285888671875,0.3023337423801422,-0.0013875961303710938,-0.6889939308166504
1701881521734878200,3.251878173828125,0.25308701395988464,0.008265495300292969,-0.7463415861129761
1701881521744470000,3.261469970703125,0.27124297618865967,-0.03167915344238281,-0.6881034970283508
1701881521754062600,3.2710625,0.359552264213562,-0.056860923767089844,-0.5840837955474854
1701881521763656000,3.280656005859375,0.3394281268119812,0.000728607177734375,-0.42492106556892395
1701881521773248800,3.290248779296875,0.3287317156791687,-0.015666961669921875,-0.23953501880168915
1701881521782840300,3.29984033203125,0.2599547207355499,-0.08127307891845703,-0.10827607661485672
1701881521792433000,3.309432861328125,0.2119804322719574,-0.155242919921875,0.002267278730869293
1701881521802026200,3.319026123046875,0.21248909831047058,-0.21623802185058594,0.06408779323101044
1701881521811618800,3.328618896484375,0.15416467189788818,-0.2762422561645508,0.0940251499414444
1701881521821210600,3.338210693359375,0.11498880386352539,-0.2669963836669922,0.07837273180484772
1701881521830803200,3.34780322265625,0.12893372774124146,-0.24380111694335938,0.09265656769275665
1701881521840396500,3.357396484375,0.07965589314699173,-0.21395587921142578,0.11473679542541504
1701881521849989000,3.366989013671875,0.022361300885677338,-0.21053504943847656,0.17285211384296417
1701881521859581000,3.376580810546875,0.032410167157649994,-0.2024974822998047,0.23591476678848267
1701881521869173500,3.386173583984375,-0.016197115182876587,-0.15931320190429688,0.27582481503486633
1701881521878766800,3.395766845703125,-0.026183076202869415,-0.1051025390625,0.26765140891075134
1701881521888359400,3.405359375,0.013130269944667816,-0.0023736953735351562,0.27140411734580994
1701881521897951000,3.414950927734375,0.07691407203674316,0.044495582580566406,0.2519158124923706
1701881521907543800,3.424543701171875,0.11437567323446274,0.09294605255126953,0.21886244416236877
1701881521917137200,3.43413720703125,0.14395031332969666,0.1005868911743164,0.17963603138923645
1701881521926729500,3.4437294921875,0.18667759001255035,0.19525432586669922,0.09534057974815369
1701881521936321300,3.4533212890625,0.1883106231689453,0.18243026733398438,0.13778379559516907
1701881521945913900,3.462913818359375,0.25198960304260254,0.023845672607421875,0.061473578214645386
1701881521955507200,3.472507080078125,0.14969760179519653,0.07035446166992188,0.01963028311729431
1701881521965099800,3.482099853515625,0.017159003764390945,0.12081050872802734,0.0008252859115600586
1701881521974691600,3.491691650390625,-0.06402617692947388,0.06450843811035156,0.02597948908805847
1701881521984284200,3.5012841796875,-0.0709153413772583,0.009165763854980469,0.023619085550308228
1701881521993877500,3.51087744140625,-0.033453021198511124,-0.04758453369140625,0.05764967203140259
1701881522003470000,3.520469970703125,0.07719482481479645,-0.07040977478027344,0.06837984919548035
1701881522013062000,3.530061767578125,0.13905452191829681,-0.10696220397949219,0.10305184125900269
1701881522022654500,3.539654541015625,0.20144173502922058,-0.0958108901977539,0.0714600682258606
1701881522032247800,3.549247802734375,0.21962551772594452,-0.09426212310791016,0.0686473548412323
1701881522041840400,3.55884033203125,0.15689097344875336,-0.09981346130371094,0.06789129972457886
1701881522051432200,3.56843212890625,0.08577678352594376,-0.09350776672363281,0.043490976095199585
1701881522061024800,3.578024658203125,-0.014454800635576248,-0.056685447692871094,0.02007216215133667
1701881522070618000,3.5876181640625,-0.14576193690299988,0.13965511322021484,-0.05336880683898926
1701881522080210700,3.597210693359375,0.033885251730680466,-0.06515026092529297,-0.0436495840549469
1701881522089802200,3.60680224609375,0.02540959045290947,-0.09705734252929688,-0.12165622413158417
1701881522099395000,3.61639501953125,0.04818732663989067,-0.07429981231689453,-0.17751958966255188
1701881522108988200,3.62598828125,0.045062482357025146,-0.02131366729736328,-0.2677643895149231
1701881522118581000,3.6355810546875,0.004661502316594124,0.03080272674560547,-0.2924807667732239
1701881522128172500,3.645172607421875,-0.013661784119904041,0.006731986999511719,-0.2927825450897217
1701881522137765000,3.65476513671875,-0.052769243717193604,0.0066089630126953125,-0.27177694439888
1701881522147358500,3.6643583984375,-0.06769952923059464,0.0017786026000976562,-0.26053929328918457
1701881522156951000,3.673950927734375,-0.07322178035974503,0.0017442703247070312,-0.2610310912132263
1701881522166542800,3.68354296875,-0.06242208555340767,-0.010052680969238281,-0.2353895902633667
1701881522176135400,3.693135498046875,-0.014485333114862442,0.004250526428222656,-0.22642527520656586
1701881522185728800,3.702728759765625,0.020538438111543655,-0.0028734207153320312,-0.16581793129444122
1701881522195321300,3.7123212890625,0.06404479593038559,-0.009876251220703125,-0.1462416648864746
1701881522204913200,3.7219130859375,0.08763846009969711,-0.007349967956542969,-0.10591796040534973
1701881522214505700,3.731505615234375,0.08681361377239227,-0.011927604675292969,-0.06391046941280365
1701881522224099000,3.74109912109375,0.10447774082422256,-0.0023088455200195312,-0.039195120334625244
1701881522233691600,3.750691650390625,0.07923224568367004,-0.006968498229980469,-0.05232506990432739
1701881522243283500,3.760283447265625,0.05687157064676285,0.00022602081298828125,-0.05558563768863678
1701881522252876000,3.7698759765625,0.025810379534959793,0.0096588134765625,-0.03984023630619049
1701881522262469400,3.779469482421875,0.023986022919416428,-0.037560462951660156,-0.06414647400379181
1701881522272061700,3.789061767578125,0.013014251366257668,-0.025132179260253906,-0.09958694875240326
1701881522281653500,3.798653564453125,0.018829111009836197,-0.005831718444824219,-0.11267203092575073
1701881522291246000,3.80824609375,-0.03211631625890732,0.17328262329101562,-0.2155044823884964
1701881522300839400,3.81783935546875,0.021155042573809624,-0.06024456024169922,0.02628275752067566
1701881522310432000,3.827431884765625,0.0950327068567276,-0.14159297943115234,-0.09719225764274597
1701881522320023800,3.83702392578125,0.010077517479658127,0.013830184936523438,-0.14338906109333038
1701881522329616400,3.846616455078125,0.0017600134015083313,0.008936882019042969,-0.1415005624294281
1701881522339209700,3.856209716796875,-0.04161973297595978,-0.010003089904785156,-0.15859100222587585
1701881522348802300,3.86580224609375,-0.072050079703331,-0.026273727416992188,-0.18010425567626953
1701881522358394000,3.87539404296875,-0.09210051596164703,-0.037563323974609375,-0.19184209406375885
1701881522367986700,3.884986572265625,-0.0951114371418953,-0.046311378479003906,-0.22221815586090088
1701881522377580000,3.894580078125,-0.06959233433008194,-0.059624671936035156,-0.23337045311927795
1701881522387172600,3.904172607421875,-0.049325644969940186,-0.0421142578125,-0.26317113637924194
1701881522396764400,3.913764404296875,-0.022564761340618134,-0.06256484985351562,-0.27375727891921997
1701881522406357000,3.92335693359375,-0.015200977213680744,-0.04501056671142578,-0.31241685152053833
1701881522415950300,3.932950439453125,-0.015254365280270576,-0.03716754913330078,-0.3222963213920593
1701881522425543000,3.94254296875,-0.003656642511487007,-0.03181743621826172,-0.32282400131225586
1701881522435134500,3.952134521484375,0.023878389969468117,-0.05952644348144531,-0.33098092675209045
1701881522444727300,3.961727294921875,0.02929793857038021,-0.07502079010009766,-0.3515774607658386
1701881522454320600,3.971320556640625,0.08348754048347473,-0.08556842803955078,-0.37757453322410583
1701881522463913000,3.980912841796875,0.09675347805023193,-0.10302543640136719,-0.46561238169670105
1701881522473504800,3.9905048828125,0.030673781409859657,-0.1272745132446289,-0.5440304279327393
1701881522483097300,4.000097412109375,-0.11711999773979187,-0.10875701904296875,-0.5869784355163574
1701881522492690700,4.009690673828125,0.007414139807224274,-0.14234447479248047,-0.6815840005874634
1701881522502283300,4.019283203125,0.16353371739387512,-0.12828731536865234,-0.8053379058837891
1701881522511875000,4.028875,0.290953129529953,-0.07208061218261719,-0.8655927181243896
1701881522521467600,4.038467529296875,0.3149121403694153,0.08443832397460938,-0.8744787573814392
1701881522531061000,4.04806103515625,0.6904622316360474,0.1983480453491211,-0.8183783292770386
1701881522540653600,4.057653564453125,0.8092920780181885,0.3810081481933594,-0.7733486294746399
1701881522550245400,4.067245361328125,0.8613457083702087,0.3228492736816406,-0.6698547601699829
1701881522559838000,4.076837890625,0.970888078212738,0.29861927032470703,-0.7595025897026062
1701881522569431300,4.086431396484375,1.0867159366607666,0.23709869384765625,-0.7047746181488037
1701881522579024000,4.09602392578125,1.3041014671325684,0.24716758728027344,-0.7762351036071777
1701881522588615700,4.10561572265625,1.486127495765686,0.3817119598388672,-0.823470950126648
1701881522598208300,4.115208251953125,1.5528783798217773,0.5138034820556641,-0.7733117938041687
1701881522607801600,4.124801513671875,1.5976437330245972,0.6575031280517578,-0.5389572381973267
1701881522617394000,4.134393798828125,1.6099159717559814,0.7597103118896484,-0.5383249521255493
1701881522626985700,4.14398583984375,1.4834928512573242,0.8014936447143555,-0.5521636009216309
1701881522636578600,4.15357861328125,1.2678709030151367,0.8569784164428711,-0.5225809812545776
1701881522646171600,4.163171630859375,1.059844732284546,0.8520421981811523,-0.32791388034820557
1701881522655764200,4.17276416015625,0.9460550546646118,0.8536376953125,-0.2046755701303482
1701881522665356000,4.18235595703125,0.7768184542655945,0.8688678741455078,-0.10398492217063904
1701881522674948600,4.191948486328125,0.6411522030830383,0.9047908782958984,-0.07973138988018036
1701881522684542000,4.2015419921875,0.5467466115951538,0.9875526428222656,-0.14765626192092896
1701881522694134500,4.211134521484375,0.6106778383255005,0.9903802871704102,-0.061829984188079834
1701881522703726300,4.220726318359375,0.748652994632721,1.0422945022583008,-0.11432898044586182
1701881522713319000,4.23031884765625,0.698736310005188,0.9449319839477539,-0.28353753685951233
1701881522722912300,4.239912353515625,0.6829863786697388,0.8348989486694336,-0.23068654537200928
1701881522732504800,4.2495048828125,0.2535592317581177,0.7531223297119141,-0.46845969557762146
1701881522742096600,4.2590966796875,0.8427698612213135,0.5395002365112305,-0.3382052779197693
1701881522751689200,4.268689208984375,0.5646620988845825,-0.2566518783569336,0.2532234191894531
1701881522761282600,4.278282470703125,-0.36860191822052,-0.696990966796875,0.2729805111885071
1701881522770875000,4.287875,-0.5516482591629028,-0.8534259796142578,0.4388664960861206
1701881522780466700,4.297466796875,-0.6374160051345825,-0.881535530090332,0.3706958293914795
1701881522790059500,4.3070595703125,-0.8002782464027405,-0.8149633407592773,0.1753498911857605
1701881522799652900,4.31665283203125,-0.7538437843322754,-0.8927068710327148,-0.04632437229156494
1701881522809245200,4.3262451171875,-0.43408524990081787,-1.0239629745483398,-0.37732553482055664
1701881522818837000,4.3358369140625,-0.2120685577392578,-1.2732295989990234,-0.34418994188308716
1701881522828429600,4.3454296875,-0.20604121685028076,-2.1101598739624023,0.5109492540359497
1701881522838023000,4.35502294921875,-0.9131942391395569,-3.124298095703125,1.418618083000183
1701881522847615500,4.364615478515625,-1.4337457418441772,-3.1885452270507812,1.2692244052886963
1701881522857207300,4.374207275390625,-0.9101641774177551,-2.346982955932617,0.8633720874786377
1701881522866799900,4.3837998046875,-0.6480942964553833,-1.1783742904663086,0.7981719374656677
1701881522876393200,4.393393310546875,-0.63826584815979,0.10302734375,0.9221348166465759
1701881522885985800,4.40298583984375,-0.5986917614936829,0.892730712890625,1.19868004322052
1701881522895577600,4.41257763671875,-0.7136014103889465,0.9846725463867188,1.4058353900909424
1701881522905170200,4.422170166015625,-0.9868191480636597,0.8420448303222656,1.580554485321045
1701881522914763500,4.431763427734375,-1.2528443336486816,0.5758066177368164,1.7572360038757324
1701881522924356000,4.441356201171875,-1.4263532161712646,0.19620800018310547,1.858029842376709
1701881522933947600,4.45094775390625,-1.4420928955078125,-0.10526466369628906,1.8351023197174072
1701881522943540500,4.46054052734375,-1.1984679698944092,-0.26207447052001953,1.7774814367294312
1701881522953133600,4.470133544921875,-0.8033750057220459,-0.33235836029052734,1.5673472881317139
1701881522962726400,4.479726318359375,-0.3885766267776489,-0.24540233612060547,1.215916395187378
1701881522972318000,4.48931787109375,-0.11583256721496582,-0.03743267059326172,1.0084913969039917
1701881522981910500,4.49891064453125,0.08626067638397217,-0.3484668731689453,0.7599749565124512
1701881522991504000,4.50850390625,0.012777090072631836,-0.5249214172363281,0.38414883613586426
1701881523001096400,4.518096435546875,-0.17025268077850342,-0.5571146011352539,0.023225069046020508
1701881523010688300,4.527688232421875,-0.26056551933288574,-0.6959295272827148,-0.3885544538497925
1701881523020280800,4.53728076171875,0.005946040153503418,-0.7882204055786133,-0.8075530529022217
1701881523029874200,4.546874267578125,0.4210081100463867,-1.056283950805664,-1.1973520517349243
1701881523039466800,4.556466796875,0.8789292573928833,-1.552546501159668,-1.5389573574066162
1701881523049058600,4.56605859375,1.392867088317871,-2.0809574127197266,-1.5985606908798218
1701881523058651100,4.575651123046875,1.5904285907745361,-2.608114242553711,-1.5086088180541992
1701881523068244500,4.585244384765625,1.4096440076828003,-3.081422805786133,-1.3224585056304932
1701881523077837000,4.594837158203125,0.9984131455421448,-3.2216567993164062,-1.3468666076660156
1701881523087428900,4.604428955078125,0.3476947546005249,-3.5903234481811523,-0.9723228216171265
1701881523097021400,4.614021484375,-0.09750127792358398,-3.580561637878418,-1.1897916793823242
1701881523106614800,4.62361474609375,0.11372256278991699,-3.76589298248291,-0.9181302785873413
1701881523116207000,4.63320703125,1.3156030178070068,-4.145051002502441,-1.7486871480941772
1701881523125799000,4.642798828125,0.7631626725196838,0.27832698822021484,-1.6577016115188599
1701881523135391500,4.6523916015625,0.8864184021949768,1.987107276916504,-1.5982401371002197
1701881523144984800,4.66198486328125,0.18220913410186768,1.5909662246704102,-1.0599056482315063
1701881523154577400,4.671577392578125,0.1555362343788147,1.2279987335205078,-0.7514864206314087
1701881523164169200,4.681169189453125,-0.1470739245414734,1.132737159729004,-0.1403287649154663
1701881523173761800,4.69076171875,-0.46174556016921997,1.0114679336547852,0.14120721817016602
1701881523183355100,4.700355224609375,-0.5854854583740234,0.924321174621582,0.258978009223938
1701881523192947700,4.70994775390625,-0.35690295696258545,1.059931755065918,0.24100995063781738
1701881523202539500,4.71953955078125,-0.029664814472198486,1.2173538208007812,0.4149603843688965
1701881523212132000,4.729132080078125,0.15607821941375732,0.9585838317871094,0.7657650113105774
1701881523221725400,4.738725341796875,0.6834068894386292,-1.0639314651489258,0.6382135152816772
1701881523231318000,4.748318115234375,0.07798224687576294,1.1673030853271484,-0.0216372013092041
1701881523240909800,4.757909912109375,-0.7924801111221313,2.186462879180908,0.16244292259216309
1701881523250502400,4.76750244140625,-1.3667912483215332,3.12119197845459,0.32741355895996094
1701881523260095700,4.777095703125,-1.9156901836395264,3.695068359375,0.8098780512809753
1701881523269688000,4.78668798828125,-2.356569766998291,3.9047303199768066,1.0394787788391113
1701881523279279900,4.79627978515625,-2.525674343109131,4.042923927307129,1.1985422372817993
1701881523288872400,4.80587255859375,-2.4959890842437744,4.212700366973877,1.3810877799987793
1701881523298466000,4.815466064453125,-2.437346935272217,4.347091197967529,1.366057276725769
1701881523308058400,4.825058349609375,-2.2970054149627686,4.269463539123535,1.2957007884979248
1701881523317650200,4.834650146484375,-2.145944118499756,3.6820058822631836,1.1486902236938477
1701881523327242800,4.84424267578125,-1.8180381059646606,2.5243234634399414,1.033719778060913
1701881523336836000,4.853836181640625,-1.3149487972259521,1.2707300186157227,0.8344096541404724
1701881523346428700,4.8634287109375,-0.4932335615158081,0.4488391876220703,0.38431107997894287
1701881523356020500,4.8730205078125,0.39448612928390503,0.17631816864013672,-0.25833046436309814
1701881523365613000,4.882613037109375,1.0289862155914307,0.22169876098632812,-0.970739483833313
1701881523375206400,4.892206298828125,1.0407943725585938,0.08942794799804688,-1.526925802230835
1701881523384799000,4.901799072265625,1.4641112089157104,-0.6093053817749023,-1.780701756477356
1701881523394390800,4.911390869140625,1.7454934120178223,-1.0821514129638672,-1.603713870048523
1701881523403983400,4.9209833984375,1.7672687768936157,-1.0925989151000977,-1.2567766904830933
1701881523413576700,4.93057666015625,1.0504131317138672,-0.9779472351074219,-0.7498444318771362
1701881523423169300,4.940169189453125,-0.21742680668830872,-0.2108440399169922,-0.2661539316177368
1701881523432760800,4.9497607421875,-0.9921077489852905,-0.29967403411865234,0.3109126687049866
1701881523442353700,4.959353759765625,-0.4208680987358093,-0.049057960510253906,0.2165336012840271
1701881523451946800,4.96894677734375,-0.48449718952178955,2.002260208129883,-0.22915863990783691
1701881523461539300,4.978539306640625,-0.637734055519104,1.4245185852050781,-0.487656831741333
1701881523471131100,4.988131103515625,0.7872023582458496,0.8636388778686523,-0.34155207872390747
1701881523480723700,4.9977236328125,1.2353101968765259,0.7501239776611328,-0.3848116993904114
1701881523490317000,5.007317138671875,1.357000708580017,1.016535758972168,-0.5008319020271301
1701881523499909600,5.01690966796875,1.1891357898712158,1.6354045867919922,-0.5117731094360352
1701881523509501400,5.02650146484375,0.15051382780075073,2.115840435028076,-0.5966630578041077
1701881523519094000,5.036093994140625,-0.5395529866218567,0.9180212020874023,-0.8953282833099365
1701881523528687400,5.045687255859375,0.03524315357208252,1.8003606796264648,-0.3219341039657593
1701881523538280000,5.055280029296875,-0.9908748865127563,-0.2571859359741211,-0.37488773465156555
1701881523547871700,5.064871826171875,-0.46878981590270996,-0.7172021865844727,-0.07729944586753845
1701881523557464300,5.07446435546875,-0.8312073945999146,0.27022743225097656,0.15122149884700775
1701881523567057700,5.0840576171875,-0.48133212327957153,0.24383258819580078,0.23114065825939178
1701881523576650000,5.09364990234375,-0.518234372138977,1.3668546676635742,0.5458636283874512
1701881523586242000,5.103241943359375,-0.6756244897842407,1.5659208297729492,0.5115233063697815
1701881523595834600,5.112834716796875,-0.1302388310432434,1.459702491760254,0.6750569343566895
1701881523605428000,5.122427978515625,-0.7116552591323853,1.3857526779174805,0.5386841893196106
1701881523615020300,5.132020263671875,-0.39773428440093994,0.4697561264038086,0.250470370054245
1701881523624612000,5.141612060546875,-0.32877933979034424,0.39260005950927734,-0.0903257429599762
1701881523634204700,5.15120458984375,0.009184479713439941,-0.47393035888671875,-0.3571036458015442
1701881523643798000,5.160798095703125,0.05939030647277832,1.5307197570800781,-0.012100934982299805
1701881523653390600,5.170390625,0.16140544414520264,0.9592494964599609,-0.18801265954971313
1701881523662982400,5.179982421875,0.30121028423309326,0.9679279327392578,0.0738004744052887
1701881523672575000,5.189574951171875,-0.32945454120635986,0.036034584045410156,-0.117998868227005
1701881523682168300,5.199168212890625,0.06585538387298584,-0.3396577835083008,1.3729466199874878
1701881523691761000,5.208760986328125,-0.2279566526412964,0.41643810272216797,2.9446020126342773
1701881523701352700,5.218352783203125,-0.869333028793335,-0.37398719787597656,3.320112943649292
1701881523710945300,5.2279453125,-1.0755059719085693,-2.215147018432617,2.9302010536193848
1701881523720538600,5.23753857421875,-0.9985814094543457,-3.5058460235595703,2.0701165199279785
1701881523730131200,5.247131103515625,-0.9731171131134033,-3.527127265930176,1.4297771453857422
1701881523739722800,5.25672265625,-1.1144764423370361,-3.026137351989746,0.9751791954040527
1701881523749315600,5.266315673828125,-1.457758903503418,-2.6078290939331055,0.9622073173522949
1701881523758908700,5.27590869140625,-1.716400384902954,-2.386646270751953,1.2705354690551758
1701881523768501200,5.285501220703125,-1.7952642440795898,-2.3765478134155273,1.583044409751892
1701881523778093000,5.295093017578125,-1.618671178817749,-2.3931894302368164,1.866326928138733
1701881523787685600,5.304685546875,-1.373337984085083,-2.4173145294189453,1.8846838474273682
1701881523797279000,5.314279052734375,-1.257106065750122,-2.3244762420654297,1.6868574619293213
1701881523806871600,5.32387158203125,-1.2163877487182617,-2.172037124633789,1.5339787006378174
1701881523816463400,5.33346337890625,-1.204925537109375,-2.0030221939086914,1.4846323728561401
1701881523826056000,5.343055908203125,-1.1751198768615723,-1.8005170822143555,1.4239143133163452
1701881523835649300,5.352649169921875,-1.15529465675354,-1.5335330963134766,1.3639640808105469
1701881523845241900,5.362241943359375,-1.0965073108673096,-1.2694635391235352,1.3403570652008057
1701881523854833700,5.371833740234375,-0.9906728267669678,-1.006312370300293,1.3454759120941162
1701881523864426200,5.38142626953125,-0.8917856216430664,-0.7182397842407227,1.281103253364563
1701881523874019600,5.39101953125,-0.7060451507568359,-0.4818391799926758,1.0787672996520996
1701881523883612000,5.40061181640625,-0.5500302314758301,-0.33056640625,0.9231195449829102
1701881523893203700,5.41020361328125,-0.37810754776000977,-0.125518798828125,0.7695989608764648
1701881523902796500,5.419796630859375,-0.22833514213562012,0.10461711883544922,0.5900819301605225
1701881523912390000,5.429389892578125,-0.0629887580871582,0.36968326568603516,0.4659891128540039
1701881523921982200,5.438982177734375,0.06805849075317383,0.5765180587768555,0.22807550430297852
1701881523931574000,5.448573974609375,0.13014459609985352,0.7154340744018555,0.07770729064941406
1701881523941166600,5.45816650390625,0.13848209381103516,0.8555841445922852,-0.09277725219726562
1701881523950760000,5.467760009765625,0.16004133224487305,0.9947628974914551,-0.1778700351715088
1701881523960352500,5.4773525390625,0.13946294784545898,1.0497932434082031,-0.299088716506958
1701881523969944300,5.4869443359375,0.07702064514160156,1.0014357566833496,-0.3164496421813965
1701881523979537000,5.496536865234375,0.03441762924194336,0.8567981719970703,-0.37050890922546387
1701881523989130200,5.506130126953125,0.1295008659362793,0.7863168716430664,-0.4258253574371338
1701881523998722800,5.515722900390625,0.05112600326538086,0.7040314674377441,-0.4084320068359375
1701881524008314600,5.525314697265625,0.0013365745544433594,0.5304160118103027,-0.36931586265563965
1701881524017907200,5.5349072265625,-0.13066530227661133,0.3938908576965332,-0.21994304656982422
1701881524027500500,5.54450048828125,-0.2196946144104004,0.23918771743774414,-0.15575098991394043
1701881524037093000,5.554093017578125,-0.3397526741027832,0.08768653869628906,0.014465093612670898
1701881524046684700,5.5636845703125,-0.2193284034729004,0.02613067626953125,-0.0859534740447998
1701881524056277500,5.573277587890625,-0.23806047439575195,-0.0025777816772460938,0.10344076156616211
1701881524065870800,5.582870849609375,-0.17934179306030273,0.013602733612060547,0.3181133270263672
1701881524075463200,5.592463134765625,-0.1401829719543457,0.09937715530395508,0.27169013023376465
1701881524085055000,5.602054931640625,-0.028564453125,0.16208505630493164,0.47074151039123535
1701881524094647600,5.6116474609375,-0.0383305549621582,0.1571812629699707,0.2997121810913086
1701881524104241000,5.621240966796875,0.17178726196289062,0.2913932800292969,0.48941898345947266
1701881524113833500,5.63083349609375,0.10577917098999023,0.3262639045715332,0.20262885093688965
1701881524123425300,5.64042529296875,0.1713557243347168,0.4341878890991211,0.4965660572052002
1701881524133017900,5.650017822265625,0.1718297004699707,0.5766844749450684,0.5088179111480713
1701881524142611200,5.659611083984375,0.2346501350402832,0.6985273361206055,0.45299243927001953
1701881524152203800,5.669203857421875,0.16571426391601562,0.5936985015869141,0.44257569313049316
1701881524161795600,5.678795654296875,-0.042984962463378906,0.6630244255065918,0.5058083534240723
1701881524171388200,5.68838818359375,-0.39362430572509766,0.6175298690795898,0.33688950538635254
1701881524180981500,5.6979814453125,-0.40981435775756836,0.4982790946960449,0.34371519088745117
1701881524190574000,5.707573974609375,-0.3301401138305664,0.26585865020751953,0.21777105331420898
1701881524200165600,5.71716552734375,-0.4371161460876465,0.04911994934082031,0.4928417205810547
1701881524209758200,5.72675830078125,-0.22917890548706055,0.0810079574584961,0.5321125984191895
1701881524219351600,5.7363515625,-0.07783269882202148,0.17710590362548828,0.6984505653381348
1701881524228944100,5.745944091796875,-0.031148433685302734,0.2538442611694336,0.6138248443603516
1701881524238536000,5.755535888671875,-0.048067569732666016,0.437166690826416,0.6861939430236816
1701881524248128500,5.76512841796875,-0.3146553039550781,0.46140575408935547,0.33907318115234375
1701881524257721900,5.774721923828125,0.36588573455810547,0.7238750457763672,0.7895083427429199
1701881524267314400,5.784314453125,-0.09482574462890625,0.7547998428344727,0.2320542335510254
1701881524276906200,5.79390625,-0.12294912338256836,0.7016849517822266,0.274599552154541
1701881524286498800,5.803498779296875,-0.1855754852294922,0.5953774452209473,0.3246750831604004
1701881524296092200,5.813092041015625,-0.0850214958190918,0.5178170204162598,0.2631058692932129
1701881524305684700,5.822684814453125,-0.048502445220947266,0.4093003273010254,0.24558782577514648
1701881524315276500,5.832276611328125,0.01613473892211914,0.35682249069213867,0.04764509201049805
1701881524324869000,5.841869140625,0.19357633590698242,0.33985233306884766,-0.10314416885375977
1701881524334462500,5.85146240234375,0.24200105667114258,0.375518798828125,-0.21610784530639648
1701881524344054800,5.8610546875,0.18095922470092773,0.42474985122680664,-0.06076335906982422
1701881524353646600,5.870646484375,-0.2786679267883301,0.3861961364746094,-0.23219680786132812
1701881524363239200,5.8802392578125,0.0735006332397461,0.38965702056884766,-0.006171226501464844
1701881524372832500,5.88983251953125,-0.2506532669067383,0.4756150245666504,-0.3230576515197754
1701881524382425000,5.899425048828125,-0.4226651191711426,0.3846445083618164,-0.2129044532775879
1701881524392017000,5.909016845703125,-0.2917160987854004,0.21262502670288086,-0.21335601806640625
1701881524401609500,5.918609375,-0.3137173652648926,0.1212306022644043,-0.06889104843139648
1701881524411202800,5.928202880859375,-0.1609210968017578,0.062044620513916016,0.011889934539794922
1701881524420795400,5.93779541015625,-0.09034013748168945,0.13112831115722656,-0.10965633392333984
1701881524430387200,5.94738720703125,0.03872871398925781,0.18317556381225586,-0.17213010787963867
1701881524439979800,5.956979736328125,0.28005170822143555,0.323728084564209,-0.018631458282470703
1701881524449573000,5.966572998046875,0.3005986213684082,0.32619714736938477,-0.12034988403320312
1701881524459165700,5.976165771484375,0.32519054412841797,0.33156490325927734,-0.061781883239746094
1701881524468757500,5.985757568359375,0.277587890625,0.2870965003967285,-0.02250385284423828
1701881524478350000,5.99535009765625,0.28958797454833984,0.2189483642578125,0.05481100082397461
1701881524487943400,6.004943359375,0.20044755935668945,0.15798425674438477,0.10929632186889648
1701881524497535700,6.01453564453125,0.4798583984375,0.028456687927246094,0.10307502746582031
1701881524507127600,6.02412744140625,0.25945138931274414,0.20655155181884766,0.13215160369873047
1701881524516720000,6.03372021484375,0.10615348815917969,0.2610301971435547,0.08015823364257812
1701881524526313500,6.0433134765625,0.11499214172363281,0.2861461639404297,0.12278270721435547
1701881524535906000,6.052906005859375,0.13161134719848633,0.29929685592651367,0.15905237197875977
1701881524545497900,6.062497802734375,0.12143850326538086,0.3626537322998047,0.1460590362548828
1701881524555090400,6.07209033203125,0.05537843704223633,0.4098954200744629,0.21790742874145508
1701881524564683800,6.081683837890625,-0.00021076202392578125,0.40166568756103516,0.2695803642272949
1701881524574276400,6.0912763671875,-0.038747310638427734,0.3743553161621094,0.3200869560241699
1701881524583868200,6.1008681640625,-0.10050296783447266,0.3728947639465332,0.32692384719848633
1701881524593460700,6.110460693359375,-0.1539621353149414,0.3257718086242676,0.2766423225402832
1701881524603054000,6.12005419921875,-0.1962275505065918,0.2946634292602539,0.267092227935791
1701881524612646400,6.129646484375,-0.2056717872619629,0.34728145599365234,0.2767176628112793
1701881524622238200,6.13923828125,-0.23626089096069336,0.4181375503540039,0.2534980773925781
1701881524631831000,6.1488310546875,-0.1878657341003418,0.4972405433654785,0.18687677383422852
1701881524641424400,6.15842431640625,-0.14128541946411133,0.5349874496459961,0.11115217208862305
1701881524651016700,6.1680166015625,-0.11243057250976562,0.5344767570495605,0.07662773132324219
1701881524660608500,6.1776083984375,-0.11273193359375,0.4842848777770996,0.08225440979003906
1701881524670201000,6.187201171875,-0.11871576309204102,0.42031335830688477,0.029854774475097656
1701881524679794400,6.19679443359375,-0.19654083251953125,0.4083070755004883,-0.05938100814819336
1701881524689387000,6.206386962890625,-0.08605337142944336,0.19781112670898438,-0.036585330963134766
1701881524698978800,6.215978759765625,-0.054491519927978516,0.17655277252197266,0.023872852325439453
1701881524708571400,6.2255712890625,-0.02316141128540039,0.16753244400024414,0.0132293701171875
1701881524718164700,6.235164794921875,-0.03953838348388672,0.1377267837524414,0.02185821533203125
1701881524727757300,6.24475732421875,0.01644277572631836,0.05478191375732422,0.02767181396484375
1701881524737349000,6.25434912109375,0.042346954345703125,-0.026267528533935547,0.026006698608398438
1701881524746941700,6.263941650390625,0.09330129623413086,-0.03944969177246094,0.0765385627746582
1701881524756535000,6.27353515625,0.2441086769104004,0.02210235595703125,0.14429998397827148
1701881524766127600,6.283127685546875,0.29297304153442383,0.08139753341674805,0.18835878372192383
1701881524775719200,6.29271923828125,0.29431724548339844,0.1963357925415039,0.2676544189453125
1701881524785311700,6.302311767578125,0.4870028495788574,0.20848417282104492,0.4434938430786133
1701881524794905000,6.311905029296875,0.6107068061828613,0.282285213470459,0.38916921615600586
1701881524804497700,6.32149755859375,0.6443099975585938,0.23308277130126953,0.24375200271606445
1701881524814089500,6.33108935546875,0.688117504119873,0.10993480682373047,0.10744571685791016
1701881524823682000,6.34068212890625,0.6465306282043457,0.0011849403381347656,-0.009140968322753906
1701881524833275400,6.350275390625,0.4323444366455078,-0.10578107833862305,-0.026151657104492188
1701881524842868000,6.359867919921875,0.21831512451171875,-0.20001459121704102,-0.0518794059753418
1701881524852459800,6.369459716796875,0.15024185180664062,-0.29352903366088867,-0.03461647033691406
1701881524862052400,6.37905224609375,0.07264328002929688,-0.3464040756225586,-0.0034933090209960938
1701881524871645700,6.388645751953125,-0.0381779670715332,-0.3923525810241699,-0.015741825103759766
1701881524881238300,6.39823828125,-0.05715799331665039,-0.3914661407470703,-0.10156583786010742
1701881524890829800,6.407829833984375,-0.05035114288330078,-0.2992420196533203,-0.12591218948364258
1701881524900422700,6.417422607421875,-0.011667728424072266,-0.1377272605895996,-0.12480974197387695
1701881524910016000,6.42701611328125,0.05540657043457031,-0.006420135498046875,-0.11040830612182617
1701881524919608300,6.4366083984375,0.07462120056152344,0.13804197311401367,-0.1816415786743164
1701881524929200000,6.4462001953125,0.07479143142700195,0.2533111572265625,-0.24990081787109375
1701881524938792700,6.455792724609375,0.032848358154296875,0.29974842071533203,-0.2422184944152832
1701881524948386000,6.465385986328125,-0.06441831588745117,0.292266845703125,-0.26137638092041016
1701881524957978600,6.474978515625,-0.16840171813964844,0.24533319473266602,-0.27170753479003906
1701881524967570400,6.4845703125,-0.23389291763305664,0.20643377304077148,-0.268585205078125
1701881524977163000,6.4941630859375,-0.2891573905944824,0.1468210220336914,-0.3108506202697754
1701881524986756400,6.50375634765625,-0.3078441619873047,0.08999490737915039,-0.30103111267089844
1701881524996349000,6.513348876953125,-0.3183159828186035,0.04039621353149414,-0.31268930435180664
1701881525005940700,6.522940673828125,-0.31333208084106445,0.009365558624267578,-0.30317115783691406
1701881525015533300,6.532533203125,-0.2762589454650879,-0.010497093200683594,-0.33120203018188477
1701881525025126700,6.542126708984375,-0.24026060104370117,-0.031316280364990234,-0.31359386444091797
1701881525034719200,6.55171923828125,-0.20312261581420898,-0.008170604705810547,-0.2957587242126465
1701881525044310800,6.561310791015625,-0.1649026870727539,0.006608486175537109,-0.26096057891845703
1701881525053903400,6.5709033203125,-0.1264023780822754,0.05610227584838867,-0.19547080993652344
1701881525063497000,6.5804970703125,-0.10472965240478516,0.09048652648925781,-0.10737323760986328
1701881525073089300,6.59008935546875,-0.06756448745727539,0.06537914276123047,0.030144691467285156
1701881525082681000,6.59968115234375,-0.03954505920410156,0.14944791793823242,0.09827756881713867
1701881525092273700,6.609273681640625,0.014491081237792969,0.14791393280029297,0.1708850860595703
1701881525101867000,6.618866943359375,0.04480171203613281,0.15395641326904297,0.23147821426391602
1701881525111459600,6.62845947265625,0.10362434387207031,0.1109466552734375,0.27326107025146484
1701881525121051400,6.638051513671875,0.1345229148864746,0.09250497817993164,0.2828550338745117
1701881525130644000,6.64764404296875,0.1571793556213379,0.04858684539794922,0.2586402893066406
1701881525140237300,6.6572373046875,0.1724224090576172,0.010044097900390625,0.24418354034423828
1701881525149830000,6.666829833984375,0.19009923934936523,-0.018486499786376953,0.21385669708251953
1701881525159421700,6.676421630859375,0.21039819717407227,-0.039490699768066406,0.1894664764404297
1701881525169014300,6.68601416015625,0.2545919418334961,-0.05786609649658203,0.16626930236816406
1701881525178607600,6.695607666015625,0.27010536193847656,-0.06870365142822266,0.15354585647583008
1701881525188200000,6.705199951171875,0.2835416793823242,-0.06748580932617188,0.1607341766357422
1701881525197791700,6.714791748046875,0.3042435646057129,-0.07076311111450195,0.14989805221557617
1701881525207384300,6.72438427734375,0.31047487258911133,-0.016939163208007812,0.11421871185302734
1701881525216977700,6.733977783203125,0.3068981170654297,-0.010506629943847656,0.14326953887939453
1701881525226570200,6.7435703125,0.31454896926879883,-0.08157014846801758,0.20214176177978516
1701881525236162000,6.753162109375,0.27175188064575195,-0.005025386810302734,0.16782283782958984
1701881525245754600,6.762754638671875,0.27142858505249023,-0.04949188232421875,0.15264654159545898
1701881525255348000,6.772347900390625,0.23561668395996094,-0.031824588775634766,0.11190080642700195
1701881525264940500,6.7819404296875,0.17211055755615234,-0.023879051208496094,0.07883977890014648
1701881525274532400,6.791532470703125,0.11497354507446289,-0.03773355484008789,0.05106163024902344
1701881525284125000,6.801125,0.03831338882446289,-0.04009389877319336,-0.009094715118408203
1701881525293718300,6.81071826171875,-0.012676239013671875,-0.03605031967163086,-0.05178022384643555
1701881525303310800,6.820310791015625,-0.05994749069213867,0.0002803802490234375,-0.06815862655639648
1701881525312902700,6.829902587890625,-0.0940861701965332,0.011830806732177734,-0.1010122299194336
1701881525322495200,6.8394951171875,-0.1369342803955078,0.041730403900146484,-0.10535430908203125
1701881525332088600,6.849088623046875,-0.1600956916809082,0.05200624465942383,-0.12168025970458984
1701881525341681000,6.858680908203125,-0.1641559600830078,0.05949544906616211,-0.11476802825927734
1701881525351272700,6.868272705078125,-0.16353940963745117,0.0454258918762207,-0.0967254638671875
1701881525360865300,6.877865234375,-0.15146923065185547,0.03843879699707031,-0.08208703994750977
1701881525370458600,6.887458740234375,-0.17525672912597656,0.10214424133300781,-0.09411764144897461
1701881525380051200,6.89705126953125,-0.16611289978027344,0.13439559936523438,-0.11557531356811523
1701881525389643000,6.90664306640625,-0.16460609436035156,0.14518165588378906,-0.1062021255493164
1701881525399235600,6.916235595703125,-0.13760137557983398,0.13015222549438477,-0.10882282257080078
1701881525408829000,6.925828857421875,-0.13036441802978516,0.11826229095458984,-0.09703922271728516
1701881525418421500,6.93542138671875,-0.0976266860961914,0.14945030212402344,-0.134429931640625
1701881525428013300,6.945013427734375,-0.08446311950683594,0.07648372650146484,-0.05617856979370117
1701881525437606000,6.95460595703125,-0.06708478927612305,0.013920307159423828,-0.024695396423339844
1701881525447199200,6.96419921875,-0.057126522064208984,0.02502155303955078,-0.03913593292236328
1701881525456791600,6.97379150390625,-0.03327608108520508,0.0027189254760742188,-0.0467839241027832
1701881525466383400,6.98338330078125,-0.012115955352783203,0.008763313293457031,-0.04996204376220703
1701881525475976200,6.99297607421875,0.008929252624511719,0.023833274841308594,-0.06972503662109375
1701881525485569500,7.002569580078125,0.02517223358154297,0.01248025894165039,-0.08455991744995117
1701881525495161900,7.012161865234375,0.03425931930541992,0.005813121795654297,-0.08042383193969727
1701881525504753700,7.021753662109375,0.05519247055053711,0.010915756225585938,-0.06918048858642578
1701881525514346200,7.03134619140625,0.0689091682434082,0.013529777526855469,-0.06501007080078125
1701881525523939600,7.040939697265625,0.08960676193237305,0.00428009033203125,-0.06314992904663086
1701881525533532200,7.0505322265625,0.08888769149780273,-0.016669750213623047,-0.044823646545410156
1701881525543124000,7.0601240234375,0.07886171340942383,-0.0020546913146972656,-0.024480819702148438
1701881525552716500,7.069716552734375,0.09020805358886719,-0.004247188568115234,0.002475261688232422
1701881525562310000,7.079309814453125,0.10145044326782227,-0.011081218719482422,0.012662887573242188
1701881525571902500,7.08890234375,0.10325336456298828,-0.008419990539550781,0.05109119415283203
1701881525581494300,7.098494384765625,0.10519218444824219,0.005933284759521484,0.07726716995239258
1701881525591086800,7.1080869140625,0.10263538360595703,0.0175933837890625,0.09610366821289062
1701881525600680200,7.11768017578125,0.1073002815246582,0.02902364730834961,0.11001396179199219
1701881525610272500,7.1272724609375,0.08365678787231445,0.016685962677001953,0.12366008758544922
1701881525619864300,7.1368642578125,0.07211685180664062,0.02336597442626953,0.13932037353515625
1701881525629457000,7.146456787109375,0.05825662612915039,0.013483524322509766,0.12160110473632812
1701881525639050200,7.15605029296875,0.0466923713684082,0.02744770050048828,0.10167980194091797
1701881525648642800,7.165642822265625,0.03746747970581055,0.05307483673095703,0.07025527954101562
1701881525658234600,7.175234619140625,0.016547203063964844,0.0524907112121582,0.044142723083496094
1701881525667827200,7.1848271484375,-0.013233184814453125,0.08484601974487305,0.013979434967041016
1701881525677420500,7.194420654296875,-0.05167531967163086,0.08612728118896484,-0.005817413330078125
1701881525687013000,7.20401318359375,-0.05850362777709961,0.08737993240356445,-0.01775979995727539
1701881525696605000,7.21360498046875,-0.09071540832519531,0.08373308181762695,-0.017492294311523438
1701881525706197500,7.223197509765625,-0.1246042251586914,0.07309246063232422,-0.019392013549804688
1701881525715790800,7.232790771484375,-0.1225733757019043,0.08843278884887695,0.009249210357666016
1701881525725383400,7.242383544921875,-0.12995147705078125,0.06811189651489258,0.013776302337646484
1701881525734975000,7.25197509765625,-0.12091302871704102,0.07159423828125,0.010800361633300781
1701881525744567800,7.26156787109375,-0.12391519546508789,0.063232421875,0.00299072265625
1701881525754161200,7.2711611328125,-0.09878349304199219,0.05028867721557617,0.006843090057373047
1701881525763753500,7.28075341796875,-0.08373403549194336,0.054139137268066406,-0.013069629669189453
1701881525773345300,7.29034521484375,-0.05023193359375,0.04160737991333008,-0.0278472900390625
1701881525782937900,7.299937744140625,-0.029187679290771484,0.0388636589050293,-0.03757476806640625
1701881525792531200,7.30953125,-0.013152599334716797,0.01036834716796875,-0.04220914840698242
1701881525802123800,7.319123779296875,0.021398544311523438,-0.0011234283447265625,-0.03027057647705078
1701881525811715600,7.328715576171875,0.04587841033935547,-0.0005393028259277344,-0.00903463363647461
1701881525821308200,7.33830810546875,0.06288719177246094,0.0046939849853515625,0.004706382751464844
1701881525830901500,7.347901611328125,0.0794830322265625,-0.013637542724609375,0.011092662811279297
1701881525840494000,7.357494140625,0.10270547866821289,-0.017461299896240234,0.014938831329345703
1701881525850086000,7.3670859375,0.11130619049072266,-0.013981819152832031,0.009448528289794922
1701881525859678500,7.376678466796875,0.11292791366577148,-0.024749755859375,0.013657569885253906
1701881525869271800,7.386271728515625,0.10789680480957031,-0.03557777404785156,0.04386758804321289
1701881525878864100,7.395864013671875,0.09632349014282227,-0.058286190032958984,0.043064117431640625
1701881525888456000,7.4054560546875,0.08284664154052734,-0.057250022888183594,0.07763433456420898
1701881525898048800,7.415048828125,0.08159399032592773,-0.05874776840209961,0.07399272918701172
1701881525907641900,7.424641845703125,0.07567310333251953,-0.04147195816040039,0.1103215217590332
1701881525917234400,7.434234375,0.07933616638183594,-0.019811630249023438,0.10134506225585938
1701881525926826200,7.443826171875,0.08052444458007812,0.015690326690673828,0.10433673858642578
1701881525936418800,7.453418701171875,0.09353160858154297,0.022364139556884766,0.10738897323608398
1701881525946012200,7.46301220703125,0.08742856979370117,0.03130817413330078,0.09623146057128906
1701881525955604700,7.472604736328125,0.0675811767578125,0.04474782943725586,0.09493064880371094
1701881525965196500,7.482196533203125,0.04793500900268555,0.0486602783203125,0.08660507202148438
1701881525974789000,7.4917890625,0.02620220184326172,0.057440757751464844,0.09282875061035156
1701881525984382500,7.501382568359375,0.021331310272216797,0.07089710235595703,0.08738517761230469
1701881525993975000,7.51097509765625,0.007045745849609375,0.07021570205688477,0.0846247673034668
1701881526003566600,7.520566650390625,-0.025756359100341797,0.06482315063476562,0.09376049041748047
1701881526013159400,7.530159423828125,-0.032085418701171875,0.059557437896728516,0.09813261032104492
1701881526022752800,7.539752685546875,-0.0241241455078125,0.042679786682128906,0.09556055068969727
1701881526032345000,7.549344970703125,-0.018540382385253906,0.054306983947753906,0.0837106704711914
1701881526041937000,7.55893701171875,-0.012969017028808594,0.05405426025390625,0.05817222595214844
1701881526051529500,7.568529541015625,-0.012139320373535156,0.05377817153930664,0.0189666748046875
1701881526061122800,7.578122802734375,-0.020631790161132812,0.058237552642822266,-0.012347221374511719
1701881526070715400,7.58771533203125,-0.031336307525634766,0.07213783264160156,-0.05945920944213867
1701881526080307200,7.59730712890625,-0.03953886032104492,0.06958770751953125,-0.11011266708374023
1701881526089899800,7.606899658203125,-0.047525882720947266,0.0768275260925293,-0.15693140029907227
1701881526099493000,7.6164931640625,-0.08329296112060547,0.15987920761108398,-0.24629735946655273
1701881526109085700,7.626085693359375,-0.1019740104675293,0.0368952751159668,-0.14790582656860352
1701881526118677500,7.635677490234375,-0.13934564590454102,0.0006928443908691406,-0.10318326950073242
1701881526128270000,7.64527001953125,-0.17400455474853516,0.03359365463256836,-0.13215208053588867
1701881526137863400,7.654863525390625,-0.1446690559387207,-0.10620927810668945,-0.09774208068847656
1701881526147455700,7.664455810546875,-0.12288427352905273,-0.18556737899780273,-0.050972938537597656
1701881526157047600,7.674047607421875,-0.08975362777709961,-0.21962881088256836,0.012543201446533203
1701881526166640400,7.683640380859375,-0.007779121398925781,-0.19505643844604492,0.033638954162597656
1701881526176233500,7.6932333984375,0.03479957580566406,-0.11939048767089844,0.015773296356201172
1701881526185826000,7.702825927734375,0.061873435974121094,-0.009442806243896484,-0.018768787384033203
1701881526195417900,7.71241796875,0.12505865097045898,0.0450444221496582,-0.0015330314636230469
1701881526205010400,7.722010498046875,0.12261486053466797,0.10615777969360352,0.024291038513183594
1701881526214603800,7.731603759765625,0.15431547164916992,0.12209177017211914,0.018444538116455078
1701881526224196400,7.7411962890625,0.16586732864379883,0.11491775512695312,-0.0036530494689941406
1701881526233788200,7.7507880859375,0.11836671829223633,0.20989656448364258,0.0818629264831543
1701881526243380700,7.760380615234375,0.037014007568359375,0.11508607864379883,0.22117948532104492
1701881526252974000,7.76997412109375,-0.08196592330932617,0.07097434997558594,0.22245264053344727
1701881526262566700,7.779566650390625,-0.16036033630371094,0.08599567413330078,0.24064207077026367
1701881526272158200,7.789158203125,-0.15531158447265625,0.005972385406494141,0.27130603790283203
1701881526281751000,7.7987509765625,-0.0705728530883789,-0.014629364013671875,0.2527914047241211
1701881526291344400,7.808344482421875,0.004065513610839844,-0.0024781227111816406,0.1263422966003418
1701881526300936700,7.817936767578125,0.026949405670166016,0.016422748565673828,0.04819059371948242
1701881526310528500,7.827528564453125,0.05248832702636719,-0.021216392517089844,0.1303863525390625
1701881526320121000,7.83712109375,0.03302764892578125,-0.022775650024414062,0.16455364227294922
1701881526329714400,7.84671435546875,0.0487060546875,-0.021590232849121094,0.07568740844726562
1701881526339307000,7.85630712890625,0.038048744201660156,0.0247650146484375,-0.14772891998291016
1701881526348898800,7.86589892578125,0.04151344299316406,-0.20783042907714844,0.08844661712646484
1701881526358491400,7.875491455078125,0.05881690979003906,-0.17816877365112305,0.14995479583740234
1701881526368084700,7.885084716796875,0.04292154312133789,-0.07161140441894531,0.12997770309448242
1701881526377677300,7.89467724609375,0.04615640640258789,-0.07293176651000977,0.10775518417358398
1701881526387269000,7.90426904296875,0.042275428771972656,-0.13073253631591797,0.09061098098754883
1701881526396861700,7.91386181640625,0.04150819778442383,-0.14269208908081055,0.15962553024291992
1701881526406455000,7.923455078125,0.0771174430847168,-0.1021733283996582,0.3072977066040039
1701881526416047400,7.93304736328125,0.13541030883789062,0.08012533187866211,0.42115259170532227
1701881526425639200,7.94263916015625,0.26799535751342773,0.17580747604370117,0.5272130966186523
1701881526435231700,7.952231689453125,0.45581674575805664,0.05641937255859375,0.4302191734313965
1701881526444825000,7.9618251953125,0.5081758499145508,0.036069393157958984,0.12495613098144531
1701881526454417700,7.971417724609375,0.4482588768005371,0.018804073333740234,-0.1825571060180664
1701881526464009500,7.981009521484375,0.22063589096069336,0.03505420684814453,-0.41049957275390625
1701881526473602000,7.99060205078125,0.0057773590087890625,0.10026359558105469,-0.4536573886871338
1701881526483195400,8.0001953125,-0.1328277587890625,0.008384227752685547,-0.46158337593078613
1701881526492788000,8.0097880859375,-0.3028297424316406,0.00900411605834961,-0.5016891956329346
1701881526502379800,8.0193798828125,-0.4523005485534668,0.018013477325439453,-0.5506598949432373
1701881526511972400,8.028972412109376,-0.5740976333618164,-0.045215606689453125,-0.6297290325164795
1701881526521565700,8.038565673828124,-0.6169238090515137,-0.09937429428100586,-0.5923700332641602
1701881526531158300,8.048158203125,-0.5712890625,-0.10384464263916016,-0.4758341312408447
1701881526540749800,8.057749755859374,-0.4776577949523926,-0.05847978591918945,-0.3945307731628418
1701881526550342700,8.0673427734375,-0.3894643783569336,0.04812335968017578,-0.3293647766113281
1701881526559936000,8.07693603515625,-0.2572789192199707,0.13952064514160156,-0.26857876777648926
1701881526569528300,8.0865283203125,-0.12366199493408203,0.1567521095275879,-0.1978602409362793
1701881526579120000,8.0961201171875,-0.011322975158691406,0.15711307525634766,-0.19233322143554688
1701881526588712700,8.105712646484376,0.08346843719482422,0.13368844985961914,-0.21450519561767578
1701881526598306000,8.11530615234375,0.15003013610839844,0.08449363708496094,-0.20879173278808594
1701881526607898600,8.124898681640625,0.1674203872680664,0.04307079315185547,-0.09800386428833008
1701881526617490400,8.134490478515625,0.18781518936157227,-0.0021033287048339844,-0.02979278564453125
1701881526627083000,8.1440830078125,0.037679195404052734,0.014376640319824219,0.06717205047607422
1701881526636676400,8.15367626953125,-0.02612447738647461,-0.02649831771850586,0.12575387954711914
1701881526646269000,8.16326904296875,-0.042737483978271484,-0.06288528442382812,0.23312807083129883
1701881526655860700,8.17286083984375,-0.04143810272216797,-0.0806879997253418,0.2116856575012207
1701881526665453300,8.182453369140624,0.007464885711669922,-0.08947944641113281,0.2584357261657715
1701881526675046700,8.192046630859375,0.0954732894897461,-0.08208227157592773,0.2776765823364258
1701881526684639000,8.201638916015625,0.14603662490844727,-0.015893936157226562,0.22050905227661133
1701881526694230800,8.211230712890625,0.21616649627685547,-0.030663490295410156,0.22952032089233398
1701881526703823400,8.2208232421875,0.22543096542358398,0.02359914779663086,0.1416163444519043
1701881526713416700,8.230416748046874,0.2738828659057617,-0.011875152587890625,0.10947608947753906
1701881526723009300,8.24000927734375,0.28540849685668945,-0.06240510940551758,0.11350870132446289
1701881526732601000,8.24960107421875,0.2183690071105957,-0.15206050872802734,0.0907740592956543
1701881526742193700,8.259193603515625,0.1075754165649414,-0.255185604095459,0.31875133514404297
1701881526751787000,8.268787109375,0.2158966064453125,-0.1330890655517578,0.0068187713623046875
1701881526761379600,8.278379638671876,0.11534881591796875,-0.21138381958007812,0.18419265747070312
1701881526770971400,8.287971435546876,0.16984033584594727,-0.1400132179260254,0.12135982513427734
1701881526780564000,8.29756396484375,0.1933741569519043,-0.2980337142944336,0.07703590393066406
1701881526790157300,8.3071572265625,0.06118965148925781,0.10202217102050781,0.10860872268676758
1701881526799749600,8.31674951171875,0.1144113540649414,0.15661287307739258,-0.006508827209472656
1701881526809341400,8.326341552734375,0.08342218399047852,0.04795026779174805,-0.02187967300415039
1701881526818934000,8.33593408203125,0.05979442596435547,0.039913177490234375,-0.08916616439819336
1701881526828527600,8.345527587890626,0.051605224609375,-0.14931058883666992,-0.22718214988708496
1701881526838120000,8.355119873046876,-0.04179191589355469,-0.2620964050292969,-0.3035767078399658
1701881526847711700,8.364711669921874,-0.17472171783447266,-0.25051212310791016,-0.2709231376647949
1701881526857304300,8.37430419921875,-0.30803632736206055,-0.07674074172973633,-0.2674546241760254
1701881526866897700,8.383897705078125,-0.29802894592285156,-0.09930849075317383,-0.23426437377929688
1701881526876490200,8.393490234375,-0.2228555679321289,0.09396648406982422,-0.3870737552642822
1701881526886082000,8.40308203125,-0.17908763885498047,0.22459840774536133,-0.40108418464660645
1701881526895674600,8.412674560546876,-0.08101749420166016,0.284146785736084,-0.41937828063964844
1701881526905268000,8.42226806640625,-0.04694557189941406,0.3865842819213867,-0.32645106315612793
1701881526914860500,8.431860595703125,-0.11218738555908203,0.08071565628051758,-0.048569679260253906
1701881526924452400,8.441452392578125,-0.24263620376586914,-0.06469297409057617,0.0733642578125
1701881526934045000,8.451044921875,-0.26751184463500977,-0.009818077087402344,0.05416107177734375
1701881526943638300,8.46063818359375,-0.24888134002685547,0.16388177871704102,-0.0491786003112793
1701881526953230600,8.470230712890626,-0.09894895553588867,0.08146524429321289,-0.08195686340332031
1701881526962822400,8.479822509765626,0.003891468048095703,0.14162445068359375,-0.23413348197937012
1701881526972415000,8.4894150390625,0.20559072494506836,0.35036325454711914,-0.43421339988708496
1701881526982008300,8.49900830078125,0.2654390335083008,0.21082639694213867,-0.39508652687072754
1701881526991601000,8.508600830078125,0.22139596939086914,-0.3111081123352051,-0.08807373046875
1701881527001192700,8.518192626953125,0.09383201599121094,-0.39427852630615234,0.07434844970703125
1701881527010785300,8.527785400390625,0.006793498992919922,-0.5827178955078125,0.3271627426147461
1701881527020378600,8.537378662109376,-0.07900333404541016,0.05631589889526367,0.14910268783569336
1701881527029971200,8.54697119140625,0.0519719123840332,0.36732959747314453,0.04133319854736328
1701881527039563000,8.55656298828125,0.03389692306518555,0.5187845230102539,0.004073619842529297
1701881527049155600,8.566155517578125,0.0649576187133789,0.5792636871337891,0.027156352996826172
1701881527058749000,8.5757490234375,-0.00656890869140625,0.3611774444580078,0.24214839935302734
1701881527068341200,8.58534130859375,0.003726482391357422,-0.10761737823486328,0.48395490646362305
1701881527077933000,8.59493310546875,-0.0034656524658203125,-0.5366730690002441,0.6153087615966797
1701881527087525600,8.604525634765626,-0.0603337287902832,-0.7650132179260254,0.649167537689209
1701881527097119000,8.614118896484374,-0.16912603378295898,-0.588615894317627,0.5559482574462891
1701881527106711600,8.623711669921875,-0.1652078628540039,-0.19040393829345703,0.4524517059326172
1701881527116303400,8.633303466796875,-0.17177343368530273,0.6580572128295898,0.23837661743164062
1701881527125896000,8.64289599609375,0.13061857223510742,1.621016502380371,-0.2333083152770996
1701881527135489300,8.6524892578125,0.4724893569946289,1.4205288887023926,-0.3982808589935303
1701881527145081900,8.662081787109376,0.4577903747558594,0.9556798934936523,-0.3263399600982666
1701881527154673700,8.671673583984376,0.20787620544433594,0.4886298179626465,-0.18808364868164062
1701881527164266200,8.681266357421874,0.2235240936279297,-0.1462230682373047,-0.21585321426391602
1701881527173859600,8.690859619140625,0.25197935104370117,-0.4565763473510742,-0.15610218048095703
1701881527183452000,8.700451904296875,-0.027877330780029297,-0.47124481201171875,-0.0016379356384277344
1701881527193043700,8.710043701171875,-0.06954717636108398,-0.7968912124633789,0.1319131851196289
1701881527202636300,8.71963623046875,-0.0408787727355957,-0.9846014976501465,0.05710124969482422
1701881527212230000,8.72922998046875,-0.21629571914672852,-1.1756172180175781,0.22674322128295898
1701881527221822200,8.738822265625,-0.26103830337524414,-1.3190603256225586,0.35909128189086914
1701881527231414000,8.7484140625,-0.3127937316894531,-0.9882879257202148,0.39783382415771484
1701881527241006600,8.758006591796875,-0.3268899917602539,-0.5546903610229492,0.34029150009155273
1701881527250600000,8.767599853515625,-0.22223997116088867,-0.279449462890625,0.2007732391357422
1701881527260192500,8.777192626953125,-0.09574079513549805,-0.04801368713378906,-0.018897056579589844
1701881527269784300,8.786784423828125,-0.09239006042480469,0.12833070755004883,-0.19258499145507812
1701881527279377000,8.796376953125,-0.04962301254272461,-0.11235523223876953,-0.10493183135986328
1701881527288970200,8.80597021484375,0.010701656341552734,-0.15340185165405273,-0.18935871124267578
1701881527298562800,8.815562744140625,0.06535768508911133,-0.1775507926940918,-0.2140789031982422
1701881527308154600,8.825154541015625,-0.031552791595458984,-0.09766149520874023,-0.023742198944091797
1701881527317747200,8.834747314453125,0.03840494155883789,0.04299449920654297,-0.00047779083251953125
1701881527327340500,8.844340576171875,0.13646411895751953,-0.11527013778686523,0.13501358032226562
1701881527336932900,8.853932861328126,0.4557976722717285,-0.17099571228027344,-0.023215770721435547
1701881527346524700,8.863524658203126,0.1417083740234375,-0.10291242599487305,0.10157394409179688
1701881527356117200,8.8731171875,0.16131305694580078,-0.04232645034790039,0.07489967346191406
1701881527365710600,8.882710693359375,0.18255233764648438,-0.050675392150878906,0.31102943420410156
1701881527375303200,8.89230322265625,0.16421794891357422,0.0713653564453125,0.1500229835510254
1701881527384895000,8.90189501953125,0.007803440093994141,0.2076740264892578,0.16403436660766602
1701881527394487600,8.911487548828125,-0.060872554779052734,0.17570018768310547,0.17414569854736328
1701881527404081000,8.921080810546876,0.0013012886047363281,0.015997886657714844,-0.10149669647216797
1701881527413673500,8.930673583984374,-0.004501819610595703,-0.11481237411499023,-0.14017009735107422
1701881527423265300,8.940265380859374,-0.21571874618530273,-0.12256288528442383,-0.03075885772705078
1701881527432857900,8.94985791015625,0.23294782638549805,-0.44173622131347656,0.14864683151245117
1701881527442451200,8.959451171875,-0.47983407974243164,-0.7595982551574707,-0.40955281257629395
1701881527452043500,8.96904345703125,1.103780746459961,-0.44530439376831055,0.8243017196655273
1701881527461635300,8.97863525390625,-0.11891841888427734,-0.7170381546020508,0.23052597045898438
1701881527471228000,8.988227783203126,0.04082918167114258,-0.26586389541625977,0.4229588508605957
1701881527480821200,8.9978212890625,-0.10843706130981445,-0.19250917434692383,0.31912994384765625
1701881527490413800,9.007413818359375,0.05905866622924805,-0.4299168586730957,0.19558429718017578
1701881527500005600,9.017005615234375,0.3433709144592285,-0.7705607414245605,0.18717718124389648
1701881527509598200,9.02659814453125,0.052754878997802734,-0.615023136138916,0.25293731689453125
1701881527519191600,9.036191650390625,0.7905459403991699,0.19108343124389648,0.5605721473693848
1701881527528784100,9.0457841796875,-0.7694854736328125,-0.13472890853881836,-0.0014104843139648438
1701881527538376000,9.0553759765625,0.16402816772460938,-1.2391276359558105,-0.7605264186859131
1701881527547968500,9.064968505859374,1.7002675533294678,-6.005238056182861,-6.194190502166748
1701881527557561900,9.074561767578125,1.4618654251098633,-2.691929817199707,-0.2854275703430176
1701881527567154400,9.084154541015625,0.633455753326416,-1.3234434127807617,0.847226619720459
1701881527576746000,9.09374609375,0.42943572998046875,-0.7870020866394043,0.7896928787231445
1701881527586338800,9.1033388671875,0.2540607452392578,-0.9120712280273438,0.5092062950134277
1701881527595932000,9.112931884765626,0.3110995292663574,-1.2160601615905762,0.5912876129150391
1701881527605524500,9.1225244140625,-0.25713634490966797,-1.8299570083618164,1.4488272666931152
1701881527615116300,9.1321162109375,-1.689986228942871,-1.4915447235107422,1.8589577674865723
1701881527624708900,9.141708984375,-2.6565842628479004,-0.6615076065063477,1.32100248336792
1701881527634302200,9.15130224609375,-2.5660359859466553,-0.2831306457519531,0.8384838104248047
1701881527643894800,9.160894775390625,-1.0343818664550781,-0.5925273895263672,1.2973694801330566
1701881527653486600,9.170486572265625,1.083345651626587,-1.4074268341064453,0.12004232406616211
1701881527663079200,9.1800791015625,-1.2734625339508057,-1.3955507278442383,-1.0362160205841064
1701881527672672500,9.189672607421874,-2.958674430847168,0.363008975982666,-1.0703930854797363
1701881527682265000,9.19926513671875,-3.1625494956970215,-0.3775501251220703,0.012997150421142578
1701881527691857000,9.20885693359375,-2.135965585708618,-1.3935375213623047,0.4447946548461914
1701881527701449500,9.218449462890625,-1.5456764698028564,-1.5837316513061523,0.2248845100402832
1701881527711042800,9.228042724609375,-1.588555097579956,-1.2170591354370117,-0.42954587936401367
1701881527720635100,9.23763525390625,-1.9615554809570312,-0.6505336761474609,-0.4994173049926758
1701881527730227000,9.24722705078125,-1.9631506204605103,-0.844599723815918,-0.37081241607666016
1701881527739819500,9.256819580078124,-1.6857688426971436,-0.7935066223144531,0.08753156661987305
1701881527749412900,9.266412841796875,-2.1168313026428223,-0.13559627532958984,1.1823773384094238
1701881527759005400,9.27600537109375,-4.378242015838623,-1.18621826171875,2.2374138832092285
1701881527768597200,9.28559716796875,-6.120697975158691,-0.26774024963378906,0.921994686126709
1701881527778189800,9.29518994140625,-5.645754337310791,0.0509796142578125,0.8859014511108398
1701881527787783200,9.304783203125,-6.005881309509277,0.19286346435546875,1.793980598449707
1701881527797375700,9.314375732421874,-7.543296813964844,0.1070089340209961,1.6575927734375
1701881527806967600,9.323967529296874,-9.872196197509766,1.388962745666504,1.8377137184143066
1701881527816560000,9.33356005859375,-3.5077528953552246,1.751434326171875,2.7676262855529785
1701881527826153500,9.343153564453125,2.1529996395111084,1.3124747276306152,3.9186787605285645
1701881527835746000,9.35274609375,4.650151252746582,1.5247750282287598,5.216346740722656
1701881527845337600,9.362337646484375,4.223541259765625,0.9719324111938477,7.804986476898193
1701881527854930400,9.371930419921876,2.263456344604492,-0.3436746597290039,10.253273010253906
1701881527864523500,9.3815234375,0.5372545719146729,-0.1352243423461914,10.194868087768555
1701881527874116000,9.3911162109375,-0.4221365451812744,0.7199440002441406,9.047483444213867
1701881527883708000,9.4007080078125,-0.6150641441345215,1.848891258239746,7.769968509674072
1701881527893300500,9.410300537109375,-1.140742540359497,1.8730111122131348,6.884194850921631
1701881527902893800,9.419893798828125,-1.7808732986450195,1.07094144821167,6.351833343505859
1701881527912486400,9.429486328125,-2.440053939819336,0.13863372802734375,5.702076435089111
1701881527922078200,9.439078125,-2.8754382133483887,-0.7199335098266602,5.120362281799316
1701881527931670800,9.4486708984375,-2.8295435905456543,-1.2538070678710938,4.034212589263916
1701881527941264100,9.45826416015625,-2.490501642227173,-1.9066481590270996,3.318512439727783
1701881527950856700,9.467856689453125,-2.1700868606567383,-2.3129401206970215,2.4303107261657715
1701881527960448300,9.4774482421875,-2.218163013458252,-2.6643941402435303,1.2588000297546387
1701881527970041000,9.487041015625,-2.350447177886963,-3.1708178520202637,0.3003702163696289
1701881527979634400,9.496634521484374,-2.4248199462890625,-3.7806808948516846,-0.6254348754882812
1701881527989226800,9.506226806640624,-2.3927602767944336,-4.358823299407959,-1.2097702026367188
1701881527998818600,9.515818603515624,-2.4395322799682617,-4.455968379974365,-2.0110702514648438
1701881528008411100,9.5254111328125,-2.8061676025390625,-4.484448432922363,-2.81020450592041
1701881528018004500,9.53500439453125,-4.163972854614258,-4.682964324951172,-3.1962475776672363
1701881528027597000,9.54459716796875,-5.883087635040283,-4.916464328765869,-2.5429952144622803
1701881528037188900,9.55418896484375,-5.922757148742676,-4.651477813720703,-2.9494717121124268
1701881528046781400,9.563781494140626,-6.232322692871094,-2.9889492988586426,-5.436851978302002
1701881528056374800,9.573374755859374,-7.424485206604004,-1.756203293800354,-7.039213180541992
1701881528065967400,9.58296728515625,-8.04450798034668,-2.309584379196167,-6.397385597229004
1701881528075559200,9.59255908203125,-5.285844802856445,-2.4460387229919434,-4.889508247375488
1701881528085151700,9.60215185546875,-1.7114596366882324,-2.481687545776367,-3.6236367225646973
1701881528094745000,9.6117451171875,1.4575614929199219,-2.0974299907684326,-3.5225419998168945
1701881528104337400,9.62133740234375,6.312103271484375,-1.8850831985473633,-3.0359673500061035
1701881528113929200,9.63092919921875,6.780151844024658,-2.7471282482147217,-3.2635931968688965
1701881528123521800,9.640521728515624,3.4895877838134766,-3.5792839527130127,-3.027493953704834
1701881528133115100,9.650115234375,2.631040573120117,-3.991860866546631,-3.3369431495666504
1701881528142707700,9.659707763671875,2.8594541549682617,-3.8696796894073486,-3.977395534515381
1701881528152299500,9.669299560546875,3.0963096618652344,-3.291874885559082,-3.932807207107544
1701881528161892000,9.67889208984375,3.3266959190368652,-2.4752602577209473,-3.135709285736084
1701881528171485400,9.6884853515625,2.732511520385742,-1.400336742401123,-2.437812089920044
1701881528181078000,9.698078125,0.8525819778442383,0.3896477222442627,-2.5350699424743652
1701881528190669800,9.707669921875,-1.1161103248596191,0.09164810180664062,-1.8180341720581055
1701881528200262400,9.717262451171875,-1.2855148315429688,-1.2351768016815186,-0.46952199935913086
1701881528209855700,9.726855712890625,-0.5358829498291016,-1.8322558403015137,0.2996830940246582
1701881528219448000,9.736447998046875,1.1253795623779297,-1.498354434967041,0.2802135944366455
1701881528229039900,9.746039794921876,1.5057754516601562,-1.0429036617279053,0.012815713882446289
1701881528238632700,9.7556328125,0.7339134216308594,-0.7396743297576904,0.22846484184265137
1701881528248226000,9.76522607421875,-0.18347644805908203,-0.6862523555755615,0.8499033451080322
1701881528257818400,9.774818359375,-0.7344269752502441,-0.9695687294006348,1.4311332702636719
1701881528267410200,9.78441015625,-0.21358871459960938,-1.60595703125,1.729538917541504
1701881528277002800,9.794002685546875,0.8598451614379883,-2.4284675121307373,1.8772046566009521
1701881528286596000,9.80359619140625,2.604426383972168,-2.5880608558654785,1.5953950881958008
1701881528296188700,9.813188720703126,4.100337028503418,-2.230396270751953,1.1521573066711426
1701881528305780500,9.822780517578124,4.9823198318481445,-1.7801411151885986,0.9832336902618408
1701881528315373000,9.832373046875,4.248472213745117,-1.8665556907653809,1.6521317958831787
1701881528324966400,9.84196630859375,2.2741575241088867,-2.3195085525512695,2.561758041381836
1701881528334559000,9.85155908203125,0.8875436782836914,-2.4527335166931152,2.8644611835479736
1701881528344150800,9.86115087890625,0.4215402603149414,-2.4373092651367188,2.6992907524108887
1701881528353743400,9.870743408203126,0.3620128631591797,-2.190237522125244,2.17624831199646
1701881528363336700,9.880336669921874,-0.012185096740722656,-1.7890264987945557,1.3791935443878174
1701881528372929000,9.889928955078124,-0.6630764007568359,-1.343501091003418,0.5264477729797363
1701881528382520800,9.899520751953125,-1.1150050163269043,-0.7474825382232666,-0.12903177738189697
1701881528392113400,9.909113525390625,-1.2519187927246094,-0.3654351234436035,-0.09887552261352539
1701881528401706800,9.918706787109375,-1.4164137840270996,-0.7789843082427979,0.5781643390655518
1701881528411299300,9.92829931640625,-1.8021588325500488,-1.309457778930664,1.0866261720657349
1701881528420891100,9.93789111328125,-1.9045071601867676,-1.1570861339569092,1.046514868736267
1701881528430483700,9.947483642578124,-2.2002615928649902,-0.9343438148498535,0.8114508390426636
1701881528440077000,9.9570771484375,-2.597874164581299,-0.8591740131378174,0.5874189138412476
1701881528449669600,9.966669677734375,-3.00241756439209,-0.7240338325500488,0.3776519298553467
1701881528459261400,9.976261474609375,-2.9611058235168457,-0.6336765289306641,0.18660414218902588
1701881528468854000,9.98585400390625,-1.8588910102844238,-1.0121352672576904,0.6538890600204468
1701881528478447400,9.995447265625,-0.3557758331298828,-0.31160783767700195,0.41464102268218994
1701881528488039700,10.005039794921874,0.7737102508544922,-0.6213276386260986,0.09217619895935059
1701881528497631500,10.014631591796874,0.9436702728271484,-1.5728232860565186,0.5963336229324341
1701881528507224000,10.02422412109375,0.9414262771606445,-1.7153384685516357,1.0079169273376465
1701881528516817400,10.0338173828125,0.9125947952270508,-1.5803618431091309,1.116145372390747
1701881528526410000,10.043409912109375,0.8375701904296875,-1.398188829421997,1.2825838327407837
