time,seconds_elapsed,z,y,x
1701881518593327400,0.110327392578125,8.700303077697754,6.055635929107666,0.5276173949241638
1701881518602919200,0.119919189453125,5.248058319091797,6.172883987426758,0.7692924737930298
1701881518612511700,0.12951171875,6.16271448135376,5.414060115814209,1.3725829124450684
1701881518622105000,0.13910498046875,5.494519233703613,5.140979290008545,1.7748762369155884
1701881518631697700,0.14869775390625,6.385247230529785,5.42363166809082,2.708376169204712
1701881518641289500,0.15828955078125,7.419544696807861,5.593522071838379,2.770589590072632
1701881518650882000,0.167882080078125,8.082655906677246,5.763711452484131,2.6102705001831055
1701881518660475400,0.177475341796875,8.645268440246582,6.242276191711426,1.9423737525939941
1701881518670068000,0.18706787109375,8.530412673950195,6.000600814819336,1.2337992191314697
1701881518679659500,0.196659423828125,7.867301940917969,5.320740222930908,0.8913264274597168
1701881518689252400,0.20625244140625,7.1871418952941895,4.978267669677734,0.7956135272979736
1701881518698845700,0.215845703125,6.689135551452637,5.1050872802734375,0.747757077217102
1701881518708438000,0.22543798828125,6.662814617156982,5.615057468414307,0.6879364848136902
1701881518718029800,0.23502978515625,6.995716094970703,6.14417028427124,0.4172484576702118
1701881518727622400,0.244622314453125,7.510472297668457,6.4818572998046875,-0.2027917206287384
1701881518737216000,0.254216064453125,7.869694709777832,6.7642107009887695,-0.844367265701294
1701881518746808300,0.263808349609375,7.551149845123291,6.97986364364624,-0.913759171962738
1701881518756400000,0.273400146484375,7.491329669952393,6.963113784790039,-0.32961133122444153
1701881518765992700,0.28299267578125,7.158428192138672,6.431608200073242,0.7286145091056824
1701881518775586000,0.2925859375,7.06271505355835,6.024528980255127,1.8610178232192993
1701881518785178600,0.3021787109375,7.091429233551025,5.921638011932373,2.6796622276306152
1701881518794770400,0.3117705078125,7.2421770095825195,5.9264235496521,3.053241729736328
1701881518804363000,0.321363037109375,7.685148239135742,5.924030780792236,3.0628130435943604
1701881518813956400,0.330956298828125,8.05394172668457,5.876173973083496,2.7586255073547363
1701881518823549000,0.340548828125,8.104190826416016,6.0125651359558105,2.2561326026916504
1701881518833140700,0.350140625,7.6253275871276855,6.376573085784912,1.8490537405014038
1701881518842733300,0.3597333984375,6.9670023918151855,6.496214389801025,1.8203397989273071
1701881518852326700,0.36932666015625,6.073881149291992,6.407680034637451,2.059622049331665
1701881518861919200,0.378919189453125,5.183452129364014,6.2398834228515625,2.2896320819854736
1701881518871511000,0.388510986328125,5.128417015075684,6.189633846282959,2.471486806869507
1701881518881103600,0.398103515625,5.520840167999268,6.752246379852295,1.8059829473495483
1701881518890697000,0.407697021484375,5.571089267730713,6.874579429626465,1.6528422832489014
1701881518900289500,0.41728955078125,5.968596935272217,6.548856258392334,1.6262221336364746
1701881518909881000,0.426881103515625,6.495316982269287,6.259026050567627,1.9399809837341309
1701881518919474000,0.436473876953125,6.950252532958984,6.000600814819336,2.4451656341552734
1701881518929067000,0.44606689453125,7.51286506652832,5.900102615356445,2.598306179046631
1701881518938659800,0.455659912109375,8.152048110961914,5.914459228515625,2.6054847240448
1701881518948251400,0.46525146484375,8.554341316223145,5.768496990203857,2.734697103500366
1701881518957844000,0.474843994140625,8.920442581176758,5.445167064666748,2.888136863708496
1701881518967437300,0.484437255859375,9.2557373046875,5.186742305755615,2.8905298709869385
1701881518977030000,0.49402978515625,9.329915046691895,5.066802024841309,2.638984203338623
1701881518986621700,0.50362158203125,8.951848983764648,4.920839786529541,2.4451656341552734
1701881518996214300,0.51321435546875,8.360222816467285,4.901697158813477,2.2657039165496826
1701881519005807600,0.5228076171875,7.800003528594971,4.951946258544922,2.1433708667755127
1701881519015400200,0.532400146484375,7.383652687072754,5.062016487121582,2.121835470199585
1701881519024992000,0.541991943359375,6.990930557250977,5.126622676849365,2.210369825363159
1701881519034584600,0.55158447265625,6.80668306350708,5.215456008911133,2.323131799697876
1701881519044178000,0.561177978515625,6.758826732635498,5.303990364074707,2.354238271713257
1701881519053770500,0.5707705078125,6.701398849487305,5.320740222930908,2.3518455028533936
1701881519063362300,0.5803623046875,6.607779502868652,5.380560874938965,2.253739833831787
1701881519072955000,0.589954833984375,6.703791618347168,5.452345371246338,2.1433708667755127
1701881519082548200,0.59954833984375,6.756433963775635,5.507380485534668,2.138585329055786
1701881519092140800,0.609140869140625,6.699006080627441,5.619843006134033,2.2055842876434326
1701881519101732600,0.618732666015625,6.730112552642822,5.662913799285889,2.2968106269836426
1701881519111325200,0.6283251953125,6.885646343231201,5.603093147277832,2.3135604858398438
1701881519120918500,0.63791845703125,7.014858722686768,5.696413516998291,2.449951171875
1701881519130510800,0.6475107421875,7.227819919586182,5.845067501068115,2.775674343109131
1701881519140102700,0.6571025390625,7.486543655395508,5.962316036224365,2.8426733016967773
1701881519149695500,0.666695556640625,7.737790107727051,6.093921184539795,2.809173822402954
1701881519159288600,0.67628857421875,8.125726699829102,6.13699197769165,2.8426733016967773
1701881519168881200,0.685881103515625,8.482556343078613,6.103492259979248,2.847458839416504
1701881519178473000,0.695472900390625,8.628518104553223,6.125027656555176,2.825923442840576
1701881519188065500,0.7050654296875,8.678768157958984,6.089135646820068,2.9359934329986572
1701881519197659000,0.714658935546875,8.602197647094727,6.0125651359558105,3.0628130435943604
1701881519207251500,0.72425146484375,8.415556907653809,5.974279880523682,3.053241729736328
1701881519216843300,0.73384326171875,8.180761337280273,5.935994625091553,2.950350284576416
1701881519226435800,0.743435791015625,7.941479206085205,5.852245807647705,2.9144580364227295
1701881519236029200,0.753029296875,7.804789066314697,5.768496990203857,2.8905298709869385
1701881519245621800,0.762621826171875,7.778468132019043,5.74696159362793,2.9718856811523438
1701881519255213600,0.772213623046875,7.790432453155518,5.7155561447143555,3.22552490234375
1701881519264806100,0.78180615234375,7.8194451332092285,5.6916279792785645,3.4411780834198
1701881519274399500,0.7913994140625,7.728219032287598,5.689234733581543,3.546462297439575
1701881519283992000,0.800991943359375,7.567899703979492,5.61027193069458,3.5081770420074463
1701881519293584000,0.810583984375,7.366902828216553,5.461916923522949,3.3308091163635254
1701881519303176400,0.820176513671875,7.311867713928223,5.282454967498779,3.019742250442505
1701881519312769800,0.829769775390625,7.517650604248047,5.133800983428955,2.7876384258270264
1701881519322362000,0.839362060546875,7.874480247497559,5.062016487121582,2.6198415756225586
1701881519331954000,0.848953857421875,8.29561710357666,4.983053207397461,2.3997020721435547
1701881519341546800,0.858546630859375,8.652446746826172,4.968696117401123,2.145763635635376
1701881519351140000,0.86814013671875,8.752944946289062,4.928018093109131,2.028515338897705
1701881519360732400,0.877732421875,8.685946464538574,4.839483737945557,1.8849459886550903
1701881519370324200,0.88732421875,8.37966537475586,4.7988057136535645,1.810768485069275
1701881519379916800,0.896916748046875,8.197511672973633,4.727021217346191,2.0309081077575684
1701881519389510100,0.90651025390625,8.688339233398438,4.547260284423828,2.7586255073547363
1701881519399102700,0.916102783203125,9.164810180664062,4.406083583831787,3.6110684871673584
1701881519408694500,0.925694580078125,9.258130073547363,4.2361931800842285,4.010969161987305
1701881519418287000,0.935287109375,8.985347747802734,4.162015914916992,3.8168511390686035
1701881519427880400,0.94488037109375,8.144868850708008,4.2122650146484375,3.711566925048828
1701881519437473000,0.95447314453125,6.990930557250977,4.286442756652832,3.656532049179077
1701881519447064800,0.96406494140625,6.10259485244751,4.367798805236816,3.6182470321655273
1701881519456657400,0.973657470703125,5.327021598815918,4.451547622680664,3.773780345916748
1701881519466250800,0.983250732421875,4.872086048126221,4.363012790679932,4.298107624053955
1701881519475843300,0.99284326171875,5.049454212188721,4.097409725189209,5.117051124572754
1701881519485435100,1.00243505859375,5.453841209411621,3.817150354385376,5.528616905212402
1701881519495027700,1.01202783203125,5.803492069244385,3.467499017715454,5.045266628265381
1701881519504621000,1.02162109375,6.222535133361816,3.048755168914795,4.156930923461914
1701881519514213600,1.031213623046875,6.602993965148926,2.517249345779419,3.8455650806427
1701881519523805200,1.04080517578125,6.531209468841553,1.973779559135437,4.190430641174316
1701881519533398000,1.05039794921875,6.141179084777832,1.2433704137802124,4.424927234649658
1701881519542991400,1.059991455078125,5.791528224945068,0.45583271980285645,4.779364109039307
1701881519552583700,1.069583740234375,5.925526142120361,-0.054137613624334335,5.337191104888916
1701881519562175500,1.079175537109375,6.2105712890625,-0.6502495408058167,5.579164981842041
1701881519571768000,1.08876806640625,6.703791618347168,-0.9613165259361267,5.554937839508057
1701881519581361700,1.098361572265625,7.081857681274414,-1.337288737297058,5.497509956359863
1701881519590954000,1.1079541015625,7.191927433013916,-1.8711873292922974,5.492724418640137
1701881519600545800,1.1175458984375,6.821040153503418,-2.1945173740386963,6.1342997550964355
1701881519610138400,1.127138427734375,5.518447399139404,-3.0275187492370605,7.460821151733398
1701881519619731700,1.136731689453125,4.151547431945801,-4.267599105834961,8.7176513671875
1701881519629324300,1.14632421875,2.799004316329956,-5.2492547035217285,9.69930648803711
1701881519638916000,1.155916015625,1.8747764825820923,-5.507978439331055,10.22602653503418
1701881519648508700,1.1655087890625,0.8141579031944275,-4.957330226898193,9.328120231628418
1701881519658102000,1.17510205078125,-0.49292147159576416,-4.492823600769043,8.162217140197754
1701881519667694600,1.184694580078125,-2.161616086959839,-5.021936416625977,8.234002113342285
1701881519677286400,1.194286376953125,-4.357030868530273,-5.316253662109375,8.909076690673828
1701881519686879000,1.20387890625,-6.246164321899414,-5.158327579498291,9.505488395690918
1701881519696472300,1.213472412109375,-7.948358535766602,-5.1080780029296875,10.007980346679688
1701881519706065000,1.22306494140625,-8.649754524230957,-4.986044406890869,10.46052360534668
1701881519715656700,1.23265673828125,-8.168498039245605,-4.452145576477051,10.829317092895508
1701881519725249300,1.242249267578125,-7.45274543762207,-3.875176191329956,11.41107177734375
1701881519734842600,1.251842529296875,-7.000202655792236,-3.49920392036438,11.545069694519043
1701881519744435200,1.261435302734375,-7.031309127807617,-3.446561813354492,11.12602710723877
1701881519754026800,1.27102685546875,-7.364210605621338,-3.671487331390381,10.771889686584473
1701881519763619600,1.28061962890625,-8.099106788635254,-4.085744857788086,10.896316528320312
1701881519773213000,1.290212890625,-8.170890808105469,-4.387539386749268,10.398309707641602
1701881519782805500,1.299805419921875,-7.083951473236084,-4.837389945983887,9.404690742492676
1701881519792397000,1.30939697265625,-4.642076015472412,-5.534299850463867,8.595617294311523
1701881519801989600,1.31898974609375,-1.9199410676956177,-6.123233318328857,8.377571105957031
1701881519811583000,1.3285830078125,0.2802593410015106,-6.491727828979492,8.116753578186035
1701881519821175600,1.338175537109375,1.3863415718078613,-6.987341403961182,8.222037315368652
1701881519830767400,1.347767333984375,1.867598056793213,-7.6600236892700195,8.796614646911621
1701881519840360000,1.35735986328125,2.315355062484741,-8.028817176818848,8.734400749206543
1701881519849953300,1.366953369140625,1.9824535846710205,-8.15563678741455,8.274680137634277
1701881519859545900,1.3765458984375,1.202094316482544,-8.311469078063965,7.618747234344482
1701881519869137700,1.3861376953125,0.35922250151634216,-8.565108299255371,7.496713161468506
1701881519878730200,1.395730224609375,-0.1818545162677765,-8.38564682006836,7.520641803741455
1701881519888323600,1.405323486328125,-0.5838487148284912,-7.791927814483643,7.6666035652160645
1701881519897916200,1.414916259765625,-1.0339984893798828,-7.516454219818115,7.4847493171691895
1701881519907508000,1.424508056640625,-1.8026927709579468,-8.143672943115234,7.475177764892578
1701881519917100500,1.4341005859375,-0.8808578252792358,-12.70917797088623,10.470094680786133
1701881519926694000,1.44369384765625,0.1175474151968956,-10.391729354858398,7.456035137176514
1701881519936286500,1.453286376953125,0.17736798524856567,-8.500502586364746,5.2630133628845215
1701881519945878300,1.462878173828125,0.5051847100257874,-8.067102432250977,4.963611602783203
1701881519955470800,1.472470947265625,0.5772684812545776,-7.585845947265625,5.56450891494751
1701881519965064200,1.482064208984375,0.00029910283046774566,-7.4015984535217285,5.938088417053223
1701881519974656500,1.491656494140625,-0.8904291391372681,-6.345765590667725,5.059623718261719
1701881519984248300,1.501248291015625,-1.3453645706176758,-6.527620315551758,4.71236515045166
1701881519993841200,1.510841064453125,-0.8473583459854126,-5.914758682250977,0.7166503667831421
1701881520003434500,1.5204345703125,-2.3605196475982666,-7.459026336669922,0.15643078088760376
1701881520013026800,1.53002685546875,-4.457529544830322,-8.126922607421875,0.7166503667831421
1701881520022618600,1.53961865234375,-7.364210605621338,-8.265707015991211,3.7450666427612305
1701881520032211200,1.549211181640625,0.4453641176223755,-9.585049629211426,13.628022193908691
1701881520041804500,1.558804443359375,6.033203125,-9.400503158569336,16.19911003112793
1701881520051397000,1.568397216796875,6.153143405914307,-8.979366302490234,12.124432563781738
1701881520060989000,1.577989013671875,1.4174482822418213,-8.88125991821289,8.085646629333496
1701881520070581500,1.58758154296875,-2.788834810256958,-8.823533058166504,5.729912757873535
1701881520080174800,1.5971748046875,-3.4040892124176025,-8.663214683532715,4.485046863555908
1701881520089767400,1.606767333984375,-2.006082773208618,-8.615358352661133,4.223930358886719
1701881520099359200,1.616359130859375,-0.1986042857170105,-8.562715530395508,3.8240296840667725
1701881520108951800,1.625951904296875,0.7663014531135559,-8.514859199523926,3.4627134799957275
1701881520118545200,1.635545166015625,0.7304090857505798,-8.483752250671387,3.098705291748047
1701881520128137700,1.6451376953125,0.49322056770324707,-8.498109817504883,3.6182470321655273
1701881520137729500,1.6547294921875,0.3496512174606323,-8.067102432250977,4.446462631225586
1701881520147322000,1.664322021484375,0.31375887989997864,-7.662416458129883,5.375475883483887
1701881520156915500,1.67391552734375,0.24915266036987305,-7.552346706390381,6.168098449707031
1701881520166508000,1.683508056640625,-0.22013968229293823,-7.686344623565674,5.14576530456543
1701881520176099600,1.693099609375,-0.7588238716125488,-8.50289535522461,4.535296440124512
1701881520185692200,1.702692138671875,0.1175474151968956,-9.259325981140137,4.930111885070801
1701881520195285800,1.71228564453125,0.9888339638710022,-8.62732219696045,4.6764726638793945
1701881520204878000,1.721878173828125,0.9625129103660583,-7.897212028503418,4.369892120361328
1701881520214470000,1.731469970703125,0.9577272534370422,-7.9019975662231445,4.803292274475098
1701881520224062500,1.7410625,2.5474588871002197,-8.617751121520996,5.2390851974487305
1701881520233655800,1.75065576171875,3.191427230834961,-9.331110954284668,3.2159535884857178
1701881520243248400,1.760248291015625,2.056631088256836,-10.61695384979248,2.495414972305298
1701881520252840200,1.769840087890625,0.40229329466819763,-10.494621276855469,3.294916868209839
1701881520262432800,1.779432861328125,0.5075774788856506,-9.963115692138672,2.5624139308929443
1701881520272026000,1.789026123046875,0.17497515678405762,-11.00459098815918,3.5321052074432373
1701881520281618700,1.79861865234375,-1.5487544536590576,-12.92483139038086,4.465904235839844
1701881520291210500,1.80821044921875,-0.976570725440979,-11.854641914367676,2.435594320297241
1701881520300803000,1.817802978515625,0.5195416212081909,-9.376574516296387,0.8267202377319336
1701881520310396400,1.827396484375,0.521934449672699,-8.06949520111084,0.9296116232872009
1701881520319989000,1.836989013671875,0.1989033818244934,-7.863712310791016,1.4084752798080444
1701881520329580800,1.846580810546875,-0.07657032459974289,-8.804390907287598,2.0644078254699707
1701881520339173400,1.85617333984375,0.4621138870716095,-9.11575698852539,2.591127872467041
1701881520348766700,1.8657666015625,0.39511483907699585,-9.242576599121094,2.47387957572937
1701881520358359300,1.875359375,-0.4953143000602722,-9.187541961669922,2.4044876098632812
1701881520367951000,1.884951171875,-2.027618169784546,-7.947461128234863,2.950350284576416
1701881520377543700,1.894543701171875,-2.42512583732605,-7.049554824829102,2.2896320819854736
1701881520387137000,1.904136962890625,-1.2305090427398682,-6.537191390991211,1.547258973121643
1701881520396729600,1.9137294921875,-0.5527420043945312,-6.666703224182129,1.3055838346481323
1701881520406321200,1.923321044921875,-0.7181459069252014,-6.831807613372803,0.9176474809646606
1701881520415913700,1.932913818359375,0.024227328598499298,-7.394420146942139,0.3478565812110901
1701881520425507000,1.942507080078125,-0.20578274130821228,-6.69780969619751,0.3047857880592346
1701881520435099600,1.952099609375,-0.10049854964017868,-6.199803352355957,0.41964125633239746
1701881520444691500,1.96169140625,0.20847466588020325,-6.281159400939941,0.393320232629776
1701881520454284000,1.971283935546875,-0.576670229434967,-8.941081047058105,0.1947159469127655
1701881520463877400,1.98087744140625,0.20847466588020325,-10.995019912719727,0.8889335989952087
1701881520473470000,1.990469970703125,-0.6367899179458618,-7.9953179359436035,1.8634105920791626
1701881520483061800,2.000061767578125,-3.8398821353912354,-7.3537421226501465,1.7772690057754517
1701881520492654300,2.009654296875,-4.179962158203125,-8.119744300842285,1.3965110778808594
1701881520502247700,2.01924755859375,-3.3011980056762695,-8.328219413757324,0.44356951117515564
1701881520511840300,2.02884033203125,-1.0148558616638184,-8.39282512664795,-0.47557350993156433
1701881520521432000,2.03843212890625,1.012762188911438,-8.677571296691895,-0.8515457510948181
1701881520531024600,2.048024658203125,1.6160526275634766,-9.611370086669922,-0.6098706722259521
1701881520540618000,2.057617919921875,0.48364928364753723,-10.525727272033691,-0.3152543902397156
1701881520550210600,2.06721044921875,-0.9095717072486877,-12.60867977142334,1.6190435886383057
1701881520559802000,2.076802001953125,-1.8194425106048584,-12.948760032653809,1.1093723773956299
1701881520569395000,2.08639501953125,-2.006082773208618,-14.923735618591309,-1.6271194219589233
1701881520578988300,2.09598828125,-1.776371717453003,-29.956344604492188,-3.018246650695801
1701881520588580600,2.10558056640625,-0.28953152894973755,-35.64946746826172,6.32363224029541
1701881520598172400,2.11517236328125,1.1207382678985596,-15.072389602661133,3.5081770420074463
1701881520607765200,2.12476513671875,-0.9143573641777039,-7.150053024291992,-0.7175477147102356
1701881520617358600,2.134358642578125,-0.9263214468955994,-8.900403022766113,-0.00867398176342249
1701881520626951000,2.143950927734375,-0.7779664397239685,-10.111769676208496,0.24975086748600006
1701881520636542700,2.153542724609375,-1.0483554601669312,-9.776474952697754,0.29760730266571045
1701881520646135300,2.16313525390625,-1.2640085220336914,-9.55633544921875,0.3119642436504364
1701881520655728600,2.172728759765625,-1.1153544187545776,-9.458230018615723,0.32632118463516235
1701881520665321200,2.1823212890625,-0.8688937425613403,-9.00568675994873,0.1133599728345871
1701881520674913000,2.1919130859375,-0.9622138142585754,-8.658429145812988,-0.28893333673477173
1701881520684505600,2.201505615234375,-1.1464611291885376,-9.180362701416016,-0.2793620526790619
1701881520694099000,2.211098876953125,-0.8353942036628723,-9.309576034545898,-0.21954147517681122
1701881520703691500,2.22069140625,-0.6152545213699341,-10.099804878234863,-0.6170491576194763
1701881520713283300,2.230283447265625,-0.576670229434967,-11.146066665649414,-0.6720840334892273
1701881520722876000,2.2398759765625,-1.1536396741867065,-10.614561080932617,-0.638584554195404
1701881520732469200,2.24946923828125,-0.7755736112594604,-9.960722923278809,-0.7223333120346069
1701881520742061800,2.259061767578125,-1.2999008893966675,-10.190732955932617,-0.47557350993156433
1701881520751653600,2.268653564453125,-1.4817553758621216,-10.109376907348633,-0.2721835672855377
1701881520761246200,2.27824609375,-1.3908281326293945,-9.932008743286133,-0.355932354927063
1701881520770839600,2.287839599609375,-1.2592228651046753,-9.903294563293457,-0.4875376224517822
1701881520780432000,2.297431884765625,-1.158425211906433,-9.934401512145996,-0.5138586759567261
1701881520790023700,2.307023681640625,-1.0794621706008911,-9.972686767578125,-0.50907301902771
1701881520799616500,2.316616455078125,-1.0962119102478027,-9.970293998718262,-0.44446679949760437
1701881520809209900,2.3262099609375,-1.2161520719528198,-10.008877754211426,-0.28893333673477173
1701881520818802200,2.33580224609375,-1.1560324430465698,-9.992128372192383,-0.24586252868175507
1701881520828394000,2.34539404296875,-1.1512467861175537,-9.948758125305176,-0.21954147517681122
1701881520837986600,2.354986572265625,-1.1754741668701172,-9.94397258758545,-0.03529413416981697
1701881520847580000,2.364579833984375,-1.165902853012085,-9.960722923278809,0.14685949683189392
1701881520857172500,2.37417236328125,-1.129711389541626,-9.987342834472656,0.36699917912483215
1701881520866764300,2.383764404296875,-1.0722836256027222,-9.941579818725586,0.47228336334228516
1701881520876356900,2.39335693359375,-1.067497968673706,-9.948758125305176,0.6735795736312866
1701881520885950200,2.4029501953125,-1.1273186206817627,-9.927223205566406,0.7980063557624817
1701881520895542800,2.412542724609375,-1.1635099649429321,-9.88415241241455,0.898504912853241
1701881520905134600,2.422134521484375,-1.129711389541626,-9.865009307861328,1.0085747241973877
1701881520914727200,2.43172705078125,-0.9909276962280273,-9.750154495239258,0.9559326171875
1701881520924320500,2.441320556640625,-0.9693922996520996,-9.719047546386719,1.0133603811264038
1701881520933913000,2.4509130859375,-0.9646066427230835,-9.604191780090332,1.058824062347412
1701881520943505000,2.4605048828125,-1.0698908567428589,-9.522835731506348,1.169192910194397
1701881520953097500,2.470097412109375,-1.2089736461639404,-9.482157707214355,1.2505489587783813
1701881520962690800,2.47969091796875,-1.3453645706176758,-9.522835731506348,1.3079767227172852
1701881520972283400,2.489283447265625,-1.43389892578125,-9.585049629211426,1.3845469951629639
1701881520981875000,2.498875,-1.5272190570831299,-9.673583984375,1.4682958126068115
1701881520991467800,2.5084677734375,-1.5583257675170898,-9.79801082611084,1.5687943696975708
1701881521001060900,2.518060791015625,-1.5487544536590576,-9.886545181274414,1.6648063659667969
1701881521010653700,2.52765380859375,-1.5104693174362183,-9.946365356445312,1.705484390258789
1701881521020245200,2.537245361328125,-1.4793626070022583,-9.960722923278809,1.7413766384124756
1701881521029837800,2.546837890625,-1.4530415534973145,-9.924830436706543,1.755733609199524
1701881521039431200,2.55643115234375,-1.4171491861343384,-9.862616539001465,1.7198412418365479
1701881521049023700,2.566023681640625,-1.3310075998306274,-9.853045463562012,1.6238292455673218
1701881521058615600,2.575615478515625,-1.2233306169509888,-9.762118339538574,1.5831513404846191
1701881521068208000,2.5852080078125,-1.09381902217865,-9.642477035522461,1.394118309020996
1701881521077801500,2.594801513671875,-1.0339984893798828,-9.623334884643555,1.2888340950012207
1701881521087394000,2.60439404296875,-1.0603195428848267,-9.599406242370605,1.1596217155456543
1701881521096985900,2.61398583984375,-1.1225329637527466,-9.54915714263916,1.0061819553375244
1701881521106578400,2.623578369140625,-1.1874382495880127,-9.544371604919434,0.8051848411560059
1701881521116171800,2.633171875,-1.2305090427398682,-9.585049629211426,0.6616154313087463
1701881521125764400,2.642764404296875,-1.2041879892349243,-9.68794059753418,0.5682953596115112
1701881521135356200,2.652356201171875,-1.1635099649429321,-9.613762855529785,0.33110684156417847
1701881521144948700,2.66194873046875,-1.1754741668701172,-9.66640567779541,0.3047857880592346
1701881521154542000,2.6715419921875,-1.1440683603286743,-9.70229721069336,0.25692933797836304
1701881521164134400,2.681134521484375,-1.1416754722595215,-9.821938514709473,0.28085756301879883
1701881521173726200,2.690726318359375,-1.129711389541626,-9.728618621826172,0.1301097273826599
1701881521183319000,2.700319091796875,-1.1225329637527466,-9.704689979553223,0.07028916478157043
1701881521192912400,2.709912353515625,-1.0722836256027222,-9.707083702087402,0.017647067084908485
1701881521202504700,2.719504638671875,-0.9861420392990112,-9.683155059814453,0.015254244208335876
1701881521212096500,2.729096435546875,-0.9119645357131958,-9.802796363830566,0.0894317477941513
1701881521221689300,2.738689453125,-0.885643482208252,-9.98255729675293,0.21625134348869324
1701881521231282400,2.748282470703125,-0.8234301209449768,-10.142875671386719,0.32153555750846863
1701881521240875000,2.757875,-0.7061817646026611,-10.363016128540039,0.4938187599182129
1701881521250466800,2.767466796875,-0.612861692905426,-10.319945335388184,0.3717848062515259
1701881521260059400,2.777059326171875,-0.519242525100708,-10.293623924255371,0.3526422381401062
1701881521269652700,2.78665283203125,-0.5096712112426758,-10.272088050842285,0.34307095408439636
1701881521279245300,2.796245361328125,-0.4953143000602722,-10.224231719970703,0.2880360186100006
1701881521288837000,2.805837158203125,-0.5024927258491516,-10.300802230834961,0.3526422381401062
1701881521298429700,2.8154296875,-0.4905286431312561,-10.264909744262695,0.36699917912483215
1701881521308023000,2.82502294921875,-0.48095735907554626,-10.2385892868042,0.3287140130996704
1701881521317615600,2.83461572265625,-0.48095735907554626,-10.185946464538574,0.3406781256198883
1701881521327207400,2.84420751953125,-0.5312066078186035,-10.157233238220215,0.35024940967559814
1701881521336800000,2.853800048828125,-0.550349235534668,-10.099804878234863,0.3981058597564697
1701881521346393300,2.863393310546875,-0.5599204897880554,-10.023235321044922,0.41485562920570374
1701881521355986000,2.87298583984375,-0.5838487148284912,-9.939187049865723,0.4172484576702118
1701881521365577700,2.88257763671875,-0.6607181429862976,-9.869794845581055,0.4627120792865753
1701881521375170300,2.89217041015625,-0.6942176818847656,-9.800403594970703,0.4387838542461395
1701881521384763600,2.901763671875,-0.6248258352279663,-9.939187049865723,0.5515456199645996
1701881521394356000,2.91135595703125,-0.5814558863639832,-9.68794059753418,0.4698905348777771
1701881521403947800,2.92094775390625,-0.5264210104942322,-9.575477600097656,0.46749773621559143
1701881521413540400,2.930540283203125,-0.48813581466674805,-9.5324068069458,0.44835513830184937
1701881521423133700,2.9401337890625,-0.5312066078186035,-9.630513191223145,0.47228336334228516
1701881521432726300,2.949726318359375,-0.6415755748748779,-9.745368003845215,0.5249254703521729
1701881521442318000,2.959318115234375,-0.6990033388137817,-9.881759643554688,0.5443671345710754
1701881521451910700,2.96891064453125,-0.6559324860572815,-9.984950065612793,0.5395814776420593
1701881521461504000,2.97850390625,-0.6990033388137817,-10.047163009643555,0.6017948985099792
1701881521471096600,2.9880966796875,-0.7444669604301453,-10.145268440246582,0.7070791125297546
1701881521480688400,2.9976884765625,-0.6272186636924744,-10.138090133666992,0.6640082597732544
1701881521490281000,3.007281005859375,-0.6008976101875305,-10.130911827087402,0.5730810165405273
1701881521499874300,3.016874267578125,-0.5527420043945312,-10.047163009643555,0.6400800347328186
1701881521509467000,3.026466796875,-0.5335994362831116,-9.910472869873047,0.6640082597732544
1701881521519058700,3.03605859375,-0.7420741319656372,-9.910472869873047,0.5491527915000916
1701881521528651300,3.0456513671875,-0.921535849571228,-9.91286563873291,0.4459623098373413
1701881521538244600,3.05524462890625,-1.2281162738800049,-10.111769676208496,0.3406781256198883
1701881521547837200,3.064837158203125,-0.9813563823699951,-10.398907661437988,0.11096715182065964
1701881521557428700,3.0744287109375,-0.7516453862190247,-10.441978454589844,-0.2147558331489563
1701881521567021600,3.084021484375,-0.5479564070701599,-10.298409461975098,-0.26500511169433594
1701881521576615000,3.093614990234375,-0.32303106784820557,-10.147662162780762,-0.11904292553663254
1701881521586207500,3.10320751953125,-0.14356936514377594,-10.035199165344238,0.12771691381931305
1701881521595799000,3.112799072265625,-0.15553347766399384,-10.130911827087402,0.2186441719532013
1701881521605391600,3.1223916015625,0.17736798524856567,-10.133304595947266,0.18035900592803955
1701881521614985000,3.13198486328125,0.3281157910823822,-10.281660079956055,0.13250255584716797
1701881521624577500,3.14157763671875,0.32572299242019653,-10.348658561706543,-0.0014955141814425588
1701881521634169300,3.15116943359375,0.40229329466819763,-10.329516410827637,-0.0975075215101242
1701881521643762000,3.160761962890625,0.39990049600601196,-10.224231719970703,-0.12861421704292297
1701881521653355300,3.170355224609375,0.30658039450645447,-10.059126853942871,-0.20757736265659332
1701881521662947800,3.17994775390625,0.17736798524856567,-10.006484985351562,-0.31046873331069946
1701881521672539600,3.18953955078125,0.134297177195549,-9.951150894165039,-0.3535395562648773
1701881521682132200,3.19913232421875,0.11994023621082306,-9.874580383300781,-0.3655036687850952
1701881521691725600,3.2087255859375,0.18933209776878357,-9.853045463562012,-0.39900317788124084
1701881521701318100,3.218318115234375,0.18454644083976746,-9.881759643554688,-0.4253242313861847
1701881521710910000,3.227909912109375,0.13908281922340393,-9.927223205566406,-0.5018945336341858
1701881521720502500,3.23750244140625,0.09122636169195175,-9.967901229858398,-0.5688936114311218
1701881521730095900,3.247095947265625,0.06011966988444328,-9.958329200744629,-0.6337988972663879
1701881521739688400,3.2566884765625,0.09840483218431473,-9.999306678771973,-0.5808576941490173
1701881521749280000,3.266280029296875,0.20847466588020325,-10.025628089904785,-0.48035913705825806
1701881521758872800,3.275872802734375,0.20847466588020325,-9.967901229858398,-0.32243284583091736
1701881521768466000,3.2854658203125,0.21565313637256622,-9.984950065612793,-0.13579268753528595
1701881521778058800,3.295058837890625,0.16061821579933167,-10.051948547363281,-0.0014955141814425588
1701881521787650300,3.304650390625,0.12233305722475052,-10.128519058227539,0.1133599728345871
1701881521797243000,3.314242919921875,0.1295115202665329,-10.19312572479248,0.18035900592803955
1701881521806836200,3.323836181640625,0.07447660714387894,-10.257731437683105,0.21625134348869324
1701881521816428800,3.3334287109375,0.036191441118717194,-10.252945899963379,0.2066800594329834
1701881521826020600,3.3430205078125,0.05054837837815285,-10.233803749084473,0.22821545600891113
1701881521835613200,3.35261328125,0.00029910283046774566,-10.20748233795166,0.2593221664428711
1701881521845206500,3.36220654296875,-0.059820566326379776,-10.20748233795166,0.3287140130996704
1701881521854799000,3.371799072265625,-0.0526420995593071,-10.202696800231934,0.4052843451499939
1701881521864391000,3.381390869140625,-0.1052841991186142,-10.162018775939941,0.46031925082206726
1701881521873983500,3.3909833984375,-0.11964113265275955,-10.109376907348633,0.46749773621559143
1701881521883576800,3.400576904296875,-0.08374879509210587,-10.006484985351562,0.4866403043270111
1701881521893169400,3.41016943359375,-0.021236300468444824,-9.958329200744629,0.481854647397995
1701881521902761200,3.41976123046875,0.01704886183142662,-9.908080101013184,0.4627120792865753
1701881521912353800,3.429353759765625,0.05054837837815285,-9.89850902557373,0.43639102578163147
1701881521921947100,3.438947021484375,0.10079765319824219,-9.800403594970703,0.36221352219581604
1701881521931539500,3.44853955078125,0.11276176571846008,-9.809974670410156,0.41485562920570374
1701881521941131300,3.45813134765625,0.18933209776878357,-9.967901229858398,0.3478565812110901
1701881521950723800,3.467723876953125,0.09840483218431473,-9.920044898986816,0.31435707211494446
1701881521960317200,3.477317138671875,-0.026021946221590042,-9.867402076721191,0.30239295959472656
1701881521969910000,3.486909912109375,-0.10289137065410614,-9.92243766784668,0.3334996700286865
1701881521979501600,3.49650146484375,-0.10767702013254166,-9.977771759033203,0.3358924686908722
1701881521989094100,3.50609423828125,-0.06939185410737991,-10.035199165344238,0.37417763471603394
1701881521998687500,3.5156875,0.04336991161108017,-10.059126853942871,0.3885345757007599
1701881522008280000,3.525280029296875,0.10797612369060516,-10.097412109375,0.42681974172592163
1701881522017872000,3.534871826171875,0.17497515678405762,-10.087841033935547,0.3981058597564697
1701881522027464400,3.54446435546875,0.1989033818244934,-10.087841033935547,0.3981058597564697
1701881522037057800,3.554057861328125,0.1414756327867508,-10.095019340515137,0.4004986882209778
1701881522046650400,3.563650390625,0.07447660714387894,-10.09023380279541,0.37896329164505005
1701881522056242200,3.5732421875,-0.023629123345017433,-10.054341316223145,0.3574278950691223
1701881522065834800,3.582834716796875,-0.15553347766399384,-9.855438232421875,0.2832503914833069
1701881522075428000,3.592427978515625,0.026620151475071907,-10.06152057647705,0.2928216755390167
1701881522085020700,3.602020751953125,0.01944168470799923,-10.095019340515137,0.21385852992534637
1701881522094612200,3.6116123046875,0.04336991161108017,-10.073484420776367,0.15643078088760376
1701881522104205000,3.621205078125,0.04097708687186241,-10.020842552185059,0.06311069428920746
1701881522113798400,3.63079833984375,0.00029910283046774566,-9.967901229858398,0.03439682722091675
1701881522123391000,3.640390869140625,-0.018843477591872215,-9.992128372192383,0.02961117960512638
1701881522132982500,3.649982421875,-0.059820566326379776,-9.992128372192383,0.046360939741134644
1701881522142575000,3.6595751953125,-0.07657032459974289,-9.99691390991211,0.05353940650820732
1701881522152168400,3.66916845703125,-0.08374879509210587,-9.99691390991211,0.0487537607550621
1701881522161761000,3.678760986328125,-0.07417750358581543,-10.008877754211426,0.07028916478157043
1701881522171352800,3.688352783203125,-0.026021946221590042,-9.994521141052246,0.07507480680942535
1701881522180945400,3.6979453125,0.009870393201708794,-10.001699447631836,0.13250255584716797
1701881522190538800,3.707538818359375,0.055334024131298065,-10.008877754211426,0.14925231039524078
1701881522200131300,3.71713134765625,0.08165507018566132,-10.006484985351562,0.18753747642040253
1701881522209723100,3.72672314453125,0.08404789865016937,-10.011270523071289,0.22821545600891113
1701881522219315700,3.736315673828125,0.1055833026766777,-10.001699447631836,0.2521436810493469
1701881522228909000,3.745908935546875,0.08404789865016937,-10.006484985351562,0.23778675496578217
1701881522238501600,3.755501708984375,0.0649053156375885,-9.999306678771973,0.23300109803676605
1701881522248093400,3.765093505859375,0.036191441118717194,-9.98973560333252,0.247358039021492
1701881522257686000,3.77468603515625,0.036191441118717194,-10.037591934204102,0.22103698551654816
1701881522267279400,3.784279296875,0.026620151475071907,-10.025628089904785,0.1827518343925476
1701881522276872000,3.793871826171875,0.033798620104789734,-10.006484985351562,0.1660020649433136
1701881522286463500,3.80346337890625,-0.016450656577944756,-9.824331283569336,0.05593222752213478
1701881522296056300,3.813056396484375,0.03858426585793495,-10.059126853942871,0.2952145040035248
1701881522305649400,3.8226494140625,0.11515458673238754,-10.142875671386719,0.16839489340782166
1701881522315242000,3.832241943359375,0.031405795365571976,-9.987342834472656,0.11814561486244202
1701881522324833800,3.841833740234375,0.024227328598499298,-9.992128372192383,0.11575279384851456
1701881522334426400,3.85142626953125,-0.018843477591872215,-10.011270523071289,0.09421738982200623
1701881522344019700,3.861019775390625,-0.05024927482008934,-10.028020858764648,0.06789634376764297
1701881522353612300,3.8706123046875,-0.07178468257188797,-10.039984703063965,0.05114658549427986
1701881522363204000,3.8802041015625,-0.07657032459974289,-10.049555778503418,0.015254244208335876
1701881522372796700,3.889796630859375,-0.0526420995593071,-10.063913345336914,-0.0014955141814425588
1701881522382390000,3.89939013671875,-0.03320041298866272,-10.047163009643555,-0.03768695518374443
1701881522391982600,3.908982666015625,-0.00687936507165432,-10.06869888305664,-0.054436713457107544
1701881522401574400,3.918574462890625,0.00029910283046774566,-10.051948547363281,-0.09990034252405167
1701881522411167000,3.9281669921875,0.00029910283046774566,-10.044770240783691,-0.11665010452270508
1701881522420760300,3.93776025390625,0.012263216078281403,-10.039984703063965,-0.12382857501506805
1701881522430353000,3.947352783203125,0.04097708687186241,-10.06869888305664,-0.1381855010986328
1701881522439944700,3.95694482421875,0.04815555736422539,-10.085448265075684,-0.16450655460357666
1701881522449537300,3.966537353515625,0.1055833026766777,-10.097412109375,-0.19561325013637543
1701881522459130600,3.976130615234375,0.12233305722475052,-10.116555213928223,-0.28893333673477173
1701881522468723000,3.985722900390625,0.057726845145225525,-10.142875671386719,-0.372682124376297
1701881522478314800,3.995314697265625,-0.0933200865983963,-10.126126289367676,-0.4205385744571686
1701881522487907300,4.0049072265625,0.029012974351644516,-10.162018775939941,-0.5210371017456055
1701881522497500700,4.014500732421875,0.18454644083976746,-10.150054931640625,-0.6529414653778076
1701881522507093200,4.02409326171875,0.31375887989997864,-10.095019340515137,-0.7223333120346069
1701881522516685000,4.03368505859375,0.3400799036026001,-9.93679428100586,-0.7414759397506714
1701881522526277600,4.043277587890625,0.7256234884262085,-9.81954574584961,-0.6960122585296631
1701881522535871000,4.05287109375,0.857228696346283,-9.630513191223145,-0.6625127792358398
1701881522545463600,4.062463623046875,0.924227774143219,-9.683155059814453,-0.5688936114311218
1701881522555055400,4.072055419921875,1.0534402132034302,-9.70229721069336,-0.6720840334892273
1701881522564648000,4.08164794921875,1.194915771484375,-9.759725570678711,-0.6314060688018799
1701881522574241300,4.0912412109375,1.446162223815918,-9.745368003845215,-0.7199404835700989
1701881522583833900,4.100833740234375,1.6713865995407104,-9.604191780090332,-0.7869395613670349
1701881522593425700,4.11042578125,1.7886348962783813,-9.46301555633545,-0.758225679397583
1701881522603018200,4.120018310546875,1.8915263414382935,-9.307182312011719,-0.542572557926178
1701881522612611600,4.129611572265625,1.9465612173080444,-9.201898574829102,-0.5545366406440735
1701881522622204000,4.139203857421875,1.8699909448623657,-9.156435012817383,-0.5832505226135254
1701881522631795700,4.148795654296875,1.7096717357635498,-9.096614837646484,-0.5712863802909851
1701881522641388500,4.158388427734375,1.561017632484436,-9.096614837646484,-0.3966103494167328
1701881522650982000,4.16798193359375,1.5107684135437012,-9.089435577392578,-0.2961117923259735
1701881522660574200,4.17757421875,1.407876968383789,-9.067900657653809,-0.22193430364131927
1701881522670166000,4.187166015625,1.3408780097961426,-9.024829864501953,-0.22911277413368225
1701881522679758600,4.196758544921875,1.316949725151062,-8.933902740478516,-0.33439695835113525
1701881522689352000,4.20635205078125,1.4533406496047974,-8.921937942504883,-0.2913261651992798
1701881522698944500,4.215944580078125,1.6666009426116943,-8.859724998474121,-0.39182472229003906
1701881522708536300,4.225536376953125,1.6929219961166382,-8.945866584777832,-0.6146563291549683
1701881522718129000,4.23512890625,1.7527425289154053,-9.04397201538086,-0.6194419860839844
1701881522727722200,4.24472216796875,1.3935201168060303,-9.113364219665527,-0.9209375977516174
1701881522737314800,4.254314697265625,2.0518453121185303,-9.314361572265625,-0.8563314080238342
1701881522746906600,4.26390673828125,1.8388842344284058,-10.099804878234863,-0.32721850275993347
1701881522756499200,4.273499267578125,0.9601200819015503,-10.530513763427734,-0.3678964674472809
1701881522766092500,4.283092529296875,0.8213363885879517,-10.679167747497559,-0.25782662630081177
1701881522775685000,4.29268505859375,0.768694281578064,-10.700702667236328,-0.3774677813053131
1701881522785276700,4.302276611328125,0.6275177597999573,-10.628918647766113,-0.6218347549438477
1701881522794869500,4.311869384765625,0.6849454641342163,-10.703095436096191,-0.8898309469223022
1701881522804462800,4.321462890625,1.0079765319824219,-10.832307815551758,-1.2658032178878784
1701881522814055200,4.33105517578125,1.2284153699874878,-11.081161499023438,-1.2729816436767578
1701881522823647000,4.34064697265625,1.2284153699874878,-11.921640396118164,-0.44446679949760437
1701881522833239600,4.350239501953125,0.5075774788856506,-12.943974494934082,0.4531407952308655
1701881522842833000,4.3598330078125,-0.03320041298866272,-13.01815128326416,0.30239295959472656
1701881522852425500,4.369425537109375,0.4692923426628113,-12.184850692749023,-0.10229317098855972
1701881522862017300,4.379017333984375,0.7136593461036682,-11.021341323852539,-0.16689938306808472
1701881522871609900,4.38860986328125,0.7112665176391602,-9.740582466125488,-0.047258246690034866
1701881522881203200,4.398203125,0.7447660565376282,-8.948259353637695,0.22103698551654816
1701881522890795800,4.407795654296875,0.6275177597999573,-8.85224723815918,0.4172484576702118
1701881522900387600,4.4173876953125,0.3520440459251404,-8.99133014678955,0.5802595019340515
1701881522909980200,4.426980224609375,0.08165507018566132,-9.25454044342041,0.745364248752594
1701881522919573500,4.436573486328125,-0.10049854964017868,-9.632905960083008,0.836291491985321
1701881522929166000,4.446166015625,-0.12921242415905,-9.934401512145996,0.8051848411560059
1701881522938757600,4.455757568359375,0.09840483218431473,-10.092626571655273,0.7405785918235779
1701881522948350500,4.4653505859375,0.47647079825401306,-10.164411544799805,0.5225326418876648
1701881522957943800,4.47494384765625,0.8763712644577026,-10.078269958496094,0.15882360935211182
1701881522967536400,4.484536376953125,1.135095238685608,-9.869794845581055,-0.06640082597732544
1701881522977128000,4.4941279296875,1.3217353820800781,-10.181160926818848,-0.3367897868156433
1701881522986720500,4.503720458984375,1.2284153699874878,-10.358230590820312,-0.7390831112861633
1701881522996313900,4.51331396484375,1.017547845840454,-10.391729354858398,-1.1291131973266602
1701881523005906400,4.522906494140625,0.890728235244751,-10.532906532287598,-1.5720844268798828
1701881523015498200,4.532498291015625,1.1135598421096802,-10.628918647766113,-2.0222342014312744
1701881523025090800,4.5420908203125,1.4796617031097412,-10.901700019836426,-2.441277265548706
1701881523034684200,4.55168408203125,1.8867406845092773,-11.404491424560547,-2.80977201461792
1701881523044276700,4.56127685546875,2.3512473106384277,-11.940783500671387,-2.893819808959961
1701881523053868500,4.57086865234375,2.501995086669922,-12.47707462310791,-2.8241288661956787
1701881523063461000,4.580461181640625,2.2770698070526123,-12.960723876953125,-2.65423846244812
1701881523073054500,4.590054443359375,1.8221344947814941,-13.111472129821777,-2.692523717880249
1701881523082647000,4.59964697265625,1.1255239248275757,-13.492229461669922,-2.3264217376708984
1701881523092238800,4.60923876953125,0.6299105882644653,-13.494622230529785,-2.551347255706787
1701881523101831400,4.61883154296875,0.7878368496894836,-13.69322681427002,-2.2809581756591797
1701881523111424800,4.6284248046875,1.939382791519165,-14.085948944091797,-3.1187453269958496
1701881523121017000,4.63801708984375,1.352842092514038,-9.661619186401367,-3.0493533611297607
1701881523130609000,4.64760888671875,1.4557334184646606,-7.945068359375,-3.0230321884155273
1701881523140201700,4.65720166015625,0.737587571144104,-8.33300495147705,-2.5226333141326904
1701881523149795000,4.666795166015625,0.7016952633857727,-8.687142372131348,-2.256730794906616
1701881523159387400,4.676387451171875,0.39032918214797974,-8.773283958435059,-1.6893328428268433
1701881523168979200,4.685979248046875,0.0649053156375885,-8.886046409606934,-1.4500504732131958
1701881523178571800,4.69557177734375,-0.07178468257188797,-8.965008735656738,-1.3710874319076538
1701881523188165000,4.7051650390625,0.1462612897157669,-8.82114028930664,-1.423729419708252
1701881523197757700,4.7147578125,0.4692923426628113,-8.656036376953125,-1.277767300605774
1701881523207349500,4.724349609375,0.6634100675582886,-8.909974098205566,-0.9376873970031738
1701881523216942000,4.733942138671875,1.2164511680603027,-10.935199737548828,-1.0549356937408447
1701881523226535400,4.743535400390625,0.6442674994468689,-8.701499938964844,-1.7012969255447388
1701881523236128000,4.7531279296875,-0.19381862878799438,-7.6767730712890625,-1.5050854682922363
1701881523245719800,4.7627197265625,-0.7420741319656372,-6.733702182769775,-1.332802176475525
1701881523255312400,4.7723125,-1.2759727239608765,-6.149554252624512,-0.846760094165802
1701881523264905700,4.78190576171875,-1.716252088546753,-5.929115295410156,-0.6170491576194763
1701881523274498000,4.791498046875,-1.9007984399795532,-5.780760288238525,-0.4588237404823303
1701881523284089900,4.80108984375,-1.9007984399795532,-5.601298809051514,-0.27696922421455383
1701881523293682400,4.810682373046875,-1.8840487003326416,-5.457430362701416,-0.2913261651992798
1701881523303276000,4.820276123046875,-1.7955143451690674,-5.527121067047119,-0.35832518339157104
1701881523312868400,4.829868408203125,-1.7042878866195679,-6.1088762283325195,-0.49710890650749207
1701881523322460200,4.839460205078125,-1.4434702396392822,-7.265207767486572,-0.5955137610435486
1701881523332052700,4.849052734375,-1.012463092803955,-8.522037506103516,-0.7677969932556152
1701881523341646000,4.85864599609375,-0.2632105052471161,-9.35025405883789,-1.1820544004440308
1701881523351238700,4.86823876953125,0.5581258535385132,-9.630513191223145,-1.7829519510269165
1701881523360830500,4.87783056640625,1.135095238685608,-9.592227935791016,-2.4532413482666016
1701881523370423000,4.887423095703125,1.0968101024627686,-9.731011390686035,-2.9703903198242188
1701881523380016400,4.897016357421875,1.4796617031097412,-10.437192916870117,-3.1881370544433594
1701881523389609000,4.90660888671875,1.7312071323394775,-10.918449401855469,-2.9751758575439453
1701881523399200800,4.91620068359375,1.7312071323394775,-10.937592506408691,-2.5872395038604736
1701881523408793300,4.92579345703125,0.9912267923355103,-10.832307815551758,-2.0294127464294434
1701881523418386700,4.93538671875,-0.3158525824546814,-10.073484420776367,-1.4835500717163086
1701881523427979300,4.944979248046875,-1.1512467861175537,-10.171589851379395,-0.8276175260543823
1701881523437570800,4.95457080078125,-0.6535396575927734,-9.92961597442627,-0.8300103545188904
1701881523447163600,4.96416357421875,-0.8018946647644043,-7.880462169647217,-1.184447169303894
1701881523456757000,4.973757080078125,-1.0459625720977783,-8.459824562072754,-1.3519448041915894
1701881523466349300,4.983349365234375,0.2994019389152527,-9.02243709564209,-1.1147562265396118
1701881523475941000,4.992941162109375,0.6873382925987244,-9.13729190826416,-1.069292664527893
1701881523485533700,5.00253369140625,0.771087110042572,-8.871688842773438,-1.1003992557525635
1701881523495127000,5.012126953125,0.582054078578949,-8.251349449157715,-1.0357930660247803
1701881523504719600,5.0217197265625,-0.4737788736820221,-7.767999649047852,-1.057328462600708
1701881523514311400,5.0313115234375,-1.1802598237991333,-8.965008735656738,-1.301695466041565
1701881523523904000,5.040904052734375,-0.6176473498344421,-8.079066276550293,-0.6816553473472595
1701881523533497300,5.050497314453125,-1.6588243246078491,-10.138090133666992,-0.6888338327407837
1701881523543090000,5.06008984375,-1.1536396741867065,-10.600204467773438,-0.34636107087135315
1701881523552681700,5.069681640625,-1.5415760278701782,-9.611370086669922,-0.07836493849754333
1701881523562274300,5.0792744140625,-1.2281162738800049,-9.635298728942871,0.03678964823484421
1701881523571867600,5.08886767578125,-1.319043517112732,-8.505288124084473,0.3837489187717438
1701881523581460200,5.098460205078125,-1.5463616847991943,-8.297112464904785,0.3837489187717438
1701881523591052000,5.108052001953125,-1.0794621706008911,-8.39282512664795,0.5874379873275757
1701881523600644600,5.11764453125,-1.7476578950881958,-8.455039024353027,0.498604416847229
1701881523610238000,5.127238037109375,-1.5248262882232666,-9.359825134277344,0.2641077935695648
1701881523619830300,5.136830322265625,-1.551147222518921,-9.42473030090332,-0.02063809521496296
1701881523629422000,5.146422119140625,-1.3094722032546997,-10.279267311096191,-0.2315055876970291
1701881523639014700,5.1560146484375,-1.3573286533355713,-8.256134986877441,0.1660020649433136
1701881523648608000,5.16560791015625,-1.3549357652664185,-8.809176445007324,0.03918246924877167
1701881523658200600,5.17520068359375,-1.316650629043579,-8.780462265014648,0.3478565812110901
1701881523667792400,5.18479248046875,-2.0539391040802,-9.692726135253906,0.20428723096847534
1701881523677385000,5.194385009765625,-1.7691932916641235,-10.047163009643555,1.7533408403396606
1701881523686978300,5.203978271484375,-2.1807587146759033,-9.264111518859863,3.3981072902679443
1701881523696571000,5.21357080078125,-2.949453115463257,-10.025628089904785,3.859921932220459
1701881523706162700,5.22316259765625,-3.289233922958374,-11.837891578674316,3.5632119178771973
1701881523715755300,5.23275537109375,-3.3490543365478516,-13.099507331848145,2.792423963546753
1701881523725348600,5.2423486328125,-3.459423303604126,-13.089936256408691,2.2322044372558594
1701881523734941200,5.251941162109375,-3.7322051525115967,-12.556037902832031,1.8490537405014038
1701881523744532700,5.26153271484375,-4.201497554779053,-12.103495597839355,1.9040886163711548
1701881523754125600,5.27112548828125,-4.579862594604492,-11.84746265411377,2.282453775405884
1701881523763719000,5.280718994140625,-4.7712883949279785,-11.80199909210205,2.670090913772583
1701881523773311200,5.290311279296875,-4.6995038986206055,-11.782856941223145,3.036491870880127
1701881523782903000,5.299903076171875,-4.551148891448975,-11.770893096923828,3.1441688537597656
1701881523792495600,5.30949560546875,-4.524528503417969,-11.64138126373291,3.0388846397399902
1701881523802089000,5.3190888671875,-4.567898273468018,-11.452348709106445,2.9790642261505127
1701881523811681500,5.328681640625,-4.634897232055664,-11.246565818786621,3.022135019302368
1701881523821273300,5.3382734375,-4.677968502044678,-11.006983757019043,3.053241729736328
1701881523830866000,5.347865966796875,-4.72582483291626,-10.703095436096191,3.084348440170288
1701881523840459300,5.357459228515625,-4.730610370635986,-10.401301383972168,3.1513473987579346
1701881523850051800,5.3670517578125,-4.685146808624268,-10.099804878234863,3.2470602989196777
1701881523859643600,5.3766435546875,-4.644468784332275,-9.771689414978027,3.273381471633911
1701881523869236200,5.386236328125,-4.514957427978516,-9.494122505187988,3.160918712615967
1701881523878829600,5.39582958984375,-4.414458751678467,-9.300004005432129,3.0939197540283203
1701881523888422100,5.405422119140625,-4.297210216522217,-9.05115032196045,3.0269205570220947
1701881523898013700,5.415013671875,-4.201497554779053,-8.775676727294922,2.9312076568603516
1701881523907606500,5.4246064453125,-4.089034557342529,-8.46461009979248,2.888136863708496
1701881523917200000,5.434199951171875,-4.010071754455566,-8.210671424865723,2.7275187969207764
1701881523926792200,5.443792236328125,-4.000500202178955,-8.024031639099121,2.6509482860565186
1701881523936384000,5.453384033203125,-4.045963764190674,-7.834998607635498,2.550449848175049
1701881523945976600,5.4629765625,-4.079463481903076,-7.645666599273682,2.5313072204589844
1701881523955570000,5.47256982421875,-4.156033992767334,-7.540382385253906,2.471486806869507
1701881523965162500,5.48216259765625,-4.275674819946289,-7.537989616394043,2.51216459274292
1701881523974754300,5.49175439453125,-4.376173496246338,-7.631309509277344,2.5145576000213623
1701881523984347000,5.501346923828125,-4.337888240814209,-7.650452136993408,2.5145576000213623
1701881523993940200,5.510940185546875,-4.47188663482666,-7.681559085845947,2.5863420963287354
1701881524003532800,5.52053271484375,-4.577469825744629,-7.803892135620117,2.6796622276306152
1701881524013124600,5.53012451171875,-4.766502857208252,-7.887640953063965,2.8833513259887695
1701881524022717200,5.53971728515625,-4.914857864379883,-7.9881391525268555,3.0005996227264404
1701881524032310500,5.549310546875,-5.097011566162109,-8.08385181427002,3.2231321334838867
1701881524041903000,5.558903076171875,-5.039284706115723,-8.088638305664062,3.1728827953338623
1701881524051495000,5.568494873046875,-5.1209397315979,-8.059924125671387,3.412464141845703
1701881524061087500,5.57808740234375,-5.123332500457764,-7.985746383666992,3.678067445755005
1701881524070680800,5.587680908203125,-5.142475128173828,-7.842176914215088,3.6828532218933105
1701881524080273200,5.597273193359375,-5.084748268127441,-7.7222371101379395,3.934398651123047
1701881524089865000,5.606864990234375,-5.144867897033691,-7.671987533569336,3.8144583702087402
1701881524099457500,5.61645751953125,-4.979464054107666,-7.485347270965576,4.05403995513916
1701881524109051000,5.62605078125,-5.084748268127441,-7.4015984535217285,3.8144583702087402
1701881524118643500,5.6356435546875,-5.051248550415039,-7.248457908630371,4.156930923461914
1701881524128235300,5.6452353515625,-5.07517671585083,-7.063911437988281,4.219144344329834
1701881524137827800,5.654827880859375,-5.029713153839111,-6.903592586517334,4.214358806610107
1701881524147421200,5.664421142578125,-5.111368179321289,-6.972984313964844,4.2550368309021
1701881524157013800,5.674013671875,-5.32911491394043,-6.870092868804932,4.369892120361328
1701881524166605600,5.68360546875,-5.690730571746826,-6.882057189941406,4.250251293182373
1701881524176198100,5.6931982421875,-5.719444274902344,-6.968198776245117,4.302893161773682
1701881524185791500,5.70279150390625,-5.652445316314697,-7.169195652008057,4.219144344329834
1701881524195384000,5.712384033203125,-5.7720866203308105,-7.35613489151001,4.535296440124512
1701881524204975600,5.7219755859375,-5.575575828552246,-7.296314239501953,4.611866474151611
1701881524214568400,5.731568359375,-5.434399127960205,-7.174280643463135,4.812863826751709
1701881524224161500,5.74116162109375,-5.396114349365234,-7.073482990264893,4.760221481323242
1701881524233754000,5.750754150390625,-5.420042514801025,-6.867700099945068,4.863112926483154
1701881524243346000,5.760345947265625,-5.6931233406066895,-6.82223653793335,4.544867515563965
1701881524252938500,5.7699384765625,-5.015356063842773,-6.539584159851074,5.023731231689453
1701881524262531800,5.77953173828125,-5.479863166809082,-6.489335060119629,4.492225646972656
1701881524272124400,5.78912451171875,-5.513362407684326,-6.522834300994873,4.559224605560303
1701881524281716200,5.79871630859375,-5.582754135131836,-6.608976364135742,4.633401870727539
1701881524291308800,5.808308837890625,-5.489434242248535,-6.666703224182129,4.59511661529541
1701881524300902100,5.817902099609375,-5.460720539093018,-6.755237579345703,4.599902629852295
1701881524310494700,5.82749462890625,-5.403292655944824,-6.788736820220947,4.422534465789795
1701881524320086500,5.83708642578125,-5.231009483337402,-6.788736820220947,4.290929317474365
1701881524329679000,5.84667919921875,-5.185545921325684,-6.738487720489502,4.195216178894043
1701881524339272400,5.8562724609375,-5.2477593421936035,-6.676274299621582,4.367499351501465
1701881524348864800,5.86586474609375,-5.707480430603027,-6.702595233917236,4.214358806610107
1701881524358456600,5.87545654296875,-5.353043556213379,-6.688238620758057,4.458725929260254
1701881524368049200,5.885049072265625,-5.673980712890625,-6.592226505279541,4.1593241691589355
1701881524377642500,5.894642578125,-5.843871116638184,-6.673881530761719,4.286143779754639
1701881524387235000,5.904235107421875,-5.712265968322754,-6.8365936279296875,4.300500392913818
1701881524396827000,5.913826904296875,-5.736194133758545,-6.917949199676514,4.458725929260254
1701881524406419500,5.92341943359375,-5.587540149688721,-6.965806007385254,4.552045822143555
1701881524416012800,5.9330126953125,-5.5229339599609375,-6.8844499588012695,4.441677093505859
1701881524425605400,5.94260546875,-5.400899887084961,-6.819843769073486,4.389034748077393
1701881524435197200,5.952197265625,-5.166403293609619,-6.666703224182129,4.552045822143555
1701881524444789800,5.961789794921875,-5.152046203613281,-6.652346134185791,4.458725929260254
1701881524454383000,5.971383056640625,-5.132903575897217,-6.63559627532959,4.5257248878479
1701881524463975700,5.9809755859375,-5.185545921325684,-6.669095993041992,4.573581218719482
1701881524473567500,5.9905673828125,-5.1783671379089355,-6.726523399353027,4.659722805023193
1701881524483160000,6.00016015625,-5.2716875076293945,-6.776772975921631,4.724328994750977
1701881524492753400,6.00975341796875,-4.996213912963867,-6.896413803100586,4.726722240447998
1701881524502345700,6.019345703125,-5.219045162200928,-6.7049880027771,4.765007019042969
1701881524511937500,6.0289375,-5.379364490509033,-6.63559627532959,4.71954345703125
1701881524521530000,6.038530029296875,-5.379364490509033,-6.594619274139404,4.767399787902832
1701881524531123500,6.04812353515625,-5.372185707092285,-6.565905570983887,4.808077812194824
1701881524540716000,6.057716064453125,-5.39132833480835,-6.486942291259766,4.798506736755371
1701881524550307800,6.067307861328125,-5.465506076812744,-6.424728870391846,4.875077247619629
1701881524559900400,6.076900390625,-5.527719497680664,-6.419943332672119,4.932504653930664
1701881524569493800,6.08649365234375,-5.5707902908325195,-6.436692714691162,4.989932537078857
1701881524579086300,6.09608642578125,-5.635396480560303,-6.429514408111572,5.004289627075195
1701881524588678100,6.10567822265625,-5.690730571746826,-6.4701924324035645,4.96121883392334
1701881524598270700,6.115270751953125,-5.733801364898682,-6.496513366699219,4.958825588226318
1701881524607864000,6.124864013671875,-5.743372440338135,-6.439085960388184,4.9755754470825195
1701881524617456400,6.134456298828125,-5.774479389190674,-6.362515449523926,4.958825588226318
1701881524627048400,6.14404833984375,-5.726622581481934,-6.276373863220215,4.896612644195557
1701881524636641000,6.15364111328125,-5.681159019470215,-6.230910301208496,4.822434902191162
1701881524646234400,6.163234375,-5.6548380851745605,-6.223731517791748,4.7865424156188965
1701881524655826700,6.17282666015625,-5.659623622894287,-6.2668023109436035,4.78893518447876
1701881524665418500,6.18241845703125,-5.671587944030762,-6.324230194091797,4.731507778167725
1701881524675011000,6.192010986328125,-5.757729530334473,-6.329015731811523,4.635794639587402
1701881524684604400,6.2016044921875,-5.6548380851745605,-6.534798622131348,4.6525444984436035
1701881524694197000,6.211197021484375,-5.630610942840576,-6.551548480987549,4.707579612731934
1701881524703788800,6.220788818359375,-5.606682777404785,-6.556334018707275,4.690829753875732
1701881524713381400,6.23038134765625,-5.630610942840576,-6.58265495300293,4.693222522735596
1701881524722974700,6.239974609375,-5.580361366271973,-6.664309978485107,4.693222522735596
1701881524732567300,6.2495673828125,-5.558825969696045,-6.745666027069092,4.686044216156006
1701881524742159000,6.2591591796875,-5.510969638824463,-6.76002311706543,4.731507778167725
1701881524751751700,6.268751708984375,-5.360221862792969,-6.700202465057373,4.7937211990356445
1701881524761345000,6.278344970703125,-5.309972763061523,-6.64277458190918,4.832006454467773
1701881524770937600,6.2879375,-5.307579517364502,-6.527620315551758,4.90618371963501
1701881524780529200,6.297529052734375,-5.111368179321289,-6.515655994415283,5.078765869140625
1701881524790122000,6.3071220703125,-4.981856822967529,-6.441478729248047,5.018945693969727
1701881524799715300,6.31671533203125,-4.941178798675537,-6.491727828979492,4.865505695343018
1701881524809307600,6.3263076171875,-4.88853645324707,-6.618846416473389,4.71954345703125
1701881524818899500,6.3358994140625,-4.922036170959473,-6.733702182769775,4.590331077575684
1701881524828492000,6.345491943359375,-5.132903575897217,-6.848557472229004,4.559224605560303
1701881524838085400,6.35508544921875,-5.348257541656494,-6.951448917388916,4.5185465812683105
1701881524847678000,6.364677978515625,-5.420042514801025,-7.054340362548828,4.520939350128174
1701881524857269800,6.374269775390625,-5.503791332244873,-7.116553783416748,4.537689208984375
1701881524866862300,6.3838623046875,-5.623432159423828,-7.1718878746032715,4.5113677978515625
1701881524876455700,6.39345556640625,-5.652445316314697,-7.179066181182861,4.41057014465332
1701881524886048300,6.40304833984375,-5.6548380851745605,-7.092625617980957,4.37228536605835
1701881524895640000,6.41264013671875,-5.623432159423828,-6.934699058532715,4.360321044921875
1701881524905232600,6.422232666015625,-5.561218738555908,-6.805486679077148,4.362713813781738
1701881524914826000,6.431825927734375,-5.544469356536865,-6.661917209625244,4.278964996337891
1701881524924418600,6.44141845703125,-5.544469356536865,-6.546762943267822,4.197608947753906
1701881524934010000,6.451010009765625,-5.585147380828857,-6.501298904418945,4.19282341003418
1701881524943602700,6.460602783203125,-5.681159019470215,-6.510870456695557,4.161716938018799
1701881524953196000,6.470196044921875,-5.784050464630127,-6.561119556427002,4.140181541442871
1701881524962788600,6.47978857421875,-5.84865665435791,-6.604190349578857,4.133002758026123
1701881524972380400,6.48938037109375,-5.90369176864624,-6.669095993041992,4.0803608894348145
1701881524981973000,6.498972900390625,-5.922834396362305,-6.731309413909912,4.0803608894348145
1701881524991566300,6.50856640625,-5.934798240661621,-6.786344051361084,4.058825492858887
1701881525001159000,6.518158935546875,-5.932405471801758,-6.82223653793335,4.058825492858887
1701881525010750700,6.527750732421875,-5.898906230926514,-6.846164703369141,4.020540237426758
1701881525020343300,6.53734326171875,-5.867799282073975,-6.870092868804932,4.027718544006348
1701881525029936600,6.5469365234375,-5.836692810058594,-6.848557472229004,4.034897327423096
1701881525039529200,6.556529296875,-5.805585861206055,-6.834200382232666,4.058825492858887
1701881525049120800,6.566120849609375,-5.774479389190674,-6.783951282501221,4.113860130310059
1701881525058713600,6.575713623046875,-5.760122299194336,-6.748058795928955,4.19282341003418
1701881525068307000,6.585306884765625,-5.729015827178955,-6.771986961364746,4.324428558349609
1701881525077899300,6.594899169921875,-5.705087184906006,-6.685845375061035,4.389034748077393
1701881525087491000,6.604490966796875,-5.652445316314697,-6.685845375061035,4.461118698120117
1701881525097083600,6.614083740234375,-5.621039390563965,-6.678667068481445,4.523332118988037
1701881525106677000,6.623677001953125,-5.558825969696045,-6.721737861633301,4.568795680999756
1701881525116269600,6.63326953125,-5.5229339599609375,-6.740880489349365,4.583152770996094
1701881525125861400,6.642861328125,-5.494219779968262,-6.786344051361084,4.564010143280029
1701881525135454000,6.652453857421875,-5.472684383392334,-6.827022075653076,4.554438591003418
1701881525145047300,6.66204736328125,-5.448756217956543,-6.858129024505615,4.528117656707764
1701881525154640000,6.671639892578125,-5.422435283660889,-6.882057189941406,4.506582260131836
1701881525164231700,6.681231689453125,-5.372185707092285,-6.903592586517334,4.485046863555908
1701881525173824300,6.69082421875,-5.350650310516357,-6.917949199676514,4.473083019256592
1701881525183417600,6.70041748046875,-5.331508159637451,-6.920341968536377,4.480261325836182
1701881525193010200,6.71001025390625,-5.305186748504639,-6.927520751953125,4.468297004699707
1701881525202601700,6.719601806640625,-5.293222904205322,-6.8772711753845215,4.429712772369385
1701881525212194300,6.7291943359375,-5.290830135345459,-6.874878406524658,4.456333160400391
1701881525221787600,6.73878759765625,-5.276473045349121,-6.951448917388916,4.513761043548584
1701881525231380500,6.74838037109375,-5.312365531921387,-6.879664421081543,4.477868556976318
1701881525240972000,6.757971923828125,-5.305186748504639,-6.929913520812988,4.461118698120117
1701881525250564600,6.767564697265625,-5.3339009284973145,-6.917949199676514,4.417748928070068
1701881525260158000,6.777157958984375,-5.39132833480835,-6.91555643081665,4.381856441497803
1701881525269750500,6.78675048828125,-5.443970680236816,-6.934699058532715,4.350749969482422
1701881525279342300,6.79634228515625,-5.518147945404053,-6.941877365112305,4.286143779754639
1701881525288935000,6.805934814453125,-5.568397521972656,-6.941877365112305,4.238286972045898
1701881525298528300,6.8155283203125,-5.616253852844238,-6.9083781242370605,4.216751575469971
1701881525308120800,6.825120849609375,-5.652445316314697,-6.898806571960449,4.178466320037842
1701881525317712600,6.834712646484375,-5.697908878326416,-6.870092868804932,4.168895244598389
1701881525327305200,6.84430517578125,-5.72422981262207,-6.8605217933654785,4.147359848022461
1701881525336898600,6.853898681640625,-5.731408596038818,-6.8533430099487305,4.149752616882324
1701881525346491000,6.863490966796875,-5.733801364898682,-6.867700099945068,4.164109706878662
1701881525356082700,6.873082763671875,-5.72422981262207,-6.874878406524658,4.1760735511779785
1701881525365675300,6.88267529296875,-5.750551223754883,-6.810272216796875,4.161716938018799
1701881525375268600,6.8922685546875,-5.743372440338135,-6.776772975921631,4.137788772583008
1701881525384861200,6.901861083984375,-5.743372440338135,-6.764808654785156,4.144967079162598
1701881525394453000,6.911452880859375,-5.7170515060424805,-6.779165744781494,4.140181541442871
1701881525404045600,6.921045654296875,-5.709873199462891,-6.7911295890808105,4.149752616882324
1701881525413639000,6.930638916015625,-5.676373481750488,-6.76002311706543,4.109074592590332
1701881525423231500,6.9402314453125,-5.66201639175415,-6.834200382232666,4.18564510345459
1701881525432823300,6.9498232421875,-5.642574787139893,-6.898806571960449,4.216751575469971
1701881525442415900,6.959415771484375,-5.630610942840576,-6.889235496520996,4.202394962310791
1701881525452009200,6.96900927734375,-5.604289531707764,-6.913163661956787,4.195216178894043
1701881525461601500,6.9786015625,-5.580361366271973,-6.9083781242370605,4.19282341003418
1701881525471193300,6.988193359375,-5.556433200836182,-6.894021034240723,4.173680782318115
1701881525480786200,6.9977861328125,-5.537290573120117,-6.905985355377197,4.1593241691589355
1701881525490379500,7.007379638671875,-5.525326728820801,-6.913163661956787,4.164109706878662
1701881525499971800,7.016971923828125,-5.50139856338501,-6.9083781242370605,4.1760735511779785
1701881525509563600,7.026563720703125,-5.484648704528809,-6.905985355377197,4.180859565734863
1701881525519156200,7.03615625,-5.460720539093018,-6.91555643081665,4.183252334594727
1701881525528749600,7.04574951171875,-5.458327770233154,-6.937091827392578,4.202394962310791
1701881525538342100,7.055342041015625,-5.465506076812744,-6.922735214233398,4.223930358886719
1701881525547934000,7.064933837890625,-5.451148986816406,-6.925127983093262,4.252644062042236
1701881525557526500,7.074526611328125,-5.436792373657227,-6.932306289672852,4.264608383178711
1701881525567120000,7.084119873046875,-5.432006359100342,-6.929913520812988,4.305285930633545
1701881525576712400,7.09371240234375,-5.427220821380615,-6.91555643081665,4.334000110626221
1701881525586304300,7.10330419921875,-5.427220821380615,-6.903592586517334,4.355535507202148
1701881525595896800,7.112896728515625,-5.420042514801025,-6.891628265380859,4.37228536605835
1701881525605490200,7.122490234375,-5.441577911376953,-6.903592586517334,4.389034748077393
1701881525615082500,7.13208251953125,-5.451148986816406,-6.896413803100586,4.408177375793457
1701881525624674300,7.14167431640625,-5.463113307952881,-6.905985355377197,4.393820762634277
1701881525634267000,7.151266845703125,-5.472684383392334,-6.891628265380859,4.377070903778076
1701881525643860500,7.160860595703125,-5.479863166809082,-6.865307331085205,4.3483567237854
1701881525653452800,7.170452880859375,-5.499005317687988,-6.865307331085205,4.324428558349609
1701881525663044600,7.180044677734375,-5.527719497680664,-6.831807613372803,4.295714855194092
1701881525672637200,7.18963720703125,-5.566004753112793,-6.8294148445129395,4.276572227478027
1701881525682230500,7.19923046875,-5.573183059692383,-6.827022075653076,4.264608383178711
1701881525691823000,7.208822998046875,-5.606682777404785,-6.8294148445129395,4.264608383178711
1701881525701415000,7.218414794921875,-5.642574787139893,-6.838986396789551,4.2622151374816895
1701881525711007500,7.228007568359375,-5.642574787139893,-6.82223653793335,4.290929317474365
1701881525720600800,7.237600830078125,-5.652445316314697,-6.841379165649414,4.295714855194092
1701881525730193400,7.247193359375,-5.644967555999756,-6.8365936279296875,4.2933220863342285
1701881525739785200,7.25678515625,-5.650052547454834,-6.843771934509277,4.286143779754639
1701881525749377800,7.266377685546875,-5.625824928283691,-6.855735778808594,4.290929317474365
1701881525758971100,7.27597119140625,-5.611468315124512,-6.850950241088867,4.271786689758301
1701881525768563500,7.2855634765625,-5.577968597412109,-6.862914562225342,4.257429599761963
1701881525778155300,7.2951552734375,-5.556433200836182,-6.865307331085205,4.24785852432251
1701881525787747800,7.304747802734375,-5.5396833419799805,-6.894021034240723,4.243072986602783
1701881525797341200,7.314341064453125,-5.503791332244873,-6.905985355377197,4.2550368309021
1701881525806933800,7.323933837890625,-5.4774699211120605,-6.905985355377197,4.276572227478027
1701881525816525600,7.333525634765625,-5.458327770233154,-6.901199817657471,4.290929317474365
1701881525826118100,7.3431181640625,-5.43918514251709,-6.920341968536377,4.298107624053955
1701881525835711500,7.35271142578125,-5.412863731384277,-6.925127983093262,4.302893161773682
1701881525845304000,7.362303955078125,-5.400899887084961,-6.922735214233398,4.298107624053955
1701881525854895900,7.371895751953125,-5.396114349365234,-6.934699058532715,4.302893161773682
1701881525864488400,7.381488525390625,-5.398507118225098,-6.9466633796691895,4.334000110626221
1701881525874081800,7.391081787109375,-5.408078193664551,-6.9705915451049805,4.334000110626221
1701881525883674000,7.400674072265625,-5.420042514801025,-6.9705915451049805,4.369892120361328
1701881525893266000,7.410265869140625,-5.420042514801025,-6.972984313964844,4.367499351501465
1701881525902858800,7.419858642578125,-5.424828052520752,-6.956234455108643,4.405784606933594
1701881525912452000,7.4294521484375,-5.420042514801025,-6.934699058532715,4.398606300354004
1701881525922044400,7.43904443359375,-5.417649745941162,-6.898806571960449,4.4033918380737305
1701881525931636200,7.44863623046875,-5.403292655944824,-6.891628265380859,4.408177375793457
1701881525941228800,7.458228759765625,-5.408078193664551,-6.882057189941406,4.398606300354004
1701881525950822100,7.467822265625,-5.427220821380615,-6.867700099945068,4.398606300354004
1701881525960414700,7.477414794921875,-5.44636344909668,-6.862914562225342,4.391427993774414
1701881525970006500,7.487006591796875,-5.467898845672607,-6.8533430099487305,4.398606300354004
1701881525979599000,7.49659912109375,-5.472684383392334,-6.838986396789551,4.393820762634277
1701881525989192400,7.5061923828125,-5.487041473388672,-6.838986396789551,4.391427993774414
1701881525998785000,7.515784912109375,-5.520540714263916,-6.843771934509277,4.400999069213867
1701881526008376800,7.525376953125,-5.527719497680664,-6.848557472229004,4.405784606933594
1701881526017969400,7.534969482421875,-5.520540714263916,-6.865307331085205,4.4033918380737305
1701881526027562800,7.544562744140625,-5.5157551765441895,-6.8533430099487305,4.391427993774414
1701881526037155000,7.554155029296875,-5.510969638824463,-6.8533430099487305,4.365106582641602
1701881526046747000,7.563746826171875,-5.510969638824463,-6.8533430099487305,4.324428558349609
1701881526056339500,7.57333935546875,-5.520540714263916,-6.848557472229004,4.290929317474365
1701881526065932800,7.582932861328125,-5.532505035400391,-6.834200382232666,4.240679740905762
1701881526075525400,7.592525390625,-5.542076110839844,-6.8365936279296875,4.18564510345459
1701881526085117200,7.6021171875,-5.551647663116455,-6.8294148445129395,4.133002758026123
1701881526094709800,7.611709716796875,-5.589932918548584,-6.745666027069092,4.034897327423096
1701881526104303000,7.62130322265625,-5.611468315124512,-6.870092868804932,4.125824451446533
1701881526113895700,7.630895751953125,-5.652445316314697,-6.9083781242370605,4.164109706878662
1701881526123487500,7.640487548828125,-5.690730571746826,-6.8772711753845215,4.1282172203063965
1701881526133080000,7.650080078125,-5.664409637451172,-7.020840644836426,4.156930923461914
1701881526142673400,7.65967333984375,-5.644967555999756,-7.104589462280273,4.2000017166137695
1701881526152265700,7.669265625,-5.613861083984375,-7.142874717712402,4.2622151374816895
1701881526161857500,7.678857421875,-5.532505035400391,-7.121339321136475,4.283750534057617
1701881526171450400,7.688450439453125,-5.489434242248535,-7.04716157913208,4.267001152038574
1701881526181043700,7.698043701171875,-5.460720539093018,-6.937091827392578,4.233501434326172
1701881526190636000,7.707635986328125,-5.393721103668213,-6.882057189941406,4.252644062042236
1701881526200227800,7.717227783203125,-5.39132833480835,-6.819843769073486,4.281357765197754
1701881526209820400,7.7268203125,-5.353043556213379,-6.803093910217285,4.278964996337891
1701881526219413800,7.736413818359375,-5.3339009284973145,-6.810272216796875,4.259822368621826
1701881526229006300,7.74600634765625,-5.374578952789307,-6.714559555053711,4.3483567237854
1701881526238598100,7.75559814453125,-5.451148986816406,-6.810272216796875,4.492225646972656
1701881526248190700,7.765190673828125,-5.568397521972656,-6.855735778808594,4.497011184692383
1701881526257784000,7.7747841796875,-5.647360324859619,-6.841379165649414,4.5185465812683105
1701881526267376600,7.784376708984375,-5.642574787139893,-6.922735214233398,4.554438591003418
1701881526276968400,7.793968505859375,-5.556433200836182,-6.944270610809326,4.542474746704102
1701881526286561000,7.80356103515625,-5.479863166809082,-6.932306289672852,4.420141696929932
1701881526296154400,7.813154296875,-5.455934524536133,-6.913163661956787,4.343571186065674
1701881526305746700,7.82274658203125,-5.4296135902404785,-6.951448917388916,4.4273200035095215
1701881526315338500,7.83233837890625,-5.448756217956543,-6.953841686248779,4.4635114669799805
1701881526324931000,7.84193115234375,-5.432006359100342,-6.953841686248779,4.374678134918213
1701881526334524400,7.8515244140625,-5.441577911376953,-6.9083781242370605,4.147359848022461
1701881526344117000,7.861116943359375,-5.436792373657227,-7.145267486572266,4.384249210357666
1701881526353708800,7.870708740234375,-5.417649745941162,-7.118946552276611,4.448855400085449
1701881526363301400,7.88030126953125,-5.432006359100342,-7.013662338256836,4.432105541229248
1701881526372894700,7.889894775390625,-5.427220821380615,-7.016055107116699,4.412963390350342
1701881526382487300,7.8994873046875,-5.4296135902404785,-7.075875759124756,4.398606300354004
1701881526392079000,7.9090791015625,-5.4296135902404785,-7.0902323722839355,4.47068977355957
1701881526401671700,7.918671630859375,-5.393721103668213,-7.051947593688965,4.621438026428223
1701881526411265000,7.92826513671875,-5.3339009284973145,-6.870092868804932,4.7386860847473145
1701881526420857300,7.937857421875,-5.195116996765137,-6.774380207061768,4.85114860534668
1701881526430449200,7.94744921875,-4.993820667266846,-6.896413803100586,4.7626142501831055
1701881526440041700,7.957041748046875,-4.924428939819336,-6.920341968536377,4.4635114669799805
1701881526449635300,7.96663525390625,-4.967499732971191,-6.941877365112305,4.156930923461914
1701881526459227600,7.9762275390625,-5.18315315246582,-6.929913520812988,3.9248273372650146
1701881526468819500,7.9858193359375,-5.39132833480835,-6.867700099945068,3.874279022216797
1701881526478412000,7.995412109375,-5.527719497680664,-6.963412761688232,3.8575291633605957
1701881526488005400,8.00500537109375,-5.700301647186279,-6.965806007385254,3.8072798252105713
1701881526497598000,8.014597900390624,-5.855835437774658,-6.958627223968506,3.7474594116210938
1701881526507189800,8.024189697265625,-5.987440586090088,-7.023233413696289,3.656532049179077
1701881526516782300,8.0337822265625,-6.04247522354126,-7.078268527984619,3.6828532218933105
1701881526526375700,8.043375732421875,-6.008975982666016,-7.083054065704346,3.790530204772949
1701881526535968300,8.05296826171875,-5.925227165222168,-7.037590503692627,3.8647077083587646
1701881526545560000,8.06256005859375,-5.843871116638184,-6.929913520812988,3.9248273372650146
1701881526555152600,8.072152587890624,-5.714658737182617,-6.8365936279296875,3.982254981994629
1701881526564746000,8.08174609375,-5.580361366271973,-6.817451000213623,4.051646709442139
1701881526574338300,8.09133837890625,-5.465506076812744,-6.815057754516602,4.056432723999023
1701881526583930000,8.10093017578125,-5.367400169372559,-6.8365936279296875,4.032504558563232
1701881526593522700,8.110522705078125,-5.298008441925049,-6.8844499588012695,4.034897327423096
1701881526603116000,8.120115966796876,-5.278865814208984,-6.925127983093262,4.142574310302734
1701881526612708600,8.12970849609375,-5.257330417633057,-6.9705915451049805,4.207180500030518
1701881526622300400,8.139300537109374,-5.410470962524414,-6.953841686248779,4.300500392913818
1701881526631893000,8.14889306640625,-5.479863166809082,-6.9945197105407715,4.355535507202148
1701881526641486300,8.158486328125,-5.503791332244873,-7.030412197113037,4.461118698120117
1701881526651079000,8.168078857421875,-5.510969638824463,-7.04716157913208,4.436891555786133
1701881526660670700,8.177670654296875,-5.470291614532471,-7.054340362548828,4.482654094696045
1701881526670263300,8.18726318359375,-5.388935565948486,-7.044768810272217,4.501796722412109
1701881526679856600,8.196856689453124,-5.343472003936768,-6.975377082824707,4.444069862365723
1701881526689449000,8.206448974609375,-5.276473045349121,-6.987341403961182,4.453640937805176
1701881526699040800,8.216040771484375,-5.269294738769531,-6.929913520812988,4.365106582641602
1701881526708633300,8.22563330078125,-5.221437931060791,-6.963412761688232,4.331607341766357
1701881526718226700,8.235226806640625,-5.209474086761475,-7.013662338256836,4.334000110626221
1701881526727819300,8.2448193359375,-5.276473045349121,-7.104589462280273,4.31007194519043
1701881526737411000,8.2544111328125,-5.388935565948486,-7.210172653198242,4.542474746704102
1701881526747003600,8.264003662109374,-5.281258583068848,-7.087839603424072,4.228715896606445
1701881526756597000,8.273596923828125,-5.38415002822876,-7.166802883148193,4.408177375793457
1701881526766189600,8.283189453125,-5.331508159637451,-7.09501838684082,4.345963954925537
1701881526775781400,8.292781494140625,-5.309972763061523,-7.255636692047119,4.300500392913818
1701881526785374000,8.3023740234375,-5.44636344909668,-6.850950241088867,4.331607341766357
1701881526794967300,8.31196728515625,-5.396114349365234,-6.7911295890808105,4.214358806610107
1701881526804559600,8.3215595703125,-5.4296135902404785,-6.896413803100586,4.197608947753906
1701881526814151400,8.3311513671875,-5.455934524536133,-6.901199817657471,4.1282172203063965
1701881526823744000,8.340743896484375,-5.467898845672607,-7.0902323722839355,3.9846479892730713
1701881526833337600,8.350337646484375,-5.568397521972656,-7.205387115478516,3.8985064029693604
1701881526842930000,8.359929931640625,-5.712265968322754,-7.1958160400390625,3.920041799545288
1701881526852521700,8.369521728515625,-5.8582282066345215,-7.020840644836426,3.912863254547119
1701881526862114300,8.3791142578125,-5.860620975494385,-7.0423760414123535,3.93679141998291
1701881526871707600,8.388707763671874,-5.798407554626465,-6.843771934509277,3.7713875770568848
1701881526881300200,8.39830029296875,-5.767300605773926,-6.7049880027771,3.7450666427612305
1701881526890892000,8.40789208984375,-5.681159019470215,-6.63559627532959,3.7139599323272705
1701881526900484600,8.417484619140625,-5.659623622894287,-6.52044153213501,3.795315742492676
1701881526910078000,8.427077880859375,-5.736194133758545,-6.819843769073486,4.06839656829834
1701881526919670500,8.43667041015625,-5.8749775886535645,-6.963412761688232,4.190430641174316
1701881526929262300,8.446262451171876,-5.90369176864624,-6.9083781242370605,4.173680782318115
1701881526938855000,8.45585498046875,-5.884549140930176,-6.733702182769775,4.073182582855225
1701881526948448300,8.4654482421875,-5.729015827178955,-6.817451000213623,4.044468402862549
1701881526958040600,8.47504052734375,-5.618646621704102,-6.757630348205566,3.8934216499328613
1701881526967632400,8.48463232421875,-5.410470962524414,-6.544369697570801,3.687638759613037
1701881526977225000,8.494224853515625,-5.348257541656494,-6.681059837341309,3.716352701187134
1701881526986818300,8.503818359375,-5.393721103668213,-7.207779884338379,4.015754699707031
1701881526996411000,8.513410888671874,-5.525326728820801,-7.296314239501953,4.173680782318115
1701881527006002700,8.523002685546874,-5.616253852844238,-7.492526054382324,4.429712772369385
1701881527015595300,8.53259521484375,-5.705087184906006,-6.850950241088867,4.2550368309021
1701881527025188600,8.542188720703125,-5.573183059692383,-6.532405853271484,4.149752616882324
1701881527034781200,8.55178125,-5.589932918548584,-6.372086524963379,4.113860130310059
1701881527044373000,8.561373046875,-5.556433200836182,-6.302694797515869,4.137788772583008
1701881527053965600,8.570965576171876,-5.625824928283691,-6.515655994415283,4.357928276062012
1701881527063559000,8.580558837890624,-5.611468315124512,-6.987341403961182,4.611866474151611
1701881527073151200,8.590151123046875,-5.613861083984375,-7.425527095794678,4.760221481323242
1701881527082743000,8.599742919921875,-5.666802406311035,-7.664809226989746,4.815256595611572
1701881527092335600,8.609335693359375,-5.7720866203308105,-7.4949188232421875,4.745864391326904
1701881527101929000,8.618928955078125,-5.762515068054199,-7.09501838684082,4.669294357299805
1701881527111521500,8.628521484375,-5.760122299194336,-6.230910301208496,4.482654094696045
1701881527121113300,8.63811328125,-5.441577911376953,-5.237290382385254,4.030111312866211
1701881527130706000,8.647705810546874,-5.077569484710693,-5.411966800689697,3.8790645599365234
1701881527140299300,8.65729931640625,-5.0703911781311035,-5.8597235679626465,3.965505361557007
1701881527149891800,8.666891845703125,-5.302793979644775,-6.317051887512207,4.121038913726807
1701881527159483600,8.676483642578125,-5.2716875076293945,-6.951448917388916,4.109074592590332
1701881527169076200,8.686076171875,-5.231009483337402,-7.265207767486572,4.183252334594727
1701881527178669600,8.695669677734376,-5.506184101104736,-7.281957626342773,4.353142738342285
1701881527188262100,8.70526220703125,-5.5468621253967285,-7.614559650421143,4.501796722412109
1701881527197853700,8.714853759765624,-5.520540714263916,-7.81346321105957,4.4344987869262695
1701881527207446500,8.724446533203125,-5.705087184906006,-8.019246101379395,4.609473705291748
1701881527217040000,8.734039794921875,-5.762515068054199,-8.1795654296875,4.745864391326904
1701881527226632200,8.743632080078125,-5.824728488922119,-7.844570159912109,4.784149646759033
1701881527236224000,8.75322412109375,-5.84865665435791,-7.40399169921875,4.729115009307861
1701881527245816600,8.762816650390626,-5.750551223754883,-7.121339321136475,4.59511661529541
1701881527255410000,8.772409912109374,-5.625824928283691,-6.8844499588012695,4.381856441497803
1701881527265002500,8.78200244140625,-5.621039390563965,-6.7049880027771,4.214358806610107
1701881527274594300,8.79159423828125,-5.575575828552246,-6.944270610809326,4.307679176330566
1701881527284187000,8.801186767578125,-5.513362407684326,-6.984948635101318,4.226323127746582
1701881527293780200,8.8107802734375,-5.458327770233154,-7.008876800537109,4.202394962310791
1701881527303372800,8.820372802734376,-5.556433200836182,-6.927520751953125,4.393820762634277
1701881527312964600,8.829964599609376,-5.489434242248535,-6.783951282501221,4.417748928070068
1701881527322557200,8.83955712890625,-5.396114349365234,-6.939484596252441,4.552045822143555
1701881527332150500,8.849150634765625,-5.082355499267578,-6.9945197105407715,4.386641979217529
1701881527341742800,8.858742919921875,-5.403292655944824,-6.927520751953125,4.501796722412109
1701881527351334700,8.868334716796875,-5.388935565948486,-6.870092868804932,4.4635114669799805
1701881527360927200,8.87792724609375,-5.367400169372559,-6.8844499588012695,4.693222522735596
1701881527370520600,8.8875205078125,-5.3817572593688965,-6.769594192504883,4.523332118988037
1701881527380113200,8.897113037109374,-5.532505035400391,-6.640381813049316,4.530510425567627
1701881527389705000,8.906705078125,-5.592325687408447,-6.681059837341309,4.537689208984375
1701881527399297500,8.916297607421875,-5.518147945404053,-6.8533430099487305,4.2550368309021
1701881527408891000,8.925890869140625,-5.510969638824463,-6.999305248260498,4.209573268890381
1701881527418483500,8.9354833984375,-5.712265968322754,-7.020840644836426,4.3172502517700195
1701881527428075300,8.9450751953125,-5.2477593421936035,-7.358527660369873,4.497011184692383
1701881527437667800,8.954667724609376,-5.958726406097412,-7.69830846786499,3.929612874984741
1701881527447261200,8.96426123046875,-4.364209175109863,-7.392027378082275,5.164907455444336
1701881527456853800,8.973853759765625,-5.580361366271973,-7.669594764709473,4.573581218719482
1701881527466445300,8.9834453125,-5.412863731384277,-7.222136974334717,4.772185802459717
1701881527476038100,8.9930380859375,-5.554040431976318,-7.1524457931518555,4.674079895019531
1701881527485631200,9.00263134765625,-5.374578952789307,-7.396812915802002,4.5568318367004395
1701881527495223800,9.012223876953126,-5.072783946990967,-7.748857021331787,4.554438591003418
1701881527504815600,9.021815673828126,-5.338686466217041,-7.607381343841553,4.631009101867676
1701881527514408200,9.031408203125,-4.567898273468018,-6.817451000213623,4.9516472816467285
1701881527524001500,9.04100146484375,-6.0879387855529785,-7.162017345428467,4.41057014465332
1701881527533594000,9.050593994140625,-5.101797103881836,-8.301898002624512,3.661317825317383
1701881527543186000,9.06018603515625,-3.500101327896118,-13.154542922973633,-1.830808401107788
1701881527552778500,9.069778564453125,-3.6532418727874756,-9.939187049865723,4.022933006286621
1701881527562371800,9.079371826171876,-4.366602420806885,-8.675178527832031,5.119443893432617
1701881527571964400,9.08896435546875,-4.431208610534668,-8.248956680297852,5.0356950759887695
1701881527581556000,9.098555908203124,-4.447957992553711,-8.490931510925293,4.731507778167725
1701881527591148800,9.108148681640625,-4.220640182495117,-8.91236686706543,4.7937211990356445
1701881527600742100,9.1177421875,-4.615755081176758,-9.635298728942871,5.6461639404296875
1701881527610334500,9.12733447265625,-5.8821563720703125,-9.388538360595703,6.069693565368652
1701881527619926300,9.13692626953125,-6.691229343414307,-8.632107734680176,5.559723377227783
1701881527629518800,9.146518798828126,-6.451947212219238,-8.311469078063965,5.117051124572754
1701881527639112200,9.1561123046875,-4.766502857208252,-8.668000221252441,5.631807327270508
1701881527648704800,9.165704833984375,-2.4681966304779053,-9.534799575805664,4.513761043548584
1701881527658296600,9.175296630859375,-4.632504463195801,-9.575477600097656,3.417249917984009
1701881527667889200,9.18488916015625,-6.114260196685791,-7.863712310791016,3.4459636211395264
1701881527677482500,9.194482421875,-6.109474182128906,-8.648857116699219,4.59511661529541
1701881527687075000,9.204074951171876,-4.869394302368164,-9.707083702087402,5.093122959136963
1701881527696667000,9.2136669921875,-4.060320854187012,-9.93679428100586,4.934897422790527
1701881527706259500,9.223259521484374,-3.8709888458251953,-9.611370086669922,4.331607341766357
1701881527715852800,9.232852783203125,-3.998107433319092,-9.089435577392578,4.298107624053955
1701881527725445000,9.242445068359375,-3.7369906902313232,-9.331110954284668,4.4512481689453125
1701881527735037000,9.252036865234375,-3.193521022796631,-9.323932647705078,4.9277191162109375
1701881527744629800,9.261629638671875,-3.3705897331237793,-8.6967134475708,6.045765399932861
1701881527754222800,9.271222900390624,-5.3817572593688965,-9.7669038772583,7.137490749359131
1701881527763815400,9.2808154296875,-6.859025955200195,-8.864510536193848,5.847161293029785
1701881527773407200,9.2904072265625,-6.111867427825928,-8.565108299255371,5.813661575317383
1701881527782999800,9.299999755859375,-6.21266508102417,-8.443074226379395,6.7091755867004395
1701881527792593200,9.30959326171875,-7.536494255065918,-8.548358917236328,6.546164512634277
1701881527802185700,9.319185791015625,-9.688838005065918,-7.27956485748291,6.6969122886657715
1701881527811777500,9.328777587890626,-3.0810582637786865,-6.922735214233398,7.599604606628418
1701881527821370000,9.3383701171875,2.925823926925659,-7.35613489151001,8.722436904907227
1701881527830963500,9.34796337890625,5.841777324676514,-7.111767768859863,10.000802040100098
1701881527840556000,9.35755615234375,5.851348876953125,-7.590631484985352,12.61286735534668
1701881527850147600,9.367147705078125,4.297509670257568,-8.780462265014648,15.157933235168457
1701881527859740400,9.376740478515625,2.9425735473632812,-8.390432357788086,15.265610694885254
1701881527869333800,9.386333740234376,2.344068765640259,-7.298707485198975,14.329418182373047
1701881527878926000,9.395926025390626,2.525923490524292,-5.878866195678711,13.283156394958496
1701881527888518000,9.405517822265624,2.394318103790283,-5.515157222747803,12.629616737365723
1701881527898110500,9.4151103515625,2.1571295261383057,-5.933900833129883,12.320942878723145
1701881527907703800,9.424703857421875,1.8987047672271729,-6.44387149810791,11.880364418029785
1701881527917296400,9.43429638671875,1.8604196310043335,-6.841379165649414,11.487642288208008
1701881527926888200,9.44388818359375,2.305783748626709,-6.874878406524658,10.558629035949707
1701881527936480800,9.453480712890626,3.050250768661499,-6.987341403961182,9.960124015808105
1701881527946074000,9.46307421875,3.780360698699951,-6.812664985656738,9.1414794921875
1701881527955666700,9.472666748046874,4.139583110809326,-6.544369697570801,7.9851484298706055
1701881527965258500,9.482258544921875,4.398007869720459,-6.398407936096191,6.9891357421875
1701881527974851000,9.49185107421875,4.680660247802734,-6.331408500671387,5.981159210205078
1701881527984444400,9.5014443359375,5.020740032196045,-6.216553211212158,5.282155990600586
1701881527994036700,9.51103662109375,5.221737384796143,-5.615655422210693,4.343571186065674
1701881528003628500,9.520628662109376,5.039882659912109,-4.957330226898193,3.3909287452697754
1701881528013221000,9.53022119140625,3.81864595413208,-4.495216369628906,2.8211379051208496
1701881528022814500,9.539814453125,2.210070848464966,-4.100101470947266,3.242274761199951
1701881528032407000,9.549406982421875,2.241177558898926,-3.262314558029175,2.591127872467041
1701881528041998800,9.558998779296875,1.939382791519165,-1.1362916231155396,-0.08554340898990631
1701881528051591400,9.56859130859375,0.7088736891746521,0.41994038224220276,-1.7997016906738281
1701881528061184800,9.578184814453126,0.04815555736422539,0.0726819857954979,-1.2346965074539185
1701881528070777300,9.58777734375,2.789433002471924,0.08225327730178833,0.1947159469127655
1701881528080369200,9.597369140625,6.366104602813721,0.16869398951530457,1.3749756813049316
1701881528089961700,9.606961669921875,9.538389205932617,0.656829833984375,1.4084752798080444
1701881528099555000,9.61655517578125,14.367105484008789,0.9753743410110474,1.8921245336532593
1701881528109147400,9.6261474609375,14.76939868927002,0.22612173855304718,1.7198412418365479
1701881528118739200,9.6357392578125,11.405688285827637,-0.4899304509162903,2.002194404602051
1701881528128331800,9.645331787109376,10.498209953308105,-0.784247636795044,1.6911274194717407
1701881528137925400,9.65492529296875,10.709077835083008,-0.544965386390686,0.9966106414794922
1701881528147517700,9.664517578125,10.953145980834961,0.1495514214038849,0.9463613629341125
1701881528157109500,9.674109619140625,11.207083702087402,1.083051323890686,1.6214364767074585
1701881528166702000,9.6837021484375,10.649256706237793,2.2728824615478516,2.1720848083496094
1701881528176295400,9.69329541015625,8.827122688293457,4.162015914916992,1.8897316455841064
1701881528185888000,9.702887939453126,6.945466995239258,3.93679141998291,2.370988130569458
1701881528195479800,9.712479736328126,6.880860805511475,2.6536402702331543,3.457927703857422
1701881528205072400,9.722072265625,7.7353973388671875,2.071885347366333,3.9774694442749023
1701881528214665700,9.731665771484375,9.490233421325684,2.3976082801818848,3.7522449493408203
1701881528224258000,9.741258056640625,9.949954986572266,2.823530673980713,3.328416347503662
1701881528233850000,9.75085009765625,9.24855899810791,3.079861879348755,3.419642686843872
1701881528243442700,9.760442626953125,8.401200294494629,3.072683334350586,3.9224345684051514
1701881528253036000,9.7700361328125,7.924729347229004,2.720639228820801,4.369892120361328
1701881528262628400,9.77962841796875,8.523234367370605,2.016850471496582,4.516153812408447
1701881528272220200,9.78922021484375,9.669994354248047,1.1380863189697266,4.504189491271973
1701881528281812700,9.798812744140625,11.475080490112305,0.9442676305770874,4.077968120574951
1701881528291406000,9.808406005859375,13.01216983795166,1.296311616897583,3.5249269008636475
1701881528300998700,9.81799853515625,13.91217041015625,1.7724833488464355,3.290131092071533
1701881528310590500,9.827590576171875,13.174881935119629,1.7413766384124756,3.9248273372650146
1701881528320183000,9.83718310546875,11.182856559753418,1.3657035827636719,4.798506736755371
1701881528329776400,9.8467763671875,9.772886276245117,1.3250255584716797,5.045266628265381
1701881528339369000,9.856368896484375,9.279664993286133,1.4422738552093506,4.810471057891846
1701881528348960800,9.865960693359375,9.188737869262695,1.7940187454223633,4.221537113189697
1701881528358553300,9.87555322265625,8.779266357421875,2.2968106269836426,3.3693933486938477
1701881528368146700,9.885146728515625,8.0922269821167,2.8354947566986084,2.4690937995910645
1701881528377739000,9.894739013671876,7.606184959411621,3.5132617950439453,1.7724833488464355
1701881528387330800,9.904330810546876,7.438687324523926,3.9631125926971436,1.7724833488464355
1701881528396923400,9.91392333984375,7.246962547302246,3.604189157485962,2.4284157752990723
1701881528406516700,9.923516845703125,6.840182781219482,3.1157541275024414,2.909672260284424
1701881528416109300,9.933109375,6.725327014923096,3.300001621246338,2.823530673980713
1701881528425701000,9.942701171875,6.425925254821777,3.5443685054779053,2.519343137741089
1701881528435293700,9.952293701171875,6.033203125,3.628117322921753,2.207977056503296
1701881528444887000,9.961886962890626,5.640780448913574,3.7573297023773193,1.9040886163711548
1701881528454479600,9.971479736328124,5.695815086364746,3.8362929821014404,1.6190435886383057
1701881528464071400,9.981071533203124,6.811468601226807,3.4387853145599365,2.028515338897705
1701881528473664000,9.9906640625,8.3267240524292,4.111766815185547,1.7940187454223633
1701881528483257300,10.00025732421875,9.463912963867188,3.7740795612335205,1.5185450315475464
1701881528492849700,10.009849609375,9.636494636535645,2.801995277404785,2.073979139328003
1701881528502441500,10.01944140625,9.634101867675781,2.651247501373291,2.5145576000213623
1701881528512034000,10.029033935546876,9.602995872497559,2.792423963546753,2.622234582901001
1701881528521627400,10.03862744140625,9.521639823913574,2.9961130619049072,2.7681965827941895
1701881528531220200,10.04822021484375,9.066703796386719,3.3215370178222656,2.7681965827941895
