time,seconds_elapsed,z,y,x
1698079645201180700,0.0881806640625,-0.052662499248981476,-0.46172499656677246,0.05004999786615372
1698079645210599700,0.097599609375,-0.09790000319480896,-0.32243749499320984,0.025575000792741776
1698079645220018700,0.107018798828125,-0.10642500221729279,-0.306487500667572,0.02928750030696392
1698079645229438000,0.11643798828125,-0.06984999775886536,-0.3834874927997589,0.014574999921023846
1698079645238857000,0.12585693359375,0.0010999999940395355,-0.42625001072883606,-0.020899999886751175
1698079645248276200,0.135276123046875,0.11467500030994415,-0.30524998903274536,-0.08318749815225601
1698079645257695200,0.1446953125,0.2881999909877777,-0.10243749618530273,-0.12952500581741333
1698079645267114500,0.154114501953125,0.4787749946117401,0.033137500286102295,-0.1699499934911728
1698079645276533500,0.163533447265625,0.6093999743461609,-0.10491249710321426,-0.22123749554157257
1698079645285952800,0.172952880859375,0.6448749899864197,-0.4787749946117401,-0.2932874858379364
1698079645295371800,0.182371826171875,0.6278250217437744,-0.8476874828338623,-0.3372874855995178
1698079645304791300,0.191791259765625,0.6313999891281128,-1.1079750061035156,-0.33233749866485596
1698079645314210000,0.2012099609375,0.6766374707221985,-1.2398375272750854,-0.296999990940094
1698079645323629000,0.210629150390625,0.7548750042915344,-1.203262448310852,-0.2358125001192093
1698079645333048600,0.220048583984375,0.8733999729156494,-1.0224499702453613,-0.2102375030517578
1698079645342467600,0.229467529296875,1.0187374353408813,-0.6535375118255615,-0.296999990940094
1698079645351886600,0.238886474609375,1.140974998474121,-0.3040125072002411,-0.4300999939441681
1698079645361305900,0.248305908203125,1.3205499649047852,-0.2502500116825104,-0.4496249854564667
1698079645370724900,0.257724853515625,1.5233625173568726,-0.25891250371932983,-0.3372874855995178
1698079645380144000,0.26714404296875,1.713937520980835,-0.4090625047683716,-0.10999999940395355
1698079645389563100,0.276563232421875,1.8495124578475952,-0.5790125131607056,0.1966249942779541
1698079645398982400,0.285982421875,1.8262749910354614,-0.6290624737739563,0.38596248626708984
1698079645408401400,0.2954013671875,1.5428874492645264,-0.516587495803833,0.3139125108718872
1698079645417820700,0.304820556640625,1.2703624963760376,-0.3749625086784363,0.15386250615119934
1698079645427239700,0.31423974609375,1.1885499954223633,-0.5875374674797058,-0.006187499966472387
1698079645436658700,0.32365869140625,1.194599986076355,-0.9894499778747559,-0.1979999989271164
1698079645446078000,0.333077880859375,1.2252625226974487,-1.1482625007629395,-0.4300999939441681
1698079645455497000,0.3424970703125,1.264312505722046,-1.0041625499725342,-0.6573874950408936
1698079645464916200,0.351916259765625,1.2765499353408813,-0.8001124858856201,-0.8089125156402588
1698079645474335200,0.361335205078125,1.3253624439239502,-0.8551124930381775,-0.975012481212616
1698079645483754500,0.37075439453125,1.4536499977111816,-1.1750749349594116,-0.9982500076293945
1698079645493173500,0.380173583984375,1.5989874601364136,-1.5794625282287598,-0.7599624991416931
1698079645502592800,0.3895927734375,1.618649959564209,-1.9387500286102295,-0.4166249930858612
1698079645512011800,0.39901171875,1.5819374322891235,-2.3406624794006348,-0.15895000100135803
1698079645521431000,0.40843115234375,1.573412537574768,-2.6094748973846436,-0.050187498331069946
1698079645530850000,0.41785009765625,1.578225016593933,-2.698575019836426,-0.1405249983072281
1698079645540269000,0.42726904296875,1.631987452507019,-2.7462875843048096,-0.3372874855995178
1698079645549688300,0.436688232421875,1.7334624528884888,-2.748762369155884,-0.4778124988079071
1698079645559107300,0.446107421875,1.8140374422073364,-2.7438125610351562,-0.5511000156402588
1698079645568526300,0.4555263671875,1.9093250036239624,-2.5959999561309814,-0.6451500058174133
1698079645577945600,0.464945556640625,2.3797125816345215,-2.260087490081787,-0.7391999959945679
1698079645587364900,0.47436474609375,2.5299999713897705,-0.1428624987602234,-0.7111499905586243
1698079645596783900,0.483783935546875,2.848862409591675,1.9597874879837036,-0.6206749677658081
1698079645606203000,0.493202880859375,3.1934375762939453,1.6554999351501465,-1.181399941444397
1698079645615622100,0.5026220703125,4.2110748291015625,-0.6045874953269958,-1.1900625228881836
1698079645625041200,0.512041259765625,5.223899841308594,-1.4280749559402466,-0.6291999816894531
1698079645634460200,0.521460205078125,5.829862594604492,-1.6026999950408936,0.10381250083446503
1698079645643879700,0.530879638671875,5.998437404632568,-1.1873124837875366,0.7525374889373779
1698079645653298700,0.540298583984375,5.7418622970581055,-0.8514000177383423,1.0652124881744385
1698079645662717700,0.5497177734375,5.2507123947143555,-0.8599249720573425,0.9211124777793884
1698079645672137200,0.55913720703125,4.887849807739258,-1.0737375020980835,0.5289624929428101
1698079645681556000,0.568555908203125,4.830512523651123,-1.2680250406265259,0.11110000312328339
1698079645690975200,0.577975341796875,4.828037261962891,-1.3486000299453735,-0.515625
1698079645700394500,0.58739453125,4.606937408447266,-2.0523250102996826,-1.1460624933242798
1698079645709813500,0.5968134765625,4.324649810791016,-3.2239625453948975,-1.4722124338150024
1698079645719232500,0.606232421875,4.214787483215332,-4.492125034332275,-1.3989249467849731
1698079645728651800,0.61565185546875,4.253837585449219,-5.548812389373779,-0.7343875169754028
1698079645738070800,0.62507080078125,4.175600051879883,-6.327062606811523,0.18809999525547028
1698079645747489800,0.63448974609375,4.2110748291015625,-6.909787654876709,0.8075374960899353
1698079645756909000,0.643908935546875,4.400412559509277,-7.419362545013428,1.0371625423431396
1698079645766328300,0.653328369140625,4.511650085449219,-7.514649868011475,0.7855374813079834
1698079645775747300,0.662747314453125,4.477412700653076,-6.974549770355225,-0.17352500557899475
1698079645785166300,0.672166259765625,4.2928876876831055,-6.619112491607666,-0.891962468624115
1698079645794585900,0.6815859375,4.065737247467041,-6.686212539672852,-1.0837750434875488
1698079645804004900,0.6910048828125,3.6649250984191895,-7.284887313842773,-0.7551500201225281
1698079645813423600,0.700423583984375,3.179962396621704,-7.8468499183654785,0.18933749198913574
1698079645822843000,0.7098427734375,2.5568125247955322,-7.865274906158447,1.1483999490737915
1698079645832262100,0.71926220703125,2.223375082015991,-7.093074798583984,1.914412498474121
1698079645841681200,0.72868115234375,2.263662576675415,-5.644100189208984,2.487375020980835
1698079645851100400,0.738100341796875,2.4517624378204346,-4.213550090789795,2.8232874870300293
1698079645860519400,0.74751953125,2.7498624324798584,-3.055387496948242,2.7939999103546143
1698079645869938400,0.7569384765625,2.8769125938415527,-1.881274938583374,2.653475046157837
1698079645879357700,0.766357666015625,2.9906249046325684,-0.8953999876976013,2.354137420654297
1698079645888777000,0.77577685546875,3.137199878692627,0.05142499879002571,1.95951247215271
1698079645898196000,0.785196044921875,3.0223875045776367,0.6268625259399414,1.8239375352859497
1698079645907615200,0.794615234375,2.604525089263916,0.6830999851226807,1.9485124349594116
1698079645917034000,0.804033935546875,2.131662607192993,0.5365250110626221,2.0842249393463135
1698079645926453500,0.81345361328125,1.7688000202178955,0.28847500681877136,2.205087423324585
1698079645935872500,0.82287255859375,1.6161749362945557,0.1381874978542328,2.3516623973846436
1698079645945291500,0.83229150390625,1.6406500339508057,0.6879125237464905,2.4189000129699707
1698079645954710800,0.841710693359375,1.564887523651123,1.2658250331878662,2.108562469482422
1698079645964129800,0.8511298828125,1.4048374891281128,1.1620124578475952,1.5918375253677368
1698079645973548800,0.860548828125,1.232550024986267,1.2365374565124512,1.3083125352859497
1698079645982967800,0.8699677734375,1.0932625532150269,1.2621124982833862,1.2142624855041504
1698079645992387300,0.87938720703125,1.0969749689102173,1.3391125202178955,1.1422125101089478
1698079646001806300,0.888806396484375,1.1727374792099,1.2292499542236328,0.9809250235557556
1698079646011225300,0.898225341796875,1.224025011062622,0.9982500076293945,0.8721625208854675
1698079646020644600,0.90764453125,1.294837474822998,0.7160999774932861,0.8733999729156494
1698079646030063600,0.917063720703125,1.4071749448776245,0.25066250562667847,0.9466875195503235
1698079646039482600,0.926482666015625,1.5013624429702759,-0.12086249887943268,1.1263999938964844
1698079646048902100,0.935902099609375,1.564887523651123,-0.21972499787807465,1.3975499868392944
1698079646058321200,0.945321044921875,1.6797000169754028,-0.20514999330043793,1.601599931716919
1698079646067740200,0.954740234375,1.6894625425338745,0.059950001537799835,1.7457000017166138
1698079646077159200,0.9641591796875,1.5844124555587769,0.5938624739646912,1.888700008392334
1698079646086578400,0.973578369140625,1.3840750455856323,0.8064374923706055,2.0047500133514404
1698079646095997700,0.982997802734375,1.18978750705719,0.8076750040054321,2.093987464904785
1698079646105416700,0.992416748046875,1.0334500074386597,0.9017249941825867,2.0487499237060547
1698079646114835700,1.001835693359375,0.9699249863624573,1.069200038909912,1.884987473487854
1698079646124255000,1.0112548828125,1.0272624492645264,1.3122999668121338,1.700600028038025
1698079646133674000,1.020674072265625,1.1310750246047974,1.4539250135421753,1.3120249509811401
1698079646143093200,1.03009326171875,1.1017874479293823,1.152250051498413,1.1459250450134277
1698079646152512500,1.039512451171875,0.9747374653816223,1.2072499990463257,1.0762125253677368
1698079646161931500,1.048931640625,0.7376874685287476,1.093537449836731,1.290024995803833
1698079646171350800,1.058350830078125,0.22948749363422394,1.0617749691009521,1.696887493133545
1698079646180769800,1.067769775390625,-0.22013749182224274,1.2083499431610107,1.564887523651123
1698079646190188800,1.077188720703125,-0.4375250041484833,1.721500039100647,1.227737545967102
1698079646199608000,1.086608154296875,-0.2957625091075897,2.461937427520752,-0.007424999959766865
1698079646209027300,1.09602734375,-0.040424998849630356,2.3617000579833984,-1.6237374544143677
1698079646218446300,1.1054462890625,-0.2934249937534332,1.5284500122070312,-1.897362470626831
1698079646227865300,1.114865234375,-0.8028625249862671,0.201712504029274,-1.8400249481201172
1698079646237284400,1.124284423828125,-1.197487473487854,-1.2838374376296997,-1.9315999746322632
1698079646246703600,1.13370361328125,-1.480875015258789,-2.4102375507354736,-2.1771750450134277
1698079646256123000,1.143122802734375,-1.8034499883651733,-3.506112575531006,-2.2651751041412354
1698079646265542000,1.1525419921875,-2.221174955368042,-4.670462608337402,-2.1196999549865723
1698079646274961200,1.161961181640625,-2.563275098800659,-5.717525005340576,-1.7825499773025513
1698079646284380200,1.171380126953125,-2.520512580871582,-6.241537570953369,-1.513737440109253
1698079646293799400,1.18079931640625,-2.3166000843048096,-5.7908124923706055,-1.3011624813079834
1698079646303218700,1.19021875,-2.0525999069213867,-5.01984977722168,-1.032349944114685
1698079646312637700,1.1996376953125,-1.892549991607666,-4.288074970245361,-0.909012496471405
1698079646322056700,1.209056640625,-2.03802490234375,-3.6613500118255615,-0.9677249789237976
1698079646331476000,1.21847607421875,-2.394700050354004,-3.645400047302246,-1.1325875520706177
1698079646340895000,1.22789501953125,-2.8052749633789062,-3.4585375785827637,-1.4904999732971191
1698079646350314000,1.23731396484375,-3.5077624320983887,-3.353487491607666,-1.7019749879837036
1698079646359733200,1.246733154296875,-4.145487308502197,-3.5770623683929443,-1.7202625274658203
1698079646369152500,1.256152587890625,-4.510687351226807,-3.634399890899658,-1.4124000072479248
1698079646378571500,1.265571533203125,-4.657262325286865,-3.5843498706817627,-1.001824975013733
1698079646387990800,1.27499072265625,-4.57916259765625,-3.610062599182129,-0.7697250247001648
1698079646397409800,1.284409912109375,-4.613399982452393,-3.6649250984191895,-0.4778124988079071
1698079646406828800,1.293828857421875,-4.433687686920166,-3.8336374759674072,0.16733749210834503
1698079646416247800,1.303247802734375,-3.7874374389648438,-3.834737539291382,0.6804875135421753
1698079646425667300,1.312667236328125,-2.6855125427246094,-3.7994000911712646,0.8991125226020813
1698079646435086300,1.32208642578125,-1.4735875129699707,-4.687512397766113,0.8868749737739563
1698079646444505300,1.33150537109375,-0.24695000052452087,-5.459712505340576,0.8295375108718872
1698079646453924600,1.340924560546875,1.2178374528884888,-4.757225036621094,0.7463499903678894
1698079646463343600,1.350343505859375,2.0755624771118164,-4.147550106048584,0.7085375189781189
1698079646472763000,1.359762939453125,2.495762586593628,-4.312412261962891,0.4739624857902527
1698079646482182100,1.36918212890625,2.7486250400543213,-4.698512554168701,0.057337500154972076
1698079646491601200,1.37860107421875,2.9819624423980713,-4.218362331390381,0.057337500154972076
1698079646501020400,1.3880205078125,2.956387519836426,-3.491537570953369,0.2149125039577484
1698079646510439400,1.397439453125,2.4994750022888184,-3.2275373935699463,0.5522000193595886
1698079646519858400,1.4068583984375,1.964324951171875,-3.142012596130371,0.9626374840736389
1698079646529277700,1.416277587890625,1.3840750455856323,-3.0809624195098877,1.1044000387191772
1698079646538696700,1.42569677734375,0.8904500007629395,-2.6730000972747803,0.935824990272522
1698079646548116000,1.435115966796875,0.6851624846458435,-1.8458000421524048,0.550962507724762
1698079646557535000,1.444534912109375,0.3858250081539154,-1.4291750192642212,0.11233749985694885
1698079646566954000,1.4539541015625,-0.27871251106262207,-1.0724999904632568,0.07562500238418579
1698079646576373200,1.463373291015625,-0.8346250057220459,-0.6400625109672546,-0.22357499599456787
1698079646585792500,1.47279248046875,-0.8859124779701233,-1.181262493133545,-0.8162000179290771
1698079646595211500,1.48221142578125,-0.491287499666214,-3.1591999530792236,-1.005537509918213
1698079646604630500,1.491630615234375,-0.07837499678134918,-4.052262306213379,-0.634149968624115
1698079646614049800,1.5010498046875,0.43601250648498535,-3.9606873989105225,-0.10271249711513519
1698079646623468800,1.51046875,0.5348749756813049,-2.7230498790740967,0.5130124688148499
1698079646632888000,1.51988818359375,0.572825014591217,-1.7480374574661255,0.9248250126838684
1698079646642307300,1.529307373046875,0.3870624899864197,-1.4756499528884888,1.1006875038146973
1698079646651726300,1.538726318359375,0.34677499532699585,-1.6369374990463257,1.0786875486373901
1698079646661145600,1.5481455078125,0.3137750029563904,-1.9826124906539917,0.9833999872207642
1698079646670564600,1.557564697265625,0.14767499268054962,-2.252662420272827,0.9101125001907349
1698079646679983600,1.566983642578125,-0.12361250072717667,-2.2978999614715576,0.8086374998092651
1698079646689403000,1.57640283203125,-0.3067624866962433,-2.3271875381469727,0.7537750005722046
1698079646698822100,1.585822265625,-0.23594999313354492,-2.3552374839782715,0.7781124711036682
1698079646708241400,1.595241455078125,-0.12594999372959137,-2.2954249382019043,0.7977749705314636
1698079646717660400,1.604660400390625,-0.11384999752044678,-2.25142502784729,0.822112500667572
1698079646727079400,1.614079345703125,-0.23718750476837158,-2.002274990081787,0.7818250060081482
1698079646736498700,1.623498779296875,-0.36918750405311584,-1.7346999645233154,0.7537750005722046
1698079646745917700,1.632917724609375,-0.5170000195503235,-1.6296499967575073,0.8514000177383423
1698079646755337000,1.6423369140625,-0.6183375120162964,-1.4426499605178833,1.018875002861023
1698079646764756000,1.651755859375,-0.6843374967575073,-1.216599941253662,1.1459250450134277
1698079646774175200,1.66117529296875,-0.7111499905586243,-1.0749750137329102,1.276687502861023
1698079646783594200,1.67059423828125,-0.768625020980835,-1.0052624940872192,1.442787528038025
1698079646793013500,1.680013427734375,-0.9237250089645386,-0.9149249792098999,1.5123624801635742
1698079646802432800,1.689432861328125,-1.0837750434875488,-0.840399980545044,1.4355000257492065
1698079646811851800,1.698851806640625,-1.1387749910354614,-0.8452125191688538,1.4257375001907349
1698079646821271000,1.70827099609375,-0.995912492275238,-0.8721625208854675,1.5210249423980713
1698079646830690000,1.71768994140625,-0.47052499651908875,-0.7438749670982361,1.4500750303268433
1698079646840109000,1.727109130859375,0.984499990940094,0.12361250072717667,0.4862000048160553
1698079646849528300,1.7365283203125,1.8995624780654907,0.30195000767707825,1.3279750347137451
1698079646858947600,1.745947509765625,2.3161873817443848,-0.33329999446868896,1.4220249652862549
1698079646868366600,1.75536669921875,1.9997999668121338,-0.42858749628067017,0.9711624979972839
1698079646877785600,1.76478564453125,1.20683753490448,0.491287499666214,0.6169624924659729
1698079646887204600,1.77420458984375,0.7059249877929688,1.9512624740600586,0.6523000001907349
1698079646896624000,1.7836240234375,0.6106374859809875,2.1051249504089355,0.9333499670028687
1698079646906043100,1.793043212890625,0.6093999743461609,1.3367749452590942,1.110450029373169
1698079646915462000,1.8024619140625,0.6008750200271606,0.6538124680519104,1.2864500284194946
1698079646924881400,1.81188134765625,0.5715875029563904,-0.04262499883770943,1.356024980545044
1698079646934300400,1.821300537109375,0.4152500033378601,0.07108750194311142,1.3938374519348145
1698079646943719400,1.830719482421875,0.12319999933242798,0.5523374676704407,1.1996874809265137
1698079646953138700,1.840138671875,-0.11261250078678131,0.39352500438690186,1.0139249563217163
1698079646962558000,1.849557861328125,0.049912501126527786,-0.14272500574588776,1.0506374835968018
1698079646971977000,1.85897705078125,0.4665375053882599,-0.4298250079154968,1.4916000366210938
1698079646981396200,1.868396240234375,0.7059249877929688,-0.7169250249862671,2.2320375442504883
1698079646990815200,1.877815185546875,0.909974992275238,-1.0664499998092651,2.775712490081787
1698079647000234200,1.887234130859375,0.8476874828338623,-0.5581125020980835,3.4402499198913574
1698079647009653800,1.89665380859375,1.0309749841690063,0.5022875070571899,3.425537586212158
1698079647019072800,1.90607275390625,1.4463624954223633,1.1510125398635864,2.779287576675415
1698079647028491800,1.91549169921875,1.9740874767303467,1.6042125225067139,1.8947499990463257
1698079647037910800,1.924910888671875,2.269712448120117,0.37523749470710754,1.5576000213623047
1698079647047330000,1.934330078125,2.944149971008301,-2.1488499641418457,1.3193124532699585
1698079647056749300,1.943749267578125,4.9636125564575195,-4.224549770355225,0.765874981880188
1698079647066168300,1.953168212890625,5.948387622833252,-4.615462303161621,0.7855374813079834
1698079647075587600,1.962587646484375,5.201900005340576,-4.117024898529053,1.8837499618530273
1698079647085006600,1.972006591796875,4.385837554931641,-3.167725086212158,2.8232874870300293
1698079647094425900,1.98142578125,4.134075164794922,-2.4164249897003174,3.5734875202178955
1698079647103845000,1.99084521484375,3.820162534713745,-2.5532374382019043,4.029162406921387
1698079647113264000,2.00026416015625,2.917337417602539,-3.476824998855591,3.639349937438965
1698079647122683100,2.00968310546875,1.9423249959945679,-4.328362464904785,2.863574981689453
1698079647132102400,2.019102294921875,1.2655500173568726,-4.654512405395508,2.013274908065796
1698079647141521400,2.028521484375,0.682824969291687,-4.792562484741211,1.4452625513076782
1698079647150940700,2.037940673828125,-0.033137500286102295,-4.57765007019043,1.0921624898910522
1698079647160360000,2.04735986328125,-0.7821000218391418,-4.042500019073486,0.8086374998092651
1698079647169779000,2.056779052734375,-1.3843499422073364,-3.231250047683716,0.564300000667572
1698079647179198000,2.066197998046875,-1.921975016593933,-2.2416625022888184,0.3909125030040741
1698079647188617200,2.0756171875,-2.2896499633789062,-1.1837375164031982,0.36038750410079956
1698079647198036500,2.085036376953125,-2.515700101852417,-0.2624875009059906,0.4604874849319458
1698079647207455500,2.09445556640625,-2.7636125087738037,0.3152875006198883,0.7475875020027161
1698079647216874500,2.10387451171875,-3.022662401199341,0.5878124833106995,1.153212547302246
1698079647226294000,2.1132939453125,-2.694037437438965,0.7771499752998352,1.4403125047683716
1698079647235713000,2.122713134765625,-2.1015501022338867,0.16513749957084656,1.8434624671936035
1698079647245132000,2.132132080078125,-1.5566375255584717,-1.0664499998092651,2.1269874572753906
1698079647254551300,2.14155126953125,-1.01419997215271,-2.4652373790740967,2.062225103378296
1698079647263970300,2.15097021484375,-0.4437125027179718,-3.4022998809814453,1.8569375276565552
1698079647273389800,2.160389892578125,0.1634874939918518,-3.5245375633239746,1.4793624877929688
1698079647282808600,2.16980859375,0.6876375079154968,-2.975912570953369,1.0738749504089355
1698079647292227800,2.179227783203125,1.015025019645691,-1.8690375089645386,0.6620625257492065
1698079647301646800,2.188646728515625,1.040737509727478,-0.5007749795913696,0.22591249644756317
1698079647311066000,2.198066162109375,0.7816874980926514,0.7173374891281128,-0.1467124968767166
1698079647320485000,2.207485107421875,0.4054875075817108,1.8900749683380127,-0.4081000089645386
1698079647329904000,2.216904052734375,-0.0611874982714653,2.8968498706817627,-0.4558124840259552
1698079647339323400,2.226323486328125,-0.4362874925136566,3.488100051879883,-0.2554749846458435
1698079647348742700,2.23574267578125,-0.5878124833106995,3.6616249084472656,0.057337500154972076
1698079647358161700,2.24516162109375,-0.558525025844574,3.6469125747680664,0.29919999837875366
1698079647367581000,2.254580810546875,-0.4204750061035156,3.6236748695373535,0.4800125062465668
1698079647377000000,2.264,-0.233474999666214,3.5211000442504883,0.6217749714851379
1698079647386419200,2.273419189453125,-0.040424998849630356,3.2609500885009766,0.7365875244140625
1698079647395838200,2.282838134765625,0.10491249710321426,2.7746124267578125,0.8282999992370605
1698079647405257500,2.292257568359375,0.15015000104904175,2.133312463760376,0.8721625208854675
1698079647414676500,2.301676513671875,0.1293874979019165,1.5798749923706055,0.8856375217437744
1698079647424095700,2.311095703125,0.05115000158548355,1.1119624376296997,0.9113500118255615
1698079647433514800,2.3205146484375,-0.033137500286102295,0.7881500124931335,0.9809250235557556
1698079647442934000,2.32993408203125,-0.08813749998807907,0.6586250066757202,1.1166374683380127
1698079647452353300,2.339353271484375,-0.07961250096559525,0.5927624702453613,1.3230249881744385
1698079647461772500,2.3487724609375,-0.09308750182390213,0.2628999948501587,1.4880249500274658
1698079647471191600,2.358191650390625,-0.14190000295639038,-0.4652999937534332,1.5661250352859497
1698079647480610600,2.367610595703125,-0.17613749206066132,-1.4426499605178833,1.527074933052063
1698079647490029800,2.37702978515625,-0.16142499446868896,-2.4066624641418457,1.3963124752044678
1698079647499448800,2.38644873046875,-0.09542500227689743,-3.0894875526428223,1.2265000343322754
1698079647508868000,2.3958681640625,-0.028324998915195465,-3.3803000450134277,1.0836374759674072
1698079647518287400,2.405287353515625,-0.02213750034570694,-3.4805374145507812,0.9235875010490417
1698079647527706400,2.414706298828125,-0.057612501084804535,-3.5000624656677246,0.6572499871253967
1698079647537125400,2.42412548828125,0.008387500420212746,-3.4585375785827637,0.24791249632835388
1698079647546544400,2.43354443359375,0.2564375102519989,-3.233725070953369,-0.20528750121593475
1698079647555964000,2.4429638671875,0.6681125164031982,-2.8538124561309814,-0.6683874726295471
1698079647565383000,2.4523828125,1.1825000047683716,-2.3992373943328857,-1.181399941444397
1698079647574802000,2.461802001953125,1.7089874744415283,-1.9753249883651733,-1.7642624378204346
1698079647584221200,2.47122119140625,2.168375015258789,-1.622225046157837,-2.3982748985290527
1698079647593640200,2.48064013671875,2.552000045776367,-1.4463624954223633,-3.016474962234497
1698079647603059200,2.49005908203125,2.8940999507904053,-1.3681249618530273,-3.5564374923706055
1698079647612478700,2.499478759765625,3.233725070953369,-1.2545499801635742,-3.9681124687194824
1698079647621897700,2.508897705078125,3.524399995803833,-1.1617374420166016,-4.2479248046875
1698079647631317000,2.51831689453125,3.763925075531006,-0.8782125115394592,-4.329737663269043
1698079647640736300,2.527736328125,4.065737247467041,-0.3540624976158142,-4.291924953460693
1698079647650155300,2.5371552734375,4.324649810791016,0.527999997138977,-4.087874889373779
1698079647659574300,2.54657421875,4.554412364959717,1.921975016593933,-3.728724956512451
1698079647668993300,2.5559931640625,4.744987487792969,4.243112564086914,-3.7299625873565674
1698079647678412500,2.56541259765625,4.250124931335449,6.652387619018555,-4.235687255859375
1698079647687831800,2.574831787109375,2.7450499534606934,7.314587593078613,-4.379924774169922
1698079647697250600,2.58425048828125,1.1543124914169312,6.449574947357178,-3.824012517929077
1698079647706670000,2.593670166015625,0.6338750123977661,4.949312686920166,-2.9761874675750732
1698079647716089000,2.603089111328125,0.7902125120162964,3.1509499549865723,-2.0636000633239746
1698079647725508000,2.612508056640625,0.957687497138977,1.2755874395370483,-1.372112512588501
1698079647734927400,2.62192724609375,0.8073999881744385,0.32023748755455017,-1.7642624378204346
1698079647744346600,2.6313466796875,0.5422999858856201,0.5853375196456909,-2.9761874675750732
1698079647753765600,2.640765625,0.3957250118255615,1.3928749561309814,-4.1306376457214355
1698079647763184600,2.6501845703125,0.195250004529953,1.7679749727249146,-4.5545501708984375
1698079647772604200,2.659604248046875,-0.035612501204013824,1.5371124744415283,-4.414162635803223
1698079647782023200,2.669023193359375,-0.2946625053882599,0.4338124990463257,-4.158824920654297
1698079647791442200,2.678442138671875,-0.4119499921798706,-0.7853999733924866,-4.106299877166748
1698079647800861400,2.687861328125,-0.38747498393058777,-1.9167499542236328,-4.271162509918213
1698079647810280400,2.697280517578125,-0.2774749994277954,-3.0931999683380127,-4.566787242889404
1698079647819699700,2.70669970703125,-0.002612499985843897,-3.620924949645996,-4.841650009155273
1698079647829119000,2.716118896484375,0.24172499775886536,-3.4181125164031982,-4.914937496185303
1698079647838538000,2.7255380859375,0.3834874927997589,-3.2227249145507812,-4.7965497970581055
1698079647847957000,2.73495703125,0.5263500213623047,-3.4707748889923096,-4.59250020980835
1698079647857376500,2.74437646484375,0.6803500056266785,-3.2104873657226562,-4.1721625328063965
1698079647866795500,2.75379541015625,0.6973999738693237,-3.0504374504089355,-3.751962423324585
1698079647876214500,2.763214599609375,0.6656374931335449,-2.9148623943328857,-3.488100051879883
1698079647885633800,2.7726337890625,0.7584499716758728,-2.865912437438965,-3.2815749645233154
1698079647895052800,2.782052734375,0.8892124891281128,-2.874574899673462,-3.0849499702453613
1698079647904472000,2.79147216796875,0.9820249676704407,-3.028437376022339,-2.8821375370025635
1698079647913891000,2.80089111328125,1.002787470817566,-2.868387460708618,-2.7183749675750732
1698079647923310300,2.810310302734375,0.8232125043869019,-2.4029500484466553,-2.526562452316284
1698079647932729300,2.819729248046875,0.6106374859809875,-1.9435625076293945,-2.2541749477386475
1698079647942148900,2.82914892578125,0.3834874927997589,-1.744462490081787,-2.045175075531006
1698079647951568000,2.83856787109375,0.2209624946117401,-1.315600037574768,-1.8191249370574951
1698079647960987000,2.84798681640625,0.037675000727176666,-1.19350004196167,-1.6004999876022339
1698079647970406000,2.857406005859375,-0.1284250020980835,-1.16902494430542,-1.4294500350952148
1698079647979825400,2.866825439453125,-0.23966249823570251,-1.103024959564209,-1.259637475013733
1698079647989244400,2.876244384765625,-0.2872374951839447,-1.0529749393463135,-1.127637505531311
1698079647998663400,2.885663330078125,-0.3264249861240387,-1.0456874370574951,-1.036062479019165
1698079648008082700,2.895082763671875,-0.3764750063419342,-1.0614999532699585,-0.9420124888420105
1698079648017501700,2.904501708984375,-0.48028749227523804,-0.984499990940094,-0.8149625062942505
1698079648026921000,2.9139208984375,-0.6476249694824219,-0.726687490940094,-0.64267498254776
1698079648036340200,2.92334033203125,-0.7943375110626221,-0.857450008392334,-0.5303375124931335
1698079648045759200,2.93275927734375,-0.8786249756813049,-0.7328749895095825,-0.5021499991416931
1698079648055178500,2.942178466796875,-0.9702000021934509,-0.4665375053882599,-0.6659125089645386
1698079648064597800,2.95159765625,-1.0471999645233154,-0.1317249983549118,-1.0115875005722046
1698079648074016500,2.9610166015625,-1.3697749376296997,-0.8244500160217285,-0.8369625210762024
1698079648083435800,2.970435791015625,-1.9023125171661377,-2.11213755607605,-0.015949999913573265
1698079648092855000,2.97985498046875,-2.4569873809814453,-1.1042624711990356,0.5240125060081482
1698079648102274000,2.989274169921875,-2.653749942779541,0.2274249941110611,0.5704874992370605
1698079648111693000,2.998693115234375,-2.519274950027466,-0.03891250118613243,0.6022499799728394
1698079648121112600,3.008112548828125,-1.8999749422073364,-0.9063999652862549,0.9138249754905701
1698079648130531600,3.017531494140625,-1.1547249555587769,-0.8549749851226807,0.7855374813079834
1698079648139950600,3.02695068359375,-1.372112512588501,0.408237487077713,1.0591624975204468
1698079648149369900,3.036369873046875,-1.7069250345230103,1.4528249502182007,1.613837480545044
1698079648158789000,3.0457890625,-1.8462125062942505,1.8645000457763672,2.027987480163574
1698079648168208100,3.0552080078125,-1.7949249744415283,2.19064998626709,2.3626625537872314
1698079648177627400,3.06462744140625,-1.633637547492981,2.7868499755859375,2.4714250564575195
1698079648187046400,3.07404638671875,-1.3708750009536743,3.2474749088287354,2.6082375049591064
1698079648196465400,3.08346533203125,-1.1302499771118164,3.584625005722046,2.75
1698079648205884400,3.092884521484375,-0.9079124927520752,3.665337562561035,2.9442875385284424
1698079648215303700,3.1023037109375,-0.6868125200271606,3.598099946975708,3.158099889755249
1698079648224723000,3.111722900390625,-0.49623748660087585,3.518625020980835,3.2484374046325684
1698079648234142000,3.121141845703125,-0.38747498393058777,3.406287431716919,3.2741498947143555
1698079648243561200,3.130561279296875,-0.27994999289512634,3.3147125244140625,3.3926749229431152
1698079648252980500,3.13998046875,-0.10889999568462372,3.285287380218506,3.606487512588501
1698079648262399500,3.1493994140625,0.12072499841451645,3.299999952316284,3.820162534713745
1698079648271818800,3.15881884765625,0.27953749895095825,2.987187385559082,4.0524001121521
1698079648281238000,3.168238037109375,0.3443000018596649,2.700087547302246,4.112212657928467
1698079648290657000,3.177656982421875,0.31130000948905945,2.426462411880493,4.015687465667725
1698079648300076300,3.187076171875,0.1989624947309494,2.2138874530792236,3.8080625534057617
1698079648309495300,3.196495361328125,0.03891250118613243,2.067312479019165,3.648012399673462
1698079648318914300,3.205914306640625,-0.07108750194311142,1.879212498664856,3.5612499713897705
1698079648328333600,3.21533349609375,-0.08084999769926071,1.7509249448776245,3.4707748889923096
1698079648337752800,3.2247529296875,-0.06861250102519989,1.5101624727249146,3.325437545776367
1698079648347171800,3.234171875,-0.042899999767541885,1.2890625,3.1641499996185303
1698079648356591000,3.243591064453125,-0.012374999932944775,1.1583000421524048,3.0163373947143555
1698079648366010000,3.253010009765625,0.01209999993443489,0.829675018787384,2.8782875537872314
1698079648375429400,3.262429443359375,-0.055137500166893005,0.35571250319480896,2.690187454223633
1698079648384848400,3.271848388671875,-0.22495000064373016,-0.1611499935388565,2.390850067138672
1698079648394267600,3.281267578125,-0.42899999022483826,-0.6631624698638916,2.025512456893921
1698079648403686700,3.290686767578125,-0.5841000080108643,-1.1177375316619873,1.68464994430542
1698079648413106000,3.30010595703125,-0.7123875021934509,-1.5856499671936035,1.381737470626831
1698079648422525200,3.309525146484375,-0.8284375071525574,-1.9179874658584595,1.1911624670028687
1698079648431944200,3.318944091796875,-0.9079124927520752,-2.0266125202178955,1.132449984550476
1698079648441363500,3.328363525390625,-0.9897249937057495,-1.9350374937057495,1.1519750356674194
1698079648450782700,3.33778271484375,-1.088724970817566,-1.6614124774932861,1.1837375164031982
1698079648460201700,3.34720166015625,-1.1705374717712402,-1.2850749492645264,1.1764500141143799
1698079648469620700,3.356620849609375,-1.180299997329712,-0.9197375178337097,1.1166374683380127
1698079648479040000,3.3660400390625,-1.109487533569336,-0.6265875101089478,1.0029250383377075
1698079648488459300,3.375459228515625,-0.9616749882698059,-0.41401249170303345,0.9040625095367432
1698079648497878300,3.384878173828125,-0.7136250138282776,-0.4347749948501587,0.8245875239372253
1698079648507297500,3.394297607421875,-0.4302375018596649,-0.6118749976158142,0.7830625176429749
1698079648516716500,3.403716552734375,-0.17366249859333038,-0.7035874724388123,0.8295375108718872
1698079648526135800,3.4131357421875,-0.035612501204013824,-0.5863000154495239,0.9601625204086304
1698079648535554800,3.422554931640625,0.13791249692440033,-0.27101248502731323,1.0481624603271484
1698079648544974000,3.43197412109375,0.33329999446868896,0.1639000028371811,1.093400001525879
1698079648554393000,3.44139306640625,0.4470124840736389,0.6440500020980835,1.093400001525879
1698079648563812400,3.450812255859375,0.4250124990940094,1.0386749505996704,1.093400001525879
1698079648573231600,3.460231689453125,0.3125374913215637,1.2988250255584717,1.123924970626831
1698079648582650600,3.469650634765625,0.13048750162124634,1.484587550163269,1.2044999599456787
1698079648592070000,3.47906982421875,-0.1223749965429306,1.4698749780654907,1.347499966621399
1698079648601489000,3.488489013671875,-0.4057624936103821,1.4246374368667603,1.5747874975204468
1698079648610908200,3.497908203125,-0.7088124752044678,1.4833500385284424,1.8691749572753906
1698079648620327000,3.507326904296875,-0.9774875044822693,1.5884000062942505,2.1550374031066895
1698079648629746400,3.516746337890625,-1.1644874811172485,1.9365500211715698,2.396899938583374
1698079648639165400,3.52616552734375,-1.2585375308990479,2.283600091934204,2.519137382507324
1698079648648584700,3.535584716796875,-1.2194875478744507,2.095362424850464,2.522712469100952
1698079648658003700,3.545003662109375,-1.069200038909912,0.9641500115394592,2.487375020980835
1698079648667423000,3.554423095703125,-0.8944374918937683,-0.4750624895095825,2.539900064468384
1698079648676842200,3.56384228515625,-0.8358625173568726,-1.18978750705719,2.6937625408172607
1698079648686261200,3.57326123046875,-0.8443874716758728,-1.3216500282287598,2.73294997215271
1698079648695680500,3.582680419921875,-0.8749125003814697,-1.3216500282287598,2.505662441253662
1698079648705099500,3.592099609375,-0.8419125080108643,-1.4939374923706055,2.052462577819824
1698079648714518500,3.6015185546875,-0.685575008392334,-1.847037434577942,1.564887523651123
1698079648723937800,3.610937744140625,-0.44123750925064087,-2.181849956512451,1.2839750051498413
1698079648733357000,3.620357177734375,-0.2934249937534332,-2.3247125148773193,1.184975028038025
1698079648742776000,3.629776123046875,-0.3642374873161316,-2.1414248943328857,1.136162519454956
1698079648752195300,3.6391953125,-0.5620999932289124,-1.631987452507019,1.0126874446868896
1698079648761614300,3.6486142578125,-0.6758124828338623,-1.0969749689102173,0.7145875096321106
1698079648771033600,3.65803369140625,-0.6586250066757202,-0.8024500012397766,0.24433749914169312
1698079648780452600,3.66745263671875,-0.4778124988079071,-0.779212474822998,-0.26881250739097595
1698079648789871600,3.67687158203125,0.025437500327825546,-0.5666375160217285,-0.8942999839782715
1698079648799291000,3.686290771484375,0.5850625038146973,-0.3077250123023987,-1.5467374324798584
1698079648808710100,3.695710205078125,0.9735000133514404,-0.26124998927116394,-2.111175060272217
1698079648818129200,3.705129150390625,1.1079750061035156,-0.4982999861240387,-2.7220873832702637
1698079648827548400,3.71454833984375,1.0652124881744385,-0.8098750114440918,-3.4673373699188232
1698079648836967400,3.723967529296875,0.993025004863739,-0.9662125110626221,-4.262637615203857
1698079648846386700,3.73338671875,1.0652124881744385,-0.6681125164031982,-4.911362648010254
1698079648855806000,3.742805908203125,1.3925999402999878,0.22990000247955322,-5.171512603759766
1698079648865225000,3.752224853515625,1.9142749309539795,1.6702125072479248,-4.98588752746582
1698079648874644000,3.76164404296875,2.3529000282287598,3.19742488861084,-4.547262668609619
1698079648884063200,3.771063232421875,2.4591875076293945,4.410587310791016,-4.069587707519531
1698079648893482200,3.780482177734375,2.1170876026153564,5.01036262512207,-3.7665374279022217
1698079648902901800,3.78990185546875,1.561174988746643,5.017787456512451,-3.6712498664855957
1698079648912320800,3.79932080078125,1.232550024986267,4.6244001388549805,-3.6786749362945557
1698079648921739800,3.80873974609375,1.2227874994277954,3.979249954223633,-3.745774984359741
1698079648931159000,3.818158935546875,1.4951750040054321,2.9126625061035156,-3.7751998901367188
1698079648940578000,3.827578125,1.8324625492095947,1.5248750448226929,-3.6529624462127686
1698079648949997300,3.836997314453125,2.0266125202178955,0.42899999022483826,-3.5686750411987305
1698079648959416300,3.846416259765625,1.9606125354766846,-0.41401249170303345,-3.8960623741149902
1698079648968835800,3.8558359375,1.6112250089645386,-0.11343749612569809,-4.741549968719482
1698079648978254600,3.865254638671875,0.9454500079154968,1.3220624923706055,-5.42080020904541
1698079648987673900,3.874673828125,0.062150001525878906,2.0880749225616455,-5.323037624359131
1698079648997093000,3.884093017578125,-0.8529124855995178,1.7972625494003296,-4.817312240600586
1698079649006512000,3.89351220703125,-1.655637502670288,0.7698624730110168,-4.603499889373779
1698079649015931100,3.90293115234375,-2.1698875427246094,-0.7156875133514404,-4.724362373352051
1698079649025350400,3.912350341796875,-2.210175037384033,-2.2709500789642334,-5.165462493896484
1698079649034769700,3.921769775390625,-1.8156875371932983,-3.5879249572753906,-5.630899906158447
1698079649044188700,3.931188720703125,-1.168062448501587,-4.4261250495910645,-5.7701873779296875
1698079649053608000,3.94060791015625,-0.602524995803833,-4.729037284851074,-5.639424800872803
1698079649063027000,3.95002685546875,-0.25189998745918274,-4.872037410736084,-5.393849849700928
1698079649072446200,3.9594462890625,0.018149999901652336,-4.91480016708374,-5.081174850463867
1698079649081865200,3.968865234375,0.2502500116825104,-4.806037425994873,-4.762312412261963
1698079649091284700,3.97828466796875,0.4823499917984009,-4.639937400817871,-4.444687366485596
1698079649100703700,3.987703857421875,0.6729249954223633,-4.427362442016602,-4.203925132751465
1698079649110123000,3.997123046875,0.7926874756813049,-3.9252123832702637,-4.09763765335083
1698079649119542000,4.0065419921875,0.6595875024795532,-3.2947750091552734,-3.793487548828125
1698079649128961000,4.0159609375,0.45058751106262207,-2.8720998764038086,-3.262049913406372
1698079649138380300,4.02538037109375,0.3540624976158142,-2.5470499992370605,-2.7561874389648438
1698079649147799600,4.034799560546875,0.23925000429153442,-2.481187582015991,-2.382462501525879
1698079649157218600,4.044218505859375,0.05238749831914902,-2.234375,-2.07212495803833
1698079649166637800,4.053637939453125,-0.20913749933242798,-2.264899969100952,-1.7678375244140625
1698079649176057000,4.06305712890625,-0.4338124990463257,-2.25142502784729,-1.455162525177002
1698079649185476000,4.07247607421875,-0.5670499801635742,-2.150087594985962,-1.0995874404907227
1698079649194895400,4.081895263671875,-0.6280999779701233,-1.9997999668121338,-0.7099124789237976
1698079649204314400,4.091314453125,-0.7221499681472778,-1.7114624977111816,-0.31652501225471497
1698079649213733600,4.100733642578125,-0.8809624910354614,-1.2887874841690063,0.07081250101327896
1698079649223152600,4.110152587890625,-1.1204874515533447,-0.7756375074386597,0.42625001072883606
1698079649232572000,4.119572021484375,-1.3367749452590942,-0.5556374788284302,0.7048249840736389
1698079649241991000,4.128990966796875,-1.5236375331878662,-0.6216375231742859,0.878350019454956
1698079649251410200,4.13841015625,-1.7899750471115112,-0.7414000034332275,1.0628750324249268
1698079649260829400,4.147829345703125,-2.0208375453948975,-1.2080750465393066,1.298550009727478
1698079649270248400,4.15724853515625,-2.268887519836426,-1.880037546157837,1.727412462234497
1698079649279667500,4.16666748046875,-2.708750009536743,-2.5030500888824463,2.6059000492095947
1698079649289087000,4.1760869140625,-3.2059500217437744,-1.7517499923706055,3.293674945831299
1698079649298506000,4.185506103515625,-3.161949872970581,1.355062484741211,1.9254125356674194
1698079649307925000,4.194925048828125,-2.2896499633789062,1.941499948501587,-0.5363875031471252
1698079649317344300,4.20434423828125,-1.572450041770935,-4.080312252044678,0.8636375069618225
1698079649326763300,4.21376318359375,-0.5963374972343445,-2.6778125762939453,0.7293000221252441
1698079649336182300,4.223182373046875,-0.729574978351593,1.1327250003814697,0.3554374873638153
1698079649345601800,4.232601806640625,-1.417349934577942,-0.4787749946117401,1.3205499649047852
1698079649355020800,4.242020751953125,-1.4711124897003174,-0.9087374806404114,1.5538874864578247
1698079649364439800,4.251439697265625,-1.1022000312805176,-1.1042624711990356,1.3547874689102173
1698079649373859300,4.260859375,-0.7918624877929688,0.7551500201225281,1.805649995803833
1698079649383278300,4.2702783203125,-0.7393375039100647,2.041599988937378,2.3468499183654785
1698079649392697300,4.279697265625,-0.7821000218391418,1.9157874584197998,2.4861373901367188
1698079649402116400,4.289116455078125,-0.6660500168800354,1.410062551498413,2.378612518310547
1698079649411535600,4.29853564453125,-0.4399999976158142,1.3831125497817993,2.3211374282836914
1698079649420955000,4.307954833984375,-0.18837499618530273,2.1393625736236572,2.575237512588501
1698079649430374000,4.317373779296875,0.03519999980926514,2.7856125831604004,2.863574981689453
1698079649439793400,4.32679345703125,0.14767499268054962,2.772274971008301,3.012624979019165
1698079649449212400,4.33621240234375,0.11838749796152115,2.406937599182129,3.0053374767303467
1698079649458631200,4.345631103515625,0.05843750014901161,2.246887445449829,2.940574884414673
1698079649468050700,4.35505078125,0.02419999986886978,2.35441255569458,2.8940999507904053
1698079649477469700,4.3644697265625,0.062150001525878906,2.640275001525879,2.8917624950408936
1698079649486889000,4.373888916015625,-0.01484999991953373,2.713562488555908,2.8672873973846436
1698079649496308200,4.38330810546875,-0.20418749749660492,2.515700101852417,2.8685250282287598
1698079649505727200,4.392727294921875,-0.3801875114440918,2.19807505607605,2.857524871826172
1698079649515146200,4.402146240234375,-0.4754749834537506,1.7032124996185303,2.778049945831299
1698079649524565800,4.411565673828125,-0.491287499666214,1.0716749429702759,2.6644749641418457
1698079649533984500,4.420984619140625,-0.44728749990463257,0.49004998803138733,2.5521373748779297
1698079649543403500,4.430403564453125,-0.4217124879360199,-0.15991249680519104,2.481187582015991
1698079649552823000,4.439822998046875,-0.46447500586509705,-0.6143500208854675,2.4897124767303467
1698079649562242000,4.449241943359375,-0.62933748960495,-1.037024974822998,2.4543750286102295
1698079649571661000,4.4586611328125,-0.9213874936103821,-1.44388747215271,2.350562572479248
1698079649581080600,4.46808056640625,-1.152250051498413,-1.735937476158142,2.2380874156951904
1698079649590499600,4.47749951171875,-1.314774990081787,-2.096324920654297,2.103749990463257
1698079649599918600,4.486918701171875,-1.463824987411499,-2.3907124996185303,2.026750087738037
1698079649609337900,4.496337890625,-1.6042125225067139,-2.5898125171661377,2.0292248725891113
1698079649618757000,4.505757080078125,-1.709399938583374,-2.7475249767303467,2.015749931335449
1698079649628176100,4.515176025390625,-1.82173752784729,-2.7755749225616455,2.014512538909912
1698079649637595400,4.524595458984375,-1.9475499391555786,-2.6973373889923096,2.0572750568389893
1698079649647014400,4.534014404296875,-2.0710248947143555,-2.4921875,2.139087438583374
1698079649656433700,4.54343359375,-2.1443123817443848,-2.2489500045776367,2.2393250465393066
1698079649665853000,4.55285302734375,-2.133312463760376,-2.041325092315674,2.33956241607666
1698079649675272000,4.56227197265625,-2.0745999813079834,-1.8385125398635864,2.434849977493286
1698079649684691000,4.57169091796875,-1.9940249919891357,-1.8006999492645264,2.4897124767303467
1698079649694110200,4.581110107421875,-1.9305000305175781,-1.9496124982833862,2.503187417984009
1698079649703529500,4.590529541015625,-1.9157874584197998,-2.1451375484466553,2.468950033187866
1698079649712948500,4.599948486328125,-1.880312442779541,-2.2734251022338867,2.384662389755249
1698079649722368000,4.609367919921875,-1.8352124691009521,-2.246612548828125,2.3346123695373535
1698079649731786800,4.618786865234375,-1.730162501335144,-2.029087543487549,2.361562490463257
1698079649741206000,4.6282060546875,-1.5493500232696533,-1.7688000202178955,2.410374879837036
1698079649750625000,4.637625,-1.3477749824523926,-1.6747499704360962,2.3651375770568848
1698079649760044300,4.647044189453125,-1.159537434577942,-1.7212250232696533,2.2246124744415283
1698079649769463300,4.65646337890625,-1.043487548828125,-1.7797999382019043,2.0316998958587646
1698079649778882600,4.665882568359375,-0.9359624981880188,-1.7517499923706055,1.8446999788284302
1698079649788301800,4.6753017578125,-0.8553875088691711,-1.6149375438690186,1.700600028038025
1698079649797720800,4.684720947265625,-0.8064374923706055,-1.377887487411499,1.6163125038146973
1698079649807139800,4.694139892578125,-0.7808625102043152,-1.0785499811172485,1.5710749626159668
1698079649816559400,4.703559326171875,-0.7601000070571899,-0.7426375150680542,1.5637874603271484
1698079649825978400,4.712978271484375,-0.7393375039100647,-0.4127750098705292,1.5758874416351318
1698079649835397400,4.7223974609375,-0.677049994468689,-0.11838749796152115,1.5758874416351318
1698079649844816600,4.731816650390625,-0.5707625150680542,0.0906125009059906,1.5625499486923218
1698079649854236000,4.74123583984375,-0.44728749990463257,0.2139499932527542,1.5380749702453613
1698079649863655000,4.750655029296875,-0.3361875116825104,0.23594999313354492,1.5087875127792358
1698079649873074200,4.76007421875,-0.2750000059604645,0.14313749969005585,1.4928375482559204
1698079649882493400,4.769493408203125,-0.25066250562667847,-0.08415000140666962,1.5135999917984009
1698079649891912400,4.778912353515625,-0.25423750281333923,-0.4115374982357025,1.5527875423431396
1698079649901331700,4.788331787109375,-0.2579500079154968,-0.7511624693870544,1.5868874788284302
1698079649910750700,4.797750732421875,-0.22618749737739563,-1.0432125329971313,1.5808374881744385
1698079649920169700,4.807169677734375,-0.11990000307559967,-1.252074956893921,1.5210249423980713
1698079649929589000,4.816589111328125,0.04386249929666519,-1.3876500129699707,1.4195499420166016
1698079649939008300,4.82600830078125,0.21119999885559082,-1.4328874349594116,1.2742124795913696
1698079649948427300,4.83542724609375,0.2942500114440918,-1.3718374967575073,1.0872124433517456
1698079649957846500,4.844846435546875,0.26001250743865967,-1.18978750705719,0.8868749737739563
1698079649967265500,4.854265625,0.19772499799728394,-0.8647375106811523,0.7000125050544739
1698079649976684800,4.863684814453125,0.17820000648498535,-0.45801249146461487,0.46543750166893005
1698079649986104000,4.87310400390625,0.2149125039577484,-0.14767499268054962,0.13805000483989716
1698079649995523000,4.882523193359375,0.3125374913215637,0.04166249930858612,-0.23100000619888306
1698079650004942000,4.891942138671875,0.5190625190734863,0.16142499446868896,-0.4923875033855438
1698079650014361300,4.901361328125,0.7853999733924866,0.27018749713897705,-0.6158624887466431
1698079650023780600,4.910780517578125,1.044450044631958,0.28847500681877136,-0.7134875059127808
1698079650033199600,4.92019970703125,1.2581249475479126,0.04908749833703041,-0.9347249865531921
1698079650042619000,4.929618896484375,1.4548875093460083,-0.5886374711990356,-1.3549250364303589
1698079650052038000,4.939037841796875,1.5501749515533447,-1.3486000299453735,-1.8643624782562256
1698079650061457200,4.94845703125,1.4499374628067017,-2.0693750381469727,-2.4032249450683594
1698079650070876200,4.957876220703125,1.1653125286102295,-2.4872374534606934,-2.841712474822998
1698079650080295400,4.96729541015625,0.8366875052452087,-2.5885748863220215,-3.110524892807007
1698079650089714400,4.97671435546875,0.6363499760627747,-2.498237371444702,-3.2558624744415283
1698079650099133700,4.9861337890625,0.6070625185966492,-2.286900043487549,-3.3500499725341797
1698079650108553000,4.995552978515625,0.6925874948501587,-2.041325092315674,-3.4208624362945557
1698079650117972000,5.004971923828125,0.8269249796867371,-1.8262749910354614,-3.507624864578247
1698079650127391200,5.01439111328125,0.9271624684333801,-1.6747499704360962,-3.619962453842163
1698079650136810500,5.023810546875,0.9552124738693237,-1.5794625282287598,-3.7360124588012695
1698079650146229500,5.0332294921875,0.949162483215332,-1.4926999807357788,-3.8154873847961426
1698079650155648500,5.0426484375,0.957687497138977,-1.3486000299453735,-3.828962564468384
1698079650165067800,5.05206787109375,0.9649749994277954,-1.0895500183105469,-3.7617249488830566
1698079650174487000,5.061487060546875,0.9479249715805054,-0.7401624917984009,-3.6346750259399414
1698079650183906000,5.070906005859375,0.9552124738693237,-0.4372499883174896,-3.4343373775482178
1698079650193325300,5.0803251953125,0.9259250164031982,-0.3772999942302704,-3.2535250186920166
1698079650202744300,5.089744384765625,0.8464499711990356,-0.4567750096321106,-3.1312875747680664
1698079650212163600,5.09916357421875,0.7584499716758728,-0.6620625257492065,-3.051949977874756
1698079650221582800,5.108582763671875,0.6485875248908997,-0.9699249863624573,-3.0067124366760254
1698079650231001900,5.118001953125,0.5153499841690063,-1.3546500205993652,-2.992000102996826
1698079650240420900,5.1274208984375,0.4067249894142151,-1.735937476158142,-2.9651875495910645
1698079650249840000,5.136840087890625,0.2917749881744385,-2.19284987449646,-2.8624749183654785
1698079650259259400,5.14625927734375,0.009624999947845936,-3.3375375270843506,-2.3604624271392822
1698079650268678400,5.155678466796875,-0.35571250319480896,-4.867087364196777,-1.651787519454956
1698079650278097400,5.165097412109375,-0.5205749869346619,-5.948387622833252,-1.1631125211715698
1698079650287517000,5.174516845703125,-0.38747498393058777,-5.95567512512207,-1.04830002784729
1698079650296936000,5.18393603515625,-0.13461250066757202,-5.398524761199951,-1.0348249673843384
1698079650306355000,5.19335498046875,-0.057612501084804535,-4.7840375900268555,-1.1692999601364136
1698079650315774200,5.202774169921875,-0.5193374752998352,-2.9979124069213867,-2.6475625038146973
1698079650325193200,5.212193115234375,-1.0362000465393066,-1.5318875312805176,-3.4343373775482178
1698079650334612500,5.221612548828125,-1.401537537574768,-0.5801125168800354,-3.6884374618530273
1698079650344031700,5.23103173828125,-1.6543999910354614,-0.03162499889731407,-3.463624954223633
1698079650353451000,5.240450927734375,-1.8437374830245972,0.013612499460577965,-2.925999879837036
1698079650362870000,5.2498701171875,-1.9658374786376953,-0.5288249850273132,-2.3017499446868896
1698079650372289000,5.2592890625,-1.9475499391555786,-1.4218875169754028,-1.6775000095367432
1698079650381708300,5.268708251953125,-1.6849249601364136,-2.6362874507904053,-1.1032999753952026
1698079650391127600,5.27812744140625,-1.2915375232696533,-3.8824498653411865,-0.6182000041007996
1698079650400546600,5.287546630859375,-0.8346250057220459,-4.687512397766113,-0.2895750105381012
1698079650409965600,5.296965576171875,-0.41676250100135803,-5.093137264251709,-0.14547500014305115
1698079650419385000,5.306385009765625,-0.10395000129938126,-5.267899990081787,-0.11371249705553055
1698079650428804000,5.31580419921875,0.09267500042915344,-4.856087684631348,-0.17723749577999115
1698079650438223000,5.32522314453125,0.12815000116825104,-4.147550106048584,-0.34952500462532043
1698079650447642400,5.334642333984375,0.09515000134706497,-3.4193499088287354,-0.5119125247001648
1698079650457061400,5.344061279296875,0.05362499877810478,-2.6020500659942627,-0.571862518787384
1698079650466480600,5.353480712890625,0.013199999928474426,-1.8287500143051147,-0.5400999784469604
1698079650475900000,5.36289990234375,-0.025849999859929085,-1.3535499572753906,-0.4899125099182129
1698079650485319000,5.37231884765625,-0.0611874982714653,-1.2740750312805176,-0.3385249972343445
1698079650494738000,5.381738037109375,-0.18342499434947968,-1.46465003490448,0.010862499475479126
1698079650504157400,5.391157470703125,-0.5523374676704407,-1.7774624824523926,0.6682500243186951
1698079650513576200,5.400576171875,-1.0459624528884888,-1.9533250331878662,1.4488375186920166
1698079650522995500,5.409995361328125,-1.358775019645691,-1.5709375143051147,2.0230374336242676
1698079650532414700,5.419414794921875,-1.29277503490448,-0.8794500231742859,1.4550249576568604
1698079650541833700,5.428833740234375,-0.64638751745224,-1.2997875213623047,-0.032999999821186066
1698079650551253000,5.4382529296875,0.1451999992132187,-2.856149911880493,-0.31652501225471497
1698079650560672300,5.44767236328125,0.7059249877929688,-4.284362316131592,-0.040424998849630356
1698079650570091300,5.45709130859375,0.6411625146865845,-4.566649913787842,-0.7111499905586243
1698079650579510300,5.46651025390625,-0.12718750536441803,-3.154249906539917,-1.114300012588501
1698079650588929500,5.475929443359375,-0.9103875160217285,-1.228837490081787,-0.9237250089645386
1698079650598348800,5.485348876953125,-1.2280124425888062,0.062424998730421066,-0.6769124865531921
1698079650607767800,5.494767822265625,-1.0777250528335571,0.6758124828338623,-1.5125000476837158
1698079650617186800,5.504186767578125,-0.7576249837875366,0.07590000331401825,-2.276175022125244
1698079650626606000,5.513606201171875,-0.4754749834537506,-0.8391624689102173,-1.4807374477386475
1698079650636025000,5.523025146484375,-0.38747498393058777,-0.06462500244379044,-0.15523749589920044
1698079650645444400,5.5324443359375,-0.4020499885082245,1.8742624521255493,0.4409624934196472
1698079650654864000,5.54186376953125,-0.19071249663829803,2.9298501014709473,0.3334375023841858
1698079650664283000,5.551282958984375,0.4542999863624573,2.1735999584198,-0.36410000920295715
1698079650673702000,5.560701904296875,1.2044999599456787,0.11261250078678131,-0.9554874897003174
1698079650683121200,5.57012109375,1.3413125276565552,-0.7414000034332275,-0.42528748512268066
1698079650692540400,5.57954052734375,1.057787537574768,-0.2942500114440918,0.30291250348091125
1698079650701959200,5.588959228515625,0.6803500056266785,0.5572875142097473,1.1129250526428223
1698079650711378400,5.59837841796875,0.40053749084472656,1.3160125017166138,1.8666999340057373
1698079650720797700,5.607797607421875,0.11467500030994415,1.80097496509552,2.3236124515533447
1698079650730216700,5.617216796875,-0.2689499855041504,1.717924952507019,2.6034250259399414
1698079650739636200,5.62663623046875,-0.7759125232696533,1.202299952507019,2.684000015258789
1698079650749055200,5.63605517578125,-1.2035374641418457,0.23718750476837158,2.49961256980896
1698079650758474200,5.64547412109375,-1.4222999811172485,-1.0224499702453613,2.096324920654297
1698079650767893500,5.6548935546875,-1.4796375036239624,-2.142662525177002,1.6553624868392944
1698079650777312500,5.6643125,-1.5016374588012695,-3.0846750736236572,1.2374999523162842
1698079650786731800,5.673731689453125,-1.6018749475479126,-3.843400001525879,0.9223499894142151
1698079650796150800,5.68315087890625,-1.775262475013733,-4.322175025939941,0.7768750190734863
1698079650805570000,5.692570068359375,-1.9109749794006348,-4.380887508392334,0.8208749890327454
1698079650814989300,5.7019892578125,-1.896262526512146,-3.866499900817871,1.053112506866455
1698079650824408300,5.711408203125,-1.904787540435791,-3.1762499809265137,1.5465999841690063
1698079650833827600,5.72082763671875,-1.989074945449829,-2.4334750175476074,2.00103759765625
1698079650843246600,5.73024658203125,-2.0636000633239746,-1.8006999492645264,2.2283248901367188
1698079650852665900,5.739665771484375,-2.102787494659424,-1.3095500469207764,2.272325038909912
1698079650862085000,5.749085205078125,-2.1137874126434326,-0.8892124891281128,2.211275100708008
1698079650871504100,5.758504150390625,-2.1063625812530518,-0.5105375051498413,2.091512441635132
1698079650880923100,5.767923095703125,-2.039262533187866,-0.13791249692440033,1.96322500705719
1698079650890342400,5.77734228515625,-1.8950250148773193,0.19442500174045563,1.8776999711990356
1698079650899761700,5.78676171875,-1.6274499893188477,0.5010499954223633,1.8837499618530273
1698079650909181000,5.796180908203125,-1.197487473487854,0.8333874940872192,1.9839874505996704
1698079650918600000,5.805599853515625,-0.6452875137329102,1.0740125179290771,2.146512508392334
1698079650928019000,5.81501904296875,-0.08208750188350677,1.0362000465393066,2.2808499336242676
1698079650937438000,5.82443798828125,0.35653749108314514,0.5853375196456909,2.3053250312805176
1698079650946857500,5.833857421875,0.4164874851703644,-0.32725000381469727,2.1232750415802
1698079650956276500,5.8432763671875,-0.0611874982714653,-1.4756499528884888,1.7261749505996704
1698079650965695700,5.85269580078125,-0.7173374891281128,-2.2978999614715576,1.359737515449524
1698079650975114800,5.86211474609375,-0.9934374690055847,-2.453000068664551,1.1776875257492065
1698079650984534000,5.871533935546875,-0.8834375143051147,-1.9398499727249146,1.2289749383926392
1698079650993953000,5.880953125,-0.6830999851226807,-1.3143625259399414,1.338974952697754
1698079651003372000,5.8903720703125,-0.5609999895095825,-1.1397374868392944,1.2632124423980713
1698079651012791600,5.89979150390625,-0.5400999784469604,-1.1298375129699707,1.0946375131607056
1698079651022210600,5.90921044921875,-0.6122875213623047,-1.0883125066757202,0.9308750033378601
1698079651031629600,5.918629638671875,-0.7075750231742859,-0.9857375025749207,0.8025875091552734
1698079651041049000,5.928049072265625,-0.7759125232696533,-0.830637514591217,0.7451124787330627
1698079651050468000,5.937468017578125,-0.7613375186920166,-0.757349967956543,0.7220125198364258
1698079651059887000,5.94688720703125,-0.6916249990463257,-0.9490249752998352,0.7195374965667725
1698079651069306400,5.956306396484375,-0.5878124833106995,-1.5904624462127686,0.8075374960899353
1698079651078725400,5.965725341796875,-0.45471251010894775,-2.632575035095215,1.1226874589920044
1698079651088144600,5.97514453125,-0.38499999046325684,-3.3961124420166016,1.5013624429702759
1698079651097563600,5.984563720703125,-0.5182374715805054,-3.452349901199341,1.656599998474121
1698079651106983000,5.99398291015625,-0.7331500053405762,-2.795099973678589,1.481837511062622
1698079651116402000,6.00340185546875,-0.8529124855995178,-1.518412470817566,0.9283999800682068
1698079651125821200,6.0128212890625,-0.768625020980835,-0.02667500078678131,0.1588124930858612
1698079651135240400,6.022240478515625,-0.5095750093460083,1.135200023651123,-0.5511000156402588
1698079651144659500,6.031659423828125,-0.07713750004768372,1.7569749355316162,-1.0005874633789062
1698079651154078700,6.04107861328125,0.4787749946117401,1.8767374753952026,-1.2413499355316162
1698079651163497700,6.050497802734375,1.0260249376296997,1.468637466430664,-1.4379750490188599
1698079651172917000,6.0599169921875,1.3448874950408936,0.5303375124931335,-1.6982624530792236
1698079651182336300,6.069336181640625,1.46465003490448,-0.5630624890327454,-2.0256500244140625
1698079651191755300,6.07875537109375,1.578225016593933,-1.365649938583374,-2.3970375061035156
1698079651201174500,6.088174560546875,1.727275013923645,-1.6992249488830566,-2.8331875801086426
1698079651210593500,6.097593505859375,1.8885624408721924,-1.6662249565124512,-3.297524929046631
1698079651220012800,6.1070126953125,2.0950875282287598,-1.44760000705719,-3.7360124588012695
1698079651229431800,6.116431884765625,2.3992373943328857,-1.0993125438690186,-4.135587692260742
1698079651238851000,6.12585107421875,2.7266249656677246,-0.8073999881744385,-4.54355001449585
1698079651248270000,6.13527001953125,3.0089125633239746,-0.6558749675750732,-4.960175037384033
1698079651257689000,6.144689208984375,3.209249973297119,-0.15015000104904175,-5.127512454986572
1698079651267108400,6.1541083984375,3.3118250370025635,0.8711999654769897,-4.901599884033203
1698079651276527600,6.163527587890625,3.2472000122070312,2.1173624992370605,-4.455687522888184
1698079651285947000,6.17294677734375,2.999150037765503,3.2645249366760254,-4.040299892425537
1698079651295366000,6.182365966796875,2.6485249996185303,4.196774959564209,-3.656674861907959
1698079651304785200,6.19178515625,2.1524250507354736,4.537637710571289,-3.3243374824523926
1698079651314204200,6.2012041015625,1.5844124555587769,4.177249908447266,-3.2522873878479004
1698079651323623400,6.21062353515625,1.198312520980835,3.474762439727783,-3.3463375568389893
1698079651333042400,6.22004248046875,0.8562124967575073,2.3593626022338867,-3.4476749897003174
1698079651342461700,6.229461669921875,0.31130000948905945,1.996500015258789,-3.985300064086914
1698079651351880700,6.238880615234375,-0.3104749917984009,2.9909000396728516,-4.949174880981445
1698079651361300000,6.248300048828125,-0.7735750079154968,3.3915750980377197,-5.253462314605713
1698079651370719000,6.257718994140625,-1.152250051498413,1.989074945449829,-4.750074863433838
1698079651380138200,6.26713818359375,-1.4430625438690186,0.3702875077724457,-4.448262691497803
1698079651389557200,6.27655712890625,-1.5493500232696533,-0.779212474822998,-4.33097505569458
1698079651398976500,6.2859765625,-1.4453999996185303,-1.8860875368118286,-4.3053998947143555
1698079651408395800,6.295395751953125,-1.1767250299453735,-3.8091623783111572,-4.649837493896484
1698079651417814800,6.304814697265625,-0.8113874793052673,-5.348474979400635,-4.943124771118164
1698079651427234000,6.314234130859375,-0.37400001287460327,-6.465112686157227,-5.272987365722656
1698079651436653000,6.323653076171875,0.16472500562667847,-6.785212516784668,-5.556375026702881
1698079651446072300,6.333072265625,0.6008750200271606,-5.900674819946289,-5.347512245178223
1698079651455491300,6.3424912109375,0.6571124792098999,-4.760799884796143,-5.073887348175049
1698079651464910600,6.35191064453125,0.33701249957084656,-4.005787372589111,-4.944362640380859
1698079651474329600,6.36132958984375,-0.12594999372959137,-3.8689749240875244,-4.852650165557861
1698079651483748900,6.370748779296875,-0.4852375090122223,-3.8457374572753906,-4.5973124504089355
1698079651493168000,6.380168212890625,-0.7661499977111816,-3.6954500675201416,-4.1148247718811035
1698079651502587100,6.389587158203125,-0.8358625173568726,-3.4047749042510986,-3.6896750926971436
1698079651512006400,6.39900634765625,-0.6220499873161316,-2.8415749073028564,-3.2705750465393066
1698079651521425700,6.40842578125,-0.3801875114440918,-2.035137414932251,-2.8283751010894775
1698079651530844700,6.4178447265625,-0.3361875116825104,-1.6161749362945557,-2.46551251411438
1698079651540263700,6.427263671875,-0.33371248841285706,-1.564887523651123,-2.236987590789795
1698079651549683000,6.436682861328125,-0.45223748683929443,-1.4805999994277954,-1.9791749715805054
1698079651559102000,6.44610205078125,-0.6476249694824219,-1.315600037574768,-1.660312533378601
1698079651568521500,6.455521484375,-0.7943375110626221,-1.3888875246047974,-1.373212456703186
1698079651577940500,6.4649404296875,-0.8786249756813049,-1.4146000146865845,-1.093537449836731
1698079651587359500,6.474359375,-0.9079124927520752,-1.365649938583374,-0.8515374660491943
1698079651596778800,6.48377880859375,-0.891962468624115,-1.2508374452590942,-0.6011499762535095
1698079651606197800,6.49319775390625,-1.019012451171875,-0.9454500079154968,-0.2480500042438507
1698079651615617000,6.502616943359375,-1.192537546157837,-0.48606249690055847,-0.01966249942779541
1698079651625036300,6.512036376953125,-1.4540624618530273,-0.42858749628067017,-0.0037124999798834324
1698079651634455300,6.521455322265625,-1.8254499435424805,-0.8794500231742859,0.10986249893903732
1698079651643874300,6.530874267578125,-2.276175022125244,-1.7615125179290771,0.6267250180244446
1698079651653293800,6.5402939453125,-2.7856125831604004,-1.5989874601364136,1.2925000190734863
1698079651662712800,6.549712890625,-2.7588000297546387,0.804099977016449,0.9259250164031982
1698079651672132000,6.559132080078125,-1.7984999418258667,2.5487000942230225,-0.3531000018119812
1698079651681551000,6.568551025390625,-1.2120624780654907,0.055137500166893005,0.10009999573230743
1698079651690970400,6.577970458984375,-1.223062515258789,-0.8526374697685242,1.2229249477386475
1698079651700389400,6.587389404296875,-1.5065875053405762,2.0098373889923096,1.2827374935150146
1698079651709809000,6.596808837890625,-1.809499979019165,2.736799955368042,1.7346999645233154
1698079651719227600,6.6062275390625,-1.7374500036239624,1.389299988746643,2.4360873699188232
1698079651728647000,6.61564697265625,-1.6164499521255493,1.5859249830245972,2.4360873699188232
1698079651738066200,6.625066162109375,-1.5126374959945679,2.4314124584198,2.3053250312805176
1698079651747485200,6.634485107421875,-1.3233000040054321,2.942087411880493,2.682762384414673
1698079651756904200,6.643904296875,-1.019012451171875,3.407525062561035,3.1176750659942627
1698079651766323500,6.653323486328125,-0.6683874726295471,3.860724925994873,3.3424875736236572
1698079651775742700,6.66274267578125,-0.28476250171661377,3.9291999340057373,3.5844874382019043
1698079651785161700,6.67216162109375,0.004674999974668026,3.815624952316284,4.068212509155273
1698079651794581000,6.6815810546875,0.21367499232292175,3.7703874111175537,4.63388729095459
1698079651804000300,6.691000244140625,0.25519999861717224,3.925487518310547,5.026037693023682
1698079651813419300,6.700419189453125,0.12196250259876251,4.103962421417236,5.166562557220459
1698079651822838500,6.709838623046875,-0.13942499458789825,4.033012390136719,5.081037521362305
1698079651832257800,6.7192578125,-0.4057624936103821,3.719099998474121,4.781700134277344
1698079651841676500,6.728676513671875,-0.45100000500679016,3.5883374214172363,4.427362442016602
1698079651851096000,6.738095947265625,-0.2274249941110611,3.4124748706817627,4.146450042724609
1698079651860515000,6.74751513671875,0.11715000122785568,3.091137409210205,3.897162437438965
1698079651869934000,6.75693408203125,0.43353748321533203,2.784512519836426,3.649250030517578
1698079651879353600,6.766353515625,0.6901124715805054,2.3764123916625977,3.3999624252319336
1698079651888772400,6.7757724609375,0.8073999881744385,1.9170249700546265,3.1176750659942627
1698079651898191600,6.785191650390625,0.7841625213623047,1.5199249982833862,2.7304749488830566
1698079651907611000,6.79461083984375,0.608299970626831,0.966487467288971,2.2490875720977783
1698079651917030100,6.804030029296875,0.35530000925064087,0.29218751192092896,1.8068875074386597
1698079651926449200,6.81344921875,0.14767499268054962,-0.39448750019073486,1.4805999994277954
1698079651935868200,6.8228681640625,-0.0038499999791383743,-1.118975043296814,1.298550009727478
1698079651945287700,6.83228759765625,-0.13942499458789825,-1.8433250188827515,1.2009249925613403
1698079651954706400,6.84170654296875,-0.2591874897480011,-2.455475091934204,1.1141624450683594
1698079651964125700,6.851125732421875,-0.3324750065803528,-2.782862424850464,1.0139249563217163
1698079651973545000,6.860544921875,-0.3630000054836273,-2.7388625144958496,0.9063999652862549
1698079651982964000,6.8699638671875,-0.3899500072002411,-2.5458123683929443,0.8123499751091003
1698079651992383200,6.87938330078125,-0.44481250643730164,-2.323474884033203,0.7402999997138977
1698079652001802200,6.88880224609375,-0.4680500030517578,-2.043799877166748,0.6767749786376953
1698079652011221500,6.898221435546875,-0.4362874925136566,-1.7419874668121338,0.6400625109672546
1698079652020640500,6.907640625,-0.47657498717308044,-1.498887538909912,0.6462500095367432
1698079652030059800,6.917059814453125,-0.5425750017166138,-1.272837519645691,0.7048249840736389
1698079652039478800,6.926478759765625,-0.5400999784469604,-0.7853999733924866,0.7818250060081482
1698079652048898000,6.93589794921875,-0.5511000156402588,-0.06572499871253967,0.8600624799728394
1698079652058317000,6.945317138671875,-0.510812520980835,0.5927624702453613,0.9724000096321106
1698079652067736300,6.954736328125,-0.3777124881744385,1.01419997215271,1.0786875486373901
1698079652077155600,6.964155517578125,-0.17737500369548798,1.135200023651123,1.1483999490737915
1698079652086574600,6.97357470703125,0.062150001525878906,1.2414875030517578,1.2302124500274658
1698079652095993900,6.982993896484375,0.21972499787807465,1.397825002670288,1.3352625370025635
1698079652105413000,6.9924130859375,0.18548749387264252,1.4968249797821045,1.461074948310852
1698079652114832000,7.001831787109375,-0.033137500286102295,1.81802499294281,1.6614124774932861
1698079652124251000,7.0112509765625,-0.3605250120162964,1.7972625494003296,1.9119374752044678
1698079652133670400,7.02067041015625,-0.6683874726295471,1.455299973487854,2.2100374698638916
1698079652143089400,7.03008935546875,-0.948199987411499,0.9641500115394592,2.493424892425537
1698079652152508700,7.0395087890625,-1.184012532234192,0.5878124833106995,2.763474941253662
1698079652161928000,7.048927978515625,-1.3795374631881714,0.4449499845504761,2.982100009918213
1698079652171347000,7.058346923828125,-1.5199249982833862,0.05884999781847,3.156862497329712
1698079652180766000,7.067765869140625,-1.534637451171875,-0.8452125191688538,3.3424875736236572
1698079652190185500,7.077185546875,-1.4234000444412231,-1.8970874547958374,3.551487445831299
1698079652199604500,7.0866044921875,-1.2743500471115112,-2.6973373889923096,3.6040124893188477
1698079652209023500,7.0960234375,-1.1767250299453735,-3.1334874629974365,3.3266749382019043
1698079652218442800,7.10544287109375,-1.0789624452590942,-3.1224875450134277,2.792762517929077
1698079652227862000,7.114862060546875,-1.01048743724823,-2.78410005569458,2.2650375366210938
1698079652237281000,7.124281005859375,-1.01419997215271,-2.5775749683380127,1.8191249370574951
1698079652246700300,7.1337001953125,-0.9079124927520752,-2.4994750022888184,1.5943125486373901
1698079652256119300,7.143119384765625,-0.4937624931335449,-2.288137435913086,1.5283124446868896
1698079652265538600,7.15253857421875,0.10491249710321426,-1.8299875259399414,1.3047374486923218
1698079652274957300,7.161957275390625,0.3772999942302704,-1.1922625303268433,0.7647749781608582
1698079652284376800,7.171376953125,0.2942500114440918,-0.43834999203681946,0.0085249999538064
1698079652293795800,7.1807958984375,0.14643749594688416,0.22990000247955322,-0.8540124893188477
1698079652303215000,7.190215087890625,0.17448750138282776,0.8541499972343445,-1.6775000095367432
1698079652312634400,7.19963427734375,0.4212999939918518,1.1827750205993652,-2.412987470626831
1698079652322053400,7.209053466796875,0.7523999810218811,1.0557249784469604,-3.1495749950408936
1698079652331472600,7.21847265625,1.049262523651123,0.5670499801635742,-4.0108747482299805
1698079652340892000,7.227891845703125,1.2973124980926514,-0.06696250289678574,-4.98588752746582
1698079652350310700,7.237310546875,1.5464625358581543,-0.19277499616146088,-5.926525115966797
1698079652359730000,7.24672998046875,1.7859874963760376,0.5915250182151794,-6.629012584686279
1698079652369149200,7.256149169921875,2.0523250102996826,2.085599899291992,-6.90758752822876
1698079652378568200,7.265568115234375,2.2856624126434326,3.909674882888794,-6.549674987792969
1698079652387987200,7.2749873046875,2.514050006866455,5.601749897003174,-5.701712608337402
1698079652397406500,7.284406494140625,2.561762571334839,6.441050052642822,-4.8258376121521
1698079652406825700,7.29382568359375,2.240424871444702,6.332287311553955,-4.103825092315674
1698079652416244700,7.30324462890625,1.7212250232696533,6.023187637329102,-3.6761999130249023
1698079652425664000,7.3126640625,1.1177375316619873,5.726325035095215,-3.572387456893921
1698079652435083300,7.322083251953125,0.6938250064849854,3.8901500701904297,-3.2388124465942383
1698079652444502300,7.331502197265625,0.699874997138977,1.3818750381469727,-2.932187557220459
1698079652453921500,7.340921630859375,0.8879749774932861,-0.6778749823570251,-2.6903250217437744
1698079652463340800,7.3503408203125,0.9954999685287476,-2.676574945449829,-2.4605624675750732
1698079652472759800,7.359759765625,0.779212474822998,-3.3228249549865723,-3.5381500720977783
1698079652482178800,7.3691787109375,0.33701249957084656,-1.5721750259399414,-5.274224758148193
1698079652491598000,7.37859814453125,-0.08689999580383301,-0.3419624865055084,-5.81790018081665
1698079652501017000,7.38801708984375,-0.40094998478889465,-0.0193875003606081,-5.479374885559082
1698079652510436400,7.397436279296875,-0.7088124752044678,-0.38472500443458557,-4.957699775695801
1698079652519855600,7.406855712890625,-0.8516749739646912,-1.123787522315979,-4.762312412261963
1698079652529274600,7.416274658203125,-0.7869125008583069,-2.2441375255584717,-4.8123626708984375
1698079652538693600,7.425693603515625,-0.6550499796867371,-3.2300124168395996,-5.093412399291992
1698079652548113000,7.43511279296875,-0.46076250076293945,-3.717449903488159,-5.473324775695801
1698079652557532200,7.4445322265625,-0.24199999868869781,-3.5965874195098877,-5.699375152587891
1698079652566951200,7.453951171875,-0.057612501084804535,-2.9709625244140625,-5.679850101470947
1698079652576370200,7.4633701171875,-0.08442500233650208,-2.931912422180176,-5.566137313842773
1698079652585789400,7.47278955078125,-0.11261250078678131,-3.520824909210205,-5.448850154876709
1698079652595208700,7.482208740234375,-0.052662499248981476,-3.5525875091552734,-4.943124771118164
1698079652604627700,7.491627685546875,0.15138749778270721,-3.2362000942230225,-4.2149248123168945
1698079652614047000,7.501046875,0.3675374984741211,-2.922149896621704,-3.632200002670288
1698079652623466200,7.51046630859375,0.5435374975204468,-2.7511000633239746,-3.0910000801086426
1698079652632885200,7.51988525390625,0.643637478351593,-2.5654749870300293,-2.585137367248535
1698079652642304500,7.529304443359375,0.6070625185966492,-2.162324905395508,-2.117224931716919
1698079652651723300,7.53872314453125,0.4652999937534332,-1.5709375143051147,-1.7898374795913696
1698079652661142800,7.548142822265625,0.20996250212192535,-1.365649938583374,-1.6554999351501465
1698079652670562000,7.55756201171875,-0.09308750182390213,-1.5281749963760376,-1.6077874898910522
1698079652679981000,7.56698095703125,-0.3959999978542328,-1.627174973487854,-1.56021249294281
1698079652689400000,7.576400146484375,-0.7783874869346619,-1.5746500492095947,-1.459975004196167
1698079652698819300,7.5858193359375,-1.1045374870300293,-1.6882250308990479,-1.3231624364852905
1698079652708238600,7.595238525390625,-1.2890625,-1.6284124851226807,-1.0788249969482422
1698079652717657300,7.6046572265625,-1.3745875358581543,-1.3448874950408936,-0.7977749705314636
1698079652727076600,7.61407666015625,-1.5065875053405762,-0.9392625093460083,-0.48262500762939453
1698079652736495900,7.623495849609375,-1.5651625394821167,-0.46777498722076416,-0.4203374981880188
1698079652745915000,7.632914794921875,-1.6739250421524048,-0.6168249845504761,-0.5620999932289124
1698079652755334100,7.642334228515625,-1.7154500484466553,-1.46465003490448,-0.6964374780654907
1698079652764753400,7.65175341796875,-1.9133124351501465,-2.237950086593628,0.09033749997615814
1698079652774172400,7.66117236328125,-2.2798874378204346,-1.5318875312805176,1.5795999765396118
1698079652783591400,7.67059130859375,-2.4289374351501465,0.26042500138282776,2.2368500232696533
1698079652793010700,7.6800107421875,-2.025787591934204,1.2560625076293945,1.2350250482559204
1698079652802430000,7.689429931640625,-1.2365374565124512,-0.8746374845504761,1.0432125329971313
1698079652811849000,7.698848876953125,-0.6891499757766724,-0.26977500319480896,1.5160750150680542
1698079652821268200,7.708268310546875,-1.140012502670288,2.1443123817443848,2.054800033569336
1698079652830687200,7.717687255859375,-1.5566375255584717,1.8510249853134155,2.576474905014038
1698079652840106500,7.7271064453125,-1.463824987411499,1.3562999963760376,2.803762435913086
1698079652849525800,7.73652587890625,-1.0837750434875488,1.809499979019165,3.0688624382019043
1698079652858944800,7.74594482421875,-0.7356249690055847,2.4424123764038086,3.325437545776367
1698079652868364000,7.755364013671875,-0.5205749869346619,2.9358999729156494,3.3302500247955322
1698079652877783300,7.764783203125,-0.408237487077713,2.9236624240875244,3.3877248764038086
1698079652887202000,7.7742021484375,-0.26042500138282776,2.5547499656677246,3.701775074005127
1698079652896621300,7.783621337890625,-0.11013749986886978,2.7037999629974365,3.9899749755859375
1698079652906040600,7.79304052734375,-0.002612499985843897,2.959137439727783,4.25754976272583
1698079652915459800,7.8024599609375,0.04619999974966049,2.9603750705718994,4.512887477874756
1698079652924878600,7.811878662109375,0.002337499987334013,2.755087375640869,4.693699836730957
1698079652934297900,7.8212978515625,-0.007562499959021807,2.665987491607666,4.6301751136779785
1698079652943717000,7.830717041015625,0.037675000727176666,2.4349875450134277,4.444550037384033
1698079652953136000,7.84013623046875,0.08415000140666962,2.0160250663757324,4.151262283325195
1698079652962555400,7.849555419921875,0.14396250247955322,1.484587550163269,3.789637565612793
1698079652971974700,7.858974609375,0.18548749387264252,1.0520124435424805,3.4047749042510986
1698079652981393700,7.8683935546875,0.2367749959230423,0.7906249761581421,3.050575017929077
1698079652990812700,7.877812744140625,0.30524998903274536,0.6928625106811523,2.8087124824523926
1698079653000232200,7.887232177734375,0.39806249737739563,0.681862473487854,2.679187536239624
1698079653009651200,7.896651123046875,0.4372499883174896,0.5597624778747559,2.571662425994873
1698079653019070200,7.9060703125,0.4212999939918518,0.30799999833106995,2.47513747215271
1698079653028489500,7.915489501953125,0.33701249957084656,-0.05238749831914902,2.3773748874664307
1698079653037908500,7.924908447265625,0.20391249656677246,-0.5422999858856201,2.211275100708008
1698079653047327500,7.934327392578125,0.062150001525878906,-1.1005499362945557,1.9327000379562378
1698079653056746800,7.943746826171875,-0.040424998849630356,-1.613700032234192,1.5723124742507935
1698079653066166000,7.953166015625,-0.15289999544620514,-2.1403250694274902,1.2252625226974487
1698079653075585000,7.9625849609375,-0.2909500002861023,-2.4627625942230225,0.9468249678611755
1698079653085004300,7.97200439453125,-0.44123750925064087,-2.5482873916625977,0.7598249912261963
1698079653094423300,7.98142333984375,-0.6000499725341797,-2.3529000282287598,0.6670125126838684
1698079653103842800,7.9908427734375,-0.7966749668121338,-1.9240374565124512,0.7585874795913696
1698079653113261800,8.00026171875,-0.9421499967575073,-1.4158375263214111,0.9833999872207642
1698079653122681000,8.00968115234375,-1.0362000465393066,-1.0040249824523926,1.2216874361038208
1698079653132099800,8.019099853515625,-1.1107250452041626,-0.9259250164031982,1.5013624429702759
1698079653141519400,8.028519287109376,-1.0911999940872192,-0.8782125115394592,1.731124997138977
1698079653150938400,8.0379384765625,-0.9444875121116638,-0.5655375123023987,1.96322500705719
1698079653160357400,8.047357421875,-0.6208124756813049,-0.21367499232292175,2.0707499980926514
1698079653169777000,8.05677685546875,-0.33371248841285706,0.2934249937534332,2.013274908065796
1698079653179196000,8.06619580078125,-0.1601874977350235,1.1424875259399414,1.9254125356674194
1698079653188615000,8.075614990234374,-0.09790000319480896,2.2358875274658203,1.9412249326705933
1698079653198034200,8.0850341796875,-0.16142499446868896,3.2304248809814453,2.1550374031066895
1698079653207453200,8.094453125,-0.32752498984336853,3.819200038909912,2.5374250411987305
1698079653216872200,8.1038720703125,-0.47423750162124634,3.9474875926971436,3.0408124923706055
1698079653226291700,8.113291748046874,-0.6135249733924866,3.227950096130371,3.4695374965667725
1698079653235710700,8.122710693359375,-0.7943375110626221,1.9439749717712402,3.6272499561309814
1698079653245130000,8.1321298828125,-0.9702000021934509,0.6037625074386597,3.406012535095215
1698079653254549000,8.141549072265626,-1.039912462234497,-0.4885374903678894,2.9796249866485596
1698079653263968300,8.15096826171875,-1.0154374837875366,-1.177549958229065,2.803762435913086
1698079653273387300,8.16038720703125,-1.0337250232696533,-1.7835124731063843,2.912524938583374
1698079653282806300,8.16980615234375,-1.1302499771118164,-2.4945249557495117,3.1286749839782715
1698079653292225500,8.1792255859375,-1.1998250484466553,-3.0064375400543213,3.2374374866485596
1698079653301644800,8.188644775390625,-1.1620124578475952,-2.963675022125244,3.1898624897003174
1698079653311063800,8.198063720703125,-1.0069124698638916,-2.498237371444702,2.994337558746338
1698079653320483000,8.207483154296876,-0.7943375110626221,-1.9570374488830566,2.6497623920440674
1698079653329902000,8.216902099609374,-0.6318125128746033,-1.548937439918518,2.2943248748779297
1698079653339321000,8.226321044921875,-0.5182374715805054,-1.4891250133514404,1.8814125061035156
1698079653348740400,8.235740234375,-0.33976250886917114,-1.4926999807357788,1.5295499563217163
1698079653358159600,8.24515966796875,-0.12966249883174896,-1.352312445640564,1.2595000267028809
1698079653367578600,8.25457861328125,-0.01484999991953373,-0.9992125034332275,0.9711624979972839
1698079653376998000,8.263997802734375,0.07562500238418579,-0.6070625185966492,0.6010124683380127
1698079653386417000,8.2734169921875,0.16596250236034393,-0.3382500112056732,0.11110000312328339
1698079653395836200,8.282836181640626,0.22220000624656677,-0.14272500574588776,-0.47891250252723694
1698079653405255200,8.292255126953124,0.3077250123023987,-0.06091250106692314,-1.053112506866455
1698079653414674400,8.30167431640625,0.49582499265670776,-0.13048750162124634,-1.529687523841858
1698079653424093400,8.311093505859375,0.7231125235557556,-0.22948749363422394,-1.905887484550476
1698079653433512700,8.3205126953125,0.8831624984741211,-0.3737249970436096,-2.2724626064300537
1698079653442932000,8.329931884765625,0.949162483215332,-0.6265875101089478,-2.714662551879883
1698079653452351000,8.33935107421875,1.0052624940872192,-0.975974977016449,-3.2265748977661133
1698079653461770000,8.34877001953125,1.0920250415802002,-1.2973124980926514,-3.73972487449646
1698079653471189200,8.358189208984374,1.1714999675750732,-1.3828375339508057,-4.1599249839782715
1698079653480608500,8.3676083984375,1.2570250034332275,-0.8391624689102173,-4.3639750480651855
1698079653490027500,8.377027587890625,1.352312445640564,0.41304999589920044,-4.240637302398682
1698079653499446800,8.38644677734375,1.4011249542236328,2.053837537765503,-3.793487548828125
1698079653508865800,8.39586572265625,1.3791249990463257,3.6188623905181885,-3.1802375316619873
1698079653518285000,8.40528515625,1.281362533569336,4.73178768157959,-2.663374900817871
1698079653527704000,8.4147041015625,1.1360249519348145,5.127649784088135,-2.4019875526428223
1698079653537123300,8.424123291015626,0.9662125110626221,4.895549774169922,-2.3506999015808105
1698079653546542300,8.433542236328124,0.7926874756813049,4.0880126953125,-2.3847999572753906
1698079653555961600,8.442961669921875,0.5508249998092651,2.9126625061035156,-2.525325059890747
1698079653565380900,8.452380859375,0.2820124924182892,1.538349986076355,-2.6963748931884766
1698079653574800000,8.4617998046875,0.09019999951124191,0.16266250610351562,-2.7684249877929688
1698079653584219000,8.471218994140624,-0.05637500062584877,-0.9735000133514404,-2.7086124420166016
1698079653593638100,8.48063818359375,-0.14190000295639038,-1.7897000312805176,-2.562037467956543
1698079653603057400,8.490057373046875,-0.1676124930381775,-2.4237124919891357,-2.310275077819824
1698079653612476400,8.499476318359376,-0.1504250019788742,-2.854912519454956,-2.0195999145507812
1698079653621895400,8.5088955078125,-0.1381874978542328,-3.2177748680114746,-1.6847875118255615
1698079653631315000,8.51831494140625,-0.1321374922990799,-4.179312705993652,-1.2913999557495117
1698079653640734000,8.52773388671875,-0.19071249663829803,-5.938624858856201,-1.1913000345230103
1698079653650153000,8.537153076171874,-0.32023748755455017,-5.7785749435424805,-1.800837516784668
1698079653659572200,8.546572265625,-0.41071251034736633,-3.3558249473571777,-2.4642748832702637
1698079653668991200,8.5559912109375,-0.4778124988079071,-0.6143500208854675,-2.5278000831604004
1698079653678410200,8.56541015625,-0.4437125027179718,0.7796249985694885,-2.185699939727783
1698079653687829500,8.57482958984375,-0.4582875072956085,0.9689624905586243,-1.7873624563217163
1698079653697248800,8.584248779296875,-0.5988125205039978,0.491287499666214,-1.4564000368118286
1698079653706667800,8.593667724609375,-0.8406749963760376,-0.3114374876022339,-1.1790624856948853
1698079653716086800,8.603086669921876,-1.0214874744415283,-1.2227874994277954,-0.9982500076293945
1698079653725506000,8.612506103515624,-1.0984874963760376,-1.7835124731063843,-0.992062509059906
1698079653734925300,8.62192529296875,-1.1339625120162964,-1.9960874319076538,-1.1386375427246094
1698079653744344300,8.63134423828125,-1.0997250080108643,-1.985087513923645,-1.3341624736785889
1698079653753763600,8.640763671875,-1.01419997215271,-1.788462519645691,-1.4196875095367432
1698079653763182600,8.6501826171875,-0.9151999950408936,-1.6149375438690186,-1.380637526512146
1698079653772601900,8.659601806640625,-0.8358625173568726,-1.556362509727478,-1.268162488937378
1698079653782021000,8.669021240234375,-0.7991499900817871,-1.6026999950408936,-1.122825026512146
1698079653791440100,8.678440185546876,-0.7698624730110168,-1.622225046157837,-0.9725375175476074
1698079653800859400,8.687859375,-0.7368624806404114,-1.6491750478744507,-0.8381999731063843
1698079653810278400,8.6972783203125,-0.7001500129699707,-1.6869875192642212,-0.6964374780654907
1698079653819697700,8.70669775390625,-0.677049994468689,-1.7529875040054321,-0.5583875179290771
1698079653829116700,8.71611669921875,-0.6500999927520752,-1.8115625381469727,-0.4142875075340271
1698079653838536000,8.725535888671875,-0.602524995803833,-1.8115625381469727,-0.28228750824928284
1698079653847955000,8.734954833984375,-0.5572875142097473,-1.836037516593933,-0.12952500581741333
1698079653857374000,8.7443740234375,-0.5255249738693237,-1.9179874658584595,0.08304999768733978
1698079653866793200,8.753793212890624,-0.5182374715805054,-2.0523250102996826,0.3749625086784363
1698079653876212500,8.76321240234375,-0.5487625002861023,-2.142662525177002,0.7023500204086304
1698079653885631500,8.772631591796875,-0.6122875213623047,-2.1219000816345215,1.0261625051498413
1698079653895050800,8.78205078125,-0.681862473487854,-2.067037582397461,1.3242624998092651
1698079653904470000,8.791469970703124,-0.6953374743461609,-2.0450375080108643,1.5893625020980835
1698079653913889000,8.800888916015625,-0.6513375043869019,-1.968037486076355,1.8116999864578247
1698079653923308000,8.81030810546875,-0.6085749864578247,-1.7652249336242676,1.9497499465942383
1698079653932727300,8.819727294921876,-0.6098124980926514,-1.4158375263214111,1.8544625043869019
1698079653942146600,8.829146484375,-0.6488624811172485,-0.8709250092506409,1.3633124828338623
1698079653951565600,8.838565673828125,-0.6280999779701233,-0.5337749719619751,0.630299985408783
1698079653960984800,8.84798486328125,-0.5682874917984009,-0.8464499711990356,-0.14300000667572021
1698079653970403800,8.85740380859375,-0.5022875070571899,-1.5294125080108643,-0.8112499713897705
1698079653979822800,8.86682275390625,-0.42899999022483826,-2.354137420654297,-1.0520124435424805
1698079653989242000,8.8762421875,-0.38747498393058777,-2.9123873710632324,-0.8320124745368958
1698079653998661400,8.885661376953125,-0.45223748683929443,-2.8818624019622803,-0.5229125022888184
1698079654008080400,8.895080322265626,-0.5817624926567078,-2.363762378692627,-0.39957499504089355
1698079654017499400,8.90449951171875,-0.6978124976158142,-1.5941749811172485,-0.4423374831676483
1698079654026918700,8.913918701171875,-0.7356249690055847,-0.9820249676704407,-0.6939625144004822
1698079654036337700,8.923337646484375,-0.75638747215271,-0.7316374778747559,-0.8320124745368958
1698079654045757000,8.9327568359375,-0.8541499972343445,-0.5483499765396118,-0.6096749901771545
1698079654055176200,8.94217626953125,-0.8443874716758728,-0.4591124951839447,-0.1307625025510788
1698079654064595200,8.95159521484375,-0.7123875021934509,-0.15991249680519104,0.18933749198913574
1698079654074014200,8.96101416015625,-0.5670499801635742,0.6782875061035156,-0.01718750037252903
1698079654083433500,8.97043359375,-0.28366249799728394,1.4405875205993652,-0.4838624894618988
1698079654092852700,8.979852783203125,0.14767499268054962,1.2597750425338745,-1.2339249849319458
1698079654102271700,8.989271728515625,0.26977500319480896,-0.4408249855041504,-0.778249979019165
1698079654111691000,8.99869091796875,0.040150001645088196,-1.2703624963760376,-0.020762499421834946
1698079654121110300,9.0081103515625,-0.20295000076293945,-1.343649983406067,0.42391249537467957
1698079654130529000,9.017529052734375,-0.3484250009059906,-1.4096499681472778,0.7757750153541565
1698079654139948300,9.0269482421875,-0.4692874848842621,-1.355887532234192,1.098212480545044
1698079654149367600,9.036367431640626,-0.5853375196456909,-1.0089750289916992,1.2374999523162842
1698079654158786600,9.04578662109375,-0.7088124752044678,-0.5838249921798706,1.1825000047683716
1698079654168205600,9.05520556640625,-0.7979124784469604,-0.3993000090122223,1.0396374464035034
1698079654177625000,9.064625,-0.8736749887466431,-0.49582499265670776,0.9003499746322632
1698079654187044000,9.074044189453126,-0.9762499928474426,-0.7682124972343445,0.830637514591217
1698079654196463000,9.083463134765625,-1.1217249631881714,-1.140837550163269,0.8258249759674072
1698079654205882400,9.09288232421875,-1.2988250255584717,-1.5549875497817993,0.9088749885559082
1698079654215301600,9.102301513671875,-1.451587438583374,-2.00103759765625,1.1386375427246094
1698079654224720400,9.111720458984376,-1.534637451171875,-2.515287399291992,1.556362509727478
1698079654234139600,9.1211396484375,-1.5676374435424805,-3.0357248783111572,2.0878000259399414
1698079654243559200,9.13055908203125,-1.6103999614715576,-3.3643500804901123,2.5374250411987305
1698079654252978200,9.139978271484376,-1.6824499368667603,-3.4804000854492188,2.7952375411987305
1698079654262397200,9.149397216796874,-1.7704499959945679,-3.4083499908447266,2.87223744392395
1698079654271816400,9.15881640625,-1.8497874736785889,-3.190962553024292,2.8087124824523926
1698079654281235500,9.1682353515625,-1.921975016593933,-2.879387378692627,2.6522374153137207
1698079654290654700,9.17765478515625,-1.9243124723434448,-2.4749999046325684,2.473900079727173
1698079654300073700,9.18707373046875,-1.830262541770935,-1.9973249435424805,2.3223750591278076
1698079654309493000,9.196492919921875,-1.6311625242233276,-1.486649990081787,2.2527999877929688
1698079654318912300,9.205912353515625,-1.3122999668121338,-1.0125499963760376,2.2783749103546143
1698079654328331300,9.215331298828126,-0.943387508392334,-0.6754000186920166,2.350562572479248
1698079654337750300,9.224750244140624,-0.5878124833106995,-0.5018749833106995,2.426187515258789
1698079654347169500,9.23416943359375,-0.26042500138282776,-0.5178250074386597,2.476375102996826
1698079654356588800,9.2435888671875,-0.025849999859929085,-0.7596874833106995,2.461662530899048
1698079654366007800,9.2530078125,0.0010999999940395355,-1.3486000299453735,2.324850082397461
1698079654375426800,9.2624267578125,-0.22495000064373016,-2.3626625537872314,2.0059874057769775
1698079654384846000,9.27184619140625,-0.6037625074386597,-2.879387378692627,1.6821750402450562
1698079654394265000,9.28126513671875,-0.7173374891281128,-2.837862491607666,1.4183125495910645
1698079654403684000,9.29068408203125,-0.5083374977111816,-2.443237543106079,1.2339249849319458
1698079654413103600,9.300103515625,-0.2529999911785126,-1.9178500175476074,1.0884499549865723
1698079654422522600,9.309522705078125,-0.08442500233650208,-1.4048374891281128,0.9479249715805054
1698079654431942000,9.31894189453125,-0.05142499879002571,-0.9612625241279602,0.805062472820282
1698079654441361200,9.328361083984374,-0.09418749809265137,-0.6778749823570251,0.6975374817848206
1698079654450780200,9.3377802734375,-0.17366249859333038,-0.5105375051498413,0.6290624737739563
1698079654460199200,9.34719921875,-0.24695000052452087,-0.35530000925064087,0.5972999930381775
1698079654469618400,9.356618408203126,-0.28971248865127563,-0.19167499244213104,0.5912500023841858
1698079654479037700,9.36603759765625,-0.3251875042915344,-0.062150001525878906,0.6169624924659729
1698079654488456400,9.37545654296875,-0.3385249972343445,-0.009624999947845936,0.6925874948501587
1698079654497876000,9.3848759765625,-0.3044250011444092,-0.08291249722242355,0.8208749890327454
1698079654507295000,9.394294921875,-0.2176624983549118,-0.4115374982357025,1.0201125144958496
1698079654516714000,9.4037138671875,-0.1223749965429306,-1.0187374353408813,1.285212516784668
1698079654526133200,9.41313330078125,-0.1676124930381775,-1.5159374475479126,1.4953124523162842
1698079654535552500,9.422552490234375,-0.31171250343322754,-1.727275013923645,1.5771249532699585
1698079654544971500,9.431971435546876,-0.40328750014305115,-1.7517499923706055,1.5551249980926514
1698079654554390500,9.441390625,-0.3581874966621399,-1.6797000169754028,1.4060750007629395
1698079654563809500,9.4508095703125,-0.22866250574588776,-1.5746500492095947,1.1714999675750732
1698079654573229000,9.46022900390625,-0.10395000129938126,-1.535599946975708,0.9259250164031982
1698079654582648000,9.46964794921875,0.007149999961256981,-1.6332249641418457,0.695062518119812
1698079654592067000,9.479067138671875,0.05719999969005585,-2.012037515640259,0.4104374945163727
1698079654601486300,9.488486328125,0.05486249923706055,-2.5959999561309814,0.04262499883770943
1698079654610905300,9.4979052734375,0.07796250283718109,-2.944149971008301,-0.3310999870300293
1698079654620324600,9.50732470703125,0.18796250224113464,-2.5067625045776367,-0.6036249995231628
1698079654629743600,9.51674365234375,0.42006251215934753,-1.1910250186920166,-0.6646749973297119
1698079654639163000,9.526162841796875,0.7059249877929688,0.4950000047683716,-0.5523374676704407
1698079654648582000,9.535581787109376,0.8964999914169312,1.5736874341964722,-0.48262500762939453
1698079654658001200,9.545001220703124,0.9344499707221985,1.6702125072479248,-0.6206749677658081
1698079654667420400,9.55442041015625,0.9735000133514404,1.0507750511169434,-0.927299976348877
1698079654676839400,9.56383935546875,1.1592625379562378,0.04166249930858612,-1.4086874723434448
1698079654686258400,9.573258544921876,1.3448874950408936,-0.8782125115394592,-1.9951249361038208
1698079654695677700,9.582677734375,1.3950749635696411,-1.3791249990463257,-2.554612398147583
1698079654705097000,9.592096923828125,1.3963124752044678,-1.486649990081787,-2.9957125186920166
1698079654714515700,9.601515625,1.4121249914169312,-1.4304125308990479,-3.2938125133514404
1698079654723935200,9.610935302734376,1.3448874950408936,-1.277787446975708,-3.4330999851226807
1698079654733354200,9.620354248046874,1.2105499505996704,-0.9906874895095825,-3.4476749897003174
1698079654742773200,9.629773193359375,1.0993125438690186,-0.6278250217437744,-3.3793375492095947
1698079654752192500,9.639192626953125,1.0737375020980835,-0.28325000405311584,-3.266862392425537
1698079654761611500,9.648611572265626,1.1530749797821045,0.033137500286102295,-3.1447625160217285
1698079654771030800,9.65803076171875,1.232550024986267,0.2957625091075897,-3.059237480163574
1698079654780450000,9.667449951171875,1.2850749492645264,0.5780500173568726,-2.992000102996826
1698079654789869000,9.676869140625,1.3058375120162964,0.804099977016449,-2.9554250240325928
1698079654799288000,9.6862880859375,1.2655500173568726,0.8676249980926514,-2.961474895477295
1698079654808707300,9.695707275390625,1.1445499658584595,0.427762508392334,-2.9187123775482178
1698079654818126600,9.705126708984375,0.9392625093460083,-0.7035874724388123,-2.7208499908447266
1698079654827545600,9.714545654296876,0.8134499788284302,-1.9277499914169312,-2.5107500553131104
1698079654836964900,9.72396484375,0.8354499936103821,-3.496350049972534,-2.170987606048584
1698079654846383900,9.7333837890625,0.8171625137329102,-4.994137287139893,-1.6274499893188477
1698079654855803000,9.742802978515625,0.8159250020980835,-5.752862453460693,-1.231587529182434
1698079654865222000,9.752221923828126,0.9209749698638916,-5.923912525177002,-1.1130625009536743
1698079654874641400,9.761641357421874,1.0614999532699585,-5.691812515258789,-1.2181124687194824
1698079654884060400,9.771060302734375,1.0175000429153442,-4.490887641906738,-2.3408000469207764
1698079654893479700,9.780479736328125,0.6876375079154968,-2.384662389755249,-3.914487361907959
1698079654902898700,9.789898681640626,0.3932499885559082,-0.7303999662399292,-4.440975189208984
1698079654912318000,9.79931787109375,0.20143750309944153,0.272662490606308,-4.35545015335083
1698079654921737000,9.808737060546875,0.07315000146627426,0.6036249995231628,-4.0231122970581055
1698079654931156200,9.81815625,-0.006324999965727329,0.3702875077724457,-3.643199920654297
1698079654940575200,9.8275751953125,-0.13695000112056732,-0.39448750019073486,-3.205812454223633
1698079654949994200,9.836994140625,-0.31171250343322754,-1.6381750106811523,-2.6291375160217285
1698079654959413800,9.846413818359375,-0.48647499084472656,-2.7768125534057617,-1.9303624629974365
1698079654968832800,9.855832763671875,-0.6000499725341797,-3.4682998657226562,-1.2523499727249146
1698079654978251800,9.865251708984376,-0.619575023651123,-3.740687370300293,-0.6939625144004822
1698079654987671000,9.874671142578125,-0.563337504863739,-3.6661624908447266,-0.2615250051021576
1698079654997090000,9.884090087890625,-0.5047624707221985,-3.376587390899658,0.06104999780654907
1698079655006509300,9.89350927734375,-0.4815250039100647,-3.071199893951416,0.27486249804496765
1698079655015928300,9.90292822265625,-0.45704999566078186,-2.729099988937378,0.35420000553131104
1698079655025347600,9.91234765625,-0.46681249141693115,-2.3211374282836914,0.3236750066280365
1698079655034766600,9.9217666015625,-0.5328124761581421,-1.9460375308990479,0.2576749920845032
1698079655044185900,9.931185791015626,-0.6990500092506409,-1.622225046157837,0.2516250014305115
1698079655053604900,9.94060498046875,-0.9861499667167664,-1.4964125156402588,0.43367499113082886
1698079655063024000,9.950024169921875,-1.28534996509552,-1.4683624505996704,0.8991125226020813
1698079655072443400,9.959443359375,-1.4906375408172607,-1.4304125308990479,1.5210249423980713
1698079655081862400,9.9688623046875,-1.5481125116348267,-1.1787874698638916,2.054800033569336
1698079655091281700,9.97828173828125,-1.4356374740600586,-0.4665375053882599,2.1257500648498535
1698079655100700400,9.987700439453125,-0.9274374842643738,0.27994999289512634,0.8490625023841858
1698079655110120000,9.997119873046875,-0.12484999746084213,-1.1372624635696411,0.17586250603199005
1698079655119539000,10.0065390625,0.6656374931335449,-3.36929988861084,-0.1527625024318695
1698079655128958000,10.0159580078125,1.2386000156402588,-4.809750080108643,-1.288925051689148
1698079655138377500,10.02537744140625,0.9246875047683716,-3.967974901199341,-2.496037483215332
1698079655147796500,10.03479638671875,0.24901250004768372,-2.947862386703491,-2.6903250217437744
1698079655157215500,10.044215576171876,-0.15771250426769257,-2.239187479019165,-2.0684125423431396
1698079655166634500,10.053634521484375,-0.14190000295639038,-0.6375874876976013,-2.023175001144409
1698079655176053800,10.0630537109375,-0.02213750034570694,0.619575023651123,-2.58032488822937
1698079655185472800,10.07247265625,0.07796250283718109,0.6793875098228455,-1.989074945449829
1698079655194891800,10.081891845703124,0.13667500019073486,0.3422375023365021,-0.5083374977111816
1698079655204311000,10.09131103515625,0.11219999939203262,1.0789624452590942,0.6682500243186951
1698079655213730000,10.10072998046875,0.11715000122785568,2.246887445449829,1.0432125329971313
1698079655223149300,10.1101494140625,0.26124998927116394,2.764849901199341,0.9956374764442444
1698079655232568600,10.119568603515624,0.3797749876976013,2.902899980545044,0.7940624952316284
1698079655241987600,10.128987548828125,0.4395875036716461,2.6879875659942627,0.8013499975204468
1698079655251406800,10.13840673828125,0.2807750105857849,2.1735999584198,0.8503000140190125
1698079655260825900,10.147825927734376,-0.11495000123977661,1.3477749824523926,0.8722999691963196
1698079655270245000,10.1572451171875,-0.4998124837875366,0.4534749984741211,0.9283999800682068
1698079655279664000,10.1666640625,-0.7453874945640564,-0.1391499936580658,1.0859750509262085
1698079655289083100,10.176083251953125,-0.9971500039100647,-0.6766374707221985,1.1629749536514282
1698079655298502400,10.18550244140625,-1.28534996509552,-1.3193124532699585,1.118975043296814
1698079655307921700,10.194921630859374,-1.5811125040054321,-1.889799952507019,1.044450044631958
1698079655317340700,10.204340576171875,-1.8412624597549438,-2.2831873893737793,1.0053999423980713
1698079655326759700,10.213759765625,-2.0098373889923096,-2.440762519836426,1.04087495803833
1698079655336179000,10.223178955078126,-2.030600070953369,-2.384662389755249,1.1911624670028687
1698079655345598000,10.232597900390624,-1.9182624816894531,-2.262424945831299,1.4403125047683716
1698079655355017200,10.242017333984375,-1.7484500408172607,-2.071850061416626,1.7591749429702759
1698079655364436500,10.2514365234375,-1.695924997329712,-1.8140374422073364,2.0842249393463135
1698079655373855500,10.26085546875,-1.7899750471115112,-1.4793624877929688,2.3529000282287598
1698079655383274800,10.270274658203125,-1.9243124723434448,-1.1054999828338623,2.5606625080108643
1698079655392693800,10.27969384765625,-2.011075019836426,-0.7706875205039978,2.7047624588012695
1698079655402113000,10.289113037109376,-2.0355498790740967,-0.4690124988555908,2.7817625999450684
1698079655411532000,10.298531982421874,-2.002549886703491,-0.20143750309944153,2.803762435913086
1698079655420951300,10.307951416015625,-1.896262526512146,0.023375000804662704,2.814762592315674
1698079655430370300,10.317370361328125,-1.7019749879837036,0.1504250019788742,2.8184750080108643
1698079655439789300,10.326789306640626,-1.389299988746643,0.07713750004768372,2.75
1698079655449208800,10.336208740234374,-0.9347249865531921,-0.4787749946117401,2.434849977493286
1698079655458627600,10.345627685546875,-0.5963374972343445,-1.1262625455856323,2.0854625701904297
1698079655468046800,10.355046875,-0.5780500173568726,-1.6625125408172607,1.793412446975708
1698079655477466000,10.364466064453126,-0.8431500196456909,-1.9630874395370483,1.5538874864578247
1698079655486885000,10.373885009765624,-1.085012435913086,-1.9227999448776245,1.4257375001907349
1698079655496304000,10.38330419921875,-1.109487533569336,-1.5049375295639038,1.4220249652862549
1698079655505723600,10.3927236328125,-0.943387508392334,-0.8929250240325928,1.4965499639511108
1698079655515142700,10.402142578125,-0.7148625254631042,-0.4763000011444092,1.4880249500274658
1698079655524561700,10.411561767578124,-0.5400999784469604,-0.39201250672340393,1.3352625370025635
1698079655533980700,10.420980712890625,-0.4534749984741211,-0.3590124845504761,1.1679250001907349
1698079655543400000,10.43039990234375,-0.43271249532699585,-0.24543750286102295,1.0286375284194946
1698079655552819200,10.439819091796876,-0.4778124988079071,-0.12815000116825104,0.9479249715805054
1698079655562238000,10.449238037109374,-0.5743374824523926,-0.05843750014901161,0.9063999652862549
1698079655571657500,10.458657470703125,-0.6683874726295471,-0.08043749630451202,0.8355875015258789
1698079655581076500,10.468076416015625,-0.7283374667167664,-0.2624875009059906,0.7525374889373779
1698079655590495500,10.47749560546875,-0.7405750155448914,-0.7853999733924866,0.6743000149726868
1698079655599914500,10.48691455078125,-0.6085749864578247,-1.6699374914169312,0.6315374970436096
1698079655609334000,10.496333984375,-0.4119499921798706,-2.5019500255584717,0.6352499723434448
1698079655618753000,10.5057529296875,-0.2957625091075897,-2.8403375148773193,0.6632999777793884
1698079655628171800,10.515171875,-0.30195000767707825,-2.5190000534057617,0.7097749710083008
1698079655637591300,10.52459130859375,-0.39476248621940613,-1.6845124959945679,0.7073000073432922
1698079655647010300,10.53401025390625,-0.510812520980835,-0.7303999662399292,0.5057250261306763
1698079655656429300,10.54342919921875,-0.5915250182151794,-0.040150001645088196,0.09281250089406967
1698079655665848600,10.5528486328125,-0.5400999784469604,0.4692874848842621,-0.37386250495910645
1698079655675267600,10.562267578125,-0.2909500002861023,1.1387749910354614,-0.7684875130653381
1698079655684686800,10.571686767578125,0.18424999713897705,1.6909749507904053,-1.0641125440597534
1698079655694105900,10.58110595703125,0.80121248960495,1.6946874856948853,-1.3829749822616577
1698079655703525000,10.590525146484374,1.373075008392334,0.9994875192642212,-1.7947875261306763
1698079655712944000,10.599944091796875,1.7688000202178955,-0.15867500007152557,-2.273699998855591
1698079655722363400,10.60936328125,1.9912749528884888,-1.2142624855041504,-2.7134249210357666
1698079655731782400,10.618782470703126,2.126849889755249,-1.7920374870300293,-3.027474880218506
1698079655741201700,10.62820166015625,2.2904748916625977,-1.8702750205993652,-3.277862548828125
1698079655750620700,10.63762060546875,2.6142873764038086,-1.5049375295639038,-3.584625005722046
1698079655760040200,10.647040283203125,3.0333874225616455,-1.015025019645691,-3.956012487411499
1698079655769459000,10.656458984375,3.3387749195098877,-0.7694500088691711,-4.349400043487549
1698079655778878200,10.665878173828125,3.5036375522613525,-0.6216375231742859,-4.670599937438965
1698079655788297200,10.675297119140625,3.5928750038146973,-0.1073874980211258,-4.779362678527832
1698079655797716500,10.684716552734375,3.5843498706817627,0.7918624877929688,-4.6340250968933105
1698079655807135500,10.694135498046874,3.4853498935699463,1.9390250444412231,-4.283400058746338
1698079655816554800,10.7035546875,3.1994874477386475,3.0604748725891113,-3.936349868774414
1698079655825974000,10.71297412109375,2.7438125610351562,3.814387559890747,-3.733675003051758
1698079655835393000,10.72239306640625,2.235612392425537,4.177249908447266,-3.6774375438690186
1698079655844812000,10.73181201171875,1.706512451171875,4.206537246704102,-3.6932499408721924
1698079655854231300,10.741231201171875,1.2056000232696533,3.4978625774383545,-3.6810123920440674
1698079655863650300,10.750650390625,0.7561125159263611,2.719749927520752,-3.859487533569336
1698079655873069300,10.7600693359375,0.17448750138282776,2.928612470626831,-4.744024753570557
1698079655882488800,10.76948876953125,-0.3007124960422516,2.4875125885009766,-5.507562637329102
1698079655891907800,10.778907958984375,-0.6830999851226807,1.1852500438690186,-5.580850124359131
1698079655901326800,10.788326904296875,-1.01791250705719,-0.17943750321865082,-5.244937419891357
1698079655910746000,10.79774609375,-1.1987249851226807,-1.2765499353408813,-4.90283727645874
1698079655920165000,10.8071650390625,-1.088724970817566,-2.9258625507354736,-4.869837284088135
1698079655929584400,10.81658447265625,-0.7966749668121338,-4.566649913787842,-4.979700088500977
1698079655939003600,10.826003662109375,-0.4754749834537506,-5.577000141143799,-5.1374125480651855
1698079655948422400,10.83542236328125,-0.20542499423027039,-6.200012683868408,-5.393849849700928
1698079655957841700,10.844841552734374,-0.025849999859929085,-6.373537540435791,-5.667612552642822
1698079655967260700,10.8542607421875,0.13791249692440033,-5.988675117492676,-5.749424934387207
1698079655976680000,10.863679931640625,0.2685374915599823,-5.338712692260742,-5.5918498039245605
1698079655986099000,10.873098876953126,0.4212999939918518,-4.562937259674072,-5.171512603759766
1698079655995518200,10.882518310546875,0.4800125062465668,-3.8824498653411865,-4.734262466430664
1698079656004937200,10.891937255859375,0.4750624895095825,-3.4865875244140625,-4.421450138092041
1698079656014356500,10.9013564453125,0.44948750734329224,-3.1849124431610107,-4.190587520599365
1698079656023775500,10.910775390625,0.2172500044107437,-2.550762414932251,-3.9412999153137207
1698079656033194800,10.92019482421875,-0.2237125039100647,-1.8885624408721924,-3.477099895477295
1698079656042614000,10.929614013671875,-0.4437125027179718,-1.2935999631881714,-2.9541873931884766
1698079656052033000,10.939032958984376,-0.38499999046325684,-0.8428750038146973,-2.5412750244140625
1698079656061452300,10.948452392578124,-0.21518750488758087,-0.7768750190734863,-2.267512559890747
1698079656070871300,10.957871337890625,-0.18713749945163727,-0.8953999876976013,-2.003649950027466
1698079656080290300,10.967290283203125,-0.25189998745918274,-1.2093124389648438,-1.6334999799728394
1698079656089709600,10.97670947265625,-0.3129499852657318,-1.4280749559402466,-1.231587529182434
1698079656099128800,10.98612890625,-0.3777124881744385,-1.509887456893921,-0.8980125188827515
1698079656108547800,10.9955478515625,-0.48276248574256897,-1.1482625007629395,-0.590149998664856
1698079656117966800,11.004966796875,-0.6733375191688538,-1.2007875442504883,-0.443574994802475
1698079656127386000,11.01438623046875,-0.9409124851226807,-1.1482625007629395,-0.3067624866962433
1698079656136805000,11.02380517578125,-1.2903000116348267,-0.7988749742507935,-0.13199999928474426
1698079656146224400,11.033224365234375,-1.6702125072479248,-0.492249995470047,-0.11852499842643738
1698079656155643600,11.0426435546875,-2.0600249767303467,-0.5288249850273132,-0.16128750145435333
1698079656165062400,11.0520625,-2.5242249965667725,-1.2105499505996704,0.08057499676942825
1698079656174481700,11.061481689453124,-2.9053750038146973,-1.3400750160217285,0.4727250039577484
1698079656183901000,11.07090087890625,-2.755087375640869,-0.06710000336170197,0.4141499996185303
1698079656193320000,11.08031982421875,-2.068549871444702,0.6843374967575073,0.0317624993622303
1698079656202739000,11.089739013671876,-1.7984999418258667,-0.718162477016449,0.38843750953674316
1698079656212158200,11.099158203125,-1.9292625188827515,-1.140974998474121,1.0201125144958496
1698079656221577200,11.1085771484375,-1.8352124691009521,0.5365250110626221,1.1459250450134277
1698079656230996500,11.11799658203125,-1.7239749431610107,1.638450026512146,1.364549994468689
1698079656240415500,11.12741552734375,-1.5493500232696533,1.5688749551773071,1.9179874658584595
1698079656249834500,11.13683447265625,-1.5053499937057495,2.516937494277954,2.1012749671936035
1698079656259253500,11.14625341796875,-1.4405875205993652,3.5590500831604004,2.062225103378296
1698079656268672800,11.1556728515625,-1.3000625371932983,3.90348744392395,2.3993749618530273
1698079656278091800,11.165091796875,-1.0617749691009521,3.6848623752593994,2.7768125534057617
1698079656287511000,11.174510986328125,-0.7796249985694885,3.435575008392334,3.0518124103546143
1698079656296930300,11.183930419921875,-0.5255249738693237,3.2499499320983887,3.349912405014038
1698079656306349300,11.193349365234376,-0.3044250011444092,3.286525011062622,3.599062442779541
1698079656315768300,11.202768310546874,-0.16266250610351562,3.400237560272217,3.816587448120117
1698079656325187600,11.2121875,-0.06737499684095383,3.4282875061035156,4.0524001121521
1698079656334606600,11.221606689453125,-0.06861250102519989,3.282949924468994,4.269787311553955
1698079656344025600,11.231025634765626,-0.1601874977350235,3.172950029373169,4.308837413787842
1698079656353444900,11.24044482421875,-0.2714250087738037,3.0079500675201416,4.23678731918335
1698079656362864000,11.249864013671875,-0.3361875116825104,2.6903250217437744,4.0572123527526855
1698079656372283400,11.259283447265625,-0.3484250009059906,2.336124897003174,3.9143500328063965
1698079656381702400,11.268702392578126,-0.24323749542236328,2.095362424850464,3.8068249225616455
1698079656391121700,11.27812158203125,-0.04413750022649765,1.989074945449829,3.671112537384033
1698079656400540700,11.287540771484375,0.18067499995231628,1.9072624444961548,3.514775037765503
1698079656409960000,11.2969599609375,0.38225001096725464,1.9230749607086182,3.3816750049591064
1698079656419379000,11.30637890625,0.5263500213623047,1.9560749530792236,3.2251999378204346
1698079656428798000,11.3157978515625,0.5666375160217285,1.7422624826431274,3.0151000022888184
1698079656438217500,11.325217529296875,0.5300624966621399,1.3330625295639038,2.814762592315674
1698079656447636500,11.334636474609376,0.4298250079154968,0.7723374962806702,2.642474889755249
1698079656457055500,11.344055419921874,0.2502500116825104,0.029424998909235,2.4286625385284424
1698079656466474500,11.353474609375,0.04138749837875366,-0.8391624689102173,2.135512590408325
1698079656475893800,11.362893798828125,-0.14190000295639038,-1.5904624462127686,1.718887448310852
1698079656485312800,11.372312744140626,-0.23842500150203705,-1.8385125398635864,1.2436875104904175
1698079656494731800,11.381731689453124,-0.2677125036716461,-1.9410874843597412,0.840399980545044
1698079656504151300,11.3911513671875,-0.2689499855041504,-2.151324987411499,0.5667750239372253
1698079656513570000,11.400570068359375,-0.2934249937534332,-2.4089999198913574,0.42625001072883606
1698079656522989300,11.4099892578125,-0.34952500462532043,-2.659524917602539,0.3969624936580658
1698079656532408600,11.41940869140625,-0.44123750925064087,-2.7938625812530518,0.43367499113082886
1698079656541827600,11.42882763671875,-0.5670499801635742,-2.6032874584198,0.48867499828338623
1698079656551246800,11.438246826171875,-0.7173374891281128,-2.068274974822998,0.555774986743927
1698079656560665900,11.447665771484376,-0.8798624873161316,-1.3938374519348145,0.669487476348877
1698079656570084900,11.4570849609375,-0.9861499667167664,-0.6131125092506409,0.8856375217437744
1698079656579504000,11.466504150390625,-1.0410125255584717,0.1344749927520752,1.1911624670028687
1698079656588923400,11.47592333984375,-0.9836750030517578,0.720912516117096,1.5050749778747559
1698079656598342400,11.48534228515625,-0.7453874945640564,0.9506750106811523,1.6676000356674194
1698079656607761400,11.494761474609374,-0.3385249972343445,0.9689624905586243,1.7323625087738037
1698079656617180400,11.504180419921875,0.06338749825954437,0.817437469959259,1.7066500186920166
1698079656626599700,11.513599609375,0.3235374987125397,0.7478625178337097,1.6981250047683716
1698079656636018700,11.523018798828126,0.3737249970436096,0.8321499824523926,1.7286499738693237
1698079656645438000,11.53243798828125,0.1732500046491623,1.0837750434875488,1.8251750469207764
1698079656654857200,11.541857177734375,-0.1919499933719635,1.359874963760376,2.1025125980377197
1698079656664276200,11.551276123046875,-0.6648125052452087,1.1852500438690186,2.504425048828125
1698079656673695200,11.5606953125,-1.1620124578475952,0.6868125200271606,2.9075748920440674
1698079656683114500,11.570114501953125,-1.55058753490448,0.030662499368190765,3.283912420272827
1698079656692533800,11.57953369140625,-1.7704499959945679,-0.6143500208854675,3.5538249015808105
1698079656701952500,11.588952392578125,-1.813212513923645,-1.1299749612808228,3.594249963760376
1698079656711372000,11.5983720703125,-1.7374500036239624,-1.5746500492095947,3.365725040435791
1698079656720791000,11.607791015625,-1.5626875162124634,-2.0327999591827393,2.940574884414673
1698079656730210000,11.6172099609375,-1.2878249883651733,-2.4762375354766846,2.427424907684326
1698079656739629000,11.626629150390626,-1.069200038909912,-2.836625099182129,1.9217000007629395
1698079656749048300,11.63604833984375,-0.9189124703407288,-3.1714375019073486,1.5893625020980835
1698079656758467600,11.645467529296875,-0.7588624954223633,-3.352250099182129,1.4048374891281128
1698079656767886600,11.654886474609375,-0.5170000195503235,-3.29229998588562,1.3182125091552734
1698079656777305900,11.664305908203126,-0.23842500150203705,-3.1176750659942627,1.2864500284194946
1698079656786724900,11.673724853515624,-0.05142499879002571,-2.874574899673462,1.0969749689102173
1698079656796143900,11.683143798828125,-0.062424998730421066,-2.3101375102996826,0.608299970626831
1698079656805563100,11.692563232421875,-0.14794999361038208,-1.0957374572753906,-0.2712875008583069
1698079656814982100,11.701982177734376,-0.19813749194145203,0.738099992275238,-1.3391125202178955
1698079656824401400,11.7114013671875,-0.201712504029274,2.8773250579833984,-2.276175022125244
1698079656833820400,11.7208203125,-0.22618749737739563,4.585212707519531,-2.925999879837036
1698079656843239700,11.73023974609375,-0.2872374951839447,5.376937389373779,-3.4049124717712402
1698079656852658700,11.73965869140625,-0.31776249408721924,5.3121747970581055,-3.8130123615264893
1698079656862077700,11.74907763671875,-0.2237125039100647,4.5999250411987305,-4.155112266540527
1698079656871496700,11.75849658203125,0.007149999961256981,3.804487466812134,-4.36644983291626
1698079656880916200,11.767916259765625,0.3102000057697296,3.5406250953674316,-4.478924751281738
1698079656890335200,11.777335205078124,0.6143500208854675,3.4685750007629395,-4.4544501304626465
1698079656899754200,11.786754150390625,0.7474499940872192,3.082474946975708,-4.384737491607666
1698079656909173200,11.79617333984375,0.6778749823570251,2.342175006866455,-4.338399887084961
1698079656918592500,11.805592529296876,0.6803500056266785,1.675162434577942,-4.2638750076293945
1698079656928011500,11.815011474609374,0.9124500155448914,1.5419249534606934,-4.13311243057251
1698079656937430800,11.8244306640625,1.1580250263214111,1.6286875009536743,-3.9523000717163086
1698079656946849800,11.833849853515625,1.2703624963760376,1.2988250255584717,-3.672487497329712
1698079656956268800,11.843268798828126,1.3413125276565552,0.34595000743865967,-3.237575054168701
1698079656965687800,11.852687744140624,1.3888875246047974,-1.2460249662399292,-2.7599000930786133
1698079656975107300,11.862107421875,1.2667875289916992,-2.4591875076293945,-2.9957125186920166
1698079656984526300,11.8715263671875,1.106737494468689,-2.5251874923706055,-4.041537284851074
1698079656993945300,11.8809453125,1.0810250043869019,-1.3853124380111694,-4.893074989318848
1698079657003364400,11.8903642578125,0.9136874675750732,0.1321374922990799,-4.835599899291992
1698079657012783900,11.899783935546875,0.4763000011444092,0.8381999731063843,-4.2479248046875
1698079657022202600,11.90920263671875,-0.007562499959021807,0.14423750340938568,-3.91682505607605
1698079657031621600,11.91862158203125,-0.3031874895095825,-1.3144999742507935,-4.058587551116943
1698079657041041200,11.928041259765624,-0.2529999911785126,-2.4762375354766846,-4.471499919891357
1698079657050460200,11.937460205078125,0.049912501126527786,-3.1006250381469727,-4.949174880981445
