time,seconds_elapsed,z,y,x
1701881284783064800,0.16406494140625,7.646647930145264,5.864492893218994,1.8184844255447388
1701881284792657200,0.1736572265625,7.49551248550415,6.157777309417725,1.4385576248168945
1701881284802250200,0.183250244140625,7.48475456237793,6.244736671447754,1.0733613967895508
1701881284811842600,0.192842529296875,7.517375946044922,6.244229316711426,0.8179500102996826
1701881284821434000,0.20243408203125,7.560062885284424,6.221972942352295,0.550347626209259
1701881284831026400,0.2120263671875,7.616216659545898,6.167172431945801,0.3600021004676819
1701881284840619500,0.22161962890625,7.6826934814453125,6.087637424468994,0.2954261600971222
1701881284850211800,0.2312119140625,7.747818470001221,6.003551006317139,0.3147657811641693
1701881284859803100,0.24080322265625,7.806704044342041,5.9238080978393555,0.36640653014183044
1701881284869395700,0.250395751953125,7.836511611938477,5.8759002685546875,0.48298218846321106
1701881284878988800,0.25998876953125,7.853391647338867,5.8355607986450195,0.6639717221260071
1701881284888580900,0.269580810546875,7.858429431915283,5.797897815704346,0.8943485021591187
1701881284898172400,0.27917236328125,7.836337089538574,5.782827854156494,1.149396300315857
1701881284907764700,0.2887646484375,7.800893783569336,5.77681827545166,1.394564151763916
1701881284917357800,0.29835791015625,7.767467498779297,5.771979331970215,1.5877941846847534
1701881284926950100,0.3079501953125,7.724931716918945,5.789788722991943,1.7245798110961914
1701881284936541700,0.317541748046875,7.677637100219727,5.826889514923096,1.8087661266326904
1701881284946134000,0.327134033203125,7.6322922706604,5.872552871704102,1.8524665832519531
1701881284955727000,0.33672705078125,7.583010673522949,5.927039623260498,1.8811008930206299
1701881284965319400,0.3463193359375,7.528278827667236,5.984519958496094,1.9185764789581299
1701881284974910700,0.35591064453125,7.469583988189697,6.036007404327393,1.985527753829956
1701881284984503000,0.3655029296875,7.405933856964111,6.078130722045898,2.0925707817077637
1701881284994096000,0.37509619140625,7.338189601898193,6.112656593322754,2.226383924484253
1701881285003688400,0.3846884765625,7.268166542053223,6.141720294952393,2.3713746070861816
1701881285013280000,0.394280029296875,7.1996750831604,6.16295862197876,2.5205187797546387
1701881285022872300,0.403872314453125,7.149120330810547,6.161350727081299,2.6642508506774902
1701881285032465400,0.41346533203125,7.111047267913818,6.14453125,2.801452875137329
1701881285042057700,0.4230576171875,7.077579975128174,6.118987083435059,2.938746929168701
1701881285051649300,0.432649169921875,7.0378313064575195,6.0997700691223145,3.0711748600006104
1701881285061241600,0.44224169921875,6.993926048278809,6.09028434753418,3.188075542449951
1701881285070834700,0.451834716796875,6.954720973968506,6.082623481750488,3.2869341373443604
1701881285080426800,0.4614267578125,6.925508499145508,6.070122718811035,3.3706564903259277
1701881285090018300,0.471018310546875,6.902975559234619,6.051581859588623,3.4493014812469482
1701881285099610600,0.480610595703125,6.88415002822876,6.021682262420654,3.5381081104278564
1701881285109203700,0.49020361328125,6.862036228179932,5.977961540222168,3.6533291339874268
1701881285118796000,0.499796142578125,6.828424453735352,5.926742076873779,3.7969393730163574
1701881285128387600,0.5093876953125,6.780747890472412,5.873339653015137,3.9617831707000732
1701881285137980000,0.51897998046875,6.7213969230651855,5.818019390106201,4.140513896942139
1701881285147573000,0.528572998046875,6.652810096740723,5.7604498863220215,4.3275532722473145
1701881285157165300,0.538165283203125,6.571899890899658,5.691949844360352,4.536764621734619
1701881285166756900,0.5477568359375,6.4923095703125,5.629751682281494,4.72506046295166
1701881285176349200,0.55734912109375,6.405086517333984,5.578402519226074,4.901701927185059
1701881285185942300,0.5669423828125,6.315082550048828,5.537465572357178,5.062271595001221
1701881285195534300,0.576534423828125,6.22999906539917,5.505385875701904,5.200789928436279
1701881285205126000,0.5861259765625,6.155505657196045,5.479656219482422,5.315401554107666
1701881285214718200,0.59571826171875,6.095737457275391,5.454536437988281,5.4092888832092285
1701881285224311300,0.605311279296875,6.049193859100342,5.424365520477295,5.491257190704346
1701881285233903600,0.614903564453125,6.011110305786133,5.387434482574463,5.5688862800598145
1701881285243495200,0.6244951171875,5.9746809005737305,5.343723297119141,5.649619102478027
1701881285253087500,0.63408740234375,5.934004783630371,5.293038368225098,5.739488124847412
1701881285262680600,0.6436806640625,5.88175630569458,5.235805511474609,5.844798564910889
1701881285272273000,0.65327294921875,5.814225196838379,5.176118850708008,5.9643073081970215
1701881285281864200,0.6628642578125,5.730370044708252,5.117941379547119,6.094254970550537
1701881285291456800,0.672456787109375,5.629347324371338,5.061792373657227,6.233705997467041
1701881285301049600,0.682049560546875,5.510232925415039,5.007750511169434,6.38201904296875
1701881285310642000,0.691641845703125,5.373479843139648,4.953216075897217,6.539247989654541
1701881285320233500,0.7012333984375,5.225601673126221,4.897583484649658,6.699041366577148
1701881285329825800,0.71082568359375,5.076838493347168,4.842129707336426,6.8519978523254395
1701881285339419000,0.7204189453125,4.931707382202148,4.78266716003418,6.998195648193359
1701881285349011200,0.73001123046875,4.790657043457031,4.714466571807861,7.140993595123291
1701881285358602800,0.739602783203125,4.651098251342773,4.633460998535156,7.284827709197998
1701881285368195000,0.749195068359375,4.521308422088623,4.532855033874512,7.428417205810547
1701881285377788200,0.7587880859375,4.381315231323242,4.424128532409668,7.576380729675293
1701881285387380200,0.768380126953125,4.215661525726318,4.314698696136475,7.731879234313965
1701881285396971800,0.7779716796875,4.034793376922607,4.21420955657959,7.882339000701904
1701881285406564400,0.787564453125,3.843698024749756,4.127406120300293,8.022522926330566
1701881285416157400,0.797157470703125,3.645608901977539,4.058783054351807,8.148999214172363
1701881285425749500,0.80674951171875,3.446887731552124,4.010049343109131,8.258864402770996
1701881285435341000,0.816341064453125,3.2566633224487305,3.9804224967956543,8.349896430969238
1701881285444933400,0.825933349609375,3.0927894115448,3.965843915939331,8.418855667114258
1701881285454526500,0.8355263671875,2.9764444828033447,3.963963508605957,8.461569786071777
1701881285464118800,0.845118896484375,2.9124879837036133,3.966153383255005,8.482772827148438
1701881285473710300,0.85471044921875,2.893527030944824,3.9604663848876953,8.491912841796875
1701881285483302700,0.864302734375,2.9177048206329346,3.9403932094573975,8.492979049682617
1701881285492895700,0.873895751953125,2.98799467086792,3.9063024520874023,8.484283447265625
1701881285502487800,0.88348779296875,3.098881483078003,3.8588078022003174,8.46622371673584
1701881285512079400,0.893079345703125,3.241865873336792,3.7978549003601074,8.440201759338379
1701881285521671700,0.902671630859375,3.412050485610962,3.7262885570526123,8.404942512512207
1701881285531264800,0.9122646484375,3.6024527549743652,3.646564483642578,8.360340118408203
1701881285540857000,0.921857177734375,3.805842638015747,3.557035446166992,8.308635711669922
1701881285550448600,0.93144873046875,4.017508029937744,3.456083059310913,8.251394271850586
1701881285560041000,0.941041015625,4.2337260246276855,3.343568801879883,8.189413070678711
1701881285569634000,0.950634033203125,4.455789566040039,3.2204747200012207,8.120644569396973
1701881285579226400,0.960226318359375,4.674188137054443,3.096381902694702,8.045792579650879
1701881285588817700,0.969817626953125,4.871339321136475,2.9771602153778076,7.973516464233398
1701881285598410200,0.97941015625,5.045663356781006,2.8696987628936768,7.904207706451416
1701881285608003300,0.98900341796875,5.195378303527832,2.780043840408325,7.838991165161133
1701881285617595400,0.998595458984375,5.313845157623291,2.7094130516052246,7.78411865234375
1701881285627187000,1.00818701171875,5.398635387420654,2.6549923419952393,7.7444257736206055
1701881285636779300,1.017779296875,5.452060699462891,2.6144280433654785,7.720763683319092
1701881285646372400,1.027372314453125,5.478114128112793,2.5835013389587402,7.7127275466918945
1701881285655964700,1.036964599609375,5.480215549468994,2.558034658432007,7.719720363616943
1701881285665556200,1.04655615234375,5.461920261383057,2.533344268798828,7.740799903869629
1701881285675148500,1.0561484375,5.42755126953125,2.5052621364593506,7.774042129516602
1701881285684741600,1.06574169921875,5.381150722503662,2.4711010456085205,7.817113399505615
1701881285694334000,1.075333984375,5.324790000915527,2.430485725402832,7.868273735046387
1701881285703925200,1.08492529296875,5.260154724121094,2.3840885162353516,7.925734996795654
1701881285713517600,1.094517578125,5.188827991485596,2.333162784576416,7.987666130065918
1701881285723111000,1.10411083984375,5.1119208335876465,2.2776575088500977,8.053008079528809
1701881285732703000,1.113702880859375,5.03226900100708,2.217564344406128,8.119670867919922
1701881285742294500,1.12329443359375,4.952439785003662,2.152555465698242,8.185977935791016
1701881285751886800,1.132886962890625,4.872091770172119,2.0811619758605957,8.252386093139648
1701881285761480000,1.14247998046875,4.789031982421875,2.0023136138916016,8.320234298706055
1701881285771072300,1.152072265625,4.702802658081055,1.916371464729309,8.389371871948242
1701881285780663800,1.161663818359375,4.614511013031006,1.8221086263656616,8.459113121032715
1701881285790256000,1.171256103515625,4.521956920623779,1.7172430753707886,8.530731201171875
1701881285799849200,1.18084912109375,4.420219421386719,1.598570466041565,8.60677719116211
1701881285809441300,1.190441162109375,4.302982807159424,1.4628759622573853,8.689920425415039
1701881285819032800,1.20003271484375,4.162383556365967,1.30691659450531,8.782763481140137
1701881285828625400,1.20962548828125,3.9929444789886475,1.1303706169128418,8.885327339172363
1701881285838218200,1.21921826171875,3.797189235687256,0.9371351003646851,8.992971420288086
1701881285847810600,1.228810546875,3.5862250328063965,0.7341940999031067,9.097820281982422
1701881285857402000,1.238402099609375,3.3717148303985596,0.5295785069465637,9.193554878234863
1701881285866994400,1.247994384765625,3.159709930419922,0.3248406648635864,9.277989387512207
1701881285876587500,1.25758740234375,2.9551076889038086,0.11426208913326263,9.350115776062012
1701881285886179800,1.267179931640625,2.7611241340637207,-0.10838590562343597,9.409294128417969
1701881285895771400,1.276771484375,2.576876401901245,-0.3436746895313263,9.455791473388672
1701881285905363700,1.28636376953125,2.4025769233703613,-0.590263307094574,9.489446640014648
1701881285914956800,1.295956787109375,2.239295244216919,-0.846436619758606,9.509967803955078
1701881285924548900,1.305548828125,2.080601930618286,-1.1108864545822144,9.518792152404785
1701881285934140400,1.315140380859375,1.9181281328201294,-1.385526180267334,9.516904830932617
1701881285943732700,1.324732666015625,1.7487239837646484,-1.67259681224823,9.503408432006836
1701881285953325800,1.334325927734375,1.5705540180206299,-1.9727026224136353,9.476929664611816
1701881285962918100,1.343918212890625,1.386769413948059,-2.2851850986480713,9.43531608581543
1701881285972509700,1.353509765625,1.2072193622589111,-2.6070261001586914,9.376376152038574
1701881285982102000,1.36310205078125,1.0426504611968994,-2.9353840351104736,9.298751831054688
1701881285991695000,1.372695068359375,0.9010453820228577,-3.264716148376465,9.203268051147461
1701881286001287400,1.382287353515625,0.7875880002975464,-3.5875794887542725,9.092819213867188
1701881286010878700,1.391878662109375,0.698852002620697,-3.89577317237854,8.972455024719238
1701881286020471300,1.40147119140625,0.6224192976951599,-4.188899040222168,8.845117568969727
1701881286030064000,1.411064208984375,0.548909068107605,-4.470261096954346,8.711248397827148
1701881286039656400,1.420656494140625,0.47928479313850403,-4.740610599517822,8.571306228637695
1701881286049248000,1.430248046875,0.4198282063007355,-5.000830173492432,8.425309181213379
1701881286058840300,1.43984033203125,0.3749676048755646,-5.25435733795166,8.271729469299316
1701881286068433400,1.449433349609375,0.34376272559165955,-5.5012526512146,8.111006736755371
1701881286078025700,1.459025634765625,0.3201780319213867,-5.737428665161133,7.946683883666992
1701881286087617300,1.4686171875,0.29567795991897583,-5.958773136138916,7.783057689666748
1701881286097209600,1.478209716796875,0.24729350209236145,-6.156679153442383,7.629189491271973
1701881286106802700,1.487802734375,0.15898682177066803,-6.326308727264404,7.491523742675781
1701881286116394800,1.497394775390625,0.04626581072807312,-6.475557327270508,7.364469528198242
1701881286125986300,1.506986328125,-0.07013042271137238,-6.611579895019531,7.242409706115723
1701881286135578600,1.51657861328125,-0.1704508662223816,-6.74494743347168,7.116671562194824
1701881286145171700,1.526171630859375,-0.24952714145183563,-6.88193941116333,6.981907367706299
1701881286154764000,1.535763916015625,-0.3057286739349365,-7.016397476196289,6.8444929122924805
1701881286164355600,1.54535546875,-0.2789405584335327,-7.066112995147705,6.794308662414551
1701881286173948000,1.554947998046875,-0.1585972160100937,-7.081421852111816,6.782234191894531
1701881286183541000,1.564541015625,-0.0752081573009491,-7.141841888427734,6.720031261444092
1701881286193133300,1.57413330078125,-0.030827127397060394,-7.232409477233887,6.6228156089782715
1701881286202724900,1.583724853515625,0.029959825798869133,-7.331871509552002,6.512538909912109
1701881286212317200,1.593317138671875,0.10267544537782669,-7.423986911773682,6.406579494476318
1701881286221910300,1.60291015625,0.13671086728572845,-7.499492645263672,6.317380428314209
1701881286231502300,1.61250244140625,0.12337812036275864,-7.568264007568359,6.235105037689209
1701881286241094000,1.622093994140625,0.09312637150287628,-7.638632297515869,6.149229049682617
1701881286250686200,1.631686279296875,0.07739429920911789,-7.718585968017578,6.048787593841553
1701881286260279300,1.641279296875,0.09895452857017517,-7.789721488952637,5.956579208374023
1701881286269871600,1.65087158203125,0.14877033233642578,-7.857173919677734,5.866266250610352
1701881286279463200,1.660463134765625,0.1963813751935959,-7.9303789138793945,5.7654924392700195
1701881286289055500,1.670055419921875,0.2336716204881668,-8.00910758972168,5.654201030731201
1701881286298648600,1.679648681640625,0.2646375000476837,-8.089838981628418,5.536682605743408
1701881286308241000,1.689240966796875,0.2958071231842041,-8.171341896057129,5.414060115814209
1701881286317832400,1.69883251953125,0.3268241584300995,-8.25649642944336,5.281461715698242
1701881286327424800,1.7084248046875,0.34634512662887573,-8.340415000915527,5.146640777587891
1701881286337017900,1.718017822265625,0.3568217158317566,-8.417695999145508,5.018510818481445
1701881286346610000,1.72760986328125,0.3750690221786499,-8.496054649353027,4.883315563201904
1701881286356201500,1.737201416015625,0.3949190378189087,-8.56697940826416,4.7561845779418945
1701881286365793800,1.746793701171875,0.42067092657089233,-8.631309509277344,4.6361541748046875
1701881286375387000,1.756386962890625,0.45192018151283264,-8.687700271606445,4.526591777801514
1701881286384979200,1.765979248046875,0.48389118909835815,-8.741238594055176,4.418934345245361
1701881286394570800,1.77557080078125,0.5232127904891968,-8.796089172363281,4.304121971130371
1701881286404163000,1.7851630859375,0.5535931587219238,-8.85133171081543,4.185433864593506
1701881286413756200,1.794756103515625,0.5525756478309631,-8.90552806854248,4.068982124328613
1701881286423348500,1.804348388671875,0.5311896204948425,-8.959342002868652,3.9520156383514404
1701881286432939800,1.813939697265625,0.5019853711128235,-9.010287284851074,3.8383748531341553
1701881286442532000,1.823531982421875,0.45914262533187866,-9.053107261657715,3.7417681217193604
1701881286452125200,1.833125244140625,0.411586731672287,-9.091291427612305,3.653684139251709
1701881286461717500,1.842717529296875,0.3562661111354828,-9.124773025512695,3.575190544128418
1701881286471309000,1.85230908203125,0.2915259003639221,-9.151962280273438,3.5109832286834717
1701881286480901400,1.8619013671875,0.22507253289222717,-9.17324447631836,3.45995831489563
1701881286490494500,1.871494384765625,0.15929347276687622,-9.193401336669922,3.4097490310668945
1701881286500086800,1.881086669921875,0.08891795575618744,-9.214502334594727,3.354910135269165
1701881286509678000,1.890677978515625,0.019277509301900864,-9.237920761108398,3.291022300720215
1701881286519270700,1.900270751953125,-0.039800044149160385,-9.262322425842285,3.221517562866211
1701881286528863700,1.90986376953125,-0.08911501616239548,-9.287564277648926,3.146996259689331
1701881286538455800,1.919455810546875,-0.1312737762928009,-9.313199043273926,3.0687904357910156
1701881286548047400,1.92904736328125,-0.1712426394224167,-9.338468551635742,2.9889888763427734
1701881286557639700,1.9386396484375,-0.20994998514652252,-9.362676620483398,2.9097392559051514
1701881286567232800,1.948232666015625,-0.24862118065357208,-9.386181831359863,2.829871892929077
1701881286576825000,1.9578251953125,-0.2868135869503021,-9.408820152282715,2.7499494552612305
1701881286586416600,1.967416748046875,-0.3224560618400574,-9.430074691772461,2.6720995903015137
1701881286596009000,1.977009033203125,-0.3517165780067444,-9.449869155883789,2.5974323749542236
1701881286605602000,1.98660205078125,-0.3745727241039276,-9.468863487243652,2.524024486541748
1701881286615194400,1.9961943359375,-0.39178165793418884,-9.485883712768555,2.4566025733947754
1701881286624785700,2.00578564453125,-0.40698835253715515,-9.500614166259766,2.396468162536621
1701881286634378000,2.0153779296875,-0.42332836985588074,-9.513434410095215,2.3421640396118164
1701881286643971000,2.02497119140625,-0.44198283553123474,-9.52424144744873,2.2943146228790283
1701881286653563400,2.0345634765625,-0.46050825715065,-9.5324068069458,2.25644588470459
1701881286663155000,2.044155029296875,-0.47726261615753174,-9.537579536437988,2.2309608459472656
1701881286672747300,2.053747314453125,-0.4920065104961395,-9.540782928466797,2.213994026184082
1701881286682340400,2.06334033203125,-0.4982012212276459,-9.54737663269043,2.1839821338653564
1701881286691932700,2.0729326171875,-0.5074529051780701,-9.566596984863281,2.0959701538085938
1701881286701524200,2.082524169921875,-0.5150983929634094,-9.596810340881348,1.950972080230713
1701881286711116500,2.092116455078125,-0.5097410678863525,-9.633682250976562,1.7614513635635376
1701881286720709600,2.101709716796875,-0.4797084629535675,-9.671215057373047,1.551729679107666
1701881286730301700,2.1113017578125,-0.43651387095451355,-9.70114803314209,1.3665883541107178
1701881286739893200,2.120893310546875,-0.3975616991519928,-9.725751876831055,1.1925138235092163
1701881286749485600,2.130485595703125,-0.36863240599632263,-9.745944023132324,1.025220513343811
1701881286759078700,2.14007861328125,-0.3280719518661499,-9.762269020080566,0.8722609877586365
1701881286768671000,2.1496708984375,-0.26038914918899536,-9.7754487991333,0.7370189428329468
1701881286778262500,2.159262451171875,-0.1938040554523468,-9.784473419189453,0.6300140023231506
1701881286787854800,2.168854736328125,-0.12139438837766647,-9.789138793945312,0.5730850696563721
1701881286797448000,2.178447998046875,-0.03689831867814064,-9.789203643798828,0.5835378766059875
1701881286807040300,2.188040283203125,0.04486539959907532,-9.784994125366211,0.6498265266418457
1701881286816631600,2.197631591796875,0.1083265095949173,-9.777603149414062,0.746417224407196
1701881286826224000,2.20722412109375,0.11169830709695816,-9.770452499389648,0.8343638777732849
1701881286835817200,2.216817138671875,0.0335877351462841,-9.766578674316406,0.8849857449531555
1701881286845409300,2.2264091796875,-0.14280711114406586,-9.764820098876953,0.8934549689292908
1701881286855000800,2.236000732421875,-0.3612484037876129,-9.760659217834473,0.8771787881851196
1701881286864593200,2.24559326171875,-0.5265968441963196,-9.7543306350708,0.8637810945510864
1701881286874186200,2.255186279296875,-0.5897874236106873,-9.75427532196045,0.8225888609886169
1701881286883778600,2.264778564453125,-0.565122127532959,-9.76906967163086,0.6452150344848633
1701881286893370000,2.2743701171875,-0.553645670413971,-9.784884452819824,0.3462626338005066
1701881286902962400,2.28396240234375,-0.5414277911186218,-9.790575981140137,0.14783577620983124
1701881286912555500,2.293555419921875,-0.5067425966262817,-9.791749000549316,0.18773125112056732
1701881286922147600,2.303147705078125,-0.4757593870162964,-9.791604042053223,0.261770635843277
1701881286931739100,2.3127392578125,-0.4634002447128296,-9.791489601135254,0.2870153784751892
1701881286941331500,2.32233154296875,-0.4686058461666107,-9.791203498840332,0.28832319378852844
1701881286950924500,2.331924560546875,-0.47099706530570984,-9.790923118591309,0.29390740394592285
1701881286960516900,2.341516845703125,-0.476026713848114,-9.790667533874512,0.29433122277259827
1701881286970108400,2.3511083984375,-0.4873482286930084,-9.790245056152344,0.2897716164588928
1701881286979700700,2.36070068359375,-0.5012975931167603,-9.789835929870605,0.27962687611579895
1701881286989293800,2.3702939453125,-0.5143186450004578,-9.789534568786621,0.2662191092967987
1701881286998886100,2.37988623046875,-0.5274938344955444,-9.789173126220703,0.25345003604888916
1701881287008477700,2.389477783203125,-0.542514443397522,-9.788582801818848,0.24434630572795868
1701881287018070000,2.399070068359375,-0.5601840019226074,-9.787710189819336,0.23940719664096832
1701881287027663000,2.4086630859375,-0.5821941494941711,-9.786458969116211,0.23803716897964478
1701881287037255200,2.418255126953125,-0.6094722151756287,-9.784774780273438,0.23900243639945984
1701881287046846700,2.4278466796875,-0.6418235301971436,-9.78265380859375,0.24111966788768768
1701881287056439000,2.43743896484375,-0.6796700954437256,-9.780011177062988,0.24461467564105988
1701881287066032000,2.4470322265625,-0.7239331603050232,-9.776690483093262,0.250273197889328
1701881287075624400,2.45662451171875,-0.7725866436958313,-9.772751808166504,0.25847625732421875
1701881287085216000,2.466216064453125,-0.8187208771705627,-9.768638610839844,0.27165043354034424
1701881287094808300,2.475808349609375,-0.8554348945617676,-9.764928817749023,0.29117345809936523
1701881287104401400,2.4854013671875,-0.8851358890533447,-9.761697769165039,0.31010961532592773
1701881287113993500,2.494993408203125,-0.9069780707359314,-9.759603500366211,0.3129234313964844
1701881287123585000,2.5045849609375,-0.9186513423919678,-9.758896827697754,0.3006925582885742
1701881287133177600,2.514177490234375,-0.915546715259552,-9.759883880615234,0.2771729528903961
1701881287142770400,2.5237705078125,-0.909818172454834,-9.76130485534668,0.2440500110387802
1701881287152362800,2.53336279296875,-0.9234611988067627,-9.760519027709961,0.2233462631702423
1701881287161954300,2.542954345703125,-0.9367562532424927,-9.759227752685547,0.22436998784542084
1701881287171546600,2.552546630859375,-0.9423295855522156,-9.75852108001709,0.23165202140808105
1701881287181139700,2.5621396484375,-0.942721426486969,-9.758231163024902,0.24203971028327942
1701881287190732000,2.57173193359375,-0.9395374655723572,-9.758150100708008,0.2572166621685028
1701881287200323600,2.581323486328125,-0.9331119656562805,-9.758333206176758,0.2731710970401764
1701881287209916000,2.590916015625,-0.9271214008331299,-9.758514404296875,0.2867656648159027
1701881287219509000,2.600509033203125,-0.9230169653892517,-9.758573532104492,0.29777470231056213
1701881287229101000,2.61010107421875,-0.9202002286911011,-9.75857925415039,0.3061830401420593
1701881287238692600,2.619692626953125,-0.9179759621620178,-9.758598327636719,0.31221193075180054
1701881287248285000,2.629284912109375,-0.9153688549995422,-9.758697509765625,0.3167341649532318
1701881287257878000,2.6388779296875,-0.9125967025756836,-9.758837699890137,0.32038000226020813
1701881287267470300,2.64847021484375,-0.9098031520843506,-9.758989334106445,0.3236747086048126
1701881287277062000,2.658061767578125,-0.9067853093147278,-9.75915813446045,0.3270494043827057
1701881287286654200,2.667654296875,-0.9035208225250244,-9.759334564208984,0.330810546875
1701881287296247300,2.677247314453125,-0.8996530175209045,-9.759550094604492,0.33496156334877014
1701881287305839600,2.686839599609375,-0.8949757814407349,-9.759821891784668,0.33951202034950256
1701881287315431000,2.696430908203125,-0.889694094657898,-9.760140419006348,0.3442297577857971
1701881287325023500,2.7060234375,-0.8837792873382568,-9.76052188873291,0.3486069440841675
1701881287334616300,2.7156162109375,-0.8769242167472839,-9.761003494262695,0.3524310290813446
1701881287344208600,2.725208740234375,-0.8689908981323242,-9.761606216430664,0.35535141825675964
1701881287353800200,2.73480029296875,-0.8603422045707703,-9.762295722961426,0.35747596621513367
1701881287363392500,2.744392578125,-0.8513335585594177,-9.763046264648438,0.3585240840911865
1701881287372985600,2.753985595703125,-0.8425968885421753,-9.763802528381348,0.35855725407600403
1701881287382578000,2.763577880859375,-0.8347727656364441,-9.764514923095703,0.3574761152267456
1701881287392169500,2.77316943359375,-0.8280490040779114,-9.765164375305176,0.3553774356842041
1701881287401761800,2.78276171875,-0.8223957419395447,-9.765738487243652,0.3527297377586365
1701881287411355000,2.79235498046875,-0.8178934454917908,-9.766207695007324,0.3501759469509125
1701881287420947000,2.801947021484375,-0.8142610788345337,-9.766566276550293,0.3486427366733551
1701881287430538500,2.81153857421875,-0.8114734292030334,-9.766806602478027,0.34843745827674866
1701881287440130800,2.821130859375,-0.8091095685958862,-9.766961097717285,0.34958621859550476
1701881287449724000,2.830723876953125,-0.8070391416549683,-9.767038345336914,0.3522047698497772
1701881287459316200,2.840316162109375,-0.8053127527236938,-9.767045974731445,0.3559061884880066
1701881287468907800,2.84990771484375,-0.803825318813324,-9.766986846923828,0.36087724566459656
1701881287478500000,2.8595,-0.8023667335510254,-9.766873359680176,0.36712825298309326
1701881287488093200,2.86909326171875,-0.8007007837295532,-9.766759872436523,0.3737265467643738
1701881287497685500,2.878685546875,-0.7986063361167908,-9.766695976257324,0.3798256814479828
1701881287507276800,2.88827685546875,-0.7956998348236084,-9.766735076904297,0.38488125801086426
1701881287516869400,2.897869384765625,-0.7912725210189819,-9.766939163208008,0.3888132572174072
1701881287526462200,2.907462158203125,-0.7852571606636047,-9.76733112335205,0.39115896821022034
1701881287536054500,2.917054443359375,-0.7773738503456116,-9.767989158630371,0.3904573321342468
1701881287545646000,2.92664599609375,-0.7676827311515808,-9.76890754699707,0.3866485357284546
1701881287555238400,2.93623828125,-0.7562611103057861,-9.770088195800781,0.37926918268203735
1701881287564831500,2.94583154296875,-0.7429305911064148,-9.771509170532227,0.36885419487953186
1701881287574423800,2.955423828125,-0.7277539372444153,-9.773099899291992,0.3567664921283722
1701881287584015400,2.965015380859375,-0.7106702327728271,-9.77482795715332,0.34362536668777466
1701881287593607700,2.974607666015625,-0.6919980049133301,-9.776644706726074,0.32977497577667236
1701881287603200800,2.98420068359375,-0.6718994379043579,-9.778517723083496,0.3154670298099518
1701881287612792800,2.993792724609375,-0.6507928371429443,-9.780396461486816,0.3011605143547058
1701881287622384400,3.00338427734375,-0.6293443441390991,-9.782233238220215,0.28676190972328186
1701881287631976700,3.012976806640625,-0.6082935929298401,-9.78398323059082,0.27210086584091187
1701881287641569800,3.02256982421875,-0.58836829662323,-9.785608291625977,0.25706931948661804
1701881287651162000,3.032162109375,-0.570309579372406,-9.78708267211914,0.24117982387542725
1701881287660753700,3.041753662109375,-0.5540860295295715,-9.788403511047363,0.22480134665966034
1701881287670346000,3.051345947265625,-0.5396024584770203,-9.789589881896973,0.2077188640832901
1701881287679939000,3.06093896484375,-0.5267744660377502,-9.79064655303955,0.1901094615459442
1701881287689531400,3.070531494140625,-0.5150856375694275,-9.791595458984375,0.17243504524230957
1701881287699122700,3.080122802734375,-0.5040313005447388,-9.792459487915039,0.15519782900810242
1701881287708715000,3.089715087890625,-0.4932771623134613,-9.793258666992188,0.1384751945734024
1701881287718308000,3.09930810546875,-0.4828457236289978,-9.793989181518555,0.12259814888238907
1701881287727900400,3.108900390625,-0.47234851121902466,-9.794675827026367,0.107699453830719
1701881287737492000,3.118491943359375,-0.46194031834602356,-9.795312881469727,0.09411337971687317
1701881287747084300,3.128084228515625,-0.45173022150993347,-9.7958984375,0.08182255178689957
1701881287756677400,3.137677490234375,-0.4418776035308838,-9.796433448791504,0.07097768783569336
1701881287766269700,3.147269775390625,-0.432170569896698,-9.796928405761719,0.0616573728621006
1701881287775861200,3.156861328125,-0.42293140292167664,-9.797378540039062,0.05359397456049919
1701881287785453600,3.16645361328125,-0.413750022649765,-9.797805786132812,0.046888574957847595
1701881287795046700,3.176046630859375,-0.40444278717041016,-9.798218727111816,0.04145097732543945
1701881287804638700,3.185638671875,-0.3947843015193939,-9.798630714416504,0.03703279048204422
1701881287814230300,3.195230224609375,-0.38473647832870483,-9.799042701721191,0.03338199853897095
1701881287823822600,3.204822509765625,-0.37421879172325134,-9.799461364746094,0.029945822432637215
1701881287833415700,3.214415771484375,-0.3633898198604584,-9.79987907409668,0.026497114449739456
1701881287843008000,3.224008056640625,-0.3523564040660858,-9.800292015075684,0.02283340133726597
1701881287852599600,3.233599609375,-0.3417212665081024,-9.800676345825195,0.018514709547162056
1701881287862191900,3.24319189453125,-0.3319950997829437,-9.801019668579102,0.013232829049229622
1701881287871785000,3.252784912109375,-0.323314905166626,-9.801316261291504,0.006640222854912281
1701881287881377300,3.262377197265625,-0.31576666235923767,-9.80156421661377,-0.0007765111513435841
1701881287890968600,3.271968505859375,-0.3094637989997864,-9.801762580871582,-0.009060002863407135
1701881287900561000,3.281560791015625,-0.3046959638595581,-9.801898956298828,-0.018321959301829338
1701881287910154000,3.291154052734375,-0.30165553092956543,-9.801968574523926,-0.028074178844690323
1701881287919746300,3.300746337890625,-0.2996344268321991,-9.801997184753418,-0.03805791959166527
1701881287929337900,3.310337890625,-0.29822981357574463,-9.801996231079102,-0.04824220389127731
1701881287938930200,3.31993017578125,-0.2970493733882904,-9.80197811126709,-0.05808699503540993
1701881287948523300,3.329523193359375,-0.29571977257728577,-9.801958084106445,-0.06744446605443954
1701881287958115600,3.339115478515625,-0.2928699851036072,-9.801982879638672,-0.07574599981307983
1701881287967707100,3.34870703125,-0.2881176769733429,-9.802068710327148,-0.08262238651514053
1701881287977299500,3.358299560546875,-0.28132906556129456,-9.802207946777344,-0.08916304260492325
1701881287986892500,3.367892578125,-0.2730691730976105,-9.802386283874512,-0.09517398476600647
1701881287996484600,3.377484619140625,-0.2636584937572479,-9.802590370178223,-0.10046639293432236
1701881288006076200,3.387076171875,-0.25708743929862976,-9.802653312683105,-0.11087820678949356
1701881288015668500,3.39666845703125,-0.24933378398418427,-9.802728652954102,-0.1213831976056099
1701881288025261600,3.406261474609375,-0.23858605325222015,-9.802831649780273,-0.1340494006872177
1701881288034854000,3.41585400390625,-0.22760502994060516,-9.80289077758789,-0.14806446433067322
1701881288044445400,3.425445556640625,-0.2180756777524948,-9.802889823913574,-0.16182880103588104
1701881288054037800,3.435037841796875,-0.21065416932106018,-9.802835464477539,-0.17442403733730316
1701881288063630800,3.444630859375,-0.20682020485401154,-9.80272388458252,-0.1849599927663803
1701881288073223000,3.454222900390625,-0.20553211867809296,-9.802593231201172,-0.19314050674438477
1701881288082814500,3.463814453125,-0.2034231573343277,-9.80252742767334,-0.19864393770694733
1701881288092406800,3.47340673828125,-0.19954141974449158,-9.80256462097168,-0.20070944726467133
1701881288101999900,3.482999755859375,-0.1941593438386917,-9.802653312683105,-0.20171305537223816
1701881288111592200,3.49259228515625,-0.19004882872104645,-9.802698135375977,-0.2034386843442917
1701881288121183700,3.502183837890625,-0.18888264894485474,-9.80265998840332,-0.20632122457027435
1701881288130776000,3.511776123046875,-0.19102784991264343,-9.802501678466797,-0.21178926527500153
1701881288140369200,3.521369140625,-0.19508019089698792,-9.80225944519043,-0.21921159327030182
1701881288149961500,3.53096142578125,-0.19962678849697113,-9.801962852478027,-0.2282162755727768
1701881288159552800,3.540552734375,-0.20302674174308777,-9.801654815673828,-0.2382010817527771
1701881288169145300,3.550145263671875,-0.20381782948970795,-9.801390647888184,-0.2481735795736313
1701881288178738400,3.559738525390625,-0.20129527151584625,-9.8012056350708,-0.2573738396167755
1701881288188330500,3.56933056640625,-0.1960940808057785,-9.80113697052002,-0.26391080021858215
1701881288197922000,3.578922119140625,-0.18824385106563568,-9.801218032836914,-0.26662787795066833
1701881288207514400,3.588514404296875,-0.17664507031440735,-9.801470756530762,-0.26524895429611206
1701881288217107500,3.598107421875,-0.16191501915454865,-9.801858901977539,-0.26025667786598206
1701881288226699800,3.60769970703125,-0.1455807089805603,-9.80229377746582,-0.2534245252609253
1701881288236291300,3.617291259765625,-0.12824444472789764,-9.802687644958496,-0.24745813012123108
1701881288245883600,3.626883544921875,-0.11205992847681046,-9.80295467376709,-0.2447611391544342
1701881288255476700,3.636476806640625,-0.09804689139127731,-9.803058624267578,-0.24657465517520905
1701881288265068800,3.64606884765625,-0.08709180355072021,-9.802987098693848,-0.25345781445503235
1701881288274660400,3.655660400390625,-0.07963725924491882,-9.802772521972656,-0.26398223638534546
1701881288284252700,3.665252685546875,-0.07542625814676285,-9.802467346191406,-0.276239812374115
1701881288293845800,3.674845703125,-0.0734856054186821,-9.802129745483398,-0.2884800136089325
1701881288303438000,3.68443798828125,-0.07343600690364838,-9.801819801330566,-0.2988741099834442
1701881288313029600,3.694029541015625,-0.07411345839500427,-9.801559448242188,-0.3071209192276001
1701881288322622000,3.7036220703125,-0.07429460436105728,-9.801349639892578,-0.31370827555656433
1701881288332215000,3.713215087890625,-0.07311508059501648,-9.801209449768066,-0.3183547854423523
1701881288341807000,3.72280712890625,-0.06918127834796906,-9.801131248474121,-0.3215859830379486
1701881288351398700,3.732398681640625,-0.06265096366405487,-9.801105499267578,-0.3237432539463043
1701881288360991200,3.7419912109375,-0.05372763052582741,-9.801107406616211,-0.32527706027030945
1701881288370584300,3.751584228515625,-0.043054092675447464,-9.801119804382324,-0.3264952600002289
1701881288380176400,3.76117626953125,-0.03168230503797531,-9.801139831542969,-0.32716310024261475
1701881288389768000,3.770767822265625,-0.020451849326491356,-9.801172256469727,-0.3270799219608307
1701881288399360300,3.7803603515625,-0.010161715559661388,-9.80119800567627,-0.3268016576766968
1701881288408953300,3.789953369140625,-0.0015769072342664003,-9.80123519897461,-0.3258686661720276
1701881288418545700,3.799545654296875,0.0046471101231873035,-9.801285743713379,-0.3242824971675873
1701881288428137200,3.80913720703125,0.008906971663236618,-9.801345825195312,-0.3224024772644043
1701881288437729500,3.8187294921875,0.011713981628417969,-9.801403045654297,-0.32055428624153137
1701881288447322600,3.828322509765625,0.013890396803617477,-9.80144214630127,-0.31929031014442444
1701881288456914700,3.837914794921875,0.016005558893084526,-9.8014497756958,-0.3189113438129425
1701881288466506200,3.84750634765625,0.01840972900390625,-9.80141830444336,-0.319740355014801
1701881288476098600,3.8570986328125,0.021500810980796814,-9.801335334777832,-0.3220937252044678
1701881288485691600,3.866691650390625,0.024638215079903603,-9.801209449768066,-0.3256813585758209
1701881288495284000,3.876283935546875,0.027987578883767128,-9.801070213317871,-0.329585999250412
1701881288504875500,3.88587548828125,0.031636495143175125,-9.800944328308105,-0.3329770267009735
1701881288514467800,3.8954677734375,0.03505660593509674,-9.80083179473877,-0.3359373211860657
1701881288524061000,3.90506103515625,0.03842518478631973,-9.800740242004395,-0.33821430802345276
1701881288533653000,3.914653076171875,0.0418131947517395,-9.8006591796875,-0.3401945233345032
1701881288543244500,3.92424462890625,0.045645855367183685,-9.800577163696289,-0.342046320438385
1701881288552836900,3.9338369140625,0.04997533559799194,-9.800479888916016,-0.3441908359527588
1701881288562430000,3.943429931640625,0.05457066372036934,-9.80036735534668,-0.34673529863357544
1701881288572022300,3.953022216796875,0.059011682868003845,-9.800227165222168,-0.3499338626861572
1701881288581613800,3.96261376953125,0.06256650388240814,-9.800076484680176,-0.3535153567790985
1701881288591206100,3.9722060546875,0.06513737887144089,-9.79990291595459,-0.35783568024635315
1701881288600799200,3.98179931640625,0.06659730523824692,-9.79971694946289,-0.3626428246498108
1701881288610391600,3.9913916015625,0.06913769245147705,-9.799551963806152,-0.36660096049308777
1701881288619982800,4.00098291015625,0.07151670008897781,-9.799431800842285,-0.3693524897098541
1701881288629575200,4.0105751953125,0.07441333681344986,-9.799327850341797,-0.37149718403816223
1701881288639168300,4.020168212890625,0.07827021926641464,-9.799229621887207,-0.3732995092868805
1701881288648760600,4.029760498046875,0.08369750529527664,-9.7991304397583,-0.3747275173664093
1701881288658352000,4.03935205078125,0.09016434103250504,-9.799028396606445,-0.37590983510017395
1701881288667944400,4.0489443359375,0.09767690300941467,-9.798863410949707,-0.3783177137374878
1701881288677537500,4.05853759765625,0.10483105480670929,-9.798665046691895,-0.38151630759239197
1701881288687129900,4.0681298828125,0.1132771223783493,-9.798460960388184,-0.38433825969696045
1701881288696721400,4.077721435546875,0.1208219975233078,-9.798262596130371,-0.38711196184158325
1701881288706313700,4.087313720703125,0.1274811327457428,-9.798049926757812,-0.39031338691711426
1701881288715906800,4.09690673828125,0.13421428203582764,-9.797806739807129,-0.39414677023887634
1701881288725499000,4.106498779296875,0.14073406159877777,-9.79754638671875,-0.3983079195022583
1701881288735090400,4.11609033203125,0.14702226221561432,-9.797269821166992,-0.40281835198402405
1701881288744682800,4.125682861328125,0.15256401896476746,-9.796965599060059,-0.4081498682498932
1701881288754275800,4.13527587890625,0.15709982812404633,-9.796612739562988,-0.41482067108154297
1701881288763868200,4.1448681640625,0.161160409450531,-9.796220779418945,-0.42245304584503174
1701881288773459700,4.154459716796875,0.1643158495426178,-9.795788764953613,-0.4311765730381012
1701881288783052000,4.164052001953125,0.166359543800354,-9.795327186584473,-0.44075170159339905
1701881288792645000,4.17364501953125,0.16666431725025177,-9.794812202453613,-0.4519483745098114
1701881288802237400,4.183237548828125,0.1692071408033371,-9.794340133666992,-0.46115240454673767
1701881288811828700,4.192828857421875,0.1708596646785736,-9.793925285339355,-0.4692901074886322
1701881288821421000,4.202421142578125,0.17188267409801483,-9.793600082397461,-0.47565263509750366
1701881288831014100,4.21201416015625,0.1732800304889679,-9.793328285217285,-0.4807192087173462
1701881288840606500,4.2216064453125,0.1751318871974945,-9.79310131072998,-0.4846467971801758
1701881288850198000,4.231197998046875,0.17755943536758423,-9.79292106628418,-0.48740822076797485
1701881288859790300,4.240790283203125,0.18039405345916748,-9.792760848999023,-0.48958104848861694
1701881288869383400,4.250383544921875,0.18313156068325043,-9.792576789855957,-0.4922375977039337
1701881288878975700,4.259975830078125,0.18652673065662384,-9.792497634887695,-0.4925304055213928
1701881288888567000,4.269567138671875,0.19031588733196259,-9.792496681213379,-0.49110785126686096
1701881288898159600,4.27915966796875,0.19262298941612244,-9.792564392089844,-0.48883822560310364
1701881288907752700,4.288752685546875,0.1942787617444992,-9.792672157287598,-0.48600876331329346
1701881288917344800,4.2983447265625,0.19504964351654053,-9.792824745178223,-0.48262420296669006
1701881288926936300,4.307936279296875,0.19517424702644348,-9.793020248413086,-0.4785909652709961
1701881288936528600,4.317528564453125,0.19493693113327026,-9.793233871459961,-0.474308043718338
1701881288946121700,4.327121826171875,0.19490034878253937,-9.793440818786621,-0.4700179994106293
1701881288955714000,4.336714111328125,0.19466732442378998,-9.793661117553711,-0.46550583839416504
1701881288965305600,4.3463056640625,0.1947435885667801,-9.793878555297852,-0.4608827233314514
1701881288974898000,4.35589794921875,0.1944410502910614,-9.79407787322998,-0.45673683285713196
1701881288984491000,4.365490966796875,0.19374693930149078,-9.794258117675781,-0.4531632959842682
1701881288994083000,4.3750830078125,0.1928999423980713,-9.794442176818848,-0.44952741265296936
1701881289003674600,4.384674560546875,0.19231891632080078,-9.794602394104004,-0.44628384709358215
1701881289013267000,4.394266845703125,0.19136150181293488,-9.79476261138916,-0.44317391514778137
1701881289022860000,4.403860107421875,0.19016239047050476,-9.794917106628418,-0.44024452567100525
1701881289032452400,4.413452392578125,0.18900319933891296,-9.795058250427246,-0.4375841021537781
1701881289042044000,4.4230439453125,0.18816259503364563,-9.795208930969238,-0.4345981478691101
1701881289051636200,4.43263623046875,0.18825525045394897,-9.795326232910156,-0.43189820647239685
1701881289061229300,4.442229248046875,0.18930813670158386,-9.795427322387695,-0.42915797233581543
1701881289070821400,4.4518212890625,0.1911681741476059,-9.795496940612793,-0.42672720551490784
1701881289080413000,4.461412841796875,0.19366183876991272,-9.795543670654297,-0.42449504137039185
1701881289090005500,4.471005615234375,0.19658523797988892,-9.795550346374512,-0.423010915517807
1701881289099598600,4.4805986328125,0.20007939636707306,-9.795502662658691,-0.42247745394706726
1701881289109190700,4.490190673828125,0.20408660173416138,-9.795401573181152,-0.4229142665863037
1701881289118782200,4.4997822265625,0.20856426656246185,-9.79525089263916,-0.4241967499256134
1701881289128374500,4.50937451171875,0.21330173313617706,-9.795071601867676,-0.4259847402572632
1701881289137967600,4.518967529296875,0.21869389712810516,-9.794862747192383,-0.428035706281662
1701881289147560000,4.528559814453125,0.22447945177555084,-9.794610023498535,-0.4308125674724579
1701881289157151500,4.5381513671875,0.2309328317642212,-9.794310569763184,-0.4341955780982971
1701881289166743800,4.547743896484375,0.2374669313430786,-9.793968200683594,-0.43840277194976807
1701881289176337000,4.5573369140625,0.24379858374595642,-9.793581008911133,-0.4435400366783142
1701881289185929000,4.566928955078125,0.25022193789482117,-9.793144226074219,-0.44955942034721375
1701881289195520500,4.5765205078125,0.2570194900035858,-9.792654037475586,-0.4563417136669159
1701881289205112800,4.58611279296875,0.26413676142692566,-9.792120933532715,-0.4636642336845398
1701881289214706000,4.595705810546875,0.2714170813560486,-9.79155445098877,-0.471368670463562
1701881289224298200,4.60529833984375,0.2783205211162567,-9.790973663330078,-0.4793291389942169
1701881289233889800,4.614889892578125,0.2839224934577942,-9.790325164794922,-0.4891793727874756
1701881289243482000,4.624482177734375,0.29056134819984436,-9.78973388671875,-0.4970727562904358
1701881289253075200,4.6340751953125,0.2987529933452606,-9.78908920288086,-0.5048454999923706
1701881289262667300,4.643667236328125,0.30598676204681396,-9.788482666015625,-0.5122266411781311
1701881289272258800,4.6532587890625,0.31357163190841675,-9.787869453430176,-0.5193113684654236
1701881289281851100,4.66285107421875,0.3210521936416626,-9.787280082702637,-0.5258015990257263
1701881289291444200,4.6724443359375,0.32793545722961426,-9.78674030303955,-0.5315743684768677
1701881289301036500,4.68203662109375,0.33411791920661926,-9.786223411560059,-0.5371944904327393
1701881289310628000,4.691628173828125,0.3397773504257202,-9.785744667053223,-0.5423381924629211
1701881289320220400,4.701220458984375,0.3455023467540741,-9.785309791564941,-0.5465680360794067
1701881289329813500,4.7108134765625,0.351188063621521,-9.78489875793457,-0.5502831339836121
1701881289339405800,4.72040576171875,0.35737892985343933,-9.78451919555664,-0.553042471408844
1701881289348997000,4.7299970703125,0.3639735281467438,-9.784175872802734,-0.5548273324966431
1701881289358589400,4.73958935546875,0.37135255336761475,-9.783836364746094,-0.5559086203575134
1701881289368182500,4.7491826171875,0.37974560260772705,-9.783487319946289,-0.5563881397247314
1701881289377774800,4.75877490234375,0.3884207010269165,-9.78315258026123,-0.5562772750854492
1701881289387366400,4.768366455078125,0.3975200355052948,-9.782814979553223,-0.5557937622070312
1701881289396958700,4.777958740234375,0.40756088495254517,-9.782426834106445,-0.5553555488586426
1701881289406551800,4.7875517578125,0.41822007298469543,-9.781991004943848,-0.5551003813743591
1701881289416144100,4.79714404296875,0.42954933643341064,-9.781522750854492,-0.5547030568122864
1701881289425735700,4.806735595703125,0.44113218784332275,-9.780994415283203,-0.5549201965332031
1701881289435328000,4.816327880859375,0.4528599679470062,-9.780452728271484,-0.5550234317779541
1701881289444921000,4.825921142578125,0.46445903182029724,-9.779943466186523,-0.5544098019599915
1701881289454513200,4.83551318359375,0.4758026897907257,-9.779487609863281,-0.552838146686554
1701881289464104700,4.845104736328125,0.48738184571266174,-9.779067993164062,-0.550146222114563
1701881289473697000,4.854697021484375,0.4995821714401245,-9.778682708740234,-0.5460567474365234
1701881289483290000,4.8642900390625,0.5134609341621399,-9.778231620788574,-0.5412367582321167
1701881289492882400,4.87388232421875,0.5280175805091858,-9.777791976928711,-0.5351442694664001
1701881289502474000,4.883473876953125,0.5431631207466125,-9.777390480041504,-0.5272530913352966
1701881289512066300,4.89306640625,0.5617507696151733,-9.776777267456055,-0.5190706849098206
1701881289521659400,4.902659423828125,0.5838862657546997,-9.775924682617188,-0.5106605291366577
1701881289531251500,4.91225146484375,0.6087722778320312,-9.774909019470215,-0.5009390115737915
1701881289540843000,4.921843017578125,0.6362428665161133,-9.773685455322266,-0.49057266116142273
1701881289550435300,4.931435302734375,0.6663905382156372,-9.772156715393066,-0.48087579011917114
1701881289560028400,4.9410283203125,0.6977495551109314,-9.770371437072754,-0.4726218581199646
1701881289569620700,4.950620849609375,0.7304018139839172,-9.768268585205078,-0.46672552824020386
1701881289579212300,4.96021240234375,0.7635859847068787,-9.765885353088379,-0.46347498893737793
1701881289588804600,4.9698046875,0.7967770099639893,-9.763287544250488,-0.46233367919921875
1701881289598397700,4.979397705078125,0.8299978375434875,-9.760456085205078,-0.463667094707489
1701881289607989800,4.98898974609375,0.8616353273391724,-9.75759506225586,-0.4661625921726227
1701881289617581300,4.998581298828125,0.8904874324798584,-9.754867553710938,-0.4690156579017639
1701881289627174000,5.008173828125,0.9172951579093933,-9.752152442932129,-0.47378674149513245
1701881289636767000,5.01776708984375,0.9430730938911438,-9.749314308166504,-0.4815223813056946
1701881289646359000,5.027359130859375,0.9682443141937256,-9.746296882629395,-0.4925410747528076
1701881289655950600,5.03695068359375,0.9922761917114258,-9.743082046508789,-0.5080613493919373
1701881289665543000,5.04654296875,1.0165166854858398,-9.73972225189209,-0.5243125557899475
1701881289675136000,5.056135986328125,1.0412544012069702,-9.7361421585083,-0.5419538021087646
1701881289684728300,5.065728271484375,1.063755989074707,-9.732519149780273,-0.5629133582115173
1701881289694319900,5.07531982421875,1.0830047130584717,-9.729021072387695,-0.586193323135376
1701881289703912200,5.084912109375,1.0993398427963257,-9.725518226623535,-0.6132940649986267
1701881289713505300,5.09450537109375,1.113340139389038,-9.721975326538086,-0.6434749364852905
1701881289723097300,5.104097412109375,1.12808358669281,-9.71810531616211,-0.6754599809646606
1701881289732689000,5.11368896484375,1.1473373174667358,-9.714704513549805,-0.6917640566825867
1701881289742281200,5.12328125,1.1667855978012085,-9.711000442504883,-0.7109556198120117
1701881289751874300,5.132874267578125,1.1832176446914673,-9.7073392868042,-0.733453094959259
1701881289761466600,5.142466552734375,1.1920936107635498,-9.704280853271484,-0.7591109871864319
1701881289771058200,5.15205810546875,1.1896061897277832,-9.702338218688965,-0.7873077392578125
1701881289780650500,5.161650390625,1.1728037595748901,-9.701935768127441,-0.8169072866439819
1701881289790243600,5.17124365234375,1.1404790878295898,-9.703164100646973,-0.8475219011306763
1701881289799835600,5.180835693359375,1.095870852470398,-9.70544719696045,-0.8796161413192749
1701881289809427200,5.19042724609375,1.0474450588226318,-9.707858085632324,-0.9114441275596619
1701881289819019500,5.20001953125,0.9962530136108398,-9.71035099029541,-0.9417769312858582
1701881289828612600,5.209612548828125,0.9387746453285217,-9.713176727294922,-0.9712345600128174
1701881289838205000,5.219204833984375,0.8788133859634399,-9.717381477355957,-0.9851775169372559
1701881289847796500,5.22879638671875,0.8176841735839844,-9.724918365478516,-0.96319180727005
1701881289857388800,5.238388916015625,0.7495670318603516,-9.736735343933105,-0.89695143699646
1701881289866982000,5.24798193359375,0.6668379306793213,-9.751543998718262,-0.7956799268722534
1701881289876574200,5.25757421875,0.5631507039070129,-9.766273498535156,-0.6878594756126404
1701881289886165500,5.26716552734375,0.4469509720802307,-9.778406143188477,-0.5944750905036926
1701881289895757800,5.2767578125,0.3325546681880951,-9.7877197265625,-0.5102444291114807
1701881289905351000,5.286350830078125,0.22696566581726074,-9.795002937316895,-0.42047181725502014
1701881289914943200,5.295943115234375,0.12760485708713531,-9.800625801086426,-0.31913214921951294
1701881289924534800,5.30553466796875,0.03371123597025871,-9.80416488647461,-0.21815922856330872
1701881289934127000,5.315127197265625,-0.05779692530632019,-9.805482864379883,-0.13984818756580353
1701881289943720200,5.32472021484375,-0.14967989921569824,-9.805075645446777,-0.09207714349031448
1701881289953312500,5.3343125,-0.2335599809885025,-9.803613662719727,-0.07060350477695465
1701881289962904000,5.343904052734375,-0.3013095259666443,-9.801773071289062,-0.06959221512079239
1701881289972496400,5.353496337890625,-0.3507694602012634,-9.800034523010254,-0.08175303786993027
1701881289982089500,5.36308935546875,-0.3855905830860138,-9.798559188842773,-0.09971490502357483
1701881289991681500,5.372681640625,-0.41130930185317993,-9.797261238098145,-0.12194398045539856
1701881290001273000,5.382273193359375,-0.4379361867904663,-9.795710563659668,-0.15044334530830383
1701881290010865400,5.391865478515625,-0.482083261013031,-9.79302978515625,-0.1858571320772171
1701881290020458500,5.40145849609375,-0.5418915748596191,-9.789108276367188,-0.2237779051065445
1701881290030050800,5.41105078125,-0.6057220697402954,-9.784723281860352,-0.25031736493110657
1701881290039642400,5.420642333984375,-0.6692660450935364,-9.78062915802002,-0.24852663278579712
1701881290049234700,5.430234619140625,-0.7314949631690979,-9.777090072631836,-0.20930729806423187
1701881290058827800,5.439827880859375,-0.7974443435668945,-9.773225784301758,-0.13609081506729126
1701881290068419800,5.449419921875,-0.875227689743042,-9.767463684082031,-0.031715065240859985
1701881290078011400,5.459011474609375,-0.9758301377296448,-9.757467269897461,0.09980856627225876
1701881290087603700,5.468603759765625,-1.1019009351730347,-9.74134349822998,0.2498481571674347
1701881290097196800,5.47819677734375,-1.2407530546188354,-9.719429969787598,0.4044751226902008
1701881290106789000,5.4877890625,-1.391351342201233,-9.692190170288086,0.5440338253974915
1701881290116380700,5.497380615234375,-1.5463266372680664,-9.661437034606934,0.6602141857147217
1701881290125973000,5.506972900390625,-1.6977925300598145,-9.628877639770508,0.7567070722579956
1701881290135566000,5.516566162109375,-1.8422144651412964,-9.59516716003418,0.8422600030899048
1701881290145158100,5.526158203125,-1.9704272747039795,-9.56358814239502,0.9086174368858337
1701881290154749700,5.535749755859375,-2.075845956802368,-9.536161422729492,0.9606760144233704
1701881290164342000,5.545342041015625,-2.166811466217041,-9.510047912597656,1.017006516456604
1701881290173935000,5.55493505859375,-2.256572961807251,-9.48188304901123,1.0826691389083862
1701881290183527400,5.56452734375,-2.359734535217285,-9.447649002075195,1.1592957973480225
1701881290193119000,5.574118896484375,-2.485093116760254,-9.403429985046387,1.2530819177627563
1701881290202711300,5.583711181640625,-2.6390209197998047,-9.344674110412598,1.372231125831604
1701881290212304400,5.593304443359375,-2.8164119720458984,-9.270708084106445,1.513993501663208
1701881290221896700,5.602896728515625,-3.006436586380005,-9.18804931640625,1.6466552019119263
1701881290231488000,5.612488037109375,-3.200164556503296,-9.11008358001709,1.7133936882019043
1701881290241080300,5.622080322265625,-3.4112792015075684,-9.034513473510742,1.7062050104141235
1701881290250673400,5.63167333984375,-3.633268356323242,-8.964797019958496,1.6131237745285034
1701881290260265700,5.641265625,-3.8445022106170654,-8.903026580810547,1.4581812620162964
1701881290269857300,5.650857177734375,-4.011595726013184,-8.85933780670166,1.2608089447021484
1701881290279449600,5.66044970703125,-4.1399760246276855,-8.828640937805176,1.0421619415283203
1701881290289042700,5.670042724609375,-4.270902156829834,-8.791156768798828,0.8033347725868225
1701881290298635000,5.679635009765625,-4.439312934875488,-8.728416442871094,0.5269085168838501
1701881290308226600,5.6892265625,-4.640146255493164,-8.63736629486084,0.18797557055950165
1701881290317819000,5.69881884765625,-4.890476226806641,-8.497869491577148,-0.1996207982301712
1701881290327412000,5.708411865234375,-5.205770969390869,-8.290643692016602,-0.5792803168296814
1701881290337004000,5.718004150390625,-5.576612949371338,-8.013824462890625,-0.9221669435501099
1701881290346595600,5.727595703125,-5.95043420791626,-7.697279453277588,-1.2306983470916748
1701881290356188000,5.73718798828125,-6.302302360534668,-7.360293388366699,-1.5091273784637451
1701881290365781000,5.746781005859375,-6.5917229652404785,-7.038047790527344,-1.784782886505127
1701881290375373300,5.756373291015625,-6.809872150421143,-6.7362589836120605,-2.102107286453247
1701881290384964900,5.76596484375,-6.981646537780762,-6.437977313995361,-2.4452919960021973
1701881290394557200,5.77555712890625,-7.140786647796631,-6.127191543579102,-2.7635254859924316
1701881290404150300,5.785150390625,-7.296616077423096,-5.803799629211426,-3.0406715869903564
1701881290413742300,5.794742431640625,-7.443542957305908,-5.471687316894531,-3.290090799331665
1701881290423334000,5.804333984375,-7.574336528778076,-5.1350579261779785,-3.525759696960449
1701881290432926200,5.81392626953125,-7.686962127685547,-4.795673847198486,-3.752666711807251
1701881290442519300,5.823519287109375,-7.78257417678833,-4.455316543579102,-3.968890905380249
1701881290452111600,5.833111572265625,-7.8619771003723145,-4.120720386505127,-4.168858051300049
1701881290461703200,5.842703125,-7.930086135864258,-3.797356128692627,-4.343294620513916
1701881290471295500,5.85229541015625,-7.992414474487305,-3.485079526901245,-4.488420009613037
1701881290480888600,5.861888671875,-8.019949913024902,-3.196338415145874,-4.6512603759765625
1701881290490481000,5.87148095703125,-8.027284622192383,-2.922375202178955,-4.815891265869141
1701881290500072200,5.881072265625,-8.016578674316406,-2.6611247062683105,-4.982293605804443
1701881290509664800,5.890664794921875,-7.994476795196533,-2.407794237136841,-5.1440510749816895
1701881290519257600,5.900257568359375,-7.966716766357422,-2.1509222984313965,-5.298617362976074
1701881290528850000,5.909849853515625,-7.9331536293029785,-1.8817062377929688,-5.44927978515625
1701881290538441500,5.91944140625,-7.894446849822998,-1.5997047424316406,-5.593660831451416
1701881290548033800,5.92903369140625,-7.850809574127197,-1.3091413974761963,-5.72899055480957
1701881290557627000,5.938626953125,-7.803185939788818,-1.017159104347229,-5.852013111114502
1701881290567219200,5.94821923828125,-7.753770351409912,-0.7308017611503601,-5.959475994110107
1701881290576810800,5.957810791015625,-7.702447414398193,-0.4502815902233124,-6.0530924797058105
1701881290586403000,5.967403076171875,-7.647557258605957,-0.17358550429344177,-6.136375904083252
1701881290595996200,5.97699609375,-7.587779521942139,0.09778626263141632,-6.211797714233398
1701881290605588200,5.986588134765625,-7.520102500915527,0.3636944591999054,-6.283802509307861
1701881290615179800,5.9961796875,-7.4402642250061035,0.6284079551696777,-6.357511520385742
1701881290624772000,6.005772216796875,-7.349101543426514,0.8950513005256653,-6.4311723709106445
1701881290634365200,6.015365234375,-7.249446392059326,1.1639920473098755,-6.500848293304443
1701881290643957500,6.02495751953125,-7.142827033996582,1.435870885848999,-6.564197540283203
1701881290653549000,6.034549072265625,-7.029755115509033,1.709869384765625,-6.620368957519531
1701881290663141400,6.044141357421875,-6.911313056945801,1.9817923307418823,-6.66908073425293
1701881290672734500,6.053734375,-6.7877349853515625,2.2459850311279297,-6.712121963500977
1701881290682326500,6.063326416015625,-6.659557342529297,2.49818754196167,-6.751276969909668
1701881290691918000,6.07291796875,-6.528566837310791,2.73661732673645,-6.78668737411499
1701881290701510400,6.082510498046875,-6.39648962020874,2.96161150932312,-6.817929744720459
1701881290711103500,6.092103515625,-6.262248992919922,3.17543625831604,-6.846255779266357
1701881290720695800,6.10169580078125,-6.1233601570129395,3.3805770874023438,-6.873611927032471
1701881290730287400,6.111287353515625,-5.9792351722717285,3.5777699947357178,-6.900629043579102
1701881290739879700,6.120879638671875,-5.832134246826172,3.763399362564087,-6.927728652954102
1701881290749472800,6.13047265625,-5.683461666107178,3.9350638389587402,-6.9558563232421875
1701881290759065000,6.140065185546875,-5.532492637634277,4.090587139129639,-6.987774848937988
1701881290768656400,6.149656494140625,-5.3799967765808105,4.228381156921387,-7.024727821350098
1701881290778249000,6.1592490234375,-5.224289894104004,4.350733757019043,-7.06741189956665
1701881290787841800,6.168841796875,-5.066255569458008,4.459006309509277,-7.1148223876953125
1701881290797434000,6.17843408203125,-4.91172981262207,4.551693916320801,-7.164313793182373
1701881290807025700,6.188025634765625,-4.763753414154053,4.6302618980407715,-7.213716506958008
1701881290816618000,6.197617919921875,-4.624666213989258,4.69773006439209,-7.260453701019287
1701881290826211000,6.207211181640625,-4.496646404266357,4.7552313804626465,-7.303308963775635
1701881290835803400,6.216803466796875,-4.381440162658691,4.802064895629883,-7.342583656311035
1701881290845395000,6.22639501953125,-4.280810356140137,4.83681583404541,-7.379042148590088
1701881290854987300,6.2359873046875,-4.1955437660217285,4.857151031494141,-7.414572715759277
1701881290864580400,6.245580322265625,-4.12553596496582,4.86305570602417,-7.449901103973389
1701881290874172400,6.25517236328125,-4.06775426864624,4.855991840362549,-7.486194133758545
1701881290883764000,6.264763916015625,-4.021319389343262,4.836521148681641,-7.523791313171387
1701881290893356300,6.274356201171875,-3.9848215579986572,4.80504846572876,-7.563272953033447
1701881290902949400,6.283949462890625,-3.9560461044311523,4.7621378898620605,-7.605401039123535
1701881290912541700,6.293541748046875,-3.932943344116211,4.707999229431152,-7.650952339172363
1701881290922133200,6.30313330078125,-3.9150993824005127,4.642744541168213,-7.699825763702393
1701881290931725600,6.3127255859375,-3.902384042739868,4.566577911376953,-7.751654624938965
1701881290941318700,6.322318603515625,-3.894327163696289,4.480843544006348,-7.805552005767822
1701881290950910700,6.33191064453125,-3.890475273132324,4.387421607971191,-7.8603515625
1701881290960502300,6.341502197265625,-3.8921329975128174,4.287956714630127,-7.914234638214111
1701881290970094600,6.351094482421875,-3.900327682495117,4.183061122894287,-7.96616792678833
1701881290979687700,6.360687744140625,-3.9145734310150146,4.073824882507324,-8.01563835144043
1701881290989280000,6.370280029296875,-3.93369460105896,3.96478009223938,-8.06082820892334
1701881290998871600,6.37987158203125,-3.9544498920440674,3.8574416637420654,-8.102645874023438
1701881291008464000,6.3894638671875,-3.97499680519104,3.752474546432495,-8.1417875289917
1701881291018057000,6.399056884765625,-3.9957923889160156,3.6474363803863525,-8.179256439208984
1701881291027649000,6.40864892578125,-4.01687479019165,3.542896270751953,-8.214802742004395
1701881291037240600,6.418240478515625,-4.036998748779297,3.4383368492126465,-8.24929428100586
1701881291046833000,6.4278330078125,-4.057716369628906,3.331899404525757,-8.28273868560791
1701881291056426000,6.437426025390625,-4.081357479095459,3.2232701778411865,-8.314050674438477
1701881291066018300,6.447018310546875,-4.106892108917236,3.113391160964966,-8.343297958374023
1701881291075609900,6.45660986328125,-4.134476661682129,3.00349497795105,-8.369916915893555
1701881291085202200,6.4662021484375,-4.162215232849121,2.8955085277557373,-8.394186973571777
1701881291094795300,6.475795166015625,-4.190151214599609,2.7927348613739014,-8.415085792541504
1701881291104387600,6.4853876953125,-4.217306137084961,2.6962389945983887,-8.432971954345703
1701881291113979000,6.494978759765625,-4.242934703826904,2.6036722660064697,-8.449188232421875
1701881291123571500,6.504571533203125,-4.268322467803955,2.5149693489074707,-8.463258743286133
1701881291133164300,6.514164306640625,-4.290518283843994,2.4239070415496826,-8.478590965270996
1701881291142756600,6.523756591796875,-4.311620712280273,2.333908796310425,-8.493125915527344
1701881291152348200,6.53334814453125,-4.333548069000244,2.2460687160491943,-8.505640029907227
1701881291161940500,6.5429404296875,-4.354387283325195,2.15665340423584,-8.518131256103516
1701881291171533600,6.552533447265625,-4.377177715301514,2.071925640106201,-8.527475357055664
1701881291181126000,6.5621259765625,-4.40167236328125,2.0020275115966797,-8.531562805175781
1701881291190717400,6.571717529296875,-4.424536228179932,1.949917197227478,-8.531805038452148
1701881291200309800,6.581309814453125,-4.443366527557373,1.9055302143096924,-8.532048225402832
1701881291209902800,6.59090283203125,-4.459628105163574,1.865904450416565,-8.532320976257324
1701881291219495000,6.600494873046875,-4.4732866287231445,1.8306236267089844,-8.532814025878906
1701881291229086500,6.61008642578125,-4.484584331512451,1.7983976602554321,-8.533737182617188
1701881291238678800,6.6196787109375,-4.494027137756348,1.7714416980743408,-8.534406661987305
1701881291248272000,6.62927197265625,-4.505101203918457,1.750733733177185,-8.532841682434082
1701881291257864200,6.6388642578125,-4.518089771270752,1.736674427986145,-8.52884578704834
1701881291267455700,6.648455810546875,-4.532663345336914,1.7293895483016968,-8.522591590881348
1701881291277048000,6.658048095703125,-4.549349308013916,1.7293184995651245,-8.513710021972656
1701881291286641200,6.66764111328125,-4.567554950714111,1.7363622188568115,-8.502521514892578
1701881291296233200,6.677233154296875,-4.585048198699951,1.7492090463638306,-8.490464210510254
1701881291305824800,6.68682470703125,-4.600854873657227,1.766147255897522,-8.478398323059082
1701881291315417000,6.6964169921875,-4.613768577575684,1.7848178148269653,-8.4674654006958
1701881291325010200,6.70601025390625,-4.625300884246826,1.803572654724121,-8.457192420959473
1701881291334602500,6.7156025390625,-4.636911869049072,1.820778250694275,-8.44714069366455
1701881291344194000,6.725194091796875,-4.647864818572998,1.8353842496871948,-8.437955856323242
1701881291353786400,6.734786376953125,-4.658442974090576,1.8466001749038696,-8.429671287536621
1701881291363379500,6.74437939453125,-4.669038772583008,1.853219985961914,-8.422354698181152
1701881291372971500,6.753971435546875,-4.680334568023682,1.8545089960098267,-8.41579818725586
1701881291382563000,6.76356298828125,-4.692562103271484,1.8502707481384277,-8.409919738769531
1701881291392155400,6.7731552734375,-4.706271648406982,1.8403958082199097,-8.404423713684082
1701881291401748500,6.78274853515625,-4.721567153930664,1.825305461883545,-8.399133682250977
1701881291411340800,6.7923408203125,-4.738658428192139,1.8052661418914795,-8.393837928771973
1701881291420932400,6.801932373046875,-4.757038116455078,1.780857801437378,-8.388653755187988
1701881291430524700,6.811524658203125,-4.776360511779785,1.7528347969055176,-8.383576393127441
1701881291440117800,6.82111767578125,-4.796031475067139,1.721941590309143,-8.37874698638916
1701881291449710000,6.8307099609375,-4.816170692443848,1.6886439323425293,-8.373970031738281
1701881291459301400,6.84030126953125,-4.835503101348877,1.6546494960784912,-8.369613647460938
1701881291468894000,6.84989404296875,-4.854192733764648,1.6213276386260986,-8.365315437316895
1701881291478486800,6.85948681640625,-4.8722310066223145,1.5889760255813599,-8.361034393310547
1701881291488079000,6.8690791015625,-4.890373229980469,1.5576369762420654,-8.356339454650879
1701881291497670700,6.878670654296875,-4.9087347984313965,1.5274560451507568,-8.351142883300781
1701881291507263000,6.888262939453125,-4.926770210266113,1.4991767406463623,-8.3456449508667
1701881291516856000,6.89785595703125,-4.944096088409424,1.473493218421936,-8.339971542358398
1701881291526448400,6.907448486328125,-4.961061000823975,1.4508413076400757,-8.33386516571045
1701881291536040000,6.9170400390625,-4.97863245010376,1.4316956996917725,-8.326695442199707
1701881291545632300,6.92663232421875,-4.996767997741699,1.4167289733886719,-8.318387985229492
1701881291555225300,6.936225341796875,-5.014820098876953,1.4062696695327759,-8.309293746948242
1701881291564817400,6.9458173828125,-5.031657695770264,1.400628924369812,-8.30006217956543
1701881291574409000,6.955408935546875,-5.04765510559082,1.3993016481399536,-8.290568351745605
1701881291584001300,6.965001220703125,-5.06339693069458,1.4009373188018799,-8.280686378479004
1701881291593594400,6.974594482421875,-5.079321384429932,1.4039665460586548,-8.270415306091309
1701881291603186700,6.984186767578125,-5.095808029174805,1.4066195487976074,-8.259815216064453
1701881291612778200,6.9937783203125,-5.111910343170166,1.4085382223129272,-8.249532699584961
1701881291622370600,7.00337060546875,-5.126889705657959,1.4099150896072388,-8.239995956420898
1701881291631963600,7.012963623046875,-5.137167930603027,1.414289951324463,-8.232842445373535
1701881291641555700,7.0225556640625,-5.147317886352539,1.418753743171692,-8.225730895996094
1701881291651147300,7.032147216796875,-5.157191276550293,1.421689510345459,-8.219037055969238
1701881291660739600,7.041739501953125,-5.168454170227051,1.420414686203003,-8.212180137634277
1701881291670332700,7.051332763671875,-5.18150520324707,1.4132394790649414,-8.20518970489502
1701881291679925000,7.060925048828125,-5.189697265625,1.4069643020629883,-8.201089859008789
1701881291689516500,7.0705166015625,-5.194921970367432,1.4004826545715332,-8.198891639709473
1701881291699108900,7.08010888671875,-5.195261001586914,1.3964734077453613,-8.199360847473145
1701881291708702000,7.089701904296875,-5.192363739013672,1.3942495584487915,-8.201574325561523
1701881291718294300,7.099294189453125,-5.188791751861572,1.3918782472610474,-8.204236030578613
1701881291727885600,7.108885498046875,-5.185450553894043,1.3887531757354736,-8.206878662109375
1701881291737478000,7.118477783203125,-5.1820068359375,1.3849515914916992,-8.209695816040039
1701881291747071000,7.128071044921875,-5.178990840911865,1.381035566329956,-8.212257385253906
1701881291756663300,7.137663330078125,-5.176187992095947,1.3771075010299683,-8.214683532714844
1701881291766254800,7.1472548828125,-5.173613548278809,1.373450517654419,-8.2169189453125
1701881291775847200,7.15684716796875,-5.171451568603516,1.3700836896896362,-8.218840599060059
1701881291785440300,7.166440185546875,-5.169524669647217,1.3670196533203125,-8.220562934875488
1701881291795032300,7.1760322265625,-5.167557239532471,1.3642268180847168,-8.22226333618164
1701881291804624000,7.185623779296875,-5.166219711303711,1.3615168333053589,-8.223553657531738
1701881291814216200,7.19521630859375,-5.165436744689941,1.3581103086471558,-8.224608421325684
1701881291823809300,7.204809326171875,-5.164992809295654,1.3535569906234741,-8.225637435913086
1701881291833401600,7.214401611328125,-5.164639472961426,1.347786545753479,-8.226807594299316
1701881291842993200,7.2239931640625,-5.164859771728516,1.340826392173767,-8.22780704498291
1701881291852585500,7.23358544921875,-5.161959171295166,1.3303751945495605,-8.231321334838867
1701881291862178600,7.243178466796875,-5.158607006072998,1.3172149658203125,-8.235539436340332
1701881291871771000,7.25277099609375,-5.155481338500977,1.3013237714767456,-8.240021705627441
1701881291881362200,7.262362060546875,-5.153254508972168,1.2832000255584717,-8.244256019592285
1701881291890954500,7.27195458984375,-5.150285243988037,1.2671962976455688,-8.24858570098877
1701881291900547600,7.281547607421875,-5.142910480499268,1.2496901750564575,-8.255854606628418
1701881291910140000,7.291139892578125,-5.148907661437988,1.2401243448257446,-8.253558158874512
1701881291919731500,7.3007314453125,-5.156850814819336,1.2299413681030273,-8.250123023986816
1701881291929323800,7.31032373046875,-5.165342330932617,1.2180798053741455,-8.246569633483887
1701881291938916900,7.319916748046875,-5.174365520477295,1.2067039012908936,-8.242585182189941
1701881291948509200,7.32950927734375,-5.18304443359375,1.197038173675537,-8.238539695739746
1701881291958100500,7.3391005859375,-5.190344333648682,1.1891741752624512,-8.235081672668457
1701881291967693000,7.348693115234375,-5.196233749389648,1.1836669445037842,-8.232161521911621
1701881291977286100,7.3582861328125,-5.2014031410217285,1.179954171180725,-8.2294282913208
1701881291986878200,7.367878173828125,-5.206204891204834,1.1774157285690308,-8.22675609588623
1701881291996469800,7.3774697265625,-5.209552764892578,1.1749780178070068,-8.224984169006348
1701881292006062000,7.38706201171875,-5.2114176750183105,1.1731033325195312,-8.224071502685547
1701881292015655200,7.3966552734375,-5.2127556800842285,1.1712687015533447,-8.22348403930664
1701881292025247500,7.40624755859375,-5.213776111602783,1.1687414646148682,-8.223196983337402
1701881292034839000,7.415839111328125,-5.214168071746826,1.1650245189666748,-8.22347640991211
1701881292044431400,7.425431396484375,-5.213686943054199,1.160246729850769,-8.224456787109375
1701881292054024400,7.4350244140625,-5.21305513381958,1.1546534299850464,-8.2256441116333
1701881292063616500,7.444616455078125,-5.212066173553467,1.1486585140228271,-8.227109909057617
1701881292073208000,7.4542080078125,-5.211296081542969,1.142738938331604,-8.228421211242676
1701881292082800400,7.46380029296875,-5.210794925689697,1.137105107307434,-8.229519844055176
1701881292092393500,7.4733935546875,-5.211090564727783,1.132583498954773,-8.229955673217773
1701881292101985800,7.48298583984375,-5.2110466957092285,1.1289924383163452,-8.230477333068848
1701881292111577300,7.492577392578125,-5.2100934982299805,1.1264559030532837,-8.231428146362305
1701881292121169700,7.502169677734375,-5.2080159187316895,1.1249028444290161,-8.232955932617188
1701881292130762800,7.5117626953125,-5.205234527587891,1.1246886253356934,-8.23474407196045
1701881292140354800,7.521354736328125,-5.201652526855469,1.125354528427124,-8.23691463470459
1701881292149946400,7.5309462890625,-5.196613311767578,1.1270941495895386,-8.239858627319336
1701881292159538700,7.54053857421875,-5.191432476043701,1.129032015800476,-8.242857933044434
1701881292169131800,7.5501318359375,-5.185817718505859,1.1312344074249268,-8.246089935302734
1701881292178724000,7.55972412109375,-5.179450988769531,1.1326637268066406,-8.249894142150879
1701881292188315600,7.569315673828125,-5.173063278198242,1.1328312158584595,-8.253876686096191
1701881292197908000,7.578907958984375,-5.165976047515869,1.1317217350006104,-8.258467674255371
1701881292207501000,7.5885009765625,-5.159859657287598,1.1320936679840088,-8.262239456176758
1701881292217093400,7.59809326171875,-5.153252124786377,1.1284873485565186,-8.266855239868164
1701881292226684700,7.6076845703125,-5.147132873535156,1.122025966644287,-8.27154541015625
1701881292236277000,7.617277099609375,-5.140950679779053,1.1132853031158447,-8.276570320129395
1701881292245870000,7.6268701171875,-5.134343147277832,1.1028902530670166,-8.282060623168945
1701881292255462400,7.63646240234375,-5.1281633377075195,1.092010736465454,-8.28732967376709
1701881292265054000,7.646053955078125,-5.12280797958374,1.0805442333221436,-8.292144775390625
1701881292274646300,7.655646240234375,-5.11850118637085,1.0687381029129028,-8.296332359313965
1701881292284239400,7.6652392578125,-5.114494800567627,1.056848168373108,-8.300325393676758
1701881292293831700,7.674831787109375,-5.1113433837890625,1.0451675653457642,-8.30374526977539
1701881292303423000,7.684423095703125,-5.1089301109313965,1.0339306592941284,-8.306635856628418
1701881292313015600,7.694015625,-5.107115745544434,1.0231025218963623,-8.30909252166748
1701881292322608600,7.703608642578125,-5.105729103088379,1.0124598741531372,-8.311247825622559
1701881292332200700,7.71320068359375,-5.105347633361816,1.0029433965682983,-8.31263542175293
1701881292341792300,7.722792236328125,-5.105545997619629,0.9970206022262573,-8.313226699829102
1701881292351384600,7.732384521484375,-5.105641841888428,0.9892967343330383,-8.314090728759766
1701881292360977700,7.741977783203125,-5.107413291931152,0.9822506904602051,-8.313838005065918
1701881292370570000,7.751570068359375,-5.109084129333496,0.9752913117408752,-8.313631057739258
1701881292380161500,7.76116162109375,-5.110718250274658,0.9684536457061768,-8.313425064086914
1701881292389753900,7.77075390625,-5.112332820892334,0.96221524477005,-8.313157081604004
1701881292399347000,7.780346923828125,-5.113487720489502,0.9565906524658203,-8.313096046447754
1701881292408939000,7.78993896484375,-5.115213871002197,0.9525318145751953,-8.312500953674316
1701881292418530600,7.799530517578125,-5.117140293121338,0.949585497379303,-8.311650276184082
1701881292428123000,7.809122802734375,-5.119573593139648,0.947709858417511,-8.3103666305542
1701881292437716000,7.818716064453125,-5.121890068054199,0.9468197226524353,-8.309040069580078
1701881292447308300,7.828308349609375,-5.124194145202637,0.946264922618866,-8.307682991027832
1701881292456899800,7.83789990234375,-5.126410484313965,0.9460875391960144,-8.30633544921875
1701881292466492200,7.8474921875,-5.128383636474609,0.9462644457817078,-8.305097579956055
1701881292476085200,7.857085205078125,-5.130131244659424,0.9464923143386841,-8.303993225097656
1701881292485677300,7.86667724609375,-5.131733417510986,0.9466591477394104,-8.302983283996582
1701881292495268900,7.876268798828125,-5.1330437660217285,0.9463837146759033,-8.302205085754395
1701881292504861200,7.885861083984375,-5.134044647216797,0.9458040595054626,-8.301651954650879
1701881292514454300,7.895454345703125,-5.134891510009766,0.9443643093109131,-8.301292419433594
1701881292524046600,7.905046630859375,-5.135142803192139,0.9425048232078552,-8.301347732543945
1701881292533638100,7.91463818359375,-5.135174751281738,0.9399600625038147,-8.301615715026855
1701881292543230500,7.92423046875,-5.134875774383545,0.9368609189987183,-8.302151679992676
1701881292552823600,7.933823486328125,-5.1347975730896,0.933315634727478,-8.302599906921387
1701881292562415900,7.943415771484375,-5.134580135345459,0.929874837398529,-8.303120613098145
1701881292572007200,7.953007080078125,-5.133899688720703,0.9265539050102234,-8.303913116455078
1701881292581599500,7.962599609375,-5.132793426513672,0.9236412048339844,-8.30492115020752
1701881292591192600,7.972192626953125,-5.131998538970947,0.9212143421173096,-8.305681228637695
1701881292600785000,7.981784912109375,-5.131094932556152,0.9191519618034363,-8.30646800994873
1701881292610376400,7.99137646484375,-5.130101680755615,0.9173757433891296,-8.307278633117676
1701881292619968800,8.00096875,-5.129550457000732,0.9157261848449707,-8.307799339294434
1701881292629561900,8.010561767578125,-5.129295349121094,0.9139424562454224,-8.308154106140137
1701881292639154200,8.020154296875,-5.129768371582031,0.9122718572616577,-8.308045387268066
1701881292648745700,8.029745849609375,-5.130763053894043,0.9107068181037903,-8.307602882385254
1701881292658338000,8.039338134765625,-5.132551670074463,0.9088112115859985,-8.306706428527832
1701881292667931100,8.04893115234375,-5.134425640106201,0.9067084789276123,-8.305777549743652
1701881292677523200,8.058523193359376,-5.136851787567139,0.9047665596008301,-8.304488182067871
1701881292687114800,8.06811474609375,-5.1392035484313965,0.9033464193344116,-8.303189277648926
1701881292696707000,8.07770703125,-5.141437530517578,0.9023821949958801,-8.301909446716309
1701881292706300200,8.087300048828125,-5.143337726593018,0.9023359417915344,-8.300737380981445
1701881292715892500,8.096892578125,-5.144933223724365,0.9025352597236633,-8.299728393554688
1701881292725484000,8.106484130859375,-5.146249294281006,0.9030942320823669,-8.298851013183594
1701881292735076400,8.116076416015625,-5.147736549377441,0.9036757946014404,-8.297865867614746
1701881292744669400,8.12566943359375,-5.149608612060547,0.903975784778595,-8.296670913696289
1701881292754261500,8.135261474609376,-5.151856422424316,0.9040145874023438,-8.295269966125488
1701881292763853000,8.14485302734375,-5.154431343078613,0.9036335945129395,-8.293713569641113
1701881292773445400,8.1544453125,-5.157593250274658,0.9030731320381165,-8.291808128356934
1701881292783038500,8.16403857421875,-5.160877227783203,0.9022007584571838,-8.2898588180542
1701881292792630800,8.173630859375,-5.164297103881836,0.9012491703033447,-8.287832260131836
1701881292802222300,8.183222412109375,-5.167708873748779,0.9003154039382935,-8.285806655883789
1701881292811814700,8.192814697265625,-5.170960426330566,0.8993936777114868,-8.283878326416016
1701881292821407700,8.20240771484375,-5.174183368682861,0.8994922637939453,-8.281855583190918
1701881292830999800,8.211999755859376,-5.177700519561768,0.9009284973144531,-8.279500961303711
1701881292840591400,8.22159130859375,-5.179562091827393,0.9006839990615845,-8.278363227844238
1701881292850183700,8.23118359375,-5.18071985244751,0.9007609486579895,-8.277630805969238
1701881292859776800,8.24077685546875,-5.181478977203369,0.9009275436401367,-8.27713680267334
1701881292869369000,8.250369140625,-5.181658744812012,0.9008731245994568,-8.277029991149902
1701881292878960600,8.259960693359375,-5.181307792663574,0.9007048010826111,-8.277267456054688
1701881292888553000,8.269552978515625,-5.180857181549072,0.9007953405380249,-8.27754020690918
1701881292898146000,8.27914599609375,-5.180628776550293,0.9011903405189514,-8.277640342712402
1701881292907738400,8.28873828125,-5.180147171020508,0.9000362157821655,-8.278067588806152
1701881292917329700,8.29832958984375,-5.179342269897461,0.8975139260292053,-8.278843879699707
1701881292926922200,8.307922119140626,-5.178761959075928,0.8946037292480469,-8.279522895812988
1701881292936515000,8.31751513671875,-5.177593231201172,0.8911290168762207,-8.28062915802002
1701881292946107400,8.327107421875,-5.176321029663086,0.8874462246894836,-8.281820297241211
1701881292955699000,8.336698974609375,-5.174290657043457,0.8839598298072815,-8.28346061706543
1701881292965291300,8.346291259765625,-5.173290729522705,0.8840097188949585,-8.284080505371094
1701881292974884400,8.35588427734375,-5.1725568771362305,0.8822973966598511,-8.284720420837402
1701881292984476700,8.3654765625,-5.169799327850342,0.8803557753562927,-8.28664779663086
1701881292994068200,8.375068115234376,-5.166104316711426,0.8800140619277954,-8.288989067077637
1701881293003660500,8.38466064453125,-5.16106653213501,0.8799826502799988,-8.292129516601562
1701881293013253600,8.394253662109374,-5.1479644775390625,0.8737116456031799,-8.300932884216309
1701881293022845700,8.403845703125,-5.127655029296875,0.8636563420295715,-8.314543724060059
1701881293032437200,8.413437255859375,-5.106330871582031,0.8534701466560364,-8.328707695007324
1701881293042029600,8.423029541015625,-5.090244293212891,0.844925582408905,-8.3394193649292
1701881293051622700,8.43262255859375,-5.082428932189941,0.839205265045166,-8.34476089477539
1701881293061215000,8.442215087890625,-5.0864362716674805,0.8375146985054016,-8.342489242553711
1701881293070806500,8.451806640625,-5.098982334136963,0.8398853540420532,-8.334588050842285
1701881293080398800,8.46139892578125,-5.111245155334473,0.8457156419754028,-8.326483726501465
1701881293089992000,8.470991943359374,-5.121055603027344,0.8539382219314575,-8.319613456726074
1701881293099584000,8.480583984375,-5.1289472579956055,0.8640837669372559,-8.313702583312988
1701881293109175600,8.490175537109375,-5.133965015411377,0.8755882978439331,-8.30940055847168
1701881293118767900,8.499767822265625,-5.136372089385986,0.889247477054596,-8.306461334228516
1701881293128361000,8.50936083984375,-5.138317108154297,0.9030189514160156,-8.30377197265625
1701881293137953300,8.518953369140625,-5.138242721557617,0.9143222570419312,-8.302581787109375
1701881293147544800,8.528544921875,-5.135846138000488,0.9222795367240906,-8.303184509277344
1701881293157137200,8.53813720703125,-5.133555889129639,0.9272742867469788,-8.304043769836426
1701881293166730200,8.547730224609374,-5.1320061683654785,0.9302651286125183,-8.304668426513672
1701881293176322300,8.557322265625,-5.132679462432861,0.9305161237716675,-8.304224014282227
1701881293185913900,8.566913818359374,-5.135360240936279,0.9281174540519714,-8.302834510803223
1701881293195506200,8.576506103515625,-5.139983654022217,0.9237295389175415,-8.300461769104004
1701881293205099300,8.586099365234375,-5.145813941955566,0.9178974032402039,-8.297496795654297
1701881293214691600,8.595691650390625,-5.152212619781494,0.9112728238105774,-8.294256210327148
1701881293224283100,8.605283203125,-5.158347129821777,0.904726505279541,-8.291158676147461
1701881293233875500,8.61487548828125,-5.163405895233154,0.8990427255630493,-8.288628578186035
1701881293243468500,8.624468505859374,-5.166799545288086,0.8946717977523804,-8.286986351013184
1701881293253060900,8.634060791015624,-5.167673110961914,0.8921687602996826,-8.286709785461426
1701881293262652200,8.643652099609374,-5.166578769683838,0.8914477229118347,-8.287470817565918
1701881293272244700,8.65324462890625,-5.163673400878906,0.8922860622406006,-8.289191246032715
1701881293281837600,8.662837646484375,-5.159945964813232,0.8939988017082214,-8.291327476501465
1701881293291430000,8.672429931640625,-5.155948162078857,0.896014392375946,-8.293596267700195
1701881293301021400,8.682021484375,-5.152060508728027,0.8979586362838745,-8.295802116394043
1701881293310613800,8.69161376953125,-5.1486735343933105,0.8997092843055725,-8.297714233398438
1701881293320206800,8.701206787109374,-5.145946025848389,0.9008714556694031,-8.299280166625977
1701881293329799200,8.710799072265624,-5.143799304962158,0.901206374168396,-8.300575256347656
1701881293339390700,8.720390625,-5.1420183181762695,0.9006764888763428,-8.301734924316406
1701881293348983000,8.729983154296875,-5.1408820152282715,0.8994258046150208,-8.30257511138916
1701881293358576000,8.739576171875,-5.139626979827881,0.8977962732315063,-8.303528785705566
1701881293368168200,8.749168212890625,-5.138313293457031,0.8962023854255676,-8.304512977600098
1701881293377759700,8.758759765625,-5.136936664581299,0.8947533369064331,-8.305521965026855
1701881293387352000,8.76835205078125,-5.135114669799805,0.8934980630874634,-8.306782722473145
1701881293396945200,8.777945068359376,-5.132855415344238,0.8928709030151367,-8.308247566223145
1701881293406537500,8.787537353515624,-5.130509376525879,0.8928157687187195,-8.30970287322998
1701881293416129000,8.79712890625,-5.127860069274902,0.8935426473617554,-8.311258316040039
1701881293425721300,8.806721435546875,-5.1249003410339355,0.8949310779571533,-8.312933921813965
1701881293435314400,8.816314453125,-5.122053623199463,0.8966373205184937,-8.31450366973877
1701881293444906500,8.825906494140625,-5.11932897567749,0.8986705541610718,-8.315963745117188
1701881293454498000,8.835498046875,-5.1172614097595215,0.9004600644111633,-8.317042350769043
1701881293464090400,8.84509033203125,-5.115837097167969,0.9016011357307434,-8.31779670715332
1701881293473683500,8.854683349609376,-5.114685535430908,0.9018741846084595,-8.318473815917969
1701881293483275800,8.86427587890625,-5.114067077636719,0.9019103646278381,-8.318849563598633
1701881293492867300,8.873867431640624,-5.114187240600586,0.9048119187355042,-8.318460464477539
1701881293502459600,8.883459716796875,-5.115711212158203,0.9026206135749817,-8.317761421203613
1701881293512052700,8.893052734375,-5.116657733917236,0.9011537432670593,-8.317338943481445
1701881293521644800,8.902644775390625,-5.118326663970947,0.9011438488960266,-8.316312789916992
1701881293531236400,8.912236328125,-5.119908809661865,0.8992206454277039,-8.315546989440918
1701881293540828700,8.92182861328125,-5.1214118003845215,0.8967249989509583,-8.31489086151123
1701881293550421800,8.931421875,-5.1226887702941895,0.8944039940834045,-8.314353942871094
1701881293560014000,8.94101416015625,-5.12410306930542,0.8920769691467285,-8.313733100891113
1701881293569605600,8.950605712890624,-5.125102519989014,0.8896920680999756,-8.313373565673828
1701881293579198000,8.960197998046874,-5.125802516937256,0.8874756097793579,-8.313178062438965
1701881293588791000,8.969791015625,-5.126208782196045,0.8853588700294495,-8.313153266906738
1701881293598383400,8.97938330078125,-5.126026630401611,0.8839371204376221,-8.313417434692383
1701881293607974700,8.988974609375,-5.125508785247803,0.8829101920127869,-8.313844680786133
1701881293617567200,8.998567138671875,-5.124454498291016,0.8823646306991577,-8.314553260803223
1701881293627160000,9.00816015625,-5.123661994934082,0.8817411065101624,-8.315107345581055
1701881293636752400,9.01775244140625,-5.1228861808776855,0.8813657164573669,-8.315625190734863
1701881293646344000,9.027343994140624,-5.122023105621338,0.8810755610466003,-8.316186904907227
1701881293655936300,9.036936279296874,-5.121306896209717,0.880724310874939,-8.316665649414062
1701881293665529300,9.046529296875,-5.120705604553223,0.8805232048034668,-8.317055702209473
1701881293675121700,9.05612158203125,-5.120095252990723,0.8804106116294861,-8.317444801330566
1701881293684713200,9.065713134765625,-5.119769096374512,0.8801171183586121,-8.317676544189453
1701881293694305500,9.075305419921875,-5.119485378265381,0.8801426291465759,-8.317848205566406
1701881293703898600,9.084898681640626,-5.119547367095947,0.8800811171531677,-8.317816734313965
1701881293713490700,9.09449072265625,-5.119661331176758,0.8803954720497131,-8.317713737487793
1701881293723082200,9.104082275390626,-5.1197710037231445,0.8807240128517151,-8.317610740661621
1701881293732674600,9.113674560546874,-5.119999885559082,0.8809454441070557,-8.317447662353516
1701881293742267600,9.123267578125,-5.120617389678955,0.8812925815582275,-8.31702995300293
1701881293751860000,9.13285986328125,-5.12150764465332,0.8817370533943176,-8.316434860229492
1701881293761451500,9.142451416015625,-5.122616767883301,0.8822070956230164,-8.315701484680176
1701881293771043800,9.1520439453125,-5.123560428619385,0.8826941251754761,-8.315068244934082
1701881293780637000,9.161636962890626,-5.124445915222168,0.8833959698677063,-8.314448356628418
1701881293790229000,9.17122900390625,-5.125229358673096,0.8838710784912109,-8.313915252685547
1701881293799820500,9.180820556640626,-5.125962734222412,0.8845611810684204,-8.313389778137207
1701881293809412900,9.190412841796874,-5.126307487487793,0.8858692646026611,-8.313036918640137
1701881293819006000,9.200005859375,-5.126538276672363,0.8874381184577942,-8.312726974487305
1701881293828598300,9.209598388671875,-5.126293182373047,0.8894187808036804,-8.312667846679688
1701881293838189800,9.21918994140625,-5.12599515914917,0.8914313316345215,-8.31263542175293
1701881293847782100,9.2287822265625,-5.125779628753662,0.893172025680542,-8.312581062316895
1701881293857375200,9.238375244140625,-5.125884532928467,0.8944758772850037,-8.312376976013184
1701881293866967600,9.247967529296876,-5.1260247230529785,0.8957751393318176,-8.312150955200195
1701881293876558800,9.257558837890626,-5.126185417175293,0.8969239592552185,-8.31192684173584
1701881293886151200,9.267151123046874,-5.12629508972168,0.8979886770248413,-8.311745643615723
1701881293895744300,9.276744140625,-5.126551151275635,0.8983836770057678,-8.311544418334961
1701881293905336600,9.286336669921875,-5.126674652099609,0.8982153534889221,-8.311487197875977
1701881293914928000,9.29592822265625,-5.127314567565918,0.8975945711135864,-8.311159133911133
1701881293924520400,9.3055205078125,-5.128218650817871,0.896455705165863,-8.310723304748535
1701881293934113500,9.315113525390625,-5.1292219161987305,0.8952541351318359,-8.310234069824219
1701881293943705900,9.324705810546876,-5.130246162414551,0.8945027589797974,-8.309682846069336
1701881293953297200,9.334297119140626,-5.130599498748779,0.8939288258552551,-8.309526443481445
1701881293962889700,9.3438896484375,-5.130459785461426,0.8935064673423767,-8.309657096862793
1701881293972482600,9.353482666015625,-5.129826068878174,0.8931130766868591,-8.310091018676758
1701881293982075000,9.363074951171875,-5.128925323486328,0.8925628066062927,-8.310707092285156
1701881293991666400,9.37266650390625,-5.128185749053955,0.892139732837677,-8.311208724975586
1701881294001258800,9.3822587890625,-5.127256870269775,0.8918878436088562,-8.311807632446289
1701881294010851800,9.391851806640625,-5.125941753387451,0.8916135430335999,-8.31264877319336
1701881294020444200,9.401444091796876,-5.124596118927002,0.8914619088172913,-8.313495635986328
1701881294030035700,9.41103564453125,-5.123319149017334,0.8911271095275879,-8.31431770324707
1701881294039628000,9.4206279296875,-5.1218180656433105,0.8905996084213257,-8.315298080444336
1701881294049221000,9.43022119140625,-5.120354175567627,0.8900954723358154,-8.316254615783691
1701881294058813200,9.439813232421875,-5.11912202835083,0.8897713422775269,-8.317048072814941
1701881294068404700,9.44940478515625,-5.118058681488037,0.8891192078590393,-8.317771911621094
1701881294077997000,9.4589970703125,-5.117266654968262,0.8886521458625793,-8.31830883026123
1701881294087590100,9.468590087890625,-5.116674900054932,0.8880883455276489,-8.318733215332031
1701881294097182500,9.478182373046875,-5.1162824630737305,0.88736492395401,-8.319051742553711
1701881294106774000,9.48777392578125,-5.116179943084717,0.886862576007843,-8.319169044494629
1701881294116366300,9.497366455078126,-5.116113662719727,0.8859546184539795,-8.319306373596191
1701881294125959400,9.50695947265625,-5.116673946380615,0.8853095769882202,-8.319029808044434
1701881294135551700,9.5165517578125,-5.117312431335449,0.8847114443778992,-8.31870174407959
1701881294145143000,9.52614306640625,-5.118054389953613,0.8843128681182861,-8.31828784942627
1701881294154735600,9.535735595703125,-5.118893146514893,0.8839572668075562,-8.317808151245117
1701881294164328400,9.545328369140625,-5.120282173156738,0.8834670186042786,-8.31700611114502
1701881294173920800,9.554920654296875,-5.121859073638916,0.8828639388084412,-8.316099166870117
1701881294183512300,9.56451220703125,-5.1232428550720215,0.8823166489601135,-8.315305709838867
1701881294193104600,9.574104736328126,-5.124602317810059,0.8817647099494934,-8.31452465057373
1701881294202697700,9.58369775390625,-5.126079082489014,0.8812564015388489,-8.313669204711914
1701881294212290000,9.5932900390625,-5.12741231918335,0.8812204003334045,-8.312850952148438
1701881294221881600,9.602881591796875,-5.128558158874512,0.8815246224403381,-8.312111854553223
1701881294231474000,9.612473876953125,-5.129631042480469,0.8821427822113037,-8.311383247375488
1701881294241067000,9.62206689453125,-5.13063383102417,0.8829246163368225,-8.31068229675293
1701881294250659000,9.6316591796875,-5.131478309631348,0.883521556854248,-8.310096740722656
1701881294260250600,9.641250732421875,-5.132127285003662,0.8841436505317688,-8.309629440307617
1701881294269843000,9.650843017578126,-5.132822513580322,0.8843272924423218,-8.30918025970459
1701881294279436000,9.66043603515625,-5.133574485778809,0.8840625286102295,-8.308745384216309
1701881294289028400,9.6700283203125,-5.1342573165893555,0.8835503458976746,-8.308377265930176
1701881294298620000,9.679619873046875,-5.134682655334473,0.883378803730011,-8.30813217163086
1701881294308212200,9.689212158203125,-5.134791851043701,0.8830534815788269,-8.308100700378418
1701881294317805300,9.698805419921875,-5.134765625,0.8826601505279541,-8.308156967163086
1701881294327397400,9.7083974609375,-5.134548664093018,0.8823360800743103,-8.30832576751709
1701881294336989000,9.717989013671875,-5.134099006652832,0.881918728351593,-8.308648109436035
1701881294346581200,9.727581298828126,-5.133699417114258,0.8809683322906494,-8.308996200561523
1701881294356174300,9.73717431640625,-5.133322715759277,0.8800669312477112,-8.309324264526367
1701881294365766700,9.7467666015625,-5.133119583129883,0.8787819147109985,-8.309585571289062
1701881294375358200,9.756358154296874,-5.132940769195557,0.8771610856056213,-8.309867858886719
1701881294384950500,9.765950439453125,-5.132617473602295,0.8755530714988708,-8.310235977172852
1701881294394543600,9.775543701171875,-5.1325201988220215,0.8739784955978394,-8.31046199798584
1701881294404136000,9.785135986328125,-5.132226467132568,0.8724226951599121,-8.310806274414062
1701881294413727200,9.794727294921875,-5.132073402404785,0.8709829449653625,-8.311053276062012
1701881294423319600,9.804319580078126,-5.13230562210083,0.869451105594635,-8.31106948852539
1701881294432912600,9.81391259765625,-5.132565975189209,0.8679842948913574,-8.311062812805176
1701881294442505000,9.8235048828125,-5.133068561553955,0.8663095831871033,-8.310928344726562
1701881294452096500,9.833096435546874,-5.133772850036621,0.8652487397193909,-8.310602188110352
1701881294461688800,9.842688720703125,-5.134272575378418,0.8645563125610352,-8.310365676879883
1701881294471282000,9.852281982421875,-5.134984970092773,0.8639169335365295,-8.309992790222168
1701881294480874200,9.861874267578125,-5.135468006134033,0.8635994791984558,-8.309725761413574
1701881294490465500,9.871465576171875,-5.135931491851807,0.8636518120765686,-8.30943489074707
1701881294500058000,9.88105810546875,-5.136270523071289,0.8639554977416992,-8.30919361114502
1701881294509651200,9.890651123046876,-5.136306285858154,0.864800751209259,-8.309082984924316
1701881294519243300,9.9002431640625,-5.135936260223389,0.865929126739502,-8.30919361114502
1701881294528834800,9.909834716796874,-5.135705471038818,0.8674448728561401,-8.309179306030273
1701881294538427100,9.91942724609375,-5.1352057456970215,0.8694263100624084,-8.309280395507812
1701881294548020200,9.929020263671875,-5.134664535522461,0.8714491128921509,-8.309403419494629
1701881294557612500,9.938612548828125,-5.134231090545654,0.8733116388320923,-8.309475898742676
1701881294567204000,9.9482041015625,-5.134330749511719,0.87504643201828,-8.30923080444336
1701881294576796400,9.95779638671875,-5.134871006011963,0.8759761452674866,-8.30880069732666
1701881294586389500,9.967389404296876,-5.1356425285339355,0.8767238855361938,-8.308243751525879
1701881294595981800,9.97698193359375,-5.136844158172607,0.8770434260368347,-8.307467460632324
1701881294605573000,9.986572998046874,-5.1381049156188965,0.8773892521858215,-8.30665111541748
1701881294615165400,9.99616552734375,-5.139291763305664,0.877436101436615,-8.305912971496582
1701881294624758500,10.005758544921875,-5.140190601348877,0.8769838213920593,-8.305402755737305
1701881294634350800,10.015350830078125,-5.140965461730957,0.8765519857406616,-8.304969787597656
1701881294643942400,10.0249423828125,-5.141108989715576,0.8756295442581177,-8.304977416992188
1701881294653534700,10.03453466796875,-5.141331672668457,0.87465500831604,-8.304944038391113
1701881294663127800,10.0441279296875,-5.141019821166992,0.8735306262969971,-8.305254936218262
1701881294672720100,10.05372021484375,-5.1404876708984375,0.8721812963485718,-8.30572509765625
1701881294682311400,10.0633115234375,-5.139955043792725,0.8707326054573059,-8.306205749511719
1701881294691904000,10.072904052734375,-5.139143466949463,0.8695478439331055,-8.306833267211914
1701881294701496800,10.082496826171875,-5.137886047363281,0.8685101866722107,-8.307719230651855
1701881294711089200,10.092089111328125,-5.136503219604492,0.8680678606033325,-8.30862045288086
1701881294720680700,10.1016806640625,-5.1346282958984375,0.8679316639900208,-8.309794425964355
1701881294730273000,10.11127294921875,-5.1320037841796875,0.8686084747314453,-8.311345100402832
1701881294739866000,10.1208662109375,-5.1283769607543945,0.8698620796203613,-8.313450813293457
1701881294749458400,10.13045849609375,-5.123904228210449,0.8714720606803894,-8.316040992736816
1701881294759050000,10.140050048828124,-5.118631839752197,0.8742883205413818,-8.318991661071777
1701881294768642300,10.149642333984374,-5.113347053527832,0.8789250254631042,-8.321752548217773
1701881294778235400,10.1592353515625,-5.107960224151611,0.8851458430290222,-8.324400901794434
1701881294787827500,10.168827392578125,-5.103280544281006,0.894352912902832,-8.326287269592285
1701881294797419000,10.1784189453125,-5.098754405975342,0.900297999382019,-8.328418731689453
1701881294807011300,10.18801123046875,-5.094732761383057,0.905955970287323,-8.330265998840332
1701881294816604400,10.1976044921875,-5.0913496017456055,0.9114125370979309,-8.331737518310547
1701881294826196700,10.20719677734375,-5.0886335372924805,0.915788471698761,-8.332917213439941
1701881294835788300,10.216788330078124,-5.086980819702148,0.9188001155853271,-8.333596229553223
1701881294845380600,10.226380615234374,-5.087028980255127,0.9202404618263245,-8.333406448364258
1701881294854973700,10.2359736328125,-5.089080810546875,0.9194409251213074,-8.332242965698242
1701881294864565800,10.245565673828125,-5.096052169799805,0.9143937230110168,-8.328536033630371
1701881294874157300,10.2551572265625,-5.1100311279296875,0.8955966830253601,-8.322011947631836
1701881294883749600,10.26474951171875,-5.116877555847168,0.8836614489555359,-8.319080352783203
1701881294893342700,10.2743427734375,-5.1253275871276855,0.8727220892906189,-8.315032005310059
1701881294902935000,10.28393505859375,-5.131745338439941,0.8616457581520081,-8.31222915649414
1701881294912526600,10.293526611328126,-5.1368231773376465,0.8509591221809387,-8.310193061828613
1701881294922119000,10.303118896484374,-5.140660285949707,0.841637909412384,-8.308769226074219
1701881294931712000,10.3127119140625,-5.144614219665527,0.8332313299179077,-8.307168960571289
1701881294941304300,10.32230419921875,-5.147579193115234,0.8259539604187012,-8.306058883666992
1701881294950895900,10.331895751953125,-5.150919437408447,0.8188492655754089,-8.304691314697266
1701881294960488200,10.34148828125,-5.153833389282227,0.8120182752609253,-8.30355453491211
1701881294970081300,10.351081298828126,-5.158435821533203,0.8046147227287292,-8.301417350769043
1701881294979673300,10.36067333984375,-5.162224769592285,0.7969654202461243,-8.299799919128418
1701881294989265000,10.370264892578126,-5.1647491455078125,0.7905906438827515,-8.298837661743164
1701881294998857200,10.379857177734374,-5.165585994720459,0.7848414182662964,-8.298863410949707
1701881295008450300,10.3894501953125,-5.164554119110107,0.7803291082382202,-8.299930572509766
1701881295018042600,10.399042724609375,-5.161863803863525,0.7769320607185364,-8.301922798156738
1701881295027634200,10.40863427734375,-5.158133506774902,0.7746796607971191,-8.304450988769531
1701881295037226500,10.4182265625,-5.153231620788574,0.7729434967041016,-8.307656288146973
1701881295046819600,10.427819580078125,-5.147674560546875,0.7713291049003601,-8.311250686645508
1701881295056411600,10.43741162109375,-5.141430377960205,0.7694135308265686,-8.315292358398438
1701881295066003200,10.447003173828126,-5.134584903717041,0.7669805288314819,-8.319746971130371
1701881295075595500,10.456595458984374,-5.127622604370117,0.7646235823631287,-8.324254035949707
1701881295085188600,10.466188720703125,-5.120405673980713,0.7626187801361084,-8.328880310058594
1701881295094781000,10.475781005859375,-5.112956523895264,0.7611212730407715,-8.333592414855957
1701881295104372500,10.48537255859375,-5.105325698852539,0.7599297165870667,-8.338377952575684
1701881295113964800,10.49496484375,-5.09760046005249,0.7591715455055237,-8.343172073364258
1701881295123558000,10.504557861328125,-5.089646816253662,0.7586841583251953,-8.34807014465332
1701881295133150200,10.514150146484376,-5.0818634033203125,0.7582564353942871,-8.352849960327148
1701881295142741500,10.523741455078126,-5.074728488922119,0.758089542388916,-8.35720157623291
1701881295152333800,10.533333740234376,-5.068575382232666,0.7575784921646118,-8.360980987548828
1701881295161927000,10.542927001953124,-5.063342571258545,0.7567304372787476,-8.364227294921875
1701881295171519200,10.552519287109375,-5.059184551239014,0.7550374865531921,-8.366896629333496
1701881295181110800,10.56211083984375,-5.05611515045166,0.7527982592582703,-8.368953704833984
1701881295190703000,10.571703125,-5.054376602172852,0.7498966455459595,-8.370264053344727
1701881295200296200,10.581296142578125,-5.053660869598389,0.7464048862457275,-8.37100887298584
1701881295209888500,10.590888427734376,-5.0539231300354,0.7417851686477661,-8.371260643005371
1701881295219479800,10.600479736328126,-5.055362224578857,0.7359811067581177,-8.370903968811035
1701881295229072400,10.610072265625,-5.058256149291992,0.7295623421669006,-8.36971664428711
1701881295238665200,10.619665283203124,-5.0619587898254395,0.7222840189933777,-8.368110656738281
1701881295248257500,10.629257568359375,-5.06619930267334,0.7147412896156311,-8.366191864013672
1701881295257849000,10.63884912109375,-5.070823669433594,0.7069978713989258,-8.36404800415039
1701881295267441400,10.64844140625,-5.07538366317749,0.6986383199691772,-8.361984252929688
1701881295277034500,10.658034423828125,-5.080183982849121,0.6905524730682373,-8.359740257263184
1701881295286626800,10.667626708984375,-5.084572792053223,0.6822891235351562,-8.35775089263916
1701881295296218400,10.67721826171875,-5.0887532234191895,0.6745777726173401,-8.35583209991455
1701881295305810700,10.686810791015626,-5.092674255371094,0.6680167317390442,-8.35396957397461
1701881295315403800,10.69640380859375,-5.09609842300415,0.6625035405158997,-8.35232162475586
1701881295324996000,10.70599609375,-5.099091529846191,0.6585504412651062,-8.35080623626709
1701881295334587400,10.71558740234375,-5.101407051086426,0.6559422612190247,-8.349596977233887
1701881295344179700,10.7251796875,-5.103602886199951,0.6537445187568665,-8.348428726196289
1701881295353772800,10.734772705078125,-5.105470180511475,0.6515395641326904,-8.347457885742188
1701881295363365000,10.744365234375,-5.107399940490723,0.6491867303848267,-8.346461296081543
1701881295372956700,10.753956787109376,-5.108971118927002,0.6468287706375122,-8.345682144165039
1701881295382549000,10.763549072265626,-5.110400199890137,0.645077109336853,-8.344943046569824
1701881295392142000,10.77314208984375,-5.111659049987793,0.6438578367233276,-8.344265937805176
1701881295401734400,10.782734375,-5.112900733947754,0.6435216665267944,-8.343531608581543
1701881295411325700,10.79232568359375,-5.113703727722168,0.6439162492752075,-8.343008995056152
1701881295420918300,10.801918212890625,-5.114380359649658,0.6441466808319092,-8.34257698059082
1701881295430511000,10.811510986328125,-5.115194797515869,0.6440932750701904,-8.342080116271973
1701881295440103400,10.821103515625,-5.116799354553223,0.6425013542175293,-8.341219902038574
1701881295449695000,10.830695068359375,-5.119870662689209,0.6388188004493713,-8.339617729187012
1701881295459287300,10.840287353515626,-5.1244354248046875,0.6324511170387268,-8.337299346923828
1701881295468880400,10.84988037109375,-5.130209445953369,0.6240718364715576,-8.334379196166992
1701881295478472700,10.85947265625,-5.13620662689209,0.6144935488700867,-8.331396102905273
1701881295488064300,10.869064208984375,-5.1424174308776855,0.6038159132003784,-8.32834529876709
1701881295497656600,10.878656494140625,-5.147597312927246,0.593483030796051,-8.325887680053711
1701881295507249700,10.888249755859375,-5.151701927185059,0.5842690467834473,-8.32400131225586
1701881295516841700,10.897841796875,-5.154513359069824,0.5766181349754333,-8.322793006896973
1701881295526433300,10.907433349609375,-5.157376766204834,0.5701452493667603,-8.321465492248535
1701881295536025600,10.917025634765626,-5.160033702850342,0.56441330909729,-8.320209503173828
1701881295545618700,10.92661865234375,-5.1624016761779785,0.5596117973327637,-8.319064140319824
1701881295555211000,10.9362109375,-5.1652727127075195,0.5550029873847961,-8.317590713500977
1701881295564802600,10.945802490234374,-5.168392181396484,0.5500297546386719,-8.315982818603516
1701881295574395000,10.955394775390625,-5.172792434692383,0.543646514415741,-8.313667297363281
1701881295583988000,10.964988037109375,-5.178630828857422,0.5365582704544067,-8.310492515563965
1701881295593580300,10.974580322265625,-5.185568809509277,0.5284916162490845,-8.306681632995605
1701881295603171600,10.984171630859375,-5.19404935836792,0.5197665691375732,-8.301932334899902
1701881295612764200,10.99376416015625,-5.204344272613525,0.510516345500946,-8.296056747436523
1701881295622357000,11.00335693359375,-5.216155529022217,0.501560389995575,-8.289182662963867
1701881295631949300,11.01294921875,-5.229193210601807,0.49358075857162476,-8.28144359588623
1701881295641540900,11.022540771484374,-5.242775917053223,0.4873666763305664,-8.273219108581543
1701881295651133200,11.03213330078125,-5.261260509490967,0.4801959693431854,-8.261897087097168
1701881295660726300,11.041726318359375,-5.279628276824951,0.4706322252750397,-8.250722885131836
1701881295670318600,11.051318603515625,-5.298598289489746,0.4603927731513977,-8.239130973815918
1701881295679910100,11.06091015625,-5.319806098937988,0.44961634278297424,-8.226049423217773
1701881295689502200,11.070502197265625,-5.338519096374512,0.4401712119579315,-8.214428901672363
1701881295699095600,11.080095458984376,-5.354170799255371,0.4331650137901306,-8.204608917236328
1701881295708687600,11.0896875,-5.368205547332764,0.42879074811935425,-8.195663452148438
1701881295718279200,11.099279052734374,-5.381271839141846,0.42754656076431274,-8.187154769897461
1701881295727871500,11.10887158203125,-5.392852306365967,0.42795559763908386,-8.179510116577148
1701881295737464600,11.118464599609375,-5.40238094329834,0.42756786942481995,-8.173239707946777
1701881295747057000,11.128056884765625,-5.411736488342285,0.4271535575389862,-8.167069435119629
1701881295756648400,11.1376484375,-5.4241509437561035,0.4304710030555725,-8.158656120300293
1701881295766240800,11.14724072265625,-5.437835693359375,0.4321698844432831,-8.149452209472656
1701881295775833900,11.156833740234376,-5.455018520355225,0.4354003667831421,-8.137787818908691
1701881295785426200,11.16642626953125,-5.475225448608398,0.43531912565231323,-8.1242094039917
1701881295795017500,11.176017578125,-5.491678237915039,0.43661949038505554,-8.113027572631836
1701881295804610000,11.185610107421875,-5.5058393478393555,0.43856385350227356,-8.10331916809082
1701881295814203000,11.195202880859375,-5.518851280212402,0.44046470522880554,-8.094359397888184
1701881295823795200,11.204795166015625,-5.5323944091796875,0.4422578811645508,-8.08501148223877
1701881295833386800,11.21438671875,-5.545964241027832,0.4425089359283447,-8.075695037841797
1701881295842979000,11.22397900390625,-5.55259895324707,0.44088229537010193,-8.071223258972168
1701881295852572200,11.233572265625,-5.5515522956848145,0.4473898410797119,-8.071586608886719
1701881295862164500,11.24316455078125,-5.557248592376709,0.45226794481277466,-8.06739330291748
1701881295871756000,11.252756103515624,-5.56300687789917,0.4552953541278839,-8.063252449035645
1701881295881348400,11.262348388671874,-5.565810203552246,0.4600972831249237,-8.06104564666748
1701881295890941400,11.27194140625,-5.569023609161377,0.4624784588813782,-8.058690071105957
1701881295900533500,11.281533447265625,-5.572235107421875,0.4613001346588135,-8.056536674499512
1701881295910125000,11.291125,-5.574946403503418,0.45832809805870056,-8.054829597473145
1701881295919717400,11.30071728515625,-5.577363967895508,0.4566979706287384,-8.05324935913086
1701881295929310500,11.310310546875,-5.581342697143555,0.45253831148147583,-8.050726890563965
1701881295938902800,11.31990283203125,-5.586411476135254,0.44762128591537476,-8.0474853515625
1701881295948494300,11.329494384765624,-5.599003791809082,0.44255438446998596,-8.039011001586914
1701881295958086700,11.339086669921874,-5.6054582595825195,0.43747004866600037,-8.034789085388184
1701881295967679700,11.3486796875,-5.604031562805176,0.43124234676361084,-8.036121368408203
1701881295977272000,11.35827197265625,-5.603514671325684,0.4208724796772003,-8.037032127380371
1701881295986863400,11.36786328125,-5.607333183288574,0.40767213702201843,-8.03504753112793
1701881295996456000,11.3774560546875,-5.615242958068848,0.39432960748672485,-8.03018856048584
1701881296006048800,11.387048828125,-5.6214494705200195,0.3815666735172272,-8.026461601257324
1701881296015641000,11.39664111328125,-5.62767219543457,0.36870095133781433,-8.022701263427734
1701881296025232600,11.406232666015624,-5.63224983215332,0.3559533357620239,-8.020065307617188
1701881296034825000,11.415824951171874,-5.633450031280518,0.34759676456451416,-8.0195894241333
1701881296044418000,11.42541796875,-5.632763862609863,0.34084680676460266,-8.020359992980957
1701881296054010400,11.43501025390625,-5.629005432128906,0.3357166051864624,-8.023215293884277
1701881296063602000,11.444601806640625,-5.624133110046387,0.3326001763343811,-8.026762008666992
1701881296073194200,11.4541943359375,-5.617949962615967,0.33133429288864136,-8.03114128112793
1701881296082787300,11.463787353515626,-5.610106945037842,0.3309658467769623,-8.036637306213379
1701881296092379400,11.47337939453125,-5.603504180908203,0.33025142550468445,-8.041272163391113
1701881296101971000,11.482970947265626,-5.599002361297607,0.32802337408065796,-8.044498443603516
1701881296111563300,11.492563232421874,-5.59444522857666,0.3240756690502167,-8.047828674316406
1701881296121156400,11.50215625,-5.590936183929443,0.3194277286529541,-8.050453186035156
1701881296130748700,11.511748779296875,-5.588960647583008,0.3149694502353668,-8.05199909210205
1701881296140340200,11.52134033203125,-5.587743282318115,0.3119601309299469,-8.052961349487305
1701881296149932500,11.5309326171875,-5.5853047370910645,0.30908626317977905,-8.054763793945312
1701881296159525600,11.540525634765626,-5.580309867858887,0.30650636553764343,-8.058324813842773
1701881296169118000,11.550117919921876,-5.574301242828369,0.305323988199234,-8.062525749206543
1701881296178709200,11.559709228515626,-5.569790363311768,0.3047310411930084,-8.065666198730469
1701881296188301800,11.5693017578125,-5.567982196807861,0.3039413094520569,-8.066944122314453
1701881296197894700,11.578894775390625,-5.566564559936523,0.3081250786781311,-8.067763328552246
1701881296207487200,11.5884873046875,-5.5665388107299805,0.3120388388633728,-8.067631721496582
1701881296217078500,11.59807861328125,-5.56190299987793,0.31467100977897644,-8.070724487304688
1701881296226670800,11.6076708984375,-5.5565876960754395,0.31708014011383057,-8.074292182922363
1701881296236264000,11.617263916015625,-5.5554585456848145,0.317209392786026,-8.07506275177002
1701881296245856300,11.626856201171876,-5.555642127990723,0.317833811044693,-8.074913024902344
1701881296255447800,11.63644775390625,-5.560400009155273,0.32022902369499207,-8.071542739868164
1701881296265040100,11.6460400390625,-5.568726062774658,0.31972789764404297,-8.06581974029541
1701881296274633200,11.65563330078125,-5.578536033630371,0.3209492266178131,-8.058989524841309
1701881296284225300,11.665225341796875,-5.591095924377441,0.32328706979751587,-8.050187110900879
1701881296293816800,11.67481689453125,-5.605352401733398,0.32282206416130066,-8.04028606414795
1701881296303409200,11.6844091796875,-5.624207019805908,0.3186619281768799,-8.027274131774902
1701881296313002200,11.694002197265625,-5.643072128295898,0.31891679763793945,-8.014013290405273
1701881296322594600,11.703594482421876,-5.665783882141113,0.3320627510547638,-7.997438430786133
1701881296332186000,11.71318603515625,-5.6855645179748535,0.3369764983654022,-7.983181476593018
1701881296341778400,11.7227783203125,-5.701541423797607,0.3351380228996277,-7.971857070922852
1701881296351371500,11.73237158203125,-5.726192474365234,0.32685190439224243,-7.954512596130371
1701881296360963800,11.7419638671875,-5.7551984786987305,0.3163784444332123,-7.933976173400879
1701881296370555400,11.751555419921875,-5.776754856109619,0.31188493967056274,-7.9184722900390625
1701881296380147700,11.761147705078125,-5.797420024871826,0.309325635433197,-7.903456211090088
1701881296389740800,11.77074072265625,-5.818303108215332,0.3058883249759674,-7.8882293701171875
1701881296399332900,11.780332763671876,-5.8393707275390625,0.29913270473480225,-7.87290620803833
1701881296408924400,11.78992431640625,-5.859105587005615,0.2903456389904022,-7.858561038970947
1701881296418516700,11.799516845703126,-5.879064083099365,0.28358733654022217,-7.8438873291015625
1701881296428109800,11.80910986328125,-5.899189472198486,0.28024113178253174,-7.828883171081543
1701881296437702100,11.8187021484375,-5.914170742034912,0.28004178404808044,-7.81757926940918
1701881296447293700,11.828293701171875,-5.926579475402832,0.2821037769317627,-7.808102130889893
1701881296456886000,11.837885986328125,-5.938554763793945,0.2846750020980835,-7.798904895782471
1701881296466479000,11.84747900390625,-5.9495978355407715,0.288000226020813,-7.7903618812561035
1701881296476071200,11.8570712890625,-5.959672927856445,0.2938317060470581,-7.782439231872559
1701881296485662700,11.866662841796876,-5.970688343048096,0.30045005679130554,-7.773738384246826
1701881296495255300,11.87625537109375,-5.982707977294922,0.3074773848056793,-7.764215469360352
1701881296504848400,11.885848388671874,-5.996554851531982,0.31588345766067505,-7.7531890869140625
1701881296514440400,11.8954404296875,-6.010274887084961,0.32597848773002625,-7.74213981628418
1701881296524032000,11.905031982421875,-6.021786689758301,0.3356752097606659,-7.732773780822754
1701881296533624300,11.914624267578125,-6.029169082641602,0.3435054123401642,-7.726675033569336
1701881296543217400,11.924217529296875,-6.038520812988281,0.3493381142616272,-7.719107151031494
1701881296552809700,11.933809814453125,-6.056148529052734,0.352430135011673,-7.70514440536499
1701881296562401300,11.9434013671875,-6.070315837860107,0.35637393593788147,-7.693806171417236
1701881296571993600,11.95299365234375,-6.0844268798828125,0.3607301414012909,-7.682447910308838
1701881296581586700,11.962586669921874,-6.098217010498047,0.36167335510253906,-7.671462059020996
1701881296591178800,11.9721787109375,-6.113555431365967,0.3605833351612091,-7.659296035766602
1701881296600770300,11.981770263671875,-6.128661155700684,0.358924001455307,-7.647291660308838
1701881296610362600,11.991362548828125,-6.144480228424072,0.35643431544303894,-7.63470458984375
1701881296619955700,12.000955810546875,-6.161352157592773,0.35270777344703674,-7.621268272399902
1701881296629548000,12.010548095703125,-6.189552307128906,0.34336796402931213,-7.598811149597168
1701881296639139600,12.0201396484375,-6.222836017608643,0.3233692944049835,-7.5724592208862305
1701881296648732000,12.02973193359375,-6.259123802185059,0.3026317059993744,-7.5433526039123535
1701881296658325000,12.039324951171874,-6.30076265335083,0.2855760455131531,-7.509275913238525
1701881296667917300,12.048917236328125,-6.338156700134277,0.2675735056400299,-7.478405475616455
1701881296677508600,12.058508544921875,-6.371923446655273,0.24342088401317596,-7.4504852294921875
1701881296687101200,12.06810107421875,-6.402004241943359,0.21392866969108582,-7.425562381744385
1701881296696694300,12.0776943359375,-6.433041572570801,0.1828847974538803,-7.399521350860596
1701881296706286300,12.087286376953125,-6.469979763031006,0.14822512865066528,-7.3680243492126465
1701881296715878000,12.0968779296875,-6.493466377258301,0.11188657581806183,-7.3479766845703125
1701881296725470200,12.10647021484375,-6.500705718994141,0.07097509503364563,-7.342082500457764
1701881296735063300,12.116063232421874,-6.507202625274658,0.032096631824970245,-7.336597919464111
1701881296744655600,12.125655517578124,-6.516518592834473,-0.008782623335719109,-7.328390598297119
1701881296754247200,12.1352470703125,-6.522247314453125,-0.0528276227414608,-7.323106288909912
1701881296763839500,12.144839599609375,-6.5227766036987305,-0.08869696408510208,-7.322288990020752
1701881296773432600,12.1544326171875,-6.531879901885986,-0.11051743477582932,-7.31387186050415
1701881296783025000,12.16402490234375,-6.558438777923584,-0.12400754541158676,-7.289849281311035
1701881296792616200,12.1736162109375,-6.5787506103515625,-0.13087831437587738,-7.271402835845947
1701881296802208500,12.18320849609375,-6.590342998504639,-0.1331004500389099,-7.260858535766602
1701881296811801600,12.192801513671874,-6.607540607452393,-0.14229072630405426,-7.245035171508789
1701881296821394000,12.202393798828124,-6.623208045959473,-0.15846750140190125,-7.230379104614258
1701881296830985500,12.2119853515625,-6.635879039764404,-0.17900538444519043,-7.2182722091674805
1701881296840577800,12.221577880859375,-6.665119171142578,-0.19955071806907654,-7.190741062164307
1701881296850171000,12.2311708984375,-6.71499490737915,-0.21317130327224731,-7.143794059753418
1701881296859763200,12.24076318359375,-6.775638580322266,-0.2286357432603836,-7.085819244384766
1701881296869354500,12.2503544921875,-6.847609519958496,-0.2841258645057678,-7.014263153076172
1701881296878947000,12.259947021484376,-6.906686305999756,-0.35425910353660583,-6.952881813049316
1701881296888540200,12.2695400390625,-6.9630913734436035,-0.431799978017807,-6.891972541809082
1701881296898132200,12.27913232421875,-7.023294448852539,-0.5416004657745361,-6.8227858543396
1701881296907723800,12.288723876953124,-7.1036272048950195,-0.7087480425834656,-6.723580360412598
1701881296917316000,12.298316162109375,-7.186038017272949,-0.920536994934082,-6.609375953674316
1701881296926909200,12.3079091796875,-7.26664924621582,-1.1355679035186768,-6.486654281616211
1701881296936501500,12.31750146484375,-7.356110572814941,-1.3384650945663452,-6.345592021942139
1701881296946093000,12.327093017578125,-7.4496235847473145,-1.5149879455566406,-6.195023536682129
1701881296955685400,12.336685302734375,-7.550556182861328,-1.6729353666305542,-6.029988765716553
1701881296965278500,12.346278564453126,-7.651949882507324,-1.8360575437545776,-5.852089881896973
