time,seconds_elapsed,z,y,x
1701857666198564400,0.181564453125,0.24189551174640656,1.4533582925796509,-1.5486505031585693
1701857666208157700,0.19115771484375,0.26755109429359436,1.0001096725463867,-1.6891453266143799
1701857666217751600,0.20075146484375,0.3518480062484741,0.488219678401947,-1.631725788116455
1701857666227344600,0.2103447265625,0.4349232614040375,0.13514995574951172,-1.4399197101593018
1701857666236937000,0.21993701171875,0.41537612676620483,-0.16660858690738678,-1.1931374073028564
1701857666246530300,0.2295302734375,0.32008397579193115,-0.5992411375045776,-0.9353598356246948
1701857666256124200,0.239124267578125,0.26755109429359436,-1.119683027267456,-0.6763606071472168
1701857666265717200,0.24871728515625,0.33230090141296387,-1.5032950639724731,-0.46134239435195923
1701857666275309600,0.2583095703125,0.5204418897628784,-1.5472761392593384,-0.3721587061882019
1701857666284903000,0.26790283203125,0.6707102656364441,-1.3750171661376953,-0.4149180054664612
1701857666294496800,0.277496826171875,0.499673068523407,-1.5484977960586548,-0.7508839964866638
1701857666304089900,0.28708984375,0.11972606182098389,-2.3193869590759277,-1.4606884717941284
1701857666313682200,0.29668212890625,-0.06719319522380829,-2.166675329208374,-2.056875467300415
1701857666323275500,0.306275634765625,0.13438639044761658,-1.1893196105957031,-2.2376861572265625
1701857666332869400,0.315869384765625,0.6743753552436829,-0.2423536479473114,-2.014116048812866
1701857666342462500,0.32546240234375,1.0873081684112549,0.13148486614227295,-1.6353908777236938
1701857666352054800,0.3350546875,1.0983033180236816,0.28908345103263855,-1.209019422531128
1701857666361648000,0.344648193359375,0.9199360013008118,0.43568679690361023,-0.6274928450584412
1701857666371242000,0.354241943359375,0.7550072073936462,0.3220692276954651,0.1104106456041336
1701857666380835000,0.3638349609375,0.5473191738128662,-0.011453386396169662,0.8741224408149719
1701857666390427400,0.373427490234375,0.2602209448814392,-0.47707170248031616,1.5643798112869263
1701857666400020700,0.383020751953125,-0.05741964280605316,-0.9486457705497742,2.126359224319458
1701857666409614600,0.392614501953125,-0.35795649886131287,-1.323706030845642,2.4867591857910156
1701857666419207700,0.402207763671875,-0.5937435626983643,-1.5423892736434937,2.5869381427764893
1701857666428800000,0.411800048828125,-0.6682668924331665,-1.6437900066375732,2.5331835746765137
1701857666438393300,0.421393310546875,-0.5436540842056274,-1.5949221849441528,2.3474860191345215
1701857666447987200,0.4309873046875,-0.2919849753379822,-1.4470971822738647,2.018850088119507
1701857666457580300,0.440580322265625,-0.03176405653357506,-1.2137534618377686,1.6022523641586304
1701857666467172600,0.450172607421875,0.1319430023431778,-0.9376505613327026,1.12823486328125
1701857666476766000,0.459765869140625,0.1844758689403534,-0.7299624681472778,0.6053496599197388
1701857666486359800,0.46935986328125,0.17836740612983704,-0.6371136903762817,0.1385096162557602
1701857666495953000,0.478952880859375,0.16859383881092072,-0.5992411375045776,-0.18768282234668732
1701857666505545200,0.488545166015625,0.16370706260204315,-0.555260181427002,-0.39048412442207336
1701857666515138600,0.498138671875,0.20646637678146362,-0.5723638534545898,-0.46867257356643677
1701857666524732400,0.507732421875,0.3701734244823456,-0.6896465420722961,-0.4246915578842163
1701857666534325500,0.517325439453125,0.6560499668121338,-0.832584798336029,-0.30130040645599365
1701857666543917800,0.526917724609375,0.8820634484291077,-0.8826742768287659,-0.16080553829669952
1701857666553511200,0.53651123046875,0.9028322696685791,-0.8252546191215515,-0.06429167091846466
1701857666563105000,0.54610498046875,0.7171346545219421,-0.6994200944900513,-0.038636088371276855
1701857666572698000,0.555697998046875,0.4581354558467865,-0.5931326746940613,-0.04352286830544472
1701857666582290400,0.56529052734375,0.27121618390083313,-0.49051034450531006,-0.0325276181101799
1701857666591883800,0.5748837890625,0.2089097648859024,-0.39262208342552185,-0.001985253533348441
1701857666601477600,0.5844775390625,0.2223484069108963,-0.3339807391166687,0.0016798300202935934
1701857666611070700,0.59407080078125,0.25655585527420044,-0.3315373361110687,-0.04352286830544472
1701857666620663000,0.6036630859375,0.28343313932418823,-0.3633013963699341,-0.10827267915010452
1701857666630256400,0.61325634765625,0.29687178134918213,-0.32909396290779114,-0.15347537398338318
1701857666639850200,0.622850341796875,0.31031039357185364,-0.04199574887752533,-0.23899398744106293
1701857666649443300,0.632443359375,0.2919849753379822,0.14248012006282806,-0.3245126008987427
1701857666659035600,0.64203564453125,0.22723518311977386,0.10338589549064636,-0.3623851239681244
1701857666668629000,0.65162890625,0.1453816443681717,-0.10430216789245605,-0.3721587061882019
1701857666678222800,0.661222900390625,0.09651386737823486,-0.40728241205215454,-0.36360684037208557
1701857666687816000,0.67081591796875,0.09651386737823486,-0.6859814524650574,-0.3574983477592468
1701857666697408300,0.680408203125,0.12339114397764206,-0.9107732772827148,-0.335507869720459
1701857666707001600,0.690001708984375,0.1453816443681717,-1.0842539072036743,-0.30374380946159363
1701857666716595500,0.699595458984375,0.15271180868148804,-1.2369656562805176,-0.2817533016204834
1701857666726188500,0.7091884765625,0.15393351018428802,-1.3579134941101074,-0.27197974920272827
1701857666735781000,0.718781005859375,0.1588202863931656,-1.387234091758728,-0.2695363461971283
1701857666745374200,0.728374267578125,0.17225892841815948,-1.3383663892745972,-0.27686652541160583
1701857666754968000,0.737968017578125,0.1979145109653473,-1.2797249555587769,-0.3171824514865875
1701857666764561200,0.74756103515625,0.23945212364196777,-1.2601778507232666,-0.37826716899871826
1701857666774153700,0.75715380859375,0.2993151545524597,-1.3041589260101318,-0.4369085133075714
1701857666783746800,0.766746826171875,0.367730051279068,-1.4189982414245605,-0.46867257356643677
1701857666793340700,0.776340576171875,0.42514967918395996,-1.5631581544876099,-0.45767730474472046
1701857666802934000,0.78593408203125,0.44103172421455383,-1.7317520380020142,-0.40514445304870605
1701857666812526000,0.795526123046875,0.3970507085323334,-1.9357749223709106,-0.3367295563220978
1701857666822119400,0.805119384765625,0.2895416021347046,-2.1911091804504395,-0.27442312240600586
1701857666831713300,0.81471337890625,0.1172826737165451,-2.3914670944213867,-0.21089501678943634
1701857666841306600,0.824306640625,-0.08429691940546036,-2.4256744384765625,-0.14858859777450562
1701857666850899000,0.83389892578125,-0.26877278089523315,-2.2546372413635254,-0.11560284346342087
1701857666860492000,0.843491943359375,-0.4178195297718048,-1.952878713607788,-0.14736689627170563
1701857666870086000,0.8530859375,-0.517998456954956,-1.5949221849441528,-0.2548760175704956
1701857666879679000,0.862678955078125,-0.5644228458404541,-1.184432864189148,-0.4234698712825775
1701857666889271600,0.872271484375,-0.5705313682556152,-0.7727217674255371,-0.6213843822479248
1701857666898864600,0.88186474609375,-0.569309651851654,-0.4453076422214508,-0.8192988634109497
1701857666908458500,0.89145849609375,-0.5900784730911255,-0.21303297579288483,-0.9817842841148376
1701857666918051800,0.9010517578125,-0.6450546979904175,-0.07742489129304886,-1.0844066143035889
1701857666927644200,0.91064404296875,-0.7220214605331421,-0.04688252881169319,-1.122279167175293
1701857666937237200,0.9202373046875,-0.809983491897583,-0.1238492801785469,-1.1027320623397827
1701857666946831400,0.929831298828125,-0.896723747253418,-0.20814619958400726,-1.0208784341812134
1701857666956424400,0.939424560546875,-0.9382613897323608,-0.25090551376342773,-0.904817521572113
1701857666966016800,0.949016845703125,-0.9248227477073669,-0.31687700748443604,-0.7997517585754395
1701857666975609900,0.95860986328125,-0.8722898960113525,-0.4121691882610321,-0.7252284288406372
1701857666985204000,0.968203857421875,-0.7708892226219177,-0.47707170248031616,-0.6702521443367004
1701857666994797000,0.977797119140625,-0.6267293095588684,-0.4856235682964325,-0.6274928450584412
1701857667004389400,0.987389404296875,-0.474017471075058,-0.48073679208755493,-0.6042806506156921
1701857667013982500,0.996982421875,-0.3286358118057251,-0.4978405237197876,-0.6042806506156921
1701857667023576600,1.00657666015625,-0.1966928243637085,-0.5454866290092468,-0.6274928450584412
1701857667033169700,1.016169677734375,-0.0916270911693573,-0.6273401379585266,-0.6653653979301453
1701857667042762000,1.025761962890625,-0.025655584409832954,-0.7116370797157288,-0.7081246972084045
1701857667052355000,1.03535498046875,0.013438640162348747,-0.7776085734367371,-0.7496622800827026
1701857667061949200,1.04494921875,0.029320668429136276,-0.8741224408149719,-0.7911999225616455
1701857667071542300,1.054542236328125,-0.009773556143045425,-1.0280559062957764,-0.7973083853721619
1701857667081134600,1.064134521484375,-0.0916270911693573,-1.1001359224319458,-0.7276718020439148
1701857667090728000,1.07372802734375,-0.17348061501979828,-1.0256125926971436,-0.5969504714012146
1701857667100321800,1.08332177734375,-0.23334364593029022,-0.8802309036254883,-0.46134239435195923
1701857667109915000,1.092914794921875,-0.2626643180847168,-0.7324058413505554,-0.37704548239707947
1701857667119507200,1.102507080078125,-0.26632940769195557,-0.6126797795295715,-0.3623851239681244
1701857667129100500,1.1121005859375,-0.25289076566696167,-0.5222744345664978,-0.4088095426559448
1701857667138694400,1.1216943359375,-0.23823043704032898,-0.46241137385368347,-0.4943281412124634
1701857667148287500,1.13128759765625,-0.2345653474330902,-0.4355340898036957,-0.5932853817939758
1701857667157879800,1.1408798828125,-0.24678228795528412,-0.4453076422214508,-0.6763606071472168
1701857667167473200,1.15047314453125,-0.2883199155330658,-0.5088357925415039,-0.7191199064254761
1701857667177067000,1.16006689453125,-0.35795649886131287,-0.5723638534545898,-0.7069029808044434
1701857667186660000,1.16966015625,-0.4349232614040375,-0.6090146899223328,-0.645818293094635
1701857667196252400,1.17925244140625,-0.5106683373451233,-0.6139014959335327,-0.5602996349334717
1701857667205845800,1.188845703125,-0.5558710098266602,-0.5442649126052856,-0.4784461259841919
1701857667215439600,1.198439697265625,-0.5534276366233826,-0.42331716418266296,-0.42957833409309387
1701857667225032700,1.20803271484375,-0.5106683373451233,-0.28999972343444824,-0.43324342370033264
1701857667234625300,1.217625244140625,-0.4459185004234314,-0.15683503448963165,-0.4808894991874695
1701857667244218400,1.22721826171875,-0.37139514088630676,-0.04077405482530594,-0.5505260825157166
1701857667253812200,1.236812255859375,-0.2993151545524597,0.023975754156708717,-0.6164975762367249
1701857667263405600,1.246405517578125,-0.24311721324920654,0.03497100621461868,-0.6555918455123901
1701857667272998000,1.255997802734375,-0.20402298867702484,-0.0016798300202935934,-0.6519267559051514
1701857667282591000,1.265591064453125,-0.18814095854759216,-0.08842013776302338,-0.6067240238189697
1701857667292184800,1.275184814453125,-0.19058434665203094,-0.1898207813501358,-0.5297572612762451
1701857667301778200,1.284778076171875,-0.20524467527866364,-0.30343836545944214,-0.44301697611808777
1701857667311370500,1.29437060546875,-0.21990501880645752,-0.4318690001964569,-0.3623851239681244
1701857667320963600,1.303963623046875,-0.21868331730365753,-0.5430431962013245,-0.284196674823761
1701857667330557700,1.3135576171875,-0.20280128717422485,-0.5821374654769897,-0.20600824058055878
1701857667340150800,1.32315087890625,-0.16859383881092072,-0.5222744345664978,-0.1388150453567505
1701857667349743000,1.3327431640625,-0.11972606182098389,-0.4011739492416382,-0.10094250738620758
1701857667359336200,1.342336181640625,-0.06841489672660828,-0.28755635023117065,-0.10216420143842697
1701857667368930300,1.351930419921875,-0.026877280324697495,-0.19592925906181335,-0.13514995574951172
1701857667378523400,1.3615234375,-0.0036650835536420345,-0.11896250396966934,-0.1913478970527649
1701857667388115700,1.37111572265625,0,-0.06642963737249374,-0.2573194205760956
1701857667397709000,1.380708984375,-0.01588202826678753,-0.05787777900695801,-0.3208475112915039
1701857667407303000,1.390302978515625,-0.05497625470161438,-0.07864658534526825,-0.3599417507648468
1701857667416896000,1.39989599609375,-0.10384403169155121,-0.07742489129304886,-0.3721587061882019
1701857667426488300,1.40948828125,-0.13805148005485535,-0.06887302547693253,-0.3746020793914795
1701857667436081700,1.41908154296875,-0.14782503247261047,-0.08353336155414581,-0.38071054220199585
1701857667445675500,1.428675537109375,-0.13438639044761658,-0.12018419802188873,-0.39414918422698975
1701857667455268600,1.4382685546875,-0.09773556143045425,-0.1507265567779541,-0.4136963188648224
1701857667464861000,1.44786083984375,-0.03176405653357506,-0.17149536311626434,-0.43568679690361023
1701857667474454300,1.457454345703125,0.04153761267662048,-0.19592925906181335,-0.46012070775032043
1701857667484048100,1.467048095703125,0.09529217332601547,-0.24846212565898895,-0.4784461259841919
1701857667493641500,1.476641357421875,0.10750912129878998,-0.3229855000972748,-0.4918847680091858
1701857667503233800,1.48623388671875,0.09040539711713791,-0.3865135908126831,-0.4943281412124634
1701857667512827000,1.495826904296875,0.05741964280605316,-0.42453885078430176,-0.48455458879470825
1701857667522421000,1.5054208984375,0.021990500390529633,-0.4133908748626709,-0.462564080953598
1701857667532014000,1.51501416015625,0.0036650835536420345,-0.35474956035614014,-0.439351886510849
1701857667541606400,1.5246064453125,0.0012216945178806782,-0.3107685446739197,-0.43202173709869385
1701857667551199500,1.534199462890625,0.01710372418165207,-0.28877803683280945,-0.43568679690361023
1701857667560793600,1.543793701171875,0.05741964280605316,-0.2692309319972992,-0.4369085133075714
1701857667570386700,1.55338671875,0.11483928561210632,-0.24601873755455017,-0.4271349310874939
1701857667579979000,1.56297900390625,0.17470231652259827,-0.2301367074251175,-0.4014793634414673
1701857667589572400,1.572572265625,0.21746163070201874,-0.21791976690292358,-0.35261157155036926
1701857667599166200,1.582166259765625,0.22723518311977386,-0.2032594233751297,-0.2817533016204834
1701857667608759300,1.59175927734375,0.2113531529903412,-0.164165198802948,-0.19745637476444244
1701857667618351600,1.6013515625,0.19913621246814728,-0.09452861547470093,-0.11560284346342087
1701857667627945000,1.610945068359375,0.20280128717422485,-0.004123218823224306,-0.04474456235766411
1701857667637538800,1.620538818359375,0.22967857122421265,0.08994726091623306,0.0016798300202935934
1701857667647132200,1.630132080078125,0.2773246467113495,0.16813570261001587,0.02367033064365387
1701857667656724200,1.63972412109375,0.34573954343795776,0.21211670339107513,0.031000498682260513
1701857667666317600,1.649317626953125,0.42392799258232117,0.2414373755455017,0.04199574887752533
1701857667675911400,1.658911376953125,0.4874561131000519,0.2707580327987671,0.07009471952915192
1701857667685504800,1.6685048828125,0.5253286361694336,0.27564483880996704,0.111632339656353
1701857667695097000,1.67809716796875,0.5424323678016663,0.23410721123218536,0.15805672109127045
1701857667704690200,1.687690185546875,0.5387672781944275,0.15469707548618317,0.2044811248779297
1701857667714284300,1.6972841796875,0.5216635465621948,0.07040014863014221,0.2582356929779053
1701857667723877400,1.70687744140625,0.5033381581306458,-0.005344913341104984,0.31199023127555847
1701857667733469700,1.7164697265625,0.4862344264984131,-0.06154286116361618,0.3498627543449402
1701857667743063000,1.72606298828125,0.4727957844734192,-0.09208522737026215,0.3596363365650177
1701857667752657000,1.735656982421875,0.4703523814678192,-0.09575030952692032,0.34253260493278503
1701857667762250000,1.74525,0.4715740978717804,-0.0859767496585846,0.3071034550666809
1701857667771842300,1.75484228515625,0.4727957844734192,-0.05421269312500954,0.2557922899723053
1701857667781435600,1.764435546875,0.46668729186058044,-0.018783552572131157,0.19470755755901337
1701857667791029500,1.774029541015625,0.44958359003067017,-0.005344913341104984,0.13362284004688263
1701857667800622600,1.78362255859375,0.4178195297718048,-0.01511846948415041,0.0859767496585846
1701857667810215000,1.79321484375,0.3689517378807068,-0.032222192734479904,0.05421269312500954
1701857667819808300,1.802808349609375,0.3127537965774536,-0.031000498682260513,0.037108972668647766
1701857667829402000,1.812402099609375,0.25411245226860046,-0.013896775431931019,0.029778804630041122
1701857667838995500,1.821995361328125,0.20157960057258606,0.0032069480512291193,0.028557108715176582
1701857667848587800,1.831587890625,0.16370706260204315,0.02764083817601204,0.033443886786699295
1701857667858180900,1.841180908203125,0.1453816443681717,0.06673506647348404,0.03955236077308655
1701857667867775000,1.85077490234375,0.13927318155765533,0.09727742522954941,0.04199574887752533
1701857667877368000,1.8603681640625,0.14049486815929413,0.11926792562007904,0.037108972668647766
1701857667886960400,1.86996044921875,0.1429382562637329,0.13270656764507294,0.0261137206107378
1701857667896553500,1.879553466796875,0.13560809195041656,0.12048961967229843,0.012675080448389053
1701857667906147600,1.889147705078125,0.1185043677687645,0.10949437320232391,0.010231691412627697
1701857667915740700,1.89874072265625,0.09773556143045425,0.10338589549064636,0.017561858519911766
1701857667925333000,1.9083330078125,0.07696675509214401,0.09605573117733002,0.028557108715176582
1701857667934926300,1.91792626953125,0.06719319522380829,0.09361234307289124,0.033443886786699295
1701857667944520200,1.927520263671875,0.06963659077882767,0.10338589549064636,0.037108972668647766
1701857667954113300,1.93711328125,0.08918370306491852,0.12781979143619537,0.04688252881169319
1701857667963705900,1.946705810546875,0.11361759155988693,0.15714046359062195,0.06520794332027435
1701857667973299000,1.956298828125,0.14049486815929413,0.18768282234668732,0.09452861547470093
1701857667982892800,1.965892822265625,0.16248537600040436,0.21822518110275269,0.13117945194244385
1701857667992486100,1.975486083984375,0.16859383881092072,0.2292204350233078,0.164165198802948
1701857668002078500,1.985078369140625,0.1588202863931656,0.22433365881443024,0.18615570664405823
1701857668011671600,1.994671630859375,0.1429382562637329,0.2292204350233078,0.19592925906181335
1701857668021265700,2.004265625,0.12583453953266144,0.23777230083942413,0.1898207813501358
1701857668030858800,2.013858642578125,0.10873081535100937,0.23166382312774658,0.17027367651462555
1701857668040451000,2.023451171875,0.10140064358711243,0.2414373755455017,0.14217470586299896
1701857668050044200,2.033044189453125,0.10628741979598999,0.27808821201324463,0.10796725004911423
1701857668059638300,2.04263818359375,0.11117420345544815,0.3110739588737488,0.06887302547693253
1701857668069231400,2.0522314453125,0.11117420345544815,0.35261157155036926,0.04077405482530594
1701857668078823700,2.06182373046875,0.10995250940322876,0.3990359604358673,0.031000498682260513
1701857668088417000,2.0714169921875,0.10873081535100937,0.42224815487861633,0.028557108715176582
1701857668098011000,2.081010986328125,0.1050657257437706,0.41980478167533875,0.029778804630041122
1701857668107604000,2.09060400390625,0.10873081535100937,0.41736137866973877,0.033443886786699295
1701857668117196300,2.1001962890625,0.11483928561210632,0.4002576768398285,0.03588727489113808
1701857668126789600,2.10978955078125,0.12094775587320328,0.3574983477592468,0.0261137206107378
1701857668136383500,2.119383544921875,0.1319430023431778,0.31351736187934875,0.009009997360408306
1701857668145976800,2.128976806640625,0.15393351018428802,0.28786176443099976,-0.005650337319821119
1701857668155569200,2.138569091796875,0.17225892841815948,0.26464956998825073,-0.005650337319821119
1701857668165162200,2.148162353515625,0.17225892841815948,0.23532891273498535,0.010231691412627697
1701857668174756400,2.15775634765625,0.16492876410484314,0.2145601063966751,0.0456608310341835
1701857668184349400,2.167349365234375,0.15515519678592682,0.1889045089483261,0.08231166750192642
1701857668193941800,2.176941650390625,0.14904673397541046,0.15958385169506073,0.10796725004911423
1701857668203535000,2.18653515625,0.14171656966209412,0.14370182156562805,0.11896250396966934
1701857668213129000,2.19612890625,0.1319430023431778,0.1388150453567505,0.12018419802188873
1701857668222722000,2.20572216796875,0.11972606182098389,0.1375933438539505,0.1104106456041336
1701857668232314400,2.215314453125,0.10995250940322876,0.13026317954063416,0.09208522737026215
1701857668241907700,2.22490771484375,0.09895725548267365,0.11560284346342087,0.0713164210319519
1701857668251501600,2.23450146484375,0.0794101431965828,0.10216420143842697,0.04443913698196411
1701857668261095000,2.244094970703125,0.05375456064939499,0.0984991192817688,0.021226942539215088
1701857668270687200,2.253687255859375,0.04031591862440109,0.10582929104566574,0.0016798300202935934
1701857668280280300,2.2632802734375,0.03542914241552353,0.10338589549064636,-0.016645587980747223
1701857668289874400,2.27287451171875,0.03176405653357506,0.09116895496845245,-0.02886253222823143
1701857668299467500,2.282467529296875,0.01832541823387146,0.06429167091846466,-0.03008422814309597
1701857668309059800,2.292059814453125,-0.0012216945178806782,0.0325276181101799,-0.021532366052269936
1701857668318653000,2.30165283203125,-0.024433890357613564,0.014202198944985867,-0.014202198944985867
1701857668328247000,2.3112470703125,-0.04153761267662048,0.010537114925682545,-0.01175880990922451
1701857668337840000,2.320840087890625,-0.04031591862440109,0.015423892997205257,-0.012980503961443901
1701857668347432400,2.330432373046875,-0.012216945178806782,0.02764083817601204,-0.0068720318377017975
1701857668357025800,2.34002587890625,0.05864133685827255,0.04840964451432228,0.028557108715176582
1701857668366619600,2.34961962890625,0.1710372269153595,0.11438114941120148,0.12018419802188873
1701857668376212700,2.359212646484375,0.2724378705024719,0.24754585325717926,0.26434415578842163
1701857668385805000,2.36880517578125,0.3274141252040863,0.3855973184108734,0.3975088596343994
1701857668395398400,2.3783984375,0.33474430441856384,0.40636613965034485,0.4647020399570465
1701857668404992300,2.3879921875,0.3029802441596985,0.26342788338661194,0.45859357714653015
1701857668414585300,2.39758544921875,0.25533416867256165,0.04474456235766411,0.40483900904655457
1701857668424178000,2.407177978515625,0.23945212364196777,-0.20692451298236847,0.3229855000972748
1701857668433771000,2.41677099609375,0.21257483959197998,-0.5809157490730286,0.2276933193206787
1701857668443365000,2.426365234375,0.17470231652259827,-0.975523054599762,0.18493400514125824
1701857668452958200,2.435958251953125,0.15149012207984924,-1.299272060394287,0.24724042415618896
1701857668462550500,2.445550537109375,0.16615045070648193,-1.5631581544876099,0.3987305462360382
1701857668472144000,2.455143798828125,0.24311721324920654,-1.8111621141433716,0.6016845703125
1701857668481737700,2.46473779296875,0.4080459773540497,-2.090930223464966,0.8350282311439514
1701857668491330800,2.474330810546875,0.6768187880516052,-2.4366698265075684,1.1147962808609009
1701857668500923100,2.483923095703125,1.0262234210968018,-2.8911399841308594,1.4617575407028198
1701857668510516500,2.4935166015625,1.429382562637329,-3.4531195163726807,1.8319308757781982
1701857668520110300,2.5031103515625,1.8300983905792236,-4.062745094299316,2.169118642807007
1701857668529703400,2.512703369140625,2.0695505142211914,-4.585630416870117,2.484315872192383
1701857668539296000,2.5222958984375,2.129413604736328,-4.908157825469971,2.8166167736053467
1701857668548889000,2.53188916015625,2.2369227409362793,-4.939921855926514,3.1391441822052
1701857668558483000,2.54148291015625,2.565558433532715,-4.742007255554199,3.473888397216797
1701857668568076300,2.551076171875,3.089665412902832,-4.38527250289917,3.8611655235290527
1701857668577668600,2.560668701171875,3.624767541885376,-3.746326208114624,4.282649993896484
1701857668587261700,2.57026171875,4.012044906616211,-2.8715929985046387,4.70902156829834
1701857668596855800,2.579855712890625,4.218663692474365,-1.961430549621582,5.131727695465088
1701857668606449000,2.589448974609375,4.289522171020508,-1.1648857593536377,5.522670269012451
1701857668616041200,2.599041259765625,4.312734127044678,-0.5589252710342407,5.856192588806152
1701857668625634600,2.608634521484375,4.328616619110107,-0.2557922899723053,6.111679553985596
1701857668635228400,2.618228515625,4.315177917480469,-0.39506545662879944,6.238735675811768
1701857668644821500,2.627821533203125,4.221107482910156,-1.1331216096878052,6.147108554840088
1701857668654413800,2.637413818359375,4.043808937072754,-2.270519256591797,5.825650215148926
1701857668664007200,2.647007080078125,3.853224515914917,-3.1049365997314453,5.503122806549072
1701857668673601000,2.65660107421875,3.7567105293273926,-3.242988109588623,5.31742525100708
1701857668683194000,2.666194091796875,3.8605546951293945,-2.970550298690796,5.1622700691223145
1701857668692786700,2.67578662109375,4.137879371643066,-2.7091076374053955,4.866620063781738
1701857668702379800,2.6853798828125,4.502097129821777,-2.5612826347351074,4.395046234130859
1701857668711973600,2.6949736328125,4.6474785804748535,-2.8276119232177734,3.66569447517395
1701857668721567000,2.70456689453125,3.5734565258026123,-4.698026180267334,2.0518360137939453
1701857668731159300,2.7141591796875,2.5533416271209717,-6.093354225158691,0.3205420970916748
1701857668740752400,2.72375244140625,2.9320669174194336,-6.125118255615234,-0.7997517585754395
1701857668750346500,2.733346435546875,4.188121318817139,-4.957025527954102,-1.482679009437561
1701857668759939600,2.742939697265625,5.519768714904785,-2.2204298973083496,-1.4704620838165283
1701857668769532000,2.752531982421875,5.458683967590332,2.1973702907562256,0.26434415578842163
1701857668779125200,2.762125244140625,5.673702239990234,2.2523465156555176,0.33031564950942993
1701857668788719000,2.771718994140625,5.365835189819336,0.25121092796325684,-0.4014793634414673
1701857668798312200,2.781312255859375,3.9411864280700684,-0.8301414251327515,-0.5725166201591492
1701857668807899600,2.790899658203125,2.2369227409362793,-0.846023440361023,-0.6531484127044678
1701857668817492700,2.80049267578125,1.0555440187454224,-0.3584146201610565,-0.8803836107254028
1701857668827086600,2.810086669921875,1.0408837795257568,0.10094250738620758,-1.168703556060791
1701857668836680000,2.819679931640625,1.6175235509872437,0.42224815487861633,-1.2847645282745361
1701857668846272300,2.829272216796875,1.822768211364746,0.4369085133075714,-1.1149489879608154
1701857668855865300,2.838865234375,1.9156169891357422,0.036192700266838074,-0.8192988634109497
1701857668865459500,2.84845947265625,2.0903193950653076,-0.4709632396697998,-0.5309789776802063
1701857668875052500,2.858052490234375,2.2980074882507324,-0.7421793937683105,-0.27686652541160583
1701857668884644900,2.867644775390625,2.5032520294189453,-0.892447829246521,-0.1107160672545433
1701857668894238000,2.877238037109375,2.6657373905181885,-0.9425373077392578,-0.054518118500709534
1701857668903832000,2.88683203125,2.7500343322753906,-0.892447829246521,-0.11315945535898209
1701857668913425200,2.896425048828125,2.728043794631958,-0.8496885299682617,-0.19501298666000366
1701857668923017500,2.906017578125,2.525242567062378,-0.9462023973464966,-0.19379130005836487
1701857668932610800,2.91561083984375,2.3676440715789795,-0.9144383668899536,-0.2145601063966751
1701857668942204700,2.92520458984375,2.340766668319702,-0.8386932611465454,-0.16691401600837708
1701857668951798000,2.934798095703125,2.395742893218994,-0.8154810667037964,0.010231691412627697
1701857668961390300,2.944390380859375,2.2980074882507324,-0.7104153633117676,0.188599094748497
1701857668970983400,2.9539833984375,2.0414514541625977,-0.5283828973770142,0.3058817684650421
1701857668980577300,2.963577392578125,1.573542594909668,-0.2948864996433258,0.2948864996433258
1701857668990170600,2.973170654296875,1.1166287660598755,-0.028557108715176582,0.29977330565452576
1701857668999763000,2.982762939453125,0.6621584296226501,0.13392825424671173,0.2557922899723053
1701857669009356000,2.99235595703125,0.22967857122421265,0.3220692276954651,0.2020377367734909
1701857669018950100,3.0019501953125,-0.09895725548267365,0.29030516743659973,0.2166980654001236
1701857669028543200,3.011543212890625,-0.12827792763710022,0.5920637249946594,0.3058817684650421
1701857669038135600,3.021135498046875,0.09773556143045425,0.8864920735359192,0.376740038394928
1701857669047729000,3.03072900390625,0.29687178134918213,0.9707890152931213,0.4500417113304138
1701857669057322800,3.04032275390625,0.35917818546295166,0.8974873423576355,0.47325390577316284
1701857669066915800,3.049915771484375,0.43736663460731506,0.6946860551834106,0.3755183517932892
1701857669076508200,3.059508056640625,0.7782194018363953,0.4540122151374817,0.19715094566345215
1701857669086101500,3.0691015625,1.225359559059143,0.20845162868499756,0.011453386396169662
1701857669095695400,3.0786953125,1.5552171468734741,-0.06642963737249374,-0.1107160672545433
1701857669105288700,3.088288818359375,1.7665703296661377,-0.34375429153442383,-0.09483403712511063
1701857669114881000,3.097881103515625,1.9327207803726196,-0.5027272701263428,0.03588727489113808
1701857669124474000,3.10747412109375,2.065885543823242,-0.6175665855407715,0.23624517023563385
1701857669134068200,3.117068115234375,2.2295925617218018,-0.6603258848190308,0.4524851143360138
1701857669143661300,3.126661376953125,2.4018514156341553,-0.6285618543624878,0.6810947060585022
1701857669153253600,3.136253662109375,2.5130255222320557,-0.5015056133270264,0.8802309036254883
1701857669162847000,3.145846923828125,2.5997660160064697,-0.3620797097682953,0.9938485026359558
1701857669172440800,3.15544091796875,2.762251377105713,-0.2411319613456726,0.9743013978004456
1701857669182034000,3.165033935546875,2.9112980365753174,-0.029778804630041122,0.7995990514755249
1701857669191626200,3.174626220703125,2.848991632461548,0.14370182156562805,0.4695888161659241
1701857669201219600,3.184219482421875,2.45927095413208,0.04230117425322533,0.07375980913639069
1701857669210813400,3.1938134765625,1.7739003896713257,-0.12140589207410812,-0.22555534541606903
1701857669220406800,3.20340673828125,0.9553651213645935,-0.13484452664852142,-0.3574983477592468
1701857669229999000,3.2129990234375,0.26999449729919434,-0.07986827939748764,-0.36360684037208557
1701857669239592200,3.22259228515625,-0.22845686972141266,-0.04688252881169319,-0.30252209305763245
1701857669249186300,3.232186279296875,-0.12827792763710022,0.05329642444849014,-0.6421532034873962
1701857669258779400,3.241779296875,0.43858832120895386,-0.3706315755844116,-1.011104941368103
1701857669268371700,3.251371826171875,0.726908266544342,-0.4868452548980713,-0.6629219651222229
1701857669277965000,3.260965087890625,0.9236010313034058,-0.0456608310341835,-0.3306210935115814
1701857669287559000,3.270558837890625,1.220472812652588,0.0984991192817688,-0.18157434463500977
1701857669297152000,3.280152099609375,1.4428212642669678,-0.14095300436019897,0.1507265567779541
1701857669306744300,3.289744384765625,1.580872654914856,-0.26434415578842163,0.6126797795295715
1701857669316337700,3.299337646484375,1.696933627128601,-0.4844018816947937,1.0561549663543701
1701857669325931500,3.308931640625,1.855754017829895,-0.9608627557754517,1.3896775245666504
1701857669335524900,3.31852490234375,1.9950271844863892,-1.4617575407028198,1.4251066446304321
1701857669345117200,3.3281171875,1.72991943359375,-1.458092451095581,1.0952491760253906
1701857669354710300,3.337710205078125,1.281557559967041,-1.0683718919754028,0.1372879147529602
1701857669364304400,3.347304443359375,0.7965448498725891,-0.23380178213119507,-1.0880717039108276
1701857669373897500,3.3568974609375,0.37506023049354553,0.5175403356552124,-1.8308619260787964
1701857669383489800,3.36648974609375,0.21379654109477997,0.9854493141174316,-1.8650693893432617
1701857669393083000,3.376082763671875,0.4043808877468109,1.1002886295318604,-1.4753488302230835
1701857669402677000,3.385677001953125,0.7110261917114258,1.3177502155303955,-1.1625950336456299
1701857669412270000,3.39527001953125,0.5045598149299622,0.5150969624519348,-0.37704548239707947
1701857669421862400,3.4048623046875,0.16248537600040436,-0.020005248486995697,0.21058958768844604
1701857669431455700,3.414455810546875,0.05619794875383377,-0.2912214398384094,0.5259394645690918
1701857669441049600,3.424049560546875,-0.0012216945178806782,-0.4343124032020569,0.6737645268440247
1701857669450642700,3.433642578125,-0.045202698558568954,-0.42698222398757935,0.6664343476295471
1701857669460235000,3.443235107421875,-0.08551861345767975,-0.32665055990219116,0.5405998229980469
1701857669469828400,3.452828369140625,-0.10140064358711243,-0.188599094748497,0.39506545662879944
1701857669479422200,3.462422119140625,-0.11972606182098389,0.1510319858789444,0.21914145350456238
1701857669489015600,3.472015625,-0.11361759155988693,0.2292204350233078,0.14217470586299896
1701857669498607900,3.48160791015625,-0.10873081535100937,0.10460758954286575,0.09575030952692032
1701857669508201000,3.491200927734375,-0.130721315741539,-0.0016798300202935934,-0.02641914412379265
1701857669517795000,3.500795166015625,-0.19180603325366974,0.11804623156785965,-0.13270656764507294
1701857669527388200,3.51038818359375,-0.2638860046863556,0.04352286830544472,-0.12659808993339539
1701857669536980500,3.51998046875,-0.3029802441596985,0.0007635590736754239,-0.08139539510011673
1701857669546573800,3.52957373046875,-0.3042019307613373,-0.032222192734479904,-0.03374931216239929
1701857669556167700,3.539167724609375,-0.2724378705024719,-0.012675080448389053,-0.008093725889921188
1701857669565760800,3.5487607421875,-0.1966928243637085,0.06551336497068405,-0.01175880990922451
1701857669575353000,3.55835302734375,-0.13805148005485535,0.2976353168487549,-0.17057909071445465
1701857669584946400,3.567946533203125,-0.0525328628718853,0.3758237659931183,-0.18768282234668732
1701857669594540300,3.577540283203125,-0.0024433890357613564,0.37948885560035706,-0.11438114941120148
1701857669604133600,3.587133544921875,0.008551862090826035,0.40636613965034485,-0.06673506647348404
1701857669613726000,3.596725830078125,0.0036650835536420345,0.40514445304870605,-0.02764083817601204
1701857669623319000,3.606319091796875,-0.0012216945178806782,0.39170581102371216,0.004123218823224306
1701857669632913000,3.615912841796875,-0.012216945178806782,0.3758237659931183,0.028557108715176582
1701857669642506200,3.62550634765625,-0.023212196305394173,0.3465031087398529,0.04810422286391258
1701857669652098600,3.6350986328125,-0.029320668429136276,0.3245126008987427,0.0590994730591774
1701857669661691600,3.644691650390625,-0.030542362481355667,0.3220692276954651,0.052990999072790146
1701857669671285800,3.65428564453125,-0.021990500390529633,0.3501681983470917,0.031000498682260513
1701857669680878800,3.66387890625,-0.009773556143045425,0.37948885560035706,-0.001985253533348441
1701857669690471200,3.67347119140625,0.004886778071522713,0.3978142738342285,-0.037414394319057465
1701857669700064500,3.683064453125,0.01954711228609085,0.39292749762535095,-0.06673506647348404
1701857669709658400,3.692658447265625,0.03298575058579445,0.36727190017700195,-0.08383878320455551
1701857669719251500,3.70225146484375,0.042759306728839874,0.333064466714859,-0.08872556686401367
1701857669728844000,3.711843994140625,0.043981000781059265,0.2976353168487549,-0.08261708915233612
1701857669738437000,3.72143701171875,0.04153761267662048,0.26098448038101196,-0.06917845457792282
1701857669748031000,3.731031005859375,0.03665083646774292,0.22677704691886902,-0.05207473039627075
1701857669757624300,3.740624267578125,0.03298575058579445,0.19501298666000366,-0.0325276181101799
1701857669767216600,3.750216552734375,0.026877280324697495,0.16080553829669952,-0.012980503961443901
1701857669776809700,3.759809814453125,0.02076880633831024,0.12048961967229843,0.0065666078589856625
1701857669786403800,3.76940380859375,0.014660334214568138,0.07406523078680038,0.02367033064365387
1701857669795997000,3.778996826171875,0.007330167107284069,0.022754060104489326,0.03955236077308655
1701857669805589200,3.78858935546875,0.0012216945178806782,-0.02489202655851841,0.050547610968351364
1701857669815182600,3.7981826171875,-0.006108472589403391,-0.07009471952915192,0.06032116711139679
1701857669824776400,3.8077763671875,-0.009773556143045425,-0.10918894410133362,0.06887302547693253
1701857669834369500,3.81736962890625,-0.014660334214568138,-0.14461809396743774,0.07620319724082947
1701857669843961900,3.8269619140625,-0.01832541823387146,-0.1763821393251419,0.0847550556063652
1701857669853555200,3.83655517578125,-0.01832541823387146,-0.2032594233751297,0.09086353331804276
1701857669863149000,3.846149169921875,-0.02076880633831024,-0.2276933193206787,0.09575030952692032
1701857669872742400,3.855742431640625,-0.02076880633831024,-0.24968381226062775,0.10185877978801727
1701857669882334700,3.865334716796875,-0.023212196305394173,-0.2692309319972992,0.10674555599689484
1701857669891927800,3.874927734375,-0.024433890357613564,-0.28877803683280945,0.11285403370857239
1701857669901522000,3.88452197265625,-0.026877280324697495,-0.3083251416683197,0.11774080991744995
1701857669911115000,3.894114990234375,-0.024433890357613564,-0.32665055990219116,0.12140589207410812
1701857669920707300,3.903707275390625,-0.021990500390529633,-0.33886751532554626,0.1250709742307663
1701857669930300400,3.913300537109375,-0.01710372418165207,-0.3498627543449402,0.1250709742307663
1701857669939894500,3.92289453125,-0.010995250195264816,-0.3620797097682953,0.12262758612632751
1701857669949487600,3.932487548828125,-0.004886778071522713,-0.3706315755844116,0.12140589207410812
1701857669959080000,3.942079833984375,0.0024433890357613564,-0.376740038394928,0.12018419802188873
1701857669968673300,3.95167333984375,0.009773556143045425,-0.3828485310077667,0.12018419802188873
1701857669978267100,3.96126708984375,0.01832541823387146,-0.3901786804199219,0.12140589207410812
1701857669987860500,3.970860595703125,0.026877280324697495,-0.3962871730327606,0.1238492801785469
1701857669997452500,3.98045263671875,0.03542914241552353,-0.402395635843277,0.12629267573356628
1701857670007046000,3.9900458984375,0.042759306728839874,-0.40606072545051575,0.12751436233520508
1701857670016639700,3.9996396484375,0.047646086663007736,-0.40972578525543213,0.12995775043964386
1701857670026233000,4.009233154296875,0.05131116881966591,-0.4121691882610321,0.13240113854408264
1701857670035825400,4.018825439453125,0.05008947476744652,-0.4109475016593933,0.12629267573356628
1701857670045418500,4.02841845703125,0.04886778071522713,-0.40728241205215454,0.11774080991744995
1701857670055012600,4.0380126953125,0.045202698558568954,-0.40606072545051575,0.11529742181301117
1701857670064605700,4.047605712890625,0.03787253051996231,-0.4109475016593933,0.11896250396966934
1701857670074198000,4.057197998046875,0.026877280324697495,-0.41705596446990967,0.1238492801785469
1701857670083791400,4.066791259765625,0.012216945178806782,-0.42194274067878723,0.1250709742307663
1701857670093385200,4.07638525390625,-0.0036650835536420345,-0.42453885078430176,0.11896250396966934
1701857670102978300,4.085978271484375,-0.02076880633831024,-0.4282039403915405,0.10796725004911423
1701857670112570600,4.095570556640625,-0.04031591862440109,-0.4306473135948181,0.09452861547470093
1701857670122164000,4.1051640625,-0.05864133685827255,-0.43797749280929565,0.08231166750192642
1701857670131757800,4.1147578125,-0.07574506103992462,-0.44042086601257324,0.06276455521583557
1701857670141351200,4.12435107421875,-0.08796200156211853,-0.444085955619812,0.0456608310341835
1701857670150943500,4.133943603515625,-0.09773556143045425,-0.46241137385368347,0.033443886786699295
1701857670160536600,4.14353662109375,-0.10628741979598999,-0.49173203110694885,0.0261137206107378
1701857670170130700,4.153130615234375,-0.10628741979598999,-0.5222744345664978,0.02733541466295719
1701857670179723800,4.162723876953125,-0.10384403169155121,-0.5491516590118408,0.03833066672086716
1701857670189316000,4.172316162109375,-0.09529217332601547,-0.5662553906440735,0.051769305020570755
1701857670198909200,4.1819091796875,-0.08796200156211853,-0.5748072862625122,0.06032116711139679
1701857670208503300,4.19150341796875,-0.07452336698770523,-0.5796940326690674,0.06276455521583557
1701857670218096400,4.201096435546875,-0.05741964280605316,-0.5894675850868225,0.06154286116361618
1701857670227688700,4.210688720703125,-0.03665083646774292,-0.5980194807052612,0.05543438717722893
1701857670237282000,4.220281982421875,-0.013438640162348747,-0.6004628539085388,0.051769305020570755
1701857670246876000,4.2298759765625,0.004886778071522713,-0.5967977643013,0.04932591691613197
1701857670256469000,4.239468994140625,0.01710372418165207,-0.5943543910980225,0.050547610968351364
1701857670266061300,4.249061279296875,0.024433890357613564,-0.5906893014907837,0.05421269312500954
1701857670275654700,4.258654541015625,0.028098974376916885,-0.5821374654769897,0.06154286116361618
1701857670285248500,4.26824853515625,0.03665083646774292,-0.5662553906440735,0.07009471952915192
1701857670294841900,4.277841796875,0.04886778071522713,-0.5515950918197632,0.0713164210319519
1701857670304434200,4.28743408203125,0.062306419014930725,-0.5332696437835693,0.0590994730591774
1701857670314027300,4.29702734375,0.07330167293548584,-0.5002838969230652,0.031000498682260513
1701857670323621400,4.306621337890625,0.0794101431965828,-0.45508119463920593,-0.0032069480512291193
1701857670333214500,4.31621435546875,0.07330167293548584,-0.3987305462360382,-0.03130592033267021
1701857670342806800,4.325806884765625,0.05497625470161438,-0.32665055990219116,-0.05085303261876106
1701857670352400100,4.335400146484375,0.028098974376916885,-0.24968381226062775,-0.056961506605148315
1701857670361994000,4.344993896484375,-0.0024433890357613564,-0.1629435122013092,-0.058183200657367706
1701857670371587000,4.354587158203125,-0.03787253051996231,-0.0847550556063652,-0.054518118500709534
1701857670381179400,4.364179443359375,-0.07330167293548584,-0.04810422286391258,-0.036192700266838074
1701857670390772700,4.373772705078125,-0.10262233763933182,-0.02489202655851841,-0.010537114925682545
1701857670400366600,4.38336669921875,-0.129499614238739,0.06673506647348404,-0.005650337319821119
1701857670409959700,4.392959716796875,-0.14904673397541046,0.14003673195838928,-0.020310672000050545
1701857670419552000,4.402552001953125,-0.15271180868148804,0.16080553829669952,-0.019088976085186005
1701857670429145300,4.412145263671875,-0.14049486815929413,0.1644706279039383,-0.0068720318377017975
1701857670438739200,4.4217392578125,-0.12461283802986145,0.1766875684261322,0.0065666078589856625
1701857670448332500,4.43133251953125,-0.10873081535100937,0.19745637476444244,0.028557108715176582
1701857670457924900,4.4409248046875,-0.08796200156211853,0.2157817929983139,0.05665608495473862
1701857670467518000,4.45051806640625,-0.0647498071193695,0.23532891273498535,0.08964183181524277
1701857670477112000,4.460112060546875,-0.04153761267662048,0.24876753985881805,0.12873606383800507
1701857670486705200,4.469705078125,-0.01588202826678753,0.25121092796325684,0.1629435122013092
1701857670496297500,4.47929736328125,0.01588202826678753,0.25121092796325684,0.17882554233074188
1701857670505890600,4.488890625,0.04886778071522713,0.2426590770483017,0.1751604527235031
1701857670515484700,4.498484619140625,0.08185353130102158,0.2145601063966751,0.15805672109127045
1701857670525077800,4.508077880859375,0.10995250940322876,0.1620272397994995,0.12629267573356628
1701857670534670000,4.517670166015625,0.1453816443681717,0.10705098509788513,0.08353336155414581
1701857670544263400,4.527263427734375,0.1832541823387146,0.09116895496845245,0.04443913698196411
1701857670553857300,4.536857177734375,0.2113531529903412,0.10216420143842697,0.013896775431931019
1701857670563450400,4.546450439453125,0.2223484069108963,0.13026317954063416,-0.009315420873463154
1701857670573042700,4.556042724609375,0.2113531529903412,0.15836215019226074,-0.019088976085186005
1701857670582636000,4.565635986328125,0.18691925704479218,0.1754658818244934,-0.010537114925682545
1701857670592230000,4.57522998046875,0.1575985997915268,0.18401773273944855,0.010231691412627697
1701857670601823200,4.5848232421875,0.130721315741539,0.18768282234668732,0.03955236077308655
1701857670611415600,4.59441552734375,0.1050657257437706,0.18279604613780975,0.06765133142471313
1701857670621008600,4.604008544921875,0.08429691940546036,0.16813570261001587,0.08353336155414581
1701857670630602800,4.613602783203125,0.07330167293548584,0.16080553829669952,0.0847550556063652
1701857670640195800,4.62319580078125,0.07085828483104706,0.17180079221725464,0.0725381150841713
1701857670649788200,4.6327880859375,0.07330167293548584,0.19989976286888123,0.051769305020570755
1701857670659381200,4.64238134765625,0.07452336698770523,0.23410721123218536,0.0261137206107378
1701857670668975400,4.651975341796875,0.07207997888326645,0.25976279377937317,-0.0032069480512291193
1701857670678568400,4.661568359375,0.06719319522380829,0.27442312240600586,-0.0325276181101799
1701857670688160800,4.671160888671875,0.061084724962711334,0.27320143580436707,-0.06062658876180649
1701857670697754000,4.680754150390625,0.05131116881966591,0.2536543309688568,-0.08872556686401367
1701857670707348000,4.690347900390625,0.03665083646774292,0.22677704691886902,-0.1119377613067627
1701857670716941000,4.699941162109375,0.013438640162348747,0.2047865390777588,-0.12781979143619537
1701857670726533400,4.709533447265625,-0.021990500390529633,0.18401773273944855,-0.14003673195838928
1701857670736126700,4.719126708984375,-0.05864133685827255,0.1754658818244934,-0.1522536724805832
1701857670745720600,4.728720458984375,-0.09284878522157669,0.18401773273944855,-0.1656923145055771
1701857670755314000,4.73831396484375,-0.12339114397764206,0.19623468816280365,-0.1779092699289322
1701857670764906200,4.74790625,-0.1453816443681717,0.20600824058055878,-0.18646112084388733
1701857670774499300,4.757499267578125,-0.1563768982887268,0.20967331528663635,-0.18523943424224854
1701857670784093200,4.76709326171875,-0.16126367449760437,0.2145601063966751,-0.17180079221725464
1701857670793686500,4.7766865234375,-0.16004198789596558,0.22677704691886902,-0.1498102843761444
1701857670803278800,4.78627880859375,-0.15026842057704926,0.2426590770483017,-0.1241547018289566
1701857670812872000,4.795871826171875,-0.13316470384597778,0.2560977041721344,-0.0984991192817688
1701857670822466000,4.805466064453125,-0.10995250940322876,0.25976279377937317,-0.07406523078680038
1701857670832059100,4.81505908203125,-0.08307522535324097,0.25976279377937317,-0.056961506605148315
1701857670841651500,4.8246513671875,-0.0525328628718853,0.2536543309688568,-0.04107947647571564
1701857670851244800,4.834244873046875,-0.01832541823387146,0.24021568894386292,-0.025197450071573257
1701857670860838700,4.843838623046875,0.01832541823387146,0.21944688260555267,-0.009315420873463154
1701857670870431700,4.853431640625,0.047646086663007736,0.19256959855556488,0.010231691412627697
1701857670880024000,4.863024169921875,0.06963659077882767,0.1620272397994995,0.02733541466295719
1701857670889617400,4.872617431640625,0.09040539711713791,0.14370182156562805,0.04443913698196411
1701857670899211300,4.882211181640625,0.10628741979598999,0.12293300777673721,0.06032116711139679
1701857670908804600,4.8918046875,0.11361759155988693,0.09361234307289124,0.07498150318861008
1701857670918397000,4.90139697265625,0.11483928561210632,0.06673506647348404,0.08719844371080399
1701857670927990000,4.910989990234375,0.10873081535100937,0.04230117425322533,0.09697200357913971
1701857670937583900,4.920583984375,0.10017894953489304,0.025197450071573257,0.10185877978801727
1701857670947177200,4.93017724609375,0.09284878522157669,0.017867282032966614,0.09941539168357849
1701857670956769500,4.93976953125,0.08185353130102158,0.016645587980747223,0.09086353331804276
1701857670966362600,4.949362548828125,0.06841489672660828,0.021532366052269936,0.07620319724082947
1701857670975956700,4.958956787109375,0.05619794875383377,0.03497100621461868,0.05665608495473862
1701857670985549800,4.9685498046875,0.045202698558568954,0.04963133856654167,0.03588727489113808
1701857670995142100,4.97814208984375,0.03665083646774292,0.06551336497068405,0.012675080448389053
1701857671004735500,4.987735595703125,0.026877280324697495,0.08139539510011673,-0.012980503961443901
1701857671014329300,4.997329345703125,0.02076880633831024,0.0984991192817688,-0.037414394319057465
1701857671023922400,5.00692236328125,0.013438640162348747,0.11560284346342087,-0.056961506605148315
1701857671033514800,5.0165146484375,0.007330167107284069,0.13514995574951172,-0.06795676052570343
1701857671043108000,5.026108154296875,0.004886778071522713,0.14736689627170563,-0.07040014863014221
1701857671052702000,5.035701904296875,0.0024433890357613564,0.1522536724805832,-0.06673506647348404
1701857671062295000,5.045294921875,0.0036650835536420345,0.14858859777450562,-0.06062658876180649
1701857671071887600,5.0548876953125,0.007330167107284069,0.1388150453567505,-0.05207473039627075
1701857671081480700,5.064480712890625,0.012216945178806782,0.1241547018289566,-0.04230117425322533
1701857671091074600,5.074074462890625,0.01710372418165207,0.10582929104566574,-0.03374931216239929
1701857671100668000,5.08366796875,0.01954711228609085,0.0850604772567749,-0.02886253222823143
1701857671110260200,5.09326025390625,0.01832541823387146,0.06551336497068405,-0.02764083817601204
1701857671119853300,5.102853271484375,0.013438640162348747,0.0459662564098835,-0.02641914412379265
1701857671129447200,5.112447265625,0.006108472589403391,0.037414394319057465,-0.025197450071573257
1701857671139040500,5.12204052734375,0.0012216945178806782,0.03130592033267021,-0.03497100621461868
1701857671148632800,5.1316328125,-0.004886778071522713,0.02886253222823143,-0.054518118500709534
1701857671158226000,5.141225830078125,-0.009773556143045425,0.036192700266838074,-0.08017370104789734
1701857671167820000,5.150820068359375,-0.014660334214568138,0.04718795046210289,-0.10216420143842697
1701857671177413000,5.1604130859375,-0.01832541823387146,0.04963133856654167,-0.12904147803783417
1701857671187005400,5.17000537109375,-0.01954711228609085,0.04474456235766411,-0.15591876208782196
1701857671196598800,5.179598876953125,-0.025655584409832954,0.03008422814309597,-0.16935740411281586
1701857671206192600,5.189192626953125,-0.03542914241552353,0.009315420873463154,-0.16813570261001587
1701857671215785700,5.19878564453125,-0.03542914241552353,0.010537114925682545,-0.1620272397994995
1701857671225378000,5.2083779296875,-0.021990500390529633,0.04352286830544472,-0.1656923145055771
1701857671234971400,5.217971435546875,0.006108472589403391,0.10216420143842697,-0.1779092699289322
1701857671244565200,5.227565185546875,0.01954711228609085,0.14370182156562805,-0.1901262104511261
1701857671254158600,5.23715869140625,0.021990500390529633,0.1632489264011383,-0.19379130005836487
1701857671263751000,5.2467509765625,0.024433890357613564,0.16080553829669952,-0.1766875684261322
1701857671273344000,5.256343994140625,0.029320668429136276,0.13514995574951172,-0.14370182156562805
1701857671282937900,5.265937744140625,0.030542362481355667,0.09116895496845245,-0.09972081333398819
1701857671292531200,5.27553125,0.024433890357613564,0.04474456235766411,-0.05207473039627075
1701857671302123500,5.28512353515625,0.0024433890357613564,0.0007635590736754239,-0.0032069480512291193
1701857671311716600,5.294716552734375,-0.028098974376916885,-0.031000498682260513,0.04810422286391258
1701857671321310700,5.304310791015625,-0.03542914241552353,-0.021226942539215088,0.10552386194467545
1701857671330903800,5.31390380859375,-0.04886778071522713,-0.02733541466295719,0.1629435122013092
1701857671340496100,5.32349609375,-0.07207997888326645,-0.04932591691613197,0.21058958768844604
1701857671350089500,5.33308935546875,-0.08918370306491852,-0.06520794332027435,0.25090551376342773
1701857671359683300,5.342683349609375,-0.09773556143045425,-0.07864658534526825,0.2777827978134155
1701857671369276400,5.3522763671875,-0.10017894953489304,-0.09697200357913971,0.28755635023117065
1701857671378868700,5.36186865234375,-0.09529217332601547,-0.12262758612632751,0.2826695740222931
1701857671388462000,5.371462158203125,-0.08429691940546036,-0.12995775043964386,0.27411770820617676
1701857671398056000,5.381055908203125,-0.06719319522380829,-0.12262758612632751,0.2680092453956604
1701857671407649300,5.390649169921875,-0.03298575058579445,-0.1104106456041336,0.27289602160453796
1701857671417241300,5.400241455078125,0.010995250195264816,-0.09941539168357849,0.2924431264400482
1701857671426834700,5.409834716796875,0.05497625470161438,-0.08964183181524277,0.31443363428115845
1701857671436428500,5.419428466796875,0.09040539711713791,-0.06765133142471313,0.32542887330055237
1701857671446022000,5.42902197265625,0.11361759155988693,-0.0261137206107378,0.32909396290779114
1701857671455614200,5.4386142578125,0.129499614238739,0.01175880990922451,0.31687700748443604
1701857671465207300,5.448207275390625,0.13927318155765533,0.039857782423496246,0.27411770820617676
1701857671474801400,5.457801513671875,0.14782503247261047,0.06673506647348404,0.20570281147956848
1701857671484394500,5.46739453125,0.16370706260204315,0.0984991192817688,0.1238492801785469
1701857671493986800,5.47698681640625,0.17836740612983704,0.1241547018289566,0.03588727489113808
1701857671503580200,5.486580078125,0.17592400312423706,0.1363716572523117,-0.04474456235766411
1701857671513174000,5.496174072265625,0.16248537600040436,0.13148486614227295,-0.10582929104566574
1701857671522767000,5.50576708984375,0.1441599577665329,0.11804623156785965,-0.14003673195838928
1701857671532359400,5.515359375,0.12827792763710022,0.09972081333398819,-0.14125843346118927
1701857671541952800,5.524952880859375,0.10873081535100937,0.08261708915233612,-0.10827267915010452
1701857671551546600,5.534546630859375,0.08796200156211853,0.0716218426823616,-0.05085303261876106
1701857671561140000,5.544139892578125,0.06963659077882767,0.06429167091846466,0.02489202655851841
1701857671570732300,5.553732177734375,0.05497625470161438,0.06429167091846466,0.10918894410133362
1701857671580325400,5.563325439453125,0.03542914241552353,0.07650861889123917,0.1910424828529358
1701857671589919200,5.572919189453125,0.007330167107284069,0.1107160672545433,0.2582356929779053
1701857671599512600,5.5825126953125,-0.026877280324697495,0.15958385169506073,0.28755635023117065
1701857671609105000,5.59210498046875,-0.05375456064939499,0.21089501678943634,0.2851129472255707
1701857671618698000,5.601697998046875,-0.062306419014930725,0.2414373755455017,0.26434415578842163
1701857671628292000,5.6112919921875,-0.05619794875383377,0.24510246515274048,0.23380178213119507
1701857671637885200,5.62088525390625,-0.03665083646774292,0.22189027070999146,0.19592925906181335
1701857671647477500,5.6304775390625,-0.006108472589403391,0.18401773273944855,0.15316994488239288
1701857671657070800,5.64007080078125,0.026877280324697495,0.1375933438539505,0.10796725004911423
1701857671666664700,5.649664794921875,0.05131116881966591,0.08872556686401367,0.06887302547693253
1701857671676257800,5.6592578125,0.06963659077882767,0.06673506647348404,0.04321744292974472
1701857671685850000,5.66885009765625,0.07452336698770523,0.06429167091846466,0.031000498682260513
1701857671695443500,5.678443359375,0.06841489672660828,0.058183200657367706,0.029778804630041122
1701857671705037300,5.688037353515625,0.05619794875383377,0.0459662564098835,0.037108972668647766
1701857671714630400,5.69763037109375,0.04153761267662048,0.039857782423496246,0.050547610968351364
1701857671724223000,5.707222900390625,0.024433890357613564,0.04474456235766411,0.06520794332027435
1701857671733816000,5.716816162109375,0.007330167107284069,0.06306997686624527,0.07498150318861008
1701857671743410000,5.726409912109375,-0.008551862090826035,0.0850604772567749,0.07986827939748764
1701857671753003300,5.736003173828125,-0.024433890357613564,0.09605573117733002,0.07742489129304886
1701857671762595600,5.745595703125,-0.03420744836330414,0.1119377613067627,0.07742489129304886
1701857671772188700,5.755188720703125,-0.0390942245721817,0.12659808993339539,0.07498150318861008
1701857671781782800,5.76478271484375,-0.04031591862440109,0.13026317954063416,0.0725381150841713
1701857671791376000,5.7743759765625,-0.046424392610788345,0.12293300777673721,0.0713164210319519
1701857671800968200,5.78396826171875,-0.05131116881966591,0.10338589549064636,0.06642963737249374
1701857671810561500,5.7935615234375,-0.05619794875383377,0.06795676052570343,0.05665608495473862
1701857671820155400,5.8031552734375,-0.062306419014930725,0.022754060104489326,0.050547610968351364
1701857671829748500,5.81274853515625,-0.061084724962711334,0.0032069480512291193,0.0590994730591774
1701857671839340800,5.8223408203125,-0.05986303091049194,-0.012675080448389053,0.07009471952915192
1701857671848934100,5.83193408203125,-0.05741964280605316,-0.021226942539215088,0.07375980913639069
1701857671858528000,5.841528076171875,-0.05375456064939499,-0.02489202655851841,0.07620319724082947
1701857671868121000,5.85112109375,-0.04153761267662048,-0.032222192734479904,0.07375980913639069
1701857671877713700,5.860713623046875,-0.028098974376916885,-0.03833066672086716,0.06642963737249374
1701857671887306800,5.870306640625,-0.014660334214568138,-0.037108972668647766,0.06154286116361618
1701857671896900600,5.879900634765625,-0.004886778071522713,-0.021226942539215088,0.051769305020570755
1701857671906494000,5.889493896484375,0.0024433890357613564,-0.01511846948415041,0.04688252881169319
1701857671916086300,5.899086181640625,0.012216945178806782,-0.01511846948415041,0.03588727489113808
1701857671925679400,5.908679443359375,0.02076880633831024,-0.01511846948415041,0.028557108715176582
1701857671935273500,5.9182734375,0.021990500390529633,-0.017561858519911766,0.018783552572131157
1701857671944866600,5.927866455078125,0.01832541823387146,-0.0261137206107378,0.013896775431931019
1701857671954459000,5.937458984375,0.014660334214568138,-0.0456608310341835,0.013896775431931019
1701857671964052200,5.94705224609375,0.0036650835536420345,-0.06520794332027435,0.02244863659143448
1701857671973646000,5.95664599609375,-0.01710372418165207,-0.07009471952915192,0.034665580838918686
1701857671983239200,5.9662392578125,-0.043981000781059265,-0.06276455521583557,0.04321744292974472
1701857671992831500,5.97583154296875,-0.07085828483104706,-0.05665608495473862,0.04932591691613197
1701857672002424800,5.9854248046875,-0.10262233763933182,-0.03588727489113808,0.05421269312500954
1701857672012018700,5.995018798828125,-0.13316470384597778,-0.011453386396169662,0.05787777900695801
1701857672021612000,6.004612060546875,-0.15393351018428802,0.001985253533348441,0.06642963737249374
1701857672031204400,6.014204345703125,-0.16370706260204315,0.01175880990922451,0.08231166750192642
1701857672040797400,6.02379736328125,-0.16370706260204315,0.015423892997205257,0.0981936976313591
1701857672050391300,6.033391357421875,-0.15393351018428802,0.014202198944985867,0.11407572776079178
1701857672059984600,6.042984619140625,-0.13316470384597778,0.01175880990922451,0.12751436233520508
1701857672069577000,6.052576904296875,-0.10017894953489304,0.008093725889921188,0.13973131775856018
1701857672079170000,6.062170166015625,-0.05986303091049194,0.0068720318377017975,0.14583978056907654
1701857672088764200,6.07176416015625,-0.01832541823387146,0.010537114925682545,0.14339639246463776
1701857672098357200,6.081357177734375,0.025655584409832954,0.020310672000050545,0.13240113854408264
1701857672107949600,6.090949462890625,0.07085828483104706,0.03130592033267021,0.11651911586523056
1701857672117543000,6.10054296875,0.1185043677687645,0.03497100621461868,0.0981936976313591
1701857672127136800,6.11013671875,0.16370706260204315,0.03374931216239929,0.07864658534526825
1701857672136729900,6.119729736328125,0.20280128717422485,0.03130592033267021,0.04932591691613197
1701857672146322200,6.129322265625,0.22845686972141266,0.03130592033267021,0.010231691412627697
1701857672155915500,6.13891552734375,0.24067382514476776,0.04107947647571564,-0.03008422814309597
1701857672165509400,6.14850927734375,0.23212195932865143,0.054518118500709534,-0.056961506605148315
1701857672175102700,6.158102783203125,0.20524467527866364,0.06673506647348404,-0.06429167091846466
1701857672184695000,6.167695068359375,0.16248537600040436,0.07528692483901978,-0.05207473039627075
1701857672194288000,6.1772880859375,0.11117420345544815,0.06673506647348404,-0.020310672000050545
1701857672203882200,6.18688232421875,0.05986303091049194,0.04107947647571564,0.02489202655851841
1701857672213475300,6.196475341796875,0.014660334214568138,0.004428642801940441,0.0713164210319519
1701857672223067600,6.206067626953125,-0.01954711228609085,-0.02489202655851841,0.11529742181301117
1701857672232660700,6.21566064453125,-0.042759306728839874,-0.04321744292974472,0.1507265567779541
1701857672242254800,6.2252548828125,-0.0525328628718853,-0.051769305020570755,0.17393875122070312
1701857672251848000,6.234847900390625,-0.05008947476744652,-0.050547610968351364,0.18004722893238068
1701857672261440300,6.244440185546875,-0.0390942245721817,-0.037108972668647766,0.17393875122070312
1701857672271033600,6.25403369140625,-0.02076880633831024,-0.018783552572131157,0.16050012409687042
1701857672280627500,6.26362744140625,0.0036650835536420345,-0.0016798300202935934,0.14217470586299896
1701857672290220500,6.273220458984375,0.03176405653357506,0.016645587980747223,0.12018419802188873
1701857672299812900,6.282812744140625,0.062306419014930725,0.039857782423496246,0.09575030952692032
1701857672309406200,6.29240625,0.09284878522157669,0.06551336497068405,0.06642963737249374
1701857672319000000,6.302,0.12461283802986145,0.09483403712511063,0.034665580838918686
1701857672328593400,6.311593505859375,0.15515519678592682,0.12659808993339539,0.005344913341104984
1701857672338185700,6.321185791015625,0.17714570462703705,0.16080553829669952,-0.017867282032966614
1701857672347778800,6.33077880859375,0.18814095854759216,0.1913478970527649,-0.036192700266838074
1701857672357373000,6.340373046875,0.18814095854759216,0.21089501678943634,-0.04963133856654167
1701857672366966000,6.349966064453125,0.1820324808359146,0.21333840489387512,-0.055739812552928925
1701857672376558300,6.359558349609375,0.1710372269153595,0.20234315097332,-0.054518118500709534
1701857672386151400,6.3691513671875,0.15149012207984924,0.18401773273944855,-0.04474456235766411
1701857672395745500,6.37874560546875,0.12705622613430023,0.16691401600837708,-0.02886253222823143
1701857672405338600,6.388338623046875,0.10017894953489304,0.15347537398338318,-0.01175880990922451
1701857672414931000,6.397930908203125,0.07574506103992462,0.14248012006282806,0.007788302376866341
1701857672424524300,6.407524169921875,0.05497625470161438,0.1375933438539505,0.028557108715176582
1701857672434118100,6.4171181640625,0.04153761267662048,0.1388150453567505,0.0456608310341835
1701857672443711200,6.426711181640625,0.03420744836330414,0.14248012006282806,0.05665608495473862
1701857672453303600,6.436303466796875,0.03176405653357506,0.14858859777450562,0.06154286116361618
1701857672462897000,6.44589697265625,0.03176405653357506,0.15836215019226074,0.06032116711139679
1701857672472490800,6.45549072265625,0.03298575058579445,0.17057909071445465,0.052990999072790146
1701857672482084000,6.465083984375,0.03420744836330414,0.18279604613780975,0.03833066672086716
1701857672491676400,6.474676513671875,0.03787253051996231,0.19256959855556488,0.01511846948415041
1701857672501269500,6.48426953125,0.043981000781059265,0.1913478970527649,-0.010537114925682545
1701857672510863600,6.493863525390625,0.0525328628718853,0.18401773273944855,-0.03497100621461868
1701857672520456700,6.503456787109375,0.061084724962711334,0.17424418032169342,-0.05207473039627075
1701857672530049000,6.513049072265625,0.06963659077882767,0.1620272397994995,-0.06184828653931618
1701857672539642400,6.522642333984375,0.07452336698770523,0.14858859777450562,-0.06184828653931618
1701857672549236200,6.532236328125,0.08063183724880219,0.13514995574951172,-0.054518118500709534
1701857672558829300,6.541829345703125,0.08674030750989914,0.11682453751564026,-0.04230117425322533
1701857672568421600,6.551421630859375,0.0916270911693573,0.0984991192817688,-0.025197450071573257
1701857672578015000,6.561014892578125,0.09773556143045425,0.07528692483901978,-0.0068720318377017975
1701857672587608800,6.57060888671875,0.10017894953489304,0.056961506605148315,0.011453386396169662
1701857672597202000,6.580201904296875,0.10140064358711243,0.0459662564098835,0.02489202655851841
1701857672606794200,6.589794189453125,0.10017894953489304,0.039857782423496246,0.029778804630041122
1701857672616387600,6.5993876953125,0.09773556143045425,0.04352286830544472,0.028557108715176582
1701857672625981400,6.6089814453125,0.0916270911693573,0.05085303261876106,0.02244863659143448
1701857672635574800,6.61857470703125,0.08307522535324097,0.0594048947095871,0.012675080448389053
1701857672645167000,6.6281669921875,0.07574506103992462,0.06551336497068405,0.0016798300202935934
1701857672654760200,6.63776025390625,0.06719319522380829,0.072843536734581,-0.0068720318377017975
1701857672664354000,6.64735400390625,0.061084724962711334,0.07650861889123917,-0.01175880990922451
1701857672673947400,6.656947509765625,0.05741964280605316,0.07528692483901978,-0.014202198944985867
1701857672683539700,6.666539794921875,0.05375456064939499,0.06917845457792282,-0.015423892997205257
1701857672693132800,6.6761328125,0.0525328628718853,0.06429167091846466,-0.015423892997205257
1701857672702727000,6.685726806640625,0.05497625470161438,0.05207473039627075,-0.016645587980747223
1701857672712320000,6.695320068359375,0.05864133685827255,0.038636088371276855,-0.014202198944985867
1701857672721912300,6.704912353515625,0.062306419014930725,0.03130592033267021,-0.009315420873463154
1701857672731505700,6.714505615234375,0.0647498071193695,0.022754060104489326,-0.0007635590736754239
1701857672741099500,6.724099609375,0.0659715011715889,0.015423892997205257,0.005344913341104984
1701857672750692600,6.733692626953125,0.06719319522380829,0.005650337319821119,0.0065666078589856625
1701857672760285000,6.743284912109375,0.07085828483104706,-0.0016798300202935934,0.005344913341104984
1701857672769878300,6.752878173828125,0.07574506103992462,-0.007788302376866341,0.0065666078589856625
1701857672779472100,6.76247216796875,0.08063183724880219,-0.013896775431931019,0.0029015245381742716
1701857672789065200,6.772065185546875,0.08551861345767975,-0.016340164467692375,-0.004428642801940441
1701857672798657500,6.781657470703125,0.08918370306491852,-0.012675080448389053,-0.012980503961443901
1701857672808251000,6.7912509765625,0.08796200156211853,-0.0016798300202935934,-0.021532366052269936
1701857672817844700,6.8008447265625,0.08185353130102158,0.012980503961443901,-0.02886253222823143
1701857672827438000,6.81043798828125,0.07452336698770523,0.02641914412379265,-0.036192700266838074
1701857672837030400,6.820030517578125,0.06841489672660828,0.03374931216239929,-0.038636088371276855
1701857672846623500,6.82962353515625,0.0647498071193695,0.03374931216239929,-0.03374931216239929
1701857672856217600,6.839217529296875,0.0659715011715889,0.02886253222823143,-0.025197450071573257
1701857672865810700,6.848810791015625,0.0659715011715889,0.023975754156708717,-0.012980503961443901
1701857672875403000,6.858403076171875,0.05986303091049194,0.019088976085186005,0.0016798300202935934
1701857672884996000,6.86799609375,0.061084724962711334,0.016645587980747223,0.017561858519911766
1701857672894590200,6.877590087890625,0.07574506103992462,0.009315420873463154,0.032222192734479904
1701857672904183300,6.887183349609375,0.08918370306491852,-0.0029015245381742716,0.04443913698196411
1701857672913775600,6.896775634765625,0.10384403169155121,-0.010231691412627697,0.051769305020570755
1701857672923369000,6.906368896484375,0.11606097966432571,-0.016340164467692375,0.052990999072790146
1701857672932962800,6.915962890625,0.12461283802986145,-0.018783552572131157,0.051769305020570755
1701857672942556000,6.925555908203125,0.130721315741539,-0.017561858519911766,0.04932591691613197
1701857672952148200,6.935148193359375,0.13438639044761658,-0.01511846948415041,0.04688252881169319
1701857672961741600,6.944741455078125,0.13438639044761658,-0.0065666078589856625,0.0456608310341835
1701857672971335400,6.95433544921875,0.130721315741539,0.001985253533348441,0.04443913698196411
1701857672980928800,6.9639287109375,0.12583453953266144,0.008093725889921188,0.04077405482530594
1701857672990521000,6.97352099609375,0.11972606182098389,0.01175880990922451,0.03955236077308655
1701857673000114200,6.9831142578125,0.11239589750766754,0.012980503961443901,0.037108972668647766
1701857673009708000,6.9927080078125,0.10384403169155121,0.012980503961443901,0.03588727489113808
1701857673019301400,7.00230126953125,0.09529217332601547,0.010537114925682545,0.033443886786699295
1701857673028893700,7.011893798828125,0.08674030750989914,0.0032069480512291193,0.028557108715176582
1701857673038486800,7.02148681640625,0.07696675509214401,-0.005344913341104984,0.0261137206107378
1701857673048081000,7.031080810546875,0.0659715011715889,-0.01511846948415041,0.0261137206107378
1701857673057674000,7.040674072265625,0.05741964280605316,-0.0261137206107378,0.029778804630041122
1701857673067266300,7.050266357421875,0.047646086663007736,-0.037108972668647766,0.03833066672086716
1701857673076859600,7.059859619140625,0.0390942245721817,-0.04443913698196411,0.051769305020570755
1701857673086453500,7.06945361328125,0.03176405653357506,-0.04810422286391258,0.06520794332027435
1701857673096046600,7.079046630859375,0.025655584409832954,-0.050547610968351364,0.07498150318861008
1701857673105639000,7.088638916015625,0.021990500390529633,-0.052990999072790146,0.07864658534526825
1701857673115232300,7.098232177734375,0.01832541823387146,-0.05421269312500954,0.07375980913639069
1701857673124826000,7.107826171875,0.014660334214568138,-0.052990999072790146,0.06276455521583557
1701857673134419200,7.117419189453125,0.010995250195264816,-0.04810422286391258,0.04443913698196411
1701857673144011500,7.127011474609375,0.009773556143045425,-0.04077405482530594,0.021226942539215088
1701857673153604900,7.13660498046875,0.007330167107284069,-0.033443886786699295,-0.004428642801940441
1701857673163198700,7.14619873046875,0.004886778071522713,-0.0261137206107378,-0.02764083817601204
1701857673172791800,7.155791748046875,0.0012216945178806782,-0.016340164467692375,-0.05085303261876106
1701857673182384400,7.16538427734375,-0.0024433890357613564,-0.005344913341104984,-0.07040014863014221
1701857673191977500,7.1749775390625,-0.004886778071522713,0.001985253533348441,-0.08628217875957489
1701857673201571600,7.184571533203125,-0.009773556143045425,0.0068720318377017975,-0.09972081333398819
1701857673211164400,7.194164306640625,-0.014660334214568138,0.01175880990922451,-0.10705098509788513
1701857673220757000,7.203757080078125,-0.01954711228609085,0.014202198944985867,-0.10949437320232391
1701857673230350000,7.21335009765625,-0.024433890357613564,0.019088976085186005,-0.10582929104566574
1701857673239944200,7.222944091796875,-0.024433890357613564,0.025197450071573257,-0.09605573117733002
1701857673249537300,7.232537353515625,-0.024433890357613564,0.03130592033267021,-0.08017370104789734
1701857673259129600,7.242129638671875,-0.021990500390529633,0.04230117425322533,-0.058183200657367706
1701857673268722700,7.25172265625,-0.01832541823387146,0.05329642444849014,-0.03497100621461868
1701857673278316800,7.26131689453125,-0.01588202826678753,0.06306997686624527,-0.014202198944985867
1701857673287910000,7.270909912109375,-0.013438640162348747,0.072843536734581,0.0029015245381742716
1701857673297502200,7.280502197265625,-0.01710372418165207,0.08383878320455551,0.013896775431931019
1701857673307095600,7.290095458984375,-0.02076880633831024,0.09727742522954941,0.020005248486995697
1701857673316689400,7.299689453125,-0.029320668429136276,0.10949437320232391,0.020005248486995697
1701857673326282500,7.309282470703125,-0.0390942245721817,0.11804623156785965,0.01511846948415041
1701857673335874800,7.318874755859375,-0.045202698558568954,0.12659808993339539,0.0065666078589856625
1701857673345468200,7.32846826171875,-0.05131116881966591,0.13270656764507294,-0.0068720318377017975
1701857673355062000,7.33806201171875,-0.05864133685827255,0.1375933438539505,-0.020310672000050545
1701857673364655400,7.3476552734375,-0.06352811306715012,0.1375933438539505,-0.036192700266838074
1701857673374247700,7.35724755859375,-0.0659715011715889,0.14125843346118927,-0.04963133856654167
1701857673383840800,7.3668408203125,-0.06719319522380829,0.14125843346118927,-0.06184828653931618
1701857673393434600,7.3764345703125,-0.06719319522380829,0.14003673195838928,-0.072843536734581
1701857673403028000,7.386028076171875,-0.0647498071193695,0.14248012006282806,-0.08383878320455551
1701857673412620300,7.395620361328125,-0.05864133685827255,0.14614520967006683,-0.09361234307289124
1701857673422213400,7.40521337890625,-0.04886778071522713,0.14736689627170563,-0.10094250738620758
1701857673431807500,7.414807373046875,-0.03542914241552353,0.14736689627170563,-0.10582929104566574
1701857673441400600,7.424400634765625,-0.023212196305394173,0.14858859777450562,-0.10705098509788513
1701857673450993000,7.433992919921875,-0.010995250195264816,0.15347537398338318,-0.10582929104566574
1701857673460586000,7.4435859375,-0.0012216945178806782,0.15714046359062195,-0.10827267915010452
1701857673470180000,7.45318017578125,0.007330167107284069,0.15714046359062195,-0.1119377613067627
1701857673479773200,7.462773193359375,0.013438640162348747,0.1632489264011383,-0.11438114941120148
1701857673489365500,7.472365478515625,0.02076880633831024,0.16935740411281586,-0.11560284346342087
1701857673498958800,7.481958740234375,0.028098974376916885,0.16691401600837708,-0.11804623156785965
1701857673508552700,7.491552734375,0.03665083646774292,0.15347537398338318,-0.12904147803783417
1701857673518145800,7.501145751953125,0.043981000781059265,0.13514995574951172,-0.14858859777450562
1701857673527738000,7.510738037109375,0.04886778071522713,0.11804623156785965,-0.17302247881889343
1701857673537331500,7.52033154296875,0.05619794875383377,0.09727742522954941,-0.20234315097332
1701857673546925300,7.52992529296875,0.0659715011715889,0.06795676052570343,-0.23288552463054657
1701857673556518700,7.5395185546875,0.0794101431965828,0.025197450071573257,-0.27686652541160583
1701857673566111000,7.549111083984375,0.09407047927379608,-0.012675080448389053,-0.34039464592933655
1701857673575704000,7.5587041015625,0.11606097966432571,-0.02733541466295719,-0.4136963188648224
1701857673585298200,7.568298095703125,0.1429382562637329,-0.05543438717722893,-0.4931064546108246
1701857673594891300,7.577891357421875,0.15393351018428802,-0.10308047384023666,-0.5639647245407104
1701857673604483600,7.587483642578125,0.13316470384597778,-0.08353336155414581,-0.6238277554512024
1701857673614076700,7.59707666015625,0.10384403169155121,-0.012675080448389053,-0.6910209655761719
1701857673623670800,7.6066708984375,0.08551861345767975,0.08383878320455551,-0.7740961909294128
1701857673633263900,7.616263916015625,0.08307522535324097,0.18279604613780975,-0.8681666851043701
1701857673642856200,7.625856201171875,0.09407047927379608,0.26098448038101196,-0.9451334476470947
1701857673652449500,7.635449462890625,0.10873081535100937,0.31351736187934875,-0.9927794933319092
1701857673662043400,7.64504345703125,0.12339114397764206,0.3599417507648468,-1.004996418952942
1701857673671636500,7.654636474609375,0.12583453953266144,0.39414918422698975,-0.9903361201286316
1701857673681228800,7.664228759765625,0.10017894953489304,0.40636613965034485,-0.9768974781036377
1701857673690822100,7.673822265625,0.0525328628718853,0.42224815487861633,-0.983005940914154
1701857673700416000,7.683416015625,0.062306419014930725,0.4894413650035858,-0.987892746925354
1701857673710009300,7.69300927734375,0.10384403169155121,0.5981721878051758,-0.996444582939148
1701857673719601700,7.7026015625,0.11972606182098389,0.7447755336761475,-0.987892746925354
1701857673729194800,7.71219482421875,0.0916270911693573,0.9268079996109009,-0.9475768208503723
1701857673738788600,7.72178857421875,0.05375456064939499,1.1393828392028809,-0.9158127307891846
1701857673748382000,7.7313818359375,0.008551862090826035,1.3030898571014404,-0.9158127307891846
1701857673757974300,7.740974365234375,-0.06841489672660828,1.3751698732376099,-0.9390249252319336
1701857673767567400,7.7505673828125,-0.16126367449760437,1.3311889171600342,-0.9915578365325928
1701857673777161500,7.760161376953125,-0.2883199155330658,1.1283875703811646,-1.0685245990753174
1701857673786754600,7.769754638671875,-0.3811686933040619,0.7997517585754395,-1.1112838983535767
1701857673796347000,7.779346923828125,-0.3836120665073395,0.5346440672874451,-1.2224581241607666
1701857673805940200,7.788940185546875,-0.20524467527866364,0.4039227366447449,-1.1711468696594238
1701857673815534000,7.7985341796875,0.10140064358711243,0.1889045089483261,-1.0697462558746338
1701857673825127200,7.808127197265625,0.3506263196468353,0.010537114925682545,-1.0489774942398071
1701857673834719500,7.817719482421875,0.4593571424484253,-0.07864658534526825,-1.0538642406463623
1701857673844312800,7.827312744140625,0.4056025743484497,-0.18126893043518066,-1.0587509870529175
1701857673853906700,7.83690673828125,0.30786702036857605,-0.28999972343444824,-1.1296093463897705
1701857673863499800,7.846499755859375,0.1979145109653473,-0.12873606383800507,-1.2847645282745361
1701857673873092000,7.856092041015625,0.10140064358711243,0.28664007782936096,-1.4765704870224
1701857673882685400,7.865685546875,0.05497625470161438,0.5810684561729431,-1.6097352504730225
1701857673892279300,7.875279296875,0.013438640162348747,0.4931064546108246,-1.6207305192947388
1701857673901872400,7.884872314453125,0.014660334214568138,0.4259132444858551,-1.5596457719802856
1701857673911465000,7.89446484375,0.1050657257437706,0.5334223508834839,-1.4729053974151611
1701857673921058000,7.90405810546875,0.22845686972141266,0.5150969624519348,-1.3544011116027832
1701857673930652200,7.913652099609375,0.284654825925827,0.43080002069473267,-1.1992459297180176
1701857673940245200,7.923245361328125,0.22479179501533508,0.3245126008987427,-0.9940012097358704
1701857673949837600,7.932837646484375,0.16370706260204315,0.14370182156562805,-0.775317907333374
1701857673959430700,7.9424306640625,0.261442631483078,0.07528692483901978,-0.5871769189834595
1701857673969024800,7.952024658203125,0.5241069197654724,0.037414394319057465,-0.37826716899871826
1701857673978617900,7.961617919921875,0.6340594291687012,0.023975754156708717,-0.10460758954286575
1701857673988210200,7.971210205078125,0.5351021885871887,0.1620272397994995,0.09452861547470093
1701857673997803300,7.98080322265625,0.3261924386024475,0.25976279377937317,0.164165198802948
1701857674007397400,7.9903974609375,0.01588202826678753,0.34405970573425293,0.26190075278282166
1701857674016990500,7.999990478515625,-0.4471401870250702,0.5578562617301941,0.506239652633667
1701857674026582800,8.009582763671874,-0.8344173431396484,0.7166765332221985,0.7751652002334595
1701857674036176100,8.019176025390625,-1.0531007051467896,0.6629219651222229,0.869235634803772
1701857674045770000,8.02877001953125,-0.999346137046814,0.5737382769584656,0.7495095729827881
1701857674055363000,8.038363037109375,-0.7794411182403564,0.34283801913261414,0.5283828973770142
1701857674064955600,8.04795556640625,-0.24678228795528412,0.021532366052269936,0.17882554233074188
1701857674074548700,8.057548828125,-0.10628741979598999,-0.2044811248779297,-0.09116895496845245
1701857674084142600,8.067142578125,-0.1563768982887268,-0.3987305462360382,-0.12293300777673721
1701857674093736000,8.07673583984375,-0.27121618390083313,-0.5112791657447815,-0.08994726091623306
1701857674103328300,8.086328369140626,-0.5387672781944275,-0.48073679208755493,-0.14248012006282806
1701857674112921300,8.09592138671875,-0.7977665066719055,-0.3339807391166687,-0.2304421216249466
1701857674122515500,8.105515380859375,-0.8050966858863831,-0.08353336155414581,-0.39048412442207336
1701857674132108500,8.115108642578125,-0.8820634484291077,0.03374931216239929,-0.6702521443367004
1701857674141700900,8.124700927734375,-1.068982720375061,0.03374931216239929,-1.0599727630615234
1701857674151294000,8.1342939453125,-1.2536113262176514,-0.17393875122070312,-1.5633108615875244
1701857674160888000,8.14388818359375,-1.4735163450241089,-0.35108447074890137,-2.1448373794555664
1701857674170481200,8.153481201171875,-1.6079026460647583,-0.4416425824165344,-2.5064589977264404
1701857674180073500,8.163073486328125,-1.7007514238357544,-0.47951510548591614,-2.5870909690856934
1701857674189666800,8.172666748046876,-1.79360032081604,-0.446529358625412,-2.418497085571289
1701857674199260700,8.1822607421875,-1.8595718145370483,-0.36696648597717285,-2.122846841812134
1701857674208853800,8.191853759765625,-1.857128381729126,-0.23868857324123383,-1.9127154350280762
1701857674218446000,8.201446044921875,-1.815590739250183,-0.1385096162557602,-1.8039846420288086
1701857674228039400,8.211039306640625,-1.7300721406936646,0.1375933438539505,-1.7001405954360962
1701857674237633300,8.22063330078125,-1.7826050519943237,-0.111632339656353,-1.7294613122940063
1701857674247226400,8.230226318359374,-1.8876707553863525,-0.21425467729568481,-1.8455222845077515
1701857674256818700,8.239818603515625,-1.9377602338790894,-0.21914145350456238,-1.8394137620925903
1701857674266412000,8.249412109375,-1.9634158611297607,-0.1629435122013092,-1.7795507907867432
1701857674276006000,8.259005859375,-1.890114188194275,-0.2802261710166931,-1.6964755058288574
1701857674285599200,8.26859912109375,-1.7117466926574707,-0.40972578525543213,-1.6414992809295654
1701857674295191600,8.278191650390625,-1.5382660627365112,-0.5259394645690918,-1.584079623222351
1701857674304784600,8.28778466796875,-1.377002477645874,-0.5992411375045776,-1.5718626976013184
1701857674314378800,8.297378662109375,-1.2499462366104126,-0.5344913601875305,-1.5400986671447754
1701857674323971800,8.306971923828126,-1.0640959739685059,-0.8704573512077332,-1.5278817415237427
1701857674333564200,8.316564208984374,-0.8637380003929138,-1.041494607925415,-1.584079623222351
1701857674343157200,8.3261572265625,-0.7537854909896851,-1.1184613704681396,-1.537655234336853
1701857674352751400,8.33575146484375,-0.6853706240653992,-1.2088667154312134,-1.4142640829086304
1701857674362344400,8.345344482421876,-0.5680879354476929,-1.3395880460739136,-1.2542221546173096
1701857674371936800,8.354936767578126,-0.4227063059806824,-1.5106252431869507,-1.0440906286239624
1701857674381530000,8.364530029296875,-0.367730051279068,-1.8319308757781982,-0.9622371196746826
1701857674391124000,8.3741240234375,-0.2748812735080719,-2.811729907989502,-1.1198357343673706
1701857674400717000,8.383717041015625,0.09284878522157669,-3.071950912475586,-2.1387288570404053
1701857674410309400,8.393309326171876,0.3298575282096863,-1.7940584421157837,-3.5705549716949463
1701857674419902700,8.40290283203125,-0.1966928243637085,-0.45019441843032837,-4.516146659851074
1701857674429496600,8.41249658203125,-1.2523895502090454,-0.21181128919124603,-4.519811630249023
1701857674439089700,8.422089599609375,-1.8363596200942993,-0.5173876285552979,-3.971270799636841
1701857674448682000,8.431681884765625,-1.204743504524231,-1.113574504852295,-3.0818772315979004
1701857674458275300,8.441275390625,-0.03787253051996231,-1.2418525218963623,-2.1766014099121094
1701857674467869200,8.450869140625,0.916270911693573,-1.277281641960144,-1.3544011116027832
1701857674477462300,8.460462158203125,1.351194143295288,-0.9840749502182007,-0.7227849960327148
1701857674487054600,8.4700546875,1.2876659631729126,-0.4990622103214264,-0.015423892997205257
1701857674496648000,8.47964794921875,0.9859074950218201,-0.028557108715176582,0.7837170362472534
1701857674506241800,8.48924169921875,0.6890357136726379,0.11315945535898209,1.355470061302185
1701857674515835000,8.4988349609375,0.5289937257766724,0.072843536734581,1.5668232440948486
1701857674525427500,8.508427490234375,0.43614494800567627,0.15958385169506073,1.489856481552124
1701857674535020500,8.5180205078125,0.2883199155330658,0.4760027229785919,1.3139324188232422
1701857674544614700,8.52761474609375,0.0781884491443634,0.9573503732681274,1.1490037441253662
1701857674554207500,8.53720751953125,-0.07085828483104706,1.3934953212738037,1.0085088014602661
1701857674563800000,8.546800048828125,-0.18569757044315338,1.6268389225006104,0.8716790676116943
1701857674573393200,8.55639306640625,-0.23212195932865143,1.703805685043335,0.7641699314117432
1701857674582987300,8.5659873046875,-0.1966928243637085,1.6793718338012695,0.5980194807052612
1701857674592580400,8.575580322265624,-0.16859383881092072,1.5168864727020264,0.2423536479473114
1701857674602172700,8.585172607421875,-0.1966928243637085,1.2652174234390259,-0.34039464592933655
1701857674611765800,8.594765869140625,-0.2736595869064331,1.0917367935180664,-0.9817842841148376
1701857674621359900,8.60435986328125,-0.3115321099758148,1.1320526599884033,-1.4851224422454834
1701857674630953000,8.613952880859374,-0.3005368411540985,1.2016892433166504,-1.6463860273361206
1701857674640545300,8.623545166015624,-0.29687178134918213,1.2591089010238647,-1.5633108615875244
1701857674650138600,8.633138671875,-0.4031592011451721,1.0966235399246216,-1.2334532737731934
1701857674659732500,8.642732421875,-0.5876350402832031,0.8596147894859314,-0.7484406232833862
1701857674669325600,8.65232568359375,-0.7684458494186401,0.6360446810722351,-0.35138988494873047
1701857674678918000,8.66191796875,-0.8234221339225769,0.34161633253097534,-0.09972081333398819
1701857674688511200,8.67151123046875,-0.7171346545219421,0.010537114925682545,0.0261137206107378
1701857674698105000,8.68110498046875,-0.5253286361694336,-0.2435753494501114,0.06887302547693253
1701857674707698200,8.6906982421875,-0.36284327507019043,-0.3339807391166687,0.08231166750192642
1701857674717290800,8.700290771484376,-0.30664533376693726,-0.29977330565452576,0.09941539168357849
1701857674726883800,8.7098837890625,-0.37261682748794556,-0.22402822971343994,0.12995775043964386
1701857674736477700,8.719477783203125,-0.5338805317878723,-0.19592925906181335,0.2020377367734909
1701857674746071000,8.729071044921875,-0.7195780873298645,-0.2276933193206787,0.32665055990219116
1701857674755663400,8.738663330078126,-0.869846522808075,-0.2557922899723053,0.4121691882610321
1701857674765256400,8.74825634765625,-1.0115630626678467,-0.4133908748626709,0.44271156191825867
1701857674774850300,8.757850341796875,-1.0848647356033325,-0.5919110178947449,0.41705596446990967
1701857674784443600,8.767443603515625,-1.0579874515533447,-0.6713211536407471,0.2435753494501114
1701857674794036000,8.777035888671875,-1.0164498090744019,-0.7140804529190063,0.08231166750192642
1701857674803629000,8.786629150390626,-0.9871291518211365,-0.6749862432479858,-0.020310672000050545
1701857674813223200,8.79622314453125,-0.9810206890106201,-0.6407787799835205,-0.04840964451432228
1701857674822816300,8.805816162109375,-0.9773555994033813,-0.6346703171730042,0.033443886786699295
1701857674832408600,8.81540869140625,-0.9223793745040894,-0.5601469278335571,0.10674555599689484
1701857674842001700,8.825001708984376,-0.8600729703903198,-0.4611896872520447,0.17149536311626434
1701857674851595800,8.834595703125,-0.8234221339225769,-0.39384377002716064,0.24479703605175018
1701857674861188900,8.84418896484375,-0.8038749694824219,-0.36574479937553406,0.31565532088279724
1701857674870781200,8.85378125,-0.7794411182403564,-0.2851129472255707,0.2777827978134155
1701857674880374500,8.86337451171875,-0.7745543122291565,-0.22280654311180115,0.2557922899723053
1701857674889968400,8.872968505859374,-0.7989882230758667,-0.19715094566345215,0.26434415578842163
1701857674899561500,8.8825615234375,-0.8319739699363708,-0.20692451298236847,0.2802261710166931
1701857674909153800,8.89215380859375,-0.8808417320251465,-0.22647161781787872,0.2826695740222931
1701857674918747100,8.9017470703125,-0.9297095537185669,-0.23502348363399506,0.2655658423900604
1701857674928341000,8.911341064453126,-0.9797990322113037,-0.24724042415618896,0.2435753494501114
1701857674937934000,8.92093408203125,-1.0421054363250732,-0.2545706033706665,0.23502348363399506
1701857674947526400,8.9305263671875,-1.0885298252105713,-0.2545706033706665,0.21914145350456238
1701857674957119700,8.94011962890625,-1.133732557296753,-0.2545706033706665,0.21058958768844604
1701857674966713600,8.949713623046875,-1.1778662204742432,-0.2582356929779053,0.22158484160900116
1701857674976306700,8.959306640625,-1.2035218477249146,-0.2716743052005768,0.26434415578842163
1701857674985899000,8.96889892578125,-1.2023000717163086,-0.2924431264400482,0.34253260493278503
1701857674995492400,8.978492431640625,-1.1913049221038818,-0.3339807391166687,0.402395635843277
1701857675005086200,8.988086181640625,-1.1532796621322632,-0.3840702176094055,0.43538138270378113
1701857675014679600,8.997679443359376,-1.0934165716171265,-0.42453885078430176,0.43293800950050354
1701857675024272000,9.00727197265625,-1.0323318243026733,-0.4428642690181732,0.40483900904655457
1701857675033865000,9.016864990234374,-0.9785773158073425,-0.44042086601257324,0.376740038394928
1701857675043458800,9.026458740234375,-0.9431481957435608,-0.42331716418266296,0.3449759781360626
1701857675053052200,9.03605224609375,-0.9321529269218445,-0.3877353072166443,0.3217637836933136
1701857675062644500,9.04564453125,-0.9345963001251221,-0.3327590525150299,0.3180987238883972
1701857675072237600,9.055237548828124,-0.9455915689468384,-0.2680092453956604,0.3229855000972748
1701857675081831700,9.064831787109375,-0.9602518677711487,-0.19470755755901337,0.3180987238883972
1701857675091424800,9.0744248046875,-0.971247136592865,-0.11529742181301117,0.31565532088279724
1701857675101017000,9.08401708984375,-0.9700254201889038,-0.03833066672086716,0.31199023127555847
1701857675110610200,9.093610107421876,-0.9565867781639099,0.039857782423496246,0.3083251416683197
1701857675120204300,9.103204345703125,-0.9358180165290833,0.11560284346342087,0.31321191787719727
1701857675129797400,9.11279736328125,-0.911384105682373,0.1644706279039383,0.3315373361110687
1701857675139389700,9.1223896484375,-0.8845068216323853,0.17302247881889343,0.35352784395217896
1701857675148983000,9.131983154296876,-0.8380824327468872,0.18157434463500977,0.3828485310077667
1701857675158577000,9.141576904296874,-0.786771297454834,0.19501298666000366,0.40483900904655457
1701857675168170000,9.151169921875,-0.8234221339225769,0.1754658818244934,0.4366030693054199
1701857675177762300,9.16076220703125,-0.8283088803291321,0.14736689627170563,0.49646610021591187
1701857675187355600,9.170355712890625,-0.8038749694824219,0.12781979143619537,0.5234960913658142
1701857675196949500,9.179949462890624,-0.7684458494186401,0.10827267915010452,0.5405998229980469
1701857675206542600,9.18954248046875,-0.735460102558136,0.0984991192817688,0.550373375415802
1701857675216135000,9.199135009765625,-0.7171346545219421,0.10705098509788513,0.5515950918197632
1701857675225728300,9.208728271484375,-0.7098045349121094,0.13514995574951172,0.5491516590118408
1701857675235322000,9.218322021484376,-0.7049177289009094,0.1754658818244934,0.5528167486190796
1701857675244915200,9.227915283203124,-0.7012526392936707,0.20722992718219757,0.5625903010368347
1701857675254507500,9.237507568359375,-0.6927008032798767,0.22189027070999146,0.5711421966552734
1701857675264100900,9.247100830078125,-0.6804838180541992,0.22433365881443024,0.5772506594657898
1701857675273694700,9.25669482421875,-0.6694886088371277,0.2279987335205078,0.5870242118835449
1701857675283287800,9.266287841796874,-0.6487197875976562,0.22677704691886902,0.5943543910980225
1701857675292880400,9.27588037109375,-0.6145123243331909,0.21211670339107513,0.6016845703125
1701857675302473500,9.285473388671875,-0.5900784730911255,0.2047865390777588,0.5919110178947449
1701857675312067300,9.2950673828125,-0.5607577562332153,0.2011214643716812,0.5686988234519958
1701857675321660700,9.30466064453125,-0.5070032477378845,0.2695363461971283,0.5086830258369446
1701857675331253000,9.3142529296875,-0.47768256068229675,0.2585411071777344,0.4928010404109955
1701857675340846000,9.32384619140625,-0.5082249045372009,0.19501298666000366,0.5430431962013245
1701857675350440000,9.33343994140625,-0.4886777997016907,0.18401773273944855,0.5259394645690918
1701857675360033000,9.343032958984375,-0.46668729186058044,0.16935740411281586,0.4903576374053955
1701857675369625600,9.35262548828125,-0.45324867963790894,0.15469707548618317,0.4610369801521301
1701857675379218700,9.36221875,-0.43858832120895386,0.14370182156562805,0.4390464723110199
1701857675388812500,9.3718125,-0.41537612676620483,0.1375933438539505,0.4243861436843872
1701857675398406000,9.381406005859375,-0.3836120665073395,0.14248012006282806,0.423164427280426
1701857675407998200,9.390998291015626,-0.3518480062484741,0.16080553829669952,0.42927291989326477
1701857675417591300,9.40059130859375,-0.31886225938796997,0.18401773273944855,0.4390464723110199
1701857675427185400,9.410185302734375,-0.28221142292022705,0.21333840489387512,0.4500417113304138
1701857675436778500,9.419778564453125,-0.2516690790653229,0.23410721123218536,0.4500417113304138
1701857675446370800,9.429370849609375,-0.2211267054080963,0.2585411071777344,0.4414898455142975
1701857675455964000,9.4389638671875,-0.18814095854759216,0.2805316150188446,0.43049460649490356
1701857675465558000,9.44855810546875,-0.15515519678592682,0.2927485406398773,0.4243861436843872
1701857675475151000,9.458151123046875,-0.13805148005485535,0.30130040645599365,0.423164427280426
1701857675484743400,9.467743408203125,-0.129499614238739,0.31351736187934875,0.40972578525543213
1701857675494336500,9.47733642578125,-0.12216944992542267,0.34039464592933655,0.35474956035614014
1701857675503930600,9.4869306640625,-0.11972606182098389,0.39048412442207336,0.27411770820617676
1701857675513523700,9.496523681640625,-0.12583453953266144,0.45523393154144287,0.2020377367734909
1701857675523116000,9.506115966796875,-0.13927318155765533,0.5163186192512512,0.14828316867351532
1701857675532709400,9.51570947265625,-0.13805148005485535,0.5651864409446716,0.08964183181524277
1701857675542303200,9.52530322265625,-0.12216944992542267,0.5566345453262329,0.05787777900695801
1701857675551896300,9.534896240234374,-0.09529217332601547,0.4955498278141022,0.0981936976313591
1701857675561488600,9.544488525390625,-0.05986303091049194,0.4381301999092102,0.1776038408279419
1701857675571082000,9.55408203125,-0.021990500390529633,0.39048412442207336,0.24968381226062775
1701857675580675800,9.56367578125,0.01954711228609085,0.35383328795433044,0.2912214398384094
1701857675590269000,9.57326904296875,0.06719319522380829,0.3245126008987427,0.3095468580722809
1701857675599861200,9.582861328125,0.10750912129878998,0.31473904848098755,0.3229855000972748
1701857675609454600,9.59245458984375,0.14660334587097168,0.3110739588737488,0.3339807391166687
1701857675619048400,9.60204833984375,0.17225892841815948,0.3196258246898651,0.34375429153442383
1701857675628641500,9.6116416015625,0.18569757044315338,0.34283801913261414,0.3461976945400238
1701857675638233900,9.62123388671875,0.18081079423427582,0.3758237659931183,0.34131091833114624
1701857675647827200,9.6308271484375,0.16370706260204315,0.4112529158592224,0.32542887330055237
1701857675657421000,9.640421142578125,0.13927318155765533,0.4405735731124878,0.3058817684650421
1701857675667014400,9.650014404296876,0.11606097966432571,0.4540122151374817,0.293664813041687
1701857675676606500,9.6596064453125,0.09895725548267365,0.4515688419342041,0.293664813041687
1701857675686199800,9.66919970703125,0.08674030750989914,0.4369085133075714,0.28755635023117065
1701857675695793700,9.678793701171875,0.08307522535324097,0.4136963188648224,0.2790044844150543
1701857675705386800,9.68838671875,0.08674030750989914,0.39170581102371216,0.2790044844150543
1701857675714979300,9.697979248046876,0.09040539711713791,0.3746020793914795,0.28755635023117065
1701857675724572400,9.707572509765624,0.09040539711713791,0.36482852697372437,0.3058817684650421
1701857675734166300,9.717166259765625,0.08918370306491852,0.36360684037208557,0.3242071866989136
1701857675743759400,9.72675927734375,0.08674030750989914,0.3599417507648468,0.3486410677433014
1701857675753352000,9.73635205078125,0.09040539711713791,0.3489464819431305,0.3694098889827728
1701857675762945000,9.745945068359376,0.10262233763933182,0.333064466714859,0.3840702176094055
1701857675772539000,9.755538818359375,0.11239589750766754,0.3110739588737488,0.39140036702156067
1701857675782132200,9.76513232421875,0.12705622613430023,0.28908345103263855,0.39384377002716064
1701857675791724500,9.774724609375,0.14660334587097168,0.27320143580436707,0.39262208342552185
1701857675801317600,9.784317626953126,0.16859383881092072,0.2683146595954895,0.4011739492416382
1701857675810911700,9.793911865234374,0.1832541823387146,0.26342788338661194,0.399952232837677
1701857675820504600,9.803504638671875,0.18936264514923096,0.2707580327987671,0.39140036702156067
1701857675830097200,9.81309716796875,0.17836740612983704,0.28664007782936096,0.38162681460380554
1701857675839690200,9.822690185546875,0.16126367449760437,0.30007871985435486,0.3718532621860504
1701857675849284000,9.8322841796875,0.13560809195041656,0.30740886926651,0.3718532621860504
1701857675858877400,9.84187744140625,0.10873081535100937,0.30740886926651,0.3730749487876892
1701857675868469800,9.8514697265625,0.08307522535324097,0.2951919436454773,0.36818817257881165
1701857675878062800,9.861062744140625,0.0659715011715889,0.2707580327987671,0.3498627543449402
1701857675887657000,9.870656982421876,0.05375456064939499,0.24876753985881805,0.32665055990219116
1701857675897250000,9.88025,0.045202698558568954,0.2304421216249466,0.3095468580722809
1701857675906842400,9.88984228515625,0.03787253051996231,0.22311195731163025,0.2973299026489258
1701857675916435500,9.899435546875,0.030542362481355667,0.22066856920719147,0.28999972343444824
1701857675926029600,9.909029541015625,0.025655584409832954,0.2157817929983139,0.28633466362953186
1701857675935622700,9.91862255859375,0.021990500390529633,0.20845162868499756,0.293664813041687
1701857675945215000,9.928215087890624,0.023212196305394173,0.20356485247612,0.3095468580722809
1701857675954808000,9.93780810546875,0.024433890357613564,0.1901262104511261,0.3205420970916748
1701857675964402200,9.947402099609375,0.026877280324697495,0.16935740411281586,0.319320410490036
1701857675973995300,9.956995361328126,0.029320668429136276,0.1510319858789444,0.31321191787719727
1701857675983587600,9.966587646484374,0.026877280324697495,0.1375933438539505,0.30343836545944214
1701857675993180700,9.9761806640625,0.023212196305394173,0.12781979143619537,0.2851129472255707
1701857676002774800,9.98577490234375,0.01832541823387146,0.12171131372451782,0.26190075278282166
1701857676012368000,9.995367919921875,0.013438640162348747,0.11804623156785965,0.23746687173843384
1701857676021960200,10.004960205078126,0.012216945178806782,0.11438114941120148,0.21303297579288483
1701857676031553300,10.01455322265625,0.012216945178806782,0.10827267915010452,0.1898207813501358
1701857676041147400,10.0241474609375,0.012216945178806782,0.09483403712511063,0.16905197501182556
1701857676050740500,10.033740478515625,0.01588202826678753,0.08383878320455551,0.14706148207187653
1701857676060332800,10.043332763671875,0.023212196305394173,0.07650861889123917,0.1250709742307663
1701857676069926100,10.052926025390626,0.03420744836330414,0.07528692483901978,0.10185877978801727
1701857676079520000,10.06252001953125,0.04886778071522713,0.072843536734581,0.07864658534526825
1701857676089113000,10.072113037109375,0.062306419014930725,0.07040014863014221,0.05543438717722893
1701857676098705400,10.081705322265625,0.07330167293548584,0.06795676052570343,0.034665580838918686
1701857676108298800,10.091298828125,0.08185353130102158,0.06306997686624527,0.017561858519911766
1701857676117892600,10.100892578125,0.09040539711713791,0.04963133856654167,0.0016798300202935934
1701857676127485700,10.110485595703125,0.09651386737823486,0.03497100621461868,-0.0068720318377017975
1701857676137078000,10.120078125,0.10628741979598999,0.02764083817601204,-0.005650337319821119
1701857676146671400,10.12967138671875,0.11361759155988693,0.025197450071573257,-0.0007635590736754239
1701857676156265200,10.13926513671875,0.12216944992542267,0.02764083817601204,0.007788302376866341
1701857676165858300,10.1488583984375,0.12461283802986145,0.03374931216239929,0.020005248486995697
1701857676175450600,10.15845068359375,0.12339114397764206,0.04352286830544472,0.032222192734479904
1701857676185044000,10.1680439453125,0.1185043677687645,0.055739812552928925,0.0456608310341835
1701857676194637800,10.177637939453126,0.10995250940322876,0.06673506647348404,0.05787777900695801
1701857676204231000,10.18723095703125,0.09773556143045425,0.07406523078680038,0.06642963737249374
1701857676213823200,10.1968232421875,0.08551861345767975,0.07773031294345856,0.07375980913639069
1701857676223416600,10.20641650390625,0.07085828483104706,0.07895200699567795,0.08231166750192642
1701857676233010400,10.216010498046876,0.05619794875383377,0.07406523078680038,0.09086353331804276
1701857676242603500,10.225603515625,0.042759306728839874,0.06551336497068405,0.09941539168357849
1701857676252195800,10.23519580078125,0.030542362481355667,0.06062658876180649,0.10185877978801727
1701857676261789200,10.2447890625,0.01832541823387146,0.055739812552928925,0.10063708573579788
1701857676271383000,10.254383056640625,0.0036650835536420345,0.05207473039627075,0.0981936976313591
1701857676280976100,10.26397607421875,-0.004886778071522713,0.04963133856654167,0.09697200357913971
1701857676290568400,10.273568359375,-0.009773556143045425,0.038636088371276855,0.0981936976313591
1701857676300161800,10.283161865234375,-0.012216945178806782,0.023975754156708717,0.10918894410133362
1701857676309755600,10.292755615234375,-0.007330167107284069,0.009315420873463154,0.12629267573356628
1701857676319348700,10.3023486328125,-0.008551862090826035,-0.020005248486995697,0.14217470586299896
1701857676328941000,10.311941162109376,-0.014660334214568138,-0.04077405482530594,0.14706148207187653
1701857676338534400,10.321534423828124,-0.030542362481355667,-0.04321744292974472,0.14095300436019897
1701857676348128300,10.331128173828125,-0.05619794875383377,-0.02489202655851841,0.12140589207410812
1701857676357721300,10.340721435546875,-0.08063183724880219,0.005650337319821119,0.09330692142248154
1701857676367313700,10.350313720703125,-0.09773556143045425,0.03008422814309597,0.06154286116361618
1701857676376907000,10.359906982421874,-0.09895725548267365,0.03008422814309597,0.032222192734479904
1701857676386500900,10.3695009765625,-0.08307522535324097,0.0032069480512291193,0.005344913341104984
1701857676396094000,10.379093994140625,-0.05864133685827255,-0.033443886786699295,-0.02886253222823143
1701857676405686500,10.3886865234375,-0.03665083646774292,-0.0590994730591774,-0.06795676052570343
1701857676415279600,10.398279541015626,-0.024433890357613564,-0.06642963737249374,-0.09239064902067184
1701857676424873500,10.40787353515625,-0.014660334214568138,-0.05543438717722893,-0.09116895496845245
1701857676434466600,10.417466552734375,-0.007330167107284069,-0.04688252881169319,-0.08628217875957489
1701857676444059100,10.42705908203125,-0.0036650835536420345,-0.04443913698196411,-0.08017370104789734
1701857676453652200,10.43665234375,-0.004886778071522713,-0.04321744292974472,-0.06551336497068405
1701857676463246000,10.44624609375,-0.014660334214568138,-0.033443886786699295,-0.038636088371276855
1701857676472839200,10.455839111328125,-0.028098974376916885,-0.02244863659143448,-0.010537114925682545
1701857676482431700,10.465431640625,-0.03787253051996231,-0.016340164467692375,0.010231691412627697
1701857676492024800,10.47502490234375,-0.0390942245721817,-0.01511846948415041,0.013896775431931019
1701857676501618700,10.48461865234375,-0.03298575058579445,-0.018783552572131157,0.0029015245381742716
1701857676511212000,10.4942119140625,-0.024433890357613564,-0.02489202655851841,-0.014202198944985867
1701857676520804000,10.50380419921875,-0.013438640162348747,-0.028557108715176582,-0.03130592033267021
1701857676530397400,10.5133974609375,-0.0036650835536420345,-0.028557108715176582,-0.04718795046210289
1701857676539991300,10.5229912109375,0.0024433890357613564,-0.02244863659143448,-0.0594048947095871
1701857676549584600,10.532584716796874,0.004886778071522713,-0.01511846948415041,-0.07040014863014221
1701857676559176700,10.5421767578125,0.004886778071522713,-0.0065666078589856625,-0.07406523078680038
1701857676568770000,10.55177001953125,0.006108472589403391,0.001985253533348441,-0.0716218426823616
1701857676578364000,10.561364013671875,0.0036650835536420345,0.008093725889921188,-0.06062658876180649
1701857676587957000,10.57095703125,0,0.01175880990922451,-0.04352286830544472
1701857676597549600,10.580549560546874,-0.004886778071522713,0.012980503961443901,-0.023975754156708717
1701857676607142700,10.590142578125,-0.010995250195264816,0.012980503961443901,-0.0032069480512291193
1701857676616736500,10.599736572265625,-0.01588202826678753,0.012980503961443901,0.012675080448389053
1701857676626329600,10.60932958984375,-0.02076880633831024,0.014202198944985867,0.02489202655851841
1701857676635922200,10.618922119140626,-0.025655584409832954,0.017867282032966614,0.033443886786699295
1701857676645515300,10.628515380859374,-0.029320668429136276,0.020310672000050545,0.03833066672086716
1701857676655109000,10.638109130859375,-0.03298575058579445,0.025197450071573257,0.03833066672086716
1701857676664702500,10.647702392578125,-0.03665083646774292,0.03130592033267021,0.033443886786699295
1701857676674294800,10.657294677734376,-0.03787253051996231,0.036192700266838074,0.02489202655851841
1701857676683887900,10.666887939453124,-0.043981000781059265,0.038636088371276855,0.01511846948415041
1701857676693481700,10.676481689453125,-0.05008947476744652,0.039857782423496246,0.004123218823224306
1701857676703075000,10.686074951171875,-0.05619794875383377,0.038636088371276855,-0.008093725889921188
1701857676712667400,10.69566748046875,-0.05986303091049194,0.037414394319057465,-0.019088976085186005
1701857676722260500,10.705260498046876,-0.06352811306715012,0.03130592033267021,-0.03374931216239929
1701857676731854600,10.7148544921875,-0.0659715011715889,0.02641914412379265,-0.04474456235766411
1701857676741447700,10.72444775390625,-0.06841489672660828,0.021532366052269936,-0.055739812552928925
1701857676751040000,10.7340400390625,-0.07207997888326645,0.017867282032966614,-0.06551336497068405
1701857676760633000,10.743633056640626,-0.07452336698770523,0.014202198944985867,-0.07040014863014221
1701857676770227200,10.753227294921874,-0.07574506103992462,0.012980503961443901,-0.072843536734581
1701857676779820000,10.762820068359375,-0.07574506103992462,0.012980503961443901,-0.06795676052570343
1701857676789412600,10.77241259765625,-0.07696675509214401,0.016645587980747223,-0.055739812552928925
1701857676799005700,10.782005615234375,-0.0781884491443634,0.021532366052269936,-0.037414394319057465
1701857676808599800,10.791599853515624,-0.0781884491443634,0.023975754156708717,-0.017867282032966614
1701857676818193000,10.80119287109375,-0.07207997888326645,0.023975754156708717,-0.0032069480512291193
1701857676827785200,10.81078515625,-0.061084724962711334,0.023975754156708717,0.010231691412627697
1701857676837378300,10.82037841796875,-0.05131116881966591,0.022754060104489326,0.021226942539215088
1701857676846972400,10.829972412109376,-0.043981000781059265,0.019088976085186005,0.031000498682260513
1701857676856565500,10.8395654296875,-0.04031591862440109,0.015423892997205257,0.034665580838918686
1701857676866157800,10.84915771484375,-0.0390942245721817,0.019088976085186005,0.037108972668647766
1701857676875751000,10.8587509765625,-0.03542914241552353,0.017867282032966614,0.029778804630041122
1701857676885345000,10.868344970703125,-0.03298575058579445,0.015423892997205257,0.02367033064365387
1701857676894938000,10.877938232421876,-0.03176405653357506,0.014202198944985867,0.02244863659143448
1701857676904530400,10.887530517578124,-0.030542362481355667,0.010537114925682545,0.02244863659143448
1701857676914123800,10.897123779296875,-0.024433890357613564,0.008093725889921188,0.02367033064365387
1701857676923717600,10.906717529296875,-0.01954711228609085,0.0007635590736754239,0.021226942539215088
1701857676933310700,10.916310791015626,-0.013438640162348747,-0.009009997360408306,0.018783552572131157
1701857676942903000,10.925903076171876,-0.004886778071522713,-0.01511846948415041,0.012675080448389053
1701857676952496000,10.93549609375,0.006108472589403391,-0.016340164467692375,0.004123218823224306
1701857676962090200,10.94509033203125,0.01954711228609085,-0.013896775431931019,-0.004428642801940441
1701857676971683300,10.954683349609375,0.025655584409832954,-0.016340164467692375,-0.010537114925682545
1701857676981275600,10.964275634765626,0.021990500390529633,-0.02244863659143448,-0.014202198944985867
1701857676990868700,10.97386865234375,0.01588202826678753,-0.028557108715176582,-0.012980503961443901
1701857677000462800,10.983462890625,0.007330167107284069,-0.032222192734479904,-0.0068720318377017975
1701857677010056000,10.993055908203125,0.0012216945178806782,-0.033443886786699295,0.0004581354442052543
1701857677019648300,11.002648193359375,-0.004886778071522713,-0.032222192734479904,0.0065666078589856625
1701857677029241600,11.01224169921875,-0.009773556143045425,-0.0261137206107378,0.011453386396169662
1701857677038835500,11.02183544921875,-0.008551862090826035,-0.018783552572131157,0.012675080448389053
1701857677048428500,11.031428466796875,-0.008551862090826035,-0.01511846948415041,0.012675080448389053
1701857677058020900,11.041020751953125,-0.009773556143045425,-0.013896775431931019,0.012675080448389053
1701857677067614200,11.0506142578125,-0.010995250195264816,-0.01511846948415041,0.011453386396169662
1701857677077208000,11.0602080078125,-0.010995250195264816,-0.013896775431931019,0.007788302376866341
1701857677086801200,11.06980126953125,-0.007330167107284069,-0.01511846948415041,0.0065666078589856625
1701857677096393500,11.0793935546875,-0.010995250195264816,-0.017561858519911766,0.009009997360408306
1701857677105986800,11.08898681640625,-0.01588202826678753,-0.02244863659143448,0.011453386396169662
1701857677115580700,11.09858056640625,-0.01588202826678753,-0.028557108715176582,0.011453386396169662
1701857677125173800,11.108173828125,-0.014660334214568138,-0.032222192734479904,0.009009997360408306
1701857677134766000,11.11776611328125,-0.013438640162348747,-0.031000498682260513,0.011453386396169662
1701857677144359400,11.127359375,-0.010995250195264816,-0.029778804630041122,0.012675080448389053
1701857677153953300,11.136953369140626,-0.0036650835536420345,-0.02489202655851841,0.012675080448389053
1701857677163546400,11.14654638671875,0.0012216945178806782,-0.020005248486995697,0.012675080448389053
1701857677173138700,11.156138671875,0.0024433890357613564,-0.017561858519911766,0.012675080448389053
1701857677182732000,11.16573193359375,0.0036650835536420345,-0.018783552572131157,0.010231691412627697
1701857677192326000,11.175325927734375,0.004886778071522713,-0.018783552572131157,0.007788302376866341
1701857677201919000,11.1849189453125,0.0036650835536420345,-0.018783552572131157,0.004123218823224306
1701857677211511300,11.19451123046875,-0.0024433890357613564,-0.004123218823224306,-0.009315420873463154
1701857677221104600,11.204104736328125,-0.004886778071522713,-0.029778804630041122,0.004123218823224306
1701857677230698500,11.213698486328125,-0.008551862090826035,-0.033443886786699295,-0.001985253533348441
1701857677240291600,11.22329150390625,-0.014660334214568138,-0.031000498682260513,-0.010537114925682545
1701857677249884000,11.2328837890625,-0.01832541823387146,-0.032222192734479904,-0.014202198944985867
1701857677259477200,11.242477294921875,-0.023212196305394173,-0.032222192734479904,-0.017867282032966614
1701857677269071000,11.252071044921875,-0.028098974376916885,-0.032222192734479904,-0.021532366052269936
1701857677278664200,11.261664306640625,-0.03298575058579445,-0.031000498682260513,-0.02641914412379265
1701857677288256500,11.271256591796876,-0.03787253051996231,-0.028557108715176582,-0.03130592033267021
1701857677297849900,11.280849853515624,-0.042759306728839874,-0.02244863659143448,-0.03374931216239929
1701857677307443700,11.290443603515625,-0.043981000781059265,-0.02367033064365387,-0.04107947647571564
1701857677317037000,11.300037109375,-0.0390942245721817,-0.017561858519911766,-0.04352286830544472
1701857677326629000,11.309629150390625,-0.025655584409832954,-0.011453386396169662,-0.04230117425322533
1701857677336222500,11.319222412109376,-0.01954711228609085,-0.012675080448389053,-0.04107947647571564
1701857677345816300,11.32881640625,-0.01954711228609085,-0.013896775431931019,-0.03497100621461868
1701857677355409400,11.338409423828125,-0.01710372418165207,-0.018783552572131157,-0.02886253222823143
1701857677365002000,11.348001953125,0.0024433890357613564,-0.02367033064365387,-0.02886253222823143
1701857677374595000,11.357594970703126,0.013438640162348747,-0.017561858519911766,-0.02641914412379265
1701857677384189000,11.36718896484375,0.01588202826678753,-0.010231691412627697,-0.017867282032966614
1701857677393782000,11.376781982421875,0.012216945178806782,-0.004123218823224306,-0.0068720318377017975
1701857677403374600,11.38637451171875,0.006108472589403391,-0.0016798300202935934,0.0029015245381742716
1701857677412967700,11.3959677734375,0.0036650835536420345,0.001985253533348441,0.0029015245381742716
1701857677422561500,11.4055615234375,-0.0012216945178806782,0.004428642801940441,0.004123218823224306
1701857677432155000,11.41515478515625,-0.0012216945178806782,0.0068720318377017975,0.004123218823224306
1701857677441747200,11.424747314453125,0,0.010537114925682545,0.0004581354442052543
1701857677451340300,11.43434033203125,-0.0012216945178806782,0.015423892997205257,-0.001985253533348441
1701857677460934100,11.44393408203125,-0.0036650835536420345,0.017867282032966614,-0.0032069480512291193
1701857677470527500,11.453527587890624,-0.0036650835536420345,0.019088976085186005,-0.0032069480512291193
1701857677480119800,11.463119873046875,-0.004886778071522713,0.015423892997205257,-0.0032069480512291193
1701857677489713000,11.472712890625,-0.004886778071522713,0.012980503961443901,-0.004428642801940441
1701857677499306800,11.482306640625,-0.004886778071522713,0.008093725889921188,-0.005650337319821119
1701857677508899800,11.49189990234375,-0.006108472589403391,0.0068720318377017975,-0.0068720318377017975
1701857677518492400,11.501492431640624,-0.008551862090826035,0.009315420873463154,-0.005650337319821119
1701857677528085500,11.51108544921875,-0.009773556143045425,0.01175880990922451,-0.001985253533348441
1701857677537679400,11.520679443359375,-0.012216945178806782,0.015423892997205257,0.0016798300202935934
1701857677547272400,11.5302724609375,-0.01588202826678753,0.021532366052269936,0.0065666078589856625
1701857677556865000,11.539864990234374,-0.01832541823387146,0.02641914412379265,0.011453386396169662
1701857677566458000,11.5494580078125,-0.024433890357613564,0.022754060104489326,0.01511846948415041
1701857677576052000,11.559052001953125,-0.029320668429136276,0.020310672000050545,0.010231691412627697
1701857677585645300,11.568645263671876,-0.03176405653357506,0.025197450071573257,0.011453386396169662
1701857677595237600,11.578237548828126,-0.03176405653357506,0.04107947647571564,0.016340164467692375
1701857677604830700,11.587830810546874,-0.029320668429136276,0.06062658876180649,0.02489202655851841
1701857677614424600,11.597424560546875,-0.03298575058579445,0.06306997686624527,0.02489202655851841
1701857677624018000,11.607017822265625,-0.030542362481355667,0.0716218426823616,0.007788302376866341
1701857677633610200,11.6166103515625,-0.007330167107284069,0.16691401600837708,-0.0716218426823616
1701857677643203300,11.626203369140624,-0.030542362481355667,0.04474456235766411,-0.03497100621461868
1701857677652797400,11.63579736328125,-0.01954711228609085,0.010537114925682545,-0.02886253222823143
1701857677662390500,11.645390625,-0.014660334214568138,-0.009009997360408306,-0.03374931216239929
1701857677671982800,11.65498291015625,-0.01588202826678753,-0.021226942539215088,-0.014202198944985867
1701857677681576000,11.664575927734376,-0.024433890357613564,-0.016340164467692375,-0.001985253533348441
1701857677691170000,11.674170166015625,-0.029320668429136276,-0.005344913341104984,-0.008093725889921188
1701857677700763100,11.68376318359375,-0.025655584409832954,0.0007635590736754239,-0.017867282032966614
1701857677710355500,11.69335546875,-0.01954711228609085,-0.0004581354442052543,-0.02641914412379265
1701857677719948500,11.702948486328125,-0.013438640162348747,-0.007788302376866341,-0.0325276181101799
1701857677729542700,11.712542724609374,-0.006108472589403391,-0.017561858519911766,-0.037414394319057465
1701857677739135700,11.7221357421875,0.0024433890357613564,-0.028557108715176582,-0.039857782423496246
1701857677748728000,11.73172802734375,0.012216945178806782,-0.03588727489113808,-0.04107947647571564
1701857677758321200,11.741321044921875,0.01832541823387146,-0.03833066672086716,-0.04840964451432228
1701857677767915300,11.750915283203126,0.021990500390529633,-0.04077405482530594,-0.055739812552928925
1701857677777508400,11.76050830078125,0.023212196305394173,-0.04443913698196411,-0.06062658876180649
1701857677787100700,11.7701005859375,0.030542362481355667,-0.05665608495473862,-0.06062658876180649
1701857677796693800,11.77969384765625,0.03665083646774292,-0.0725381150841713,-0.06306997686624527
1701857677806288000,11.789287841796876,0.0390942245721817,-0.0847550556063652,-0.06429167091846466
1701857677815881000,11.798880859375,0.03665083646774292,-0.09086353331804276,-0.06306997686624527
1701857677825473300,11.808473388671874,0.03298575058579445,-0.09086353331804276,-0.06184828653931618
1701857677835066400,11.81806640625,0.023212196305394173,-0.08842013776302338,-0.056961506605148315
1701857677844660500,11.827660400390625,0.012216945178806782,-0.0847550556063652,-0.04963133856654167
1701857677854253600,11.837253662109376,0.0024433890357613564,-0.07864658534526825,-0.04230117425322533
1701857677863846000,11.846845947265624,-0.007330167107284069,-0.0725381150841713,-0.036192700266838074
1701857677873439000,11.85643896484375,-0.01588202826678753,-0.06765133142471313,-0.03374931216239929
1701857677883033000,11.866033203125,-0.021990500390529633,-0.06276455521583557,-0.0325276181101799
1701857677892626200,11.875626220703126,-0.029320668429136276,-0.05787777900695801,-0.03130592033267021
1701857677902218500,11.885218505859376,-0.03665083646774292,-0.050547610968351364,-0.0325276181101799
1701857677911811600,11.8948115234375,-0.042759306728839874,-0.04199574887752533,-0.0325276181101799
1701857677921405700,11.90440576171875,-0.046424392610788345,-0.033443886786699295,-0.0325276181101799
1701857677930998800,11.913998779296875,-0.05131116881966591,-0.02244863659143448,-0.02764083817601204
