time,seconds_elapsed,z,y,x
1697664261913226000,0.10422607421875,0,0,0
1697664261922818800,0.11381884765625,0.1299600601196289,-0.24999284744262695,-0.11637687683105469
1697664261932410600,0.12341064453125,0.4185476303100586,-0.4491453170776367,-0.11040818691253662
1697664261942003500,0.13300341796875,0.6374111175537109,-0.5769000053405762,-0.06615445017814636
1697664261951597000,0.14259716796875,0.7223529815673828,-0.6726036071777344,0.014181673526763916
1697664261961190000,0.15218994140625,0.7105369567871094,-0.7052278518676758,0.09935349225997925
1697664261970782000,0.161781982421875,0.636591911315918,-0.6089763641357422,0.3619513511657715
1697664261980374800,0.171374755859375,0.20956993103027344,-0.6770479679107666,0.74679034948349
1697664261989968400,0.180968505859375,-0.6485872268676758,-0.8073520660400391,0.9498042464256287
1697664261999561000,0.19056103515625,-1.7465991973876953,-0.9611949920654297,0.9136547446250916
1697664262009153000,0.200153076171875,-2.7971677780151367,-1.0588366985321045,0.8027465343475342
1697664262018745900,0.209745849609375,-3.79441499710083,-0.9761819839477539,0.732225775718689
1697664262028339500,0.21933935546875,-4.617502212524414,-0.780846357345581,0.7308547496795654
1697664262037932300,0.228932373046875,-5.235442161560059,-0.5829429626464844,0.8300403356552124
1697664262047524000,0.238524169921875,-5.556517601013184,-0.42620038986206055,0.8837226629257202
1697664262057117000,0.248116943359375,-5.5612874031066895,-0.25250244140625,0.6787064075469971
1697664262066710500,0.25771044921875,-5.280526161193848,-0.1768341064453125,0.3112506866455078
1697664262076303000,0.26730322265625,-4.672679901123047,-0.2873525619506836,-0.08539712429046631
1697664262085895200,0.276895263671875,-3.7340989112854004,-0.43370723724365234,-0.4841580390930176
1697664262095488000,0.286488037109375,-2.5852036476135254,-0.5294547080993652,-0.8483138680458069
1697664262105081600,0.29608154296875,-1.4946799278259277,-0.5880842208862305,-1.0422390699386597
1697664262114674400,0.30567431640625,-0.641685962677002,-0.5684747695922852,-1.1087238788604736
1697664262124266200,0.315266357421875,-0.14903545379638672,-0.4649837017059326,-1.2236510515213013
1697664262133859300,0.324859375,-0.010170936584472656,-0.3495762348175049,-1.2397576570510864
1697664262143452700,0.33445263671875,-0.0838785171508789,-0.23897695541381836,-1.0814777612686157
1697664262153045500,0.34404541015625,-0.3467693328857422,-0.22378253936767578,-0.975117564201355
1697664262162637600,0.353637451171875,-0.7038474082946777,-0.014195442199707031,-0.8933007717132568
1697664262172230400,0.36323046875,-1.085008144378662,0.2990851402282715,-0.9097364544868469
1697664262181824000,0.372823974609375,-1.5406746864318848,0.20350170135498047,-0.81429123878479
1697664262191416600,0.38241650390625,-2.0414366722106934,0.009939193725585938,-0.752017080783844
1697664262201008600,0.392008544921875,-2.4989261627197266,0.07535934448242188,-0.7430256009101868
1697664262210601500,0.4016015625,-2.838639736175537,0.2387070655822754,-0.7389543652534485
1697664262220195000,0.411195068359375,-3.1314783096313477,0.47156476974487305,-0.6755792498588562
1697664262229787600,0.42078759765625,-3.143634796142578,0.750575065612793,-0.4706849455833435
1697664262239379700,0.430379638671875,-2.5550546646118164,1.2189559936523438,0.35421574115753174
1697664262248972500,0.43997265625,-2.0031943321228027,0.575779914855957,0.07108700275421143
1697664262258566100,0.449566162109375,-1.688079833984375,0.4645662307739258,-0.37315666675567627
1697664262268158700,0.45915869140625,-1.0001888275146484,1.0969524383544922,-0.5542992949485779
1697664262277750800,0.468750732421875,-0.39832210540771484,1.4796371459960938,-0.4669197201728821
1697664262287343600,0.478343505859375,0.29004335403442383,1.4795265197753906,-0.025096893310546875
1697664262296937200,0.487937255859375,1.0309062004089355,1.432572364807129,0.6685411930084229
1697664262306530000,0.497530029296875,1.732048511505127,1.4345145225524902,1.1517072916030884
1697664262316121900,0.507121826171875,1.8474640846252441,1.5046534538269043,0.9795811176300049
1697664262325714700,0.516714599609375,1.8294687271118164,1.5055832862854004,0.534525990486145
1697664262335308300,0.526308349609375,1.827169418334961,1.4348831176757812,-0.07418370246887207
1697664262344901000,0.535901123046875,1.733011245727539,1.3089194297790527,-0.5337105393409729
1697664262354493000,0.545492919921875,1.9156465530395508,1.3597936630249023,-0.48632359504699707
1697664262364086000,0.5550859375,1.9295477867126465,1.6102361679077148,-0.1553419828414917
1697664262373679400,0.564679443359375,1.9472742080688477,2.003286838531494,0.00340116024017334
1697664262383272200,0.574272216796875,2.3168997764587402,2.3587207794189453,0.3689742088317871
1697664262392864300,0.5838642578125,2.605287551879883,2.127408027648926,0.7718794345855713
1697664262402457000,0.59345703125,2.4049072265625,1.9786438941955566,0.9039984941482544
1697664262412050400,0.603050537109375,1.9469184875488281,2.0109925270080566,0.3699604272842407
1697664262421643300,0.612643310546875,1.9510889053344727,2.0186681747436523,-0.2695014476776123
1697664262431235300,0.6222353515625,1.9895210266113281,1.7638702392578125,-0.7112595438957214
1697664262440828200,0.631828125,1.9083194732666016,1.59220552444458,-1.0634052753448486
1697664262450421800,0.641421875,1.7445306777954102,1.3592443466186523,-1.186954379081726
1697664262460014300,0.651014404296875,1.8192863464355469,0.9467711448669434,-1.2096856832504272
1697664262469606400,0.6606064453125,2.2875356674194336,0.6191105842590332,-1.354690670967102
1697664262479199200,0.67019921875,2.5291032791137695,0.3779425621032715,-1.2891714572906494
1697664262488792800,0.679792724609375,2.6049861907958984,0.2335200309753418,-0.9758259057998657
1697664262498385400,0.689385498046875,2.618633270263672,0.013776779174804688,-0.8121276497840881
1697664262507977500,0.6989775390625,2.3938894271850586,-0.4902639389038086,-0.570202648639679
1697664262517570300,0.7085703125,1.9268293380737305,-1.3181815147399902,0.25453877449035645
1697664262527164000,0.718163818359375,1.7861785888671875,-2.228757858276367,0.3598440885543823
1697664262536756700,0.7277568359375,1.070343017578125,-1.696192741394043,-1.1017827987670898
1697664262546348500,0.7373486328125,0.5850019454956055,-0.3724370002746582,-3.076749563217163
1697664262555941400,0.74694140625,-0.04417228698730469,0.23485374450683594,-4.204862594604492
1697664262565535000,0.756534912109375,-1.3024077415466309,-0.48982763290405273,-2.9387362003326416
1697664262575127800,0.7661279296875,-2.3416709899902344,-1.2962965965270996,-1.1656217575073242
1697664262584719600,0.7757197265625,-2.935303211212158,-1.3300466537475586,-0.7674431800842285
1697664262594312700,0.785312744140625,-3.1049318313598633,-1.098625659942627,-0.9728353023529053
1697664262603906000,0.794906005859375,-3.1344165802001953,-1.1090245246887207,-0.7955962419509888
1697664262613499000,0.804498779296875,-3.087496280670166,-1.2090420722961426,-0.43947720527648926
1697664262623091000,0.814091064453125,-2.8626317977905273,-1.2364087104797363,-0.2835307717323303
1697664262632683800,0.823683837890625,-2.417726993560791,-1.2446718215942383,-0.2941960096359253
1697664262642277000,0.833277099609375,-1.7679991722106934,-1.3010058403015137,-0.19255942106246948
1697664262651870000,0.842869873046875,-1.148993968963623,-1.2161674499511719,-0.10721290111541748
1697664262661462000,0.8524619140625,-0.7401185035705566,-1.0734858512878418,-0.09032714366912842
1697664262671054800,0.862054931640625,-0.5782561302185059,-0.9196953773498535,-0.03733086585998535
1697664262680648200,0.871648193359375,-0.6561613082885742,-0.7021045684814453,-0.03768718242645264
1697664262690241000,0.881240966796875,-1.017533779144287,-0.46171045303344727,0.029364705085754395
1697664262699833000,0.8908330078125,-1.4506664276123047,-0.2948284149169922,0.20388305187225342
1697664262709426000,0.900426025390625,-1.784346103668213,-0.13321208953857422,0.2739311456680298
1697664262719019500,0.91001953125,-2.0688204765319824,0.08451080322265625,0.35662662982940674
1697664262728612000,0.919612060546875,-2.0623345375061035,0.24646615982055664,0.6965043544769287
1697664262738204200,0.9292041015625,-1.9444260597229004,0.3718428611755371,0.9336198568344116
1697664262747797000,0.938796875,-1.6076416969299316,0.42363834381103516,1.0276379585266113
1697664262757390600,0.948390625,-1.1680488586425781,0.47592687606811523,1.0737533569335938
1697664262766983200,0.957983154296875,-0.8184194564819336,0.5537867546081543,1.0944669246673584
1697664262776575200,0.9675751953125,-0.46477556228637695,0.6647129058837891,1.147017240524292
1697664262786168000,0.97716796875,-0.12537813186645508,0.835960865020752,1.0783133506774902
1697664262795761700,0.98676171875,0.11037349700927734,1.0458202362060547,0.8044180274009705
1697664262805354200,0.996354248046875,0.21764755249023438,1.1570391654968262,0.6507050395011902
1697664262814946300,1.0059462890625,0.3682427406311035,1.2377667427062988,0.5174980759620667
1697664262824539100,1.0155390625,0.578493595123291,1.2622718811035156,0.3837905526161194
1697664262834132700,1.0251328125,0.8244566917419434,1.268296718597412,0.3696833848953247
1697664262843725600,1.0347255859375,1.0688285827636719,1.3846993446350098,0.33849596977233887
1697664262853317400,1.0443173828125,1.3007478713989258,1.4905600547790527,0.24063140153884888
1697664262862910200,1.05391015625,1.4546260833740234,1.7318081855773926,0.16174298524856567
1697664262872503800,1.06350390625,1.3511857986450195,2.21821928024292,0.18196606636047363
1697664262882096600,1.0730966796875,1.0296235084533691,2.4450035095214844,0.42167234420776367
1697664262891688400,1.0826884765625,0.6677637100219727,2.314568519592285,0.6017353534698486
1697664262901281300,1.09228125,0.53369140625,2.052974224090576,0.5116797089576721
1697664262910875000,1.101875,0.7397365570068359,1.9368176460266113,0.3297653794288635
1697664262920467700,1.1114677734375,1.0301356315612793,1.7975850105285645,0.45511555671691895
1697664262930059800,1.121059814453125,1.3467178344726562,1.487983226776123,0.6879854202270508
1697664262939652600,1.130652587890625,1.8866615295410156,0.9768471717834473,0.8482329845428467
1697664262949246000,1.140245849609375,2.5349016189575195,0.38473081588745117,0.8127859830856323
1697664262958838800,1.1498388671875,3.195476531982422,-0.09535694122314453,0.657071590423584
1697664262968430800,1.159430908203125,3.770273208618164,-0.39284515380859375,0.7801614999771118
1697664262978023700,1.169023681640625,3.9454212188720703,-0.6220436096191406,0.9708892107009888
1697664262987617000,1.178616943359375,3.5893430709838867,-0.7722468376159668,0.8921900987625122
1697664262997209900,1.1882099609375,2.92946720123291,-0.8651981353759766,0.6824308633804321
1697664263006802000,1.197802001953125,2.001837730407715,-0.9824714660644531,0.1839253306388855
1697664263016394800,1.207394775390625,0.9097194671630859,-1.0807886123657227,-0.2653212547302246
1697664263025988000,1.216988037109375,-0.02637958526611328,-1.2149748802185059,-0.2754574418067932
1697664263035581000,1.226580810546875,-0.9668927192687988,-1.2681083679199219,0.10503017902374268
1697664263045173000,1.236173095703125,-1.9342985153198242,-1.2370209693908691,0.39436352252960205
1697664263054765800,1.245765869140625,-2.6871700286865234,-1.2613253593444824,0.5863229036331177
1697664263064359400,1.255359375,-3.140247344970703,-1.2135381698608398,0.6460267305374146
1697664263073952000,1.264951904296875,-3.296164035797119,-1.1275835037231445,0.5185912847518921
1697664263083544000,1.2745439453125,-3.3831348419189453,-1.0351710319519043,0.32042014598846436
1697664263093137000,1.284136962890625,-3.0522446632385254,-1.0126686096191406,0.1382216215133667
1697664263102730500,1.29373046875,-2.7214064598083496,-1.143345832824707,-0.13082760572433472
1697664263112323000,1.303322998046875,-2.139068126678467,-1.1999435424804688,-0.3690246343612671
1697664263121915100,1.3129150390625,-1.4269022941589355,-1.2257013320922852,-0.4462279677391052
1697664263131508000,1.322508056640625,-0.9241495132446289,-1.2165541648864746,-0.5355803370475769
1697664263141101600,1.3321015625,-0.6828083992004395,-1.0417799949645996,-0.30510830879211426
1697664263150694100,1.341694091796875,-0.8346810340881348,-0.9714798927307129,-0.5258569717407227
1697664263160286200,1.3512861328125,-1.0243754386901855,-0.972449779510498,-0.9383780360221863
1697664263169879000,1.360879150390625,-1.2753992080688477,-1.0248985290527344,-1.237088918685913
1697664263179472600,1.37047265625,-1.4902558326721191,-1.0256409645080566,-1.372010350227356
1697664263189065200,1.380065185546875,-1.6865110397338867,-0.9976801872253418,-1.3722037076950073
1697664263198657300,1.3896572265625,-1.8508386611938477,-0.9067835807800293,-1.2841546535491943
1697664263208250000,1.39925,-2.0321054458618164,-0.8113141059875488,-1.195427417755127
1697664263217843700,1.40884375,-2.2528772354125977,-0.7333722114562988,-1.2109100818634033
1697664263227436500,1.4184365234375,-2.4117612838745117,-0.7046232223510742,-1.2928999662399292
1697664263237028400,1.4280283203125,-2.6030168533325195,-0.653956413269043,-1.4372636079788208
1697664263246621200,1.43762109375,-2.7090353965759277,-0.5241141319274902,-1.590743064880371
1697664263256214800,1.44721484375,-2.639225959777832,-0.3391728401184082,-1.7039923667907715
1697664263265807400,1.456807373046875,-2.398310661315918,-0.17380619049072266,-1.8041400909423828
1697664263275399400,1.4663994140625,-2.054015636444092,0.016819477081298828,-1.7637012004852295
1697664263284992300,1.4759921875,-1.4155373573303223,0.2607131004333496,-1.1494282484054565
1697664263294585900,1.4855859375,-0.6043901443481445,0.6420931816101074,-0.6915850639343262
1697664263304178400,1.495178466796875,0.0014996528625488281,0.9173126220703125,-0.42991966009140015
1697664263313770500,1.5047705078125,0.4278244972229004,1.0339765548706055,-0.46280428767204285
1697664263323363300,1.51436328125,0.6801462173461914,1.0726451873779297,-0.5767945051193237
1697664263332957000,1.52395703125,0.8971757888793945,1.1965107917785645,-0.6714332103729248
1697664263342549500,1.533549560546875,1.0096993446350098,1.360684871673584,-0.7070634365081787
1697664263352141600,1.5431416015625,1.0366668701171875,1.461806297302246,-0.6720149517059326
1697664263361734400,1.552734375,1.201704978942871,1.4990215301513672,-0.5544660091400146
1697664263371328000,1.562327880859375,1.449244499206543,1.6866235733032227,-0.3728877902030945
1697664263380920800,1.5719208984375,1.7343549728393555,2.121948719024658,-0.04398775100708008
1697664263390512600,1.5815126953125,1.8455724716186523,2.5365405082702637,0.39213675260543823
1697664263400105500,1.59110546875,1.7762060165405273,2.5898962020874023,0.6823334693908691
1697664263409699000,1.600698974609375,1.618391990661621,2.5754480361938477,0.560382068157196
1697664263419291600,1.610291748046875,1.4565887451171875,2.6821537017822266,0.3300465941429138
1697664263428883700,1.6198837890625,1.534428596496582,2.631474018096924,0.22484511137008667
1697664263438476500,1.6294765625,2.0195188522338867,2.178107261657715,-0.16070300340652466
1697664263448070100,1.639070068359375,2.7535924911499023,1.4902763366699219,-0.5720633268356323
1697664263457662700,1.648662841796875,3.506402015686035,1.089303970336914,-0.7407907247543335
1697664263467254800,1.6582548828125,4.526029586791992,0.7452535629272461,-0.5877270698547363
1697664263476847600,1.66784765625,5.598188400268555,0.22887706756591797,-0.39738374948501587
1697664263486441200,1.677441162109375,6.2068328857421875,-0.2324380874633789,-0.4305240511894226
1697664263496034000,1.687033935546875,6.3894758224487305,-0.6351122856140137,-0.4589970111846924
1697664263505625900,1.6966259765625,6.050412178039551,-0.734900951385498,-0.3611542582511902
1697664263515218700,1.70621875,4.991385459899902,-0.543795108795166,-0.5178058743476868
1697664263524812300,1.715812255859375,3.434507369995117,-0.33086347579956055,-1.0907601118087769
1697664263534404900,1.72540478515625,1.7606325149536133,-0.27634620666503906,-1.8526673316955566
1697664263543997000,1.734996826171875,0.3010110855102539,-0.2870903015136719,-2.4290459156036377
1697664263553589800,1.74458984375,-0.7683167457580566,-0.3112950325012207,-2.7146267890930176
1697664263563183400,1.754183349609375,-1.4016222953796387,-0.45545291900634766,-2.624438762664795
1697664263572776200,1.763776123046875,-1.7118887901306152,-0.7824039459228516,-2.323847532272339
1697664263582368000,1.773367919921875,-1.8159313201904297,-1.2243237495422363,-1.952324628829956
1697664263591960800,1.7829609375,-1.6836562156677246,-1.608489751815796,-1.490706443786621
1697664263601554400,1.792554443359375,-1.4390368461608887,-1.876265048980713,-0.9515330791473389
1697664263611147000,1.80214697265625,-1.3649182319641113,-1.9212007522583008,-0.5848655700683594
1697664263620739000,1.811739013671875,-1.493058204650879,-1.9029452800750732,-0.30057376623153687
1697664263630332000,1.821331787109375,-1.8033490180969238,-1.8047239780426025,-0.21905404329299927
1697664263639925500,1.830925537109375,-2.2258572578430176,-1.6213338375091553,-0.25217390060424805
1697664263649518300,1.840518310546875,-2.591017723083496,-1.4475975036621094,-0.27690935134887695
1697664263659110100,1.850110107421875,-2.8752822875976562,-1.2733657360076904,-0.3612496256828308
1697664263668703000,1.859702880859375,-2.9407734870910645,-1.1744384765625,-0.5996720790863037
1697664263678296600,1.869296630859375,-2.8115663528442383,-1.311058521270752,-1.1581330299377441
1697664263687889400,1.878889404296875,-2.389540672302246,-1.270035743713379,-1.0501073598861694
1697664263697481200,1.888481201171875,-1.986804485321045,-1.0528192520141602,-0.6975135803222656
1697664263707074000,1.898073974609375,-1.5901103019714355,-0.8847723007202148,-0.29911959171295166
1697664263716667600,1.907667724609375,-1.0789852142333984,-0.6568183898925781,0.1705145239830017
1697664263726260200,1.91726025390625,-0.8632974624633789,-0.39664173126220703,0.5046272873878479
1697664263735852300,1.926852294921875,-0.9059810638427734,-0.21846485137939453,0.7904583811759949
1697664263745445000,1.936445068359375,-1.0538854598999023,-0.045886993408203125,0.7900192737579346
1697664263755038700,1.946038818359375,-1.3459820747375488,0.20528316497802734,0.7062900066375732
1697664263764631300,1.95563134765625,-1.6470718383789062,0.3296961784362793,0.5588490962982178
1697664263774223400,1.965223388671875,-1.8440461158752441,0.4181232452392578,0.42491602897644043
1697664263783816200,1.974816162109375,-1.8987960815429688,0.4282517433166504,0.26034533977508545
1697664263793409800,1.984409912109375,-1.8185162544250488,0.4342508316040039,0.03362429141998291
1697664263803002400,1.99400244140625,-1.5359563827514648,0.48485326766967773,-0.009005308151245117
1697664263812594400,2.003594482421875,-1.2147622108459473,0.6232500076293945,0.0023223161697387695
1697664263822187300,2.013187255859375,-0.9220843315124512,0.7543373107910156,0.08750474452972412
1697664263831780900,2.02278076171875,-0.5001773834228516,0.8521218299865723,0.20917105674743652
1697664263841373400,2.03237353515625,-0.02741718292236328,1.0706572532653809,0.1152108907699585
1697664263850965500,2.041965576171875,0.4710426330566406,1.3120622634887695,0.03545045852661133
1697664263860558300,2.051558349609375,1.1542654037475586,1.5707321166992188,0.027369379997253418
1697664263870152000,2.06115185546875,1.8857240676879883,1.9498052597045898,0.14754986763000488
1697664263879744500,2.07074462890625,2.6028823852539062,2.3382973670959473,0.490447998046875
1697664263889336600,2.080336669921875,2.9506988525390625,2.959557056427002,0.9752734899520874
1697664263898929400,2.089929443359375,2.740528106689453,3.4890828132629395,1.482508659362793
1697664263908523000,2.09952294921875,2.213214874267578,3.622920513153076,1.746031641960144
1697664263918115600,2.109115478515625,1.9646625518798828,3.3672637939453125,1.6323548555374146
1697664263927707600,2.118707763671875,2.1148014068603516,2.9949116706848145,1.0709370374679565
1697664263937300500,2.128300537109375,2.5024795532226562,2.572261333465576,0.7144860029220581
1697664263946894000,2.13789404296875,3.008237838745117,2.282970428466797,0.8307721614837646
1697664263956486700,2.147486572265625,3.8286046981811523,1.8700122833251953,1.065691351890564
1697664263966078700,2.15707861328125,4.565929412841797,1.2094573974609375,1.1021932363510132
1697664263975671600,2.166671630859375,5.134259223937988,0.48966073989868164,1.0936988592147827
1697664263985265200,2.17626513671875,5.513090133666992,-0.17051124572753906,1.0023609399795532
1697664263994857700,2.185857666015625,5.457982063293457,-0.6313900947570801,0.7159762382507324
1697664264004449800,2.19544970703125,4.820185661315918,-0.9775419235229492,0.46108579635620117
1697664264014042600,2.205042724609375,3.731395721435547,-1.2740216255187988,0.3396615982055664
1697664264023636200,2.21463623046875,2.3662500381469727,-1.4789001941680908,0.43388664722442627
1697664264033228800,2.224228759765625,0.880274772644043,-1.7205076217651367,0.5037177801132202
1697664264042820900,2.23382080078125,-0.5131716728210449,-1.9572744369506836,0.6661672592163086
1697664264052413700,2.24341357421875,-1.7565655708312988,-2.0822556018829346,0.9166797399520874
1697664264062007300,2.25300732421875,-2.816114902496338,-2.063392400741577,1.1703275442123413
1697664264071599900,2.262599853515625,-3.6095962524414062,-2.0223968029022217,1.4332102537155151
1697664264081192000,2.27219189453125,-4.123478889465332,-1.8999404907226562,1.5921598672866821
1697664264090784800,2.28178466796875,-4.414983749389648,-1.8115365505218506,1.3630706071853638
1697664264100378000,2.291378173828125,-4.255568504333496,-1.8099315166473389,0.8781254291534424
1697664264109971000,2.300970947265625,-3.862464427947998,-1.7677536010742188,0.4262911081314087
1697664264119563000,2.31056298828125,-3.3800454139709473,-1.7588329315185547,0.05658066272735596
1697664264129155600,2.320155517578125,-2.844620704650879,-1.77152681350708,-0.22579097747802734
1697664264138749200,2.329749267578125,-2.368567943572998,-1.7897014617919922,-0.42719149589538574
1697664264148342000,2.339342041015625,-1.9019899368286133,-1.761186122894287,-0.5872262716293335
1697664264157934000,2.34893408203125,-1.6580491065979004,-1.6549530029296875,-0.6747660636901855
1697664264167527000,2.35852685546875,-1.5441927909851074,-1.4920685291290283,-0.7090663909912109
1697664264177120300,2.368120361328125,-1.4894399642944336,-1.25785493850708,-0.7325929403305054
1697664264186713000,2.377713134765625,-1.3991813659667969,-0.9737124443054199,-0.7087206840515137
1697664264196305200,2.38730517578125,-1.417924404144287,-0.8113279342651367,-0.5403749942779541
1697664264205897700,2.396897705078125,-1.4302105903625488,-0.7138805389404297,-0.5289008021354675
1697664264215491300,2.4064912109375,-1.6274199485778809,-0.6751632690429688,-0.49579548835754395
1697664264225084200,2.416084228515625,-2.0127458572387695,-0.6044111251831055,-0.3923104405403137
1697664264234676000,2.425676025390625,-2.291511058807373,-0.4587225914001465,-0.24341410398483276
1697664264244268800,2.435268798828125,-2.6020994186401367,-0.27608537673950195,-0.028221189975738525
1697664264253862400,2.4448623046875,-2.7531933784484863,-0.06842470169067383,0.2483818531036377
1697664264263455200,2.454455322265625,-2.8019776344299316,0.09489917755126953,0.4661605954170227
1697664264273047000,2.464047119140625,-2.7121639251708984,0.2139430046081543,0.46989917755126953
1697664264282640000,2.473639892578125,-2.4708943367004395,0.36420202255249023,0.30057114362716675
1697664264292233500,2.4832333984375,-2.1313791275024414,0.5959796905517578,0.20619601011276245
1697664264301826300,2.492826416015625,-1.6222543716430664,0.8087043762207031,0.14740240573883057
1697664264311418000,2.502418212890625,-0.9521989822387695,1.0192837715148926,0.007312357425689697
1697664264321011000,2.512010986328125,-0.17389822006225586,1.154252052307129,-0.1246037483215332
1697664264330604500,2.5216044921875,0.5816612243652344,1.2544398307800293,-0.09889322519302368
1697664264340197000,2.531197021484375,1.2863588333129883,1.2777643203735352,-0.012910902500152588
1697664264349789200,2.5407890625,1.7131757736206055,1.2199392318725586,-0.017680108547210693
1697664264359382000,2.550382080078125,1.9948406219482422,1.1073427200317383,-0.13846826553344727
1697664264368975600,2.5599755859375,2.054806709289551,1.0659027099609375,-0.3066890835762024
1697664264378568200,2.569568115234375,1.9304838180541992,1.0098910331726074,-0.2716929316520691
1697664264388160300,2.57916015625,1.7347440719604492,0.9882817268371582,-0.2564772963523865
1697664264397753000,2.588753173828125,1.4676971435546875,0.9662256240844727,-0.15976768732070923
1697664264407346700,2.5983466796875,1.3568735122680664,0.9574027061462402,0.12661993503570557
1697664264416939300,2.607939208984375,1.2506885528564453,1.2004146575927734,0.42271703481674194
1697664264426531300,2.61753125,1.1515522003173828,1.5913901329040527,0.8425789475440979
1697664264436124200,2.627124267578125,1.0904550552368164,1.7819743156433105,1.1605918407440186
1697664264445717800,2.6367177734375,0.9242324829101562,1.7872557640075684,1.003991723060608
1697664264455310300,2.646310302734375,0.6912317276000977,2.023408889770508,0.7192357182502747
1697664264464902400,2.65590234375,0.5142374038696289,2.375990390777588,0.5916607975959778
1697664264474495200,2.6654951171875,0.5649452209472656,2.302884101867676,0.5823503732681274
1697664264484088600,2.675088623046875,0.8487215042114258,1.8575067520141602,0.32266169786453247
1697664264493681400,2.684681396484375,1.3271245956420898,1.3927597999572754,0.05810362100601196
1697664264503273500,2.6942734375,2.3078622817993164,0.9553160667419434,0.02426666021347046
1697664264512866300,2.7038662109375,3.6915130615234375,0.31652116775512695,0.12094128131866455
1697664264522459600,2.713459716796875,4.806487083435059,-0.21710824966430664,0.071322500705719
1697664264532052500,2.723052490234375,5.168099403381348,-0.6230840682983398,-0.23979967832565308
1697664264541644300,2.732644287109375,4.618127822875977,-0.9150447845458984,-0.5643875002861023
1697664264551237000,2.742237060546875,3.6929359436035156,-0.8724837303161621,-0.982261061668396
1697664264560830700,2.751830810546875,2.5992612838745117,-0.8046140670776367,-1.3560566902160645
1697664264570423600,2.761423583984375,1.5312175750732422,-0.7412734031677246,-1.746403694152832
1697664264580015400,2.771015380859375,0.5677871704101562,-0.6934285163879395,-2.031207323074341
1697664264589608200,2.780608154296875,-0.28111743927001953,-0.7086248397827148,-2.1490139961242676
1697664264599201800,2.790201904296875,-0.9215230941772461,-0.8257303237915039,-2.066502809524536
1697664264608794400,2.79979443359375,-1.4223155975341797,-1.056736946105957,-1.9459571838378906
1697664264618386400,2.809386474609375,-1.847677230834961,-1.391768455505371,-1.7614688873291016
1697664264627979300,2.818979248046875,-2.147052764892578,-1.6470627784729004,-1.434376835823059
1697664264637572900,2.82857275390625,-2.403193473815918,-1.7238821983337402,-1.061041235923767
1697664264647165400,2.83816552734375,-2.6146044731140137,-1.7270050048828125,-0.7171453237533569
1697664264656757500,2.847757568359375,-2.731416702270508,-1.7351670265197754,-0.5091661214828491
1697664264666350300,2.857350341796875,-2.870445728302002,-1.64609694480896,-0.5182172060012817
1697664264675944000,2.86694384765625,-3.033048629760742,-1.5232703685760498,-0.4842525124549866
1697664264685536500,2.87653662109375,-2.9785728454589844,-1.3170228004455566,-0.3229672908782959
1697664264695128600,2.886128662109375,-2.8392672538757324,-1.1285462379455566,-0.1873578131198883
1697664264704721400,2.895721435546875,-2.6998848915100098,-1.0099945068359375,-0.1268380880355835
1697664264714314800,2.905314697265625,-2.2891182899475098,-0.9971795082092285,-0.06101977825164795
1697664264723907600,2.914907470703125,-1.827840805053711,-0.9379758834838867,0.057659924030303955
1697664264733499600,2.924499755859375,-1.4770722389221191,-0.8446125984191895,0.21014246344566345
1697664264743092500,2.934092529296875,-1.3529419898986816,-0.7276349067687988,0.3076004683971405
1697664264752685800,2.943685791015625,-1.3909926414489746,-0.683807373046875,0.34117597341537476
1697664264762278700,2.953278564453125,-1.4438729286193848,-0.5510416030883789,0.27922189235687256
1697664264771870700,2.96287060546875,-1.584557056427002,-0.4823122024536133,0.32032376527786255
1697664264781463300,2.97246337890625,-1.694875717163086,-0.4081416130065918,0.38739895820617676
1697664264791057000,2.982056884765625,-1.6666908264160156,-0.2594151496887207,0.4056748151779175
1697664264800649700,2.991649658203125,-1.67842435836792,-0.14206314086914062,0.44387155771255493
1697664264810241500,3.001241455078125,-1.45125150680542,-0.005376338958740234,0.9662846922874451
1697664264819834400,3.01083447265625,-1.0261306762695312,0.6625995635986328,2.068850517272949
1697664264829428000,3.020427978515625,-1.0294952392578125,0.7975115776062012,2.085265636444092
1697664264839020500,3.0300205078125,-0.9245104789733887,0.7280311584472656,1.9678298234939575
1697664264848612600,3.039612548828125,-0.808011531829834,0.913628101348877,1.538398265838623
1697664264858205400,3.049205322265625,-0.5054044723510742,0.8858017921447754,1.452148199081421
1697664264867799000,3.058799072265625,-0.18538379669189453,0.8796744346618652,1.1980171203613281
1697664264877391600,3.0683916015625,0.33057689666748047,0.9618010520935059,1.0302479267120361
1697664264886983700,3.077983642578125,1.0131158828735352,1.0545811653137207,1.003188967704773
1697664264896576500,3.087576416015625,1.6925334930419922,1.1822147369384766,0.8373603224754333
1697664264906169900,3.097169921875,2.352227210998535,1.3788304328918457,0.6990415453910828
1697664264915762700,3.1067626953125,2.731443405151367,1.7225580215454102,0.6740753054618835
1697664264925354800,3.116354736328125,2.663982391357422,1.9388542175292969,0.9968833327293396
1697664264934947600,3.125947509765625,2.4283533096313477,1.856675624847412,1.3671159744262695
1697664264944541000,3.135541015625,2.0430355072021484,1.5936102867126465,1.64866042137146
1697664264954133800,3.1451337890625,1.757925033569336,1.3680524826049805,1.826104760169983
1697664264963725800,3.154725830078125,1.6780929565429688,1.1913480758666992,1.9198321104049683
1697664264973318400,3.164318359375,1.7470054626464844,0.9749116897583008,1.989985704421997
1697664264982912000,3.173912109375,1.8156042098999023,0.8044018745422363,2.013641834259033
1697664264992504800,3.1835048828125,1.9988279342651367,0.6668272018432617,2.1387462615966797
1697664265002096600,3.1930966796875,2.183220863342285,0.5405483245849609,2.0612964630126953
1697664265011689500,3.202689453125,2.3759994506835938,0.34967947006225586,1.987830400466919
1697664265021283000,3.212282958984375,2.490963935852051,0.29192113876342773,1.9205636978149414
1697664265030875600,3.221875732421875,2.374073028564453,0.1817641258239746,1.7441600561141968
1697664265040467700,3.2314677734375,1.9277667999267578,0.13892269134521484,1.5365228652954102
1697664265050060500,3.241060546875,1.6592063903808594,-0.09446001052856445,1.319841980934143
1697664265059654100,3.250654052734375,1.2358951568603516,-0.3409757614135742,1.1611230373382568
1697664265069246700,3.260246826171875,0.7817516326904297,-0.6461353302001953,1.2222111225128174
1697664265078838800,3.2698388671875,0.12319374084472656,-0.9079623222351074,1.2423244714736938
1697664265088431600,3.279431640625,-0.751375675201416,-1.1694846153259277,1.114286184310913
1697664265098025000,3.28902490234375,-1.5329880714416504,-1.2780065536499023,1.0378860235214233
1697664265107617800,3.29861767578125,-2.2734546661376953,-1.3743209838867188,0.9746161699295044
1697664265117209900,3.3082099609375,-2.86672306060791,-1.3777098655700684,0.9770053625106812
1697664265126802700,3.317802734375,-3.191990375518799,-1.260817050933838,0.7137264013290405
1697664265136396000,3.32739599609375,-3.196943759918213,-1.343465805053711,0.6276206970214844
1697664265145988900,3.33698876953125,-3.008333206176758,-1.33170485496521,0.1955127716064453
1697664265155580700,3.34658056640625,-2.301884651184082,-1.3775546550750732,-0.29303276538848877
1697664265165173500,3.356173583984375,-1.077012062072754,-1.4096250534057617,-0.6451475620269775
1697664265174767000,3.36576708984375,-0.1258525848388672,-1.4245238304138184,-0.7817529439926147
1697664265184360000,3.37535986328125,0.5031452178955078,-1.3761541843414307,-0.7515953183174133
1697664265193951700,3.38495166015625,0.7768630981445312,-1.157677412033081,-0.7466734647750854
1697664265203544600,3.394544677734375,0.7062358856201172,-0.9149384498596191,-0.8250372409820557
1697664265213138200,3.40413818359375,0.38949012756347656,-0.7039408683776855,-0.7260497212409973
1697664265222730800,3.413730712890625,-0.21263790130615234,-0.47429418563842773,-0.6604111194610596
1697664265232322800,3.42332275390625,-0.932826042175293,-0.32118797302246094,-0.4530566930770874
1697664265241915600,3.43291552734375,-1.506345272064209,-0.1723618507385254,-0.17833071947097778
1697664265251509200,3.44250927734375,-2.0107016563415527,-0.035253047943115234,-0.07611417770385742
1697664265261101800,3.452101806640625,-2.4035019874572754,0.07184839248657227,0.014069795608520508
1697664265270694000,3.46169384765625,-2.4406309127807617,0.05509757995605469,0.05360537767410278
1697664265280286500,3.471286376953125,-2.1447596549987793,-0.012918472290039062,-0.05874013900756836
1697664265289880000,3.480880126953125,-1.6442513465881348,-0.01442098617553711,-0.17286056280136108
1697664265299473000,3.490472900390625,-1.1070427894592285,-0.07191753387451172,-0.15283596515655518
1697664265309064700,3.500064697265625,-0.6269063949584961,-0.03245973587036133,-0.31741613149642944
1697664265318657500,3.509657470703125,-0.2475728988647461,-0.02489328384399414,-0.48955273628234863
1697664265328251100,3.519251220703125,0.1471710205078125,0.1353321075439453,-0.6945013999938965
1697664265337843700,3.52884375,0.515681266784668,0.33090782165527344,-0.9886406660079956
1697664265347435800,3.538435791015625,0.7496538162231445,0.5256919860839844,-1.2357814311981201
1697664265357028600,3.548028564453125,1.069955825805664,0.7639188766479492,-1.243648648262024
1697664265366622200,3.557622314453125,1.4003210067749023,1.030895709991455,-1.2382805347442627
1697664265376214800,3.56721484375,1.386916160583496,0.9662261009216309,-0.8539373278617859
1697664265385806800,3.576806884765625,1.4116191864013672,1.2649307250976562,-0.7556690573692322
1697664265395399700,3.586399658203125,1.3673515319824219,1.249056339263916,-0.5133640766143799
1697664265404993300,3.5959931640625,1.2497711181640625,1.2522082328796387,-0.42735186219215393
1697664265414585900,3.6055859375,1.073622703552246,1.2005162239074707,-0.23659473657608032
1697664265424178000,3.615177978515625,0.7198190689086914,1.2208762168884277,-0.020067691802978516
1697664265433770500,3.6247705078125,0.349700927734375,1.3343195915222168,0.12301623821258545
1697664265443364000,3.634364013671875,0.08941650390625,1.3009486198425293,0.40313297510147095
1697664265452957000,3.64395703125,-0.07395076751708984,1.006378173828125,0.5878108143806458
1697664265462548700,3.653548828125,-0.16464900970458984,0.7959094047546387,0.5592242479324341
1697664265472141600,3.6631416015625,-0.09657955169677734,0.7314791679382324,0.37010490894317627
1697664265481735200,3.672735107421875,0.26900291442871094,0.6740946769714355,0.19403231143951416
1697664265491327700,3.68232763671875,0.7627573013305664,0.6134033203125,0.09405410289764404
1697664265500919800,3.691919921875,1.4073877334594727,0.599827766418457,0.26941579580307007
1697664265510512600,3.7015126953125,2.0965938568115234,0.8000321388244629,0.4855637550354004
1697664265520106200,3.711106201171875,2.9128456115722656,0.814234733581543,0.8039742708206177
1697664265529698800,3.72069873046875,3.7186594009399414,0.562833309173584,0.8793326616287231
1697664265539291000,3.730290771484375,4.082751274108887,0.25528430938720703,0.4250621795654297
1697664265548883700,3.7398837890625,4.186949729919434,-0.06640481948852539,-0.1612987518310547
1697664265558477000,3.74947705078125,4.281292915344238,-0.3320651054382324,-0.7216185331344604
1697664265568070000,3.75906982421875,4.3872528076171875,-0.2450556755065918,-1.233400583267212
1697664265577661700,3.76866162109375,4.493165969848633,-0.34519195556640625,-1.3425171375274658
1697664265587254500,3.778254638671875,4.504303932189941,-0.23624277114868164,-1.5202685594558716
1697664265596848000,3.78784814453125,4.655712127685547,-0.2516016960144043,-1.6072903871536255
1697664265606440700,3.797440673828125,4.653876304626465,-0.8399085998535156,-1.6112167835235596
1697664265616032800,3.80703271484375,3.452548027038574,-0.5792393684387207,-2.2026073932647705
1697664265625625600,3.81662548828125,1.5904722213745117,-1.0343923568725586,-2.284060001373291
1697664265635219200,3.82621923828125,1.4778919219970703,-1.250014305114746,-2.2300829887390137
1697664265644811800,3.835811767578125,0.0621337890625,-1.1162395477294922,-2.675551414489746
1697664265654403800,3.84540380859375,-1.8790903091430664,-1.2690606117248535,-2.6144042015075684
1697664265663996700,3.85499658203125,-2.1891164779663086,-1.5313756465911865,-3.117016553878784
1697664265673590000,3.864590087890625,-1.8249592781066895,-1.5748212337493896,-2.8891615867614746
1697664265683182800,3.874182861328125,-1.4387097358703613,-0.5774259567260742,-2.6778457164764404
1697664265692774700,3.883774658203125,-1.4522991180419922,-0.30507564544677734,-2.2745556831359863
1697664265702367500,3.893367431640625,-1.4927806854248047,-0.29599428176879883,-2.1032047271728516
1697664265711961000,3.902961181640625,-0.4119415283203125,-0.3923354148864746,-3.1085257530212402
1697664265721554000,3.912553955078125,1.8689155578613281,-1.150940179824829,-6.494061470031738
1697664265731145500,3.9221455078125,0.5907220840454102,-0.8859384059906006,-6.725102424621582
1697664265740738300,3.93173828125,-0.5399818420410156,-0.5955159664154053,-6.503645420074463
1697664265750332000,3.941331787109375,-0.9175715446472168,-0.0488581657409668,-6.230958938598633
1697664265759924500,3.950924560546875,-1.134040355682373,0.7397267818450928,-5.572453498840332
1697664265769516500,3.9605166015625,-1.176647663116455,0.8957502841949463,-6.052367210388184
1697664265779109400,3.970109375,0.6315369606018066,1.2915208339691162,-8.333016395568848
1697664265788703000,3.979702880859375,2.1041970252990723,3.9434852600097656,-6.626399517059326
1697664265798295600,3.989295654296875,-1.98051118850708,6.100218296051025,-5.324817657470703
1697664265807887600,3.9988876953125,3.8380274772644043,4.832550048828125,-6.420049667358398
1697664265817480400,4.00848046875,1.9541816711425781,3.2035791873931885,-5.428162097930908
1697664265827073800,4.01807373046875,1.2704801559448242,2.108841896057129,-5.602926731109619
1697664265836666600,4.02766650390625,2.928293228149414,2.790536403656006,-6.004794120788574
1697664265846258400,4.037258544921875,2.5218753814697266,2.0673727989196777,-5.764945030212402
1697664265855851300,4.046851318359375,0.15143036842346191,1.173177719116211,-4.563363075256348
1697664265865444900,4.05644482421875,-1.0541832447052002,0.566042423248291,-4.1265788078308105
1697664265875037400,4.066037353515625,-0.4868953227996826,0.4928617477416992,-3.5851597785949707
1697664265884629500,4.07562939453125,1.143667459487915,0.45693016052246094,-2.3421573638916016
1697664265894222300,4.085222412109375,1.7677433490753174,-0.958850622177124,-2.5813798904418945
1697664265903815700,4.094815673828125,-0.5445437431335449,-2.6453888416290283,-3.206373691558838
1697664265913408500,4.104408447265625,-0.7545692920684814,-3.9234251976013184,-3.5781068801879883
1697664265923000600,4.11400048828125,-0.2703523635864258,-4.439322471618652,-3.277864933013916
1697664265932593400,4.123593505859375,-0.7376108169555664,-4.646204948425293,-3.0367627143859863
1697664265942186800,4.133186767578125,-1.8118289709091187,-4.884061336517334,-2.8420844078063965
1697664265951779600,4.142779541015625,-2.8856916427612305,-5.520535469055176,-1.9564871788024902
1697664265961371400,4.152371337890625,-4.719498157501221,-6.760759353637695,-1.9272899627685547
1697664265970964200,4.161964111328125,-6.736261367797852,-6.041543960571289,-1.086221694946289
1697664265980557800,4.171557861328125,-7.321589469909668,-4.677873611450195,0.07222843170166016
1697664265990150400,4.181150390625,-7.058125019073486,-3.500519037246704,-0.6479978561401367
1697664265999742500,4.190742431640625,-8.888971328735352,-4.846086502075195,-1.9150843620300293
1697664266009335300,4.200335205078125,-9.678470611572266,-6.599445819854736,-3.9998793601989746
1697664266018928600,4.2099287109375,-9.444531440734863,-6.893134117126465,-6.048306465148926
1697664266028521500,4.219521484375,-8.512262344360352,-7.381396293640137,-6.923766136169434
1697664266038113300,4.22911328125,-7.838089466094971,-7.872860431671143,-6.132462501525879
1697664266047706000,4.2387060546875,-7.241360187530518,-8.852550506591797,-4.712130546569824
1697664266057299700,4.2482998046875,-6.874656677246094,-9.775364875793457,-2.1828079223632812
1697664266066892300,4.257892333984375,-5.7831926345825195,-10.09131145477295,1.3194313049316406
1697664266076484400,4.267484375,-4.273097038269043,-9.741042137145996,4.578436851501465
1697664266086077200,4.2770771484375,-2.641068696975708,-8.739001274108887,7.299278259277344
1697664266095670800,4.2866708984375,-1.47543203830719,-6.705272197723389,8.971631050109863
1697664266105263400,4.296263427734375,-1.781340479850769,-5.2890520095825195,9.142425537109375
1697664266114855400,4.30585546875,-3.359022855758667,-3.769965410232544,9.272456169128418
1697664266124448000,4.315447998046875,-4.57149600982666,-2.642737865447998,7.6495208740234375
1697664266134041600,4.32504150390625,-4.7059550285339355,-2.055224895477295,4.464885711669922
1697664266143634400,4.334634521484375,-4.199036121368408,-2.4627957344055176,1.8891849517822266
1697664266153226200,4.344226318359375,-3.7748289108276367,-1.241601586341858,-0.39228248596191406
1697664266162819000,4.353819091796875,-3.8794925212860107,-0.3693997859954834,-1.5729484558105469
1697664266172412700,4.36341259765625,-3.5390732288360596,-0.03495645523071289,-0.4582195281982422
1697664266182005200,4.373005126953125,-3.158661127090454,-1.0505015850067139,-1.5291881561279297
1697664266191597300,4.382597412109375,-2.1808743476867676,-2.190141201019287,-1.324967384338379
1697664266201190000,4.39218994140625,-1.9823048114776611,-2.9975528717041016,-0.05173301696777344
1697664266210783500,4.401783447265625,-1.8619718551635742,-3.4085469245910645,1.914449691772461
1697664266220376300,4.411376220703125,-1.0641462802886963,-2.8811984062194824,3.6302480697631836
1697664266229968400,4.420968505859375,0.08481407165527344,-2.2659261226654053,4.034658432006836
1697664266239561000,4.43056103515625,0.7447564005851746,-1.6392250061035156,3.8499755859375
1697664266249154600,4.440154541015625,1.6402578353881836,-0.827549934387207,3.19174861907959
1697664266258747100,4.4497470703125,2.4102582931518555,-0.004512786865234375,2.398909568786621
1697664266268339200,4.459339111328125,3.1125106811523438,0.5737400054931641,2.0908727645874023
1697664266277932000,4.46893212890625,4.746408939361572,1.0828659534454346,2.181918144226074
1697664266287525600,4.478525634765625,6.594315528869629,1.9093778133392334,1.935694694519043
1697664266297118200,4.4881181640625,5.782557010650635,1.901437759399414,2.3794469833374023
1697664266306710300,4.497710205078125,5.012871265411377,1.9963304996490479,2.8966636657714844
1697664266316303400,4.507303466796875,3.8847389221191406,1.7431411743164062,3.8958311080932617
1697664266325897000,4.51689697265625,2.901808977127075,1.163524866104126,5.563547134399414
1697664266335489500,4.526489501953125,3.3601529598236084,1.3945801258087158,7.0993499755859375
1697664266345081600,4.53608154296875,2.955281972885132,2.628499984741211,6.317287921905518
1697664266354674400,4.54567431640625,3.4163360595703125,2.9091014862060547,3.3952717781066895
1697664266364267800,4.555267822265625,2.7114062309265137,3.0810670852661133,4.1194376945495605
1697664266373860600,4.564860595703125,0.3375868797302246,3.253513813018799,3.9340858459472656
1697664266383452400,4.574452392578125,0.24996709823608398,5.067802429199219,3.005417823791504
1697664266393045200,4.584045166015625,-1.206674575805664,5.985203266143799,1.304499626159668
1697664266402638800,4.593638916015625,-3.6974740028381348,5.193500518798828,-0.16583251953125
1697664266412231400,4.6032314453125,-5.675326347351074,3.8644068241119385,-1.546112060546875
1697664266421823500,4.612823486328125,-6.153123378753662,2.8531739711761475,-0.7769951820373535
1697664266431416300,4.622416259765625,-5.802209854125977,3.3089797496795654,2.0070266723632812
1697664266441010000,4.632010009765625,-6.182618618011475,3.7830910682678223,4.701473236083984
1697664266450602500,4.6416025390625,-5.769540309906006,3.832048177719116,6.489838123321533
1697664266460194600,4.651194580078125,-6.118203163146973,3.6825292110443115,7.1370978355407715
1697664266469787100,4.660787109375,-6.537402153015137,2.8765642642974854,7.4527812004089355
1697664266479380700,4.670380615234375,-7.719149112701416,1.6047954559326172,7.4781293869018555
1697664266488973600,4.6799736328125,-11.42782211303711,0.5457806587219238,6.851205348968506
1697664266498565400,4.6895654296875,-13.681063652038574,-1.8782038688659668,4.140812873840332
1697664266508158200,4.699158203125,-12.688096046447754,-4.312623500823975,1.970174789428711
1697664266517751800,4.708751708984375,-9.885004043579102,-5.828892707824707,0.790644645690918
1697664266527344400,4.718344482421875,-5.896622657775879,-7.951747417449951,-0.0799107551574707
1697664266536936400,4.7279365234375,-1.503638505935669,-9.898336410522461,-1.7792105674743652
1697664266546529000,4.737529052734375,1.368926763534546,-10.357284545898438,-3.431814432144165
1697664266556122600,4.74712255859375,2.8899967670440674,-10.119205474853516,-2.584038734436035
1697664266565715500,4.756715576171875,3.8912034034729004,-10.242769241333008,-4.153128623962402
1697664266575307300,4.766307373046875,6.6962432861328125,-11.042062759399414,-5.563998222351074
1697664266584900000,4.775900146484375,5.100713729858398,-10.683347702026367,-5.7082014083862305
1697664266594493700,4.78549365234375,4.71489143371582,-9.437225341796875,-7.028238773345947
1697664266604086300,4.795086181640625,3.969190835952759,-8.876424789428711,-6.770860195159912
1697664266613678300,4.80467822265625,5.367055416107178,-7.798182010650635,-6.79020357131958
1697664266623271000,4.81427099609375,3.9982657432556152,-7.881816387176514,-5.747893333435059
1697664266632864500,4.823864501953125,5.696840763092041,-6.695674419403076,-4.476858139038086
1697664266642457300,4.833457275390625,4.980105400085449,-7.139151573181152,-1.613715648651123
1697664266652049200,4.843049072265625,6.090962886810303,-7.885153293609619,-1.1535344123840332
1697664266661642000,4.85264208984375,5.371775150299072,-5.847898960113525,-0.32064247131347656
1697664266671235600,4.862235595703125,7.033750057220459,-5.127211093902588,0.027088642120361328
1697664266680828200,4.871828125,7.018871307373047,-4.559112548828125,-0.07351255416870117
1697664266690421000,4.8814208984375,4.984983921051025,-3.9191508293151855,2.246131420135498
1697664266700013000,4.891012939453125,4.595347881317139,-2.547085762023926,4.500853061676025
1697664266709606400,4.9006064453125,5.159890174865723,-0.18663835525512695,4.4414777755737305
1697664266719199200,4.91019921875,3.78885555267334,1.3479704856872559,5.147815227508545
1697664266728791000,4.919791015625,2.57327938079834,2.374526023864746,5.216802597045898
1697664266738384000,4.9293837890625,0.8360977172851562,3.3617186546325684,5.398967742919922
1697664266747977500,4.9389775390625,0.860144853591919,4.3646559715271,5.079806327819824
1697664266757570000,4.948570068359375,1.1066818237304688,3.7875828742980957,4.9445319175720215
1697664266767162000,4.958162109375,2.7206664085388184,4.030185699462891,2.9970245361328125
1697664266776755000,4.9677548828125,3.916440963745117,3.0966997146606445,0.8703522682189941
1697664266786348500,4.9773486328125,4.501434326171875,1.2672829627990723,0.0968465805053711
1697664266795941000,4.986941162109375,5.037680625915527,3.2925071716308594,-1.9392352104187012
1697664266805533200,4.996533203125,2.091604709625244,1.8737120628356934,-1.7475390434265137
1697664266815125800,5.006125732421875,-0.6852574348449707,2.5554556846618652,-2.622056245803833
1697664266824719400,5.01571923828125,-3.1562910079956055,2.6066641807556152,-1.9748296737670898
1697664266834312000,5.02531201171875,-4.485697269439697,2.4102869033813477,-2.0863635540008545
1697664266843904000,5.034904052734375,-2.41095232963562,2.0709686279296875,-2.5595247745513916
1697664266853496800,5.044496826171875,-0.1716463565826416,1.7000741958618164,-2.873791217803955
1697664266863090400,5.05409033203125,2.151728391647339,0.18033504486083984,-2.1444740295410156
1697664266872683000,5.06368310546875,2.8845090866088867,-0.23769092559814453,-0.6170408725738525
1697664266882275000,5.073275146484375,4.444944858551025,-0.20728302001953125,2.4961185455322266
1697664266891867600,5.08286767578125,3.666520357131958,-0.6090106964111328,3.8559510707855225
1697664266901461200,5.092461181640625,1.2956418991088867,-1.2191343307495117,6.5269670486450195
1697664266911054000,5.10205419921875,2.622231960296631,-1.0828447341918945,5.371518135070801
1697664266920646000,5.11164599609375,2.486497402191162,-2.2324867248535156,4.929450511932373
1697664266930238700,5.12123876953125,4.469940662384033,-4.209734916687012,5.406990051269531
1697664266939832300,5.130832275390625,8.897576332092285,-4.8782806396484375,2.0511507987976074
1697664266949425000,5.1404248046875,5.883566856384277,-2.4468154907226562,1.5875828266143799
1697664266959017000,5.150016845703125,5.5722784996032715,-6.27418327331543,1.2608380317687988
1697664266968609800,5.15960986328125,7.562629699707031,-5.759925842285156,-0.9367086887359619
1697664266978203100,5.169203125,5.634174346923828,-3.225234031677246,-0.7741544246673584
1697664266987796000,5.1787958984375,4.474609375,-2.570916175842285,0.053663015365600586
1697664266997387800,5.1883876953125,2.133986234664917,-4.722141265869141,2.2972872257232666
1697664267006980600,5.197980712890625,5.768167495727539,-1.2577619552612305,2.9629266262054443
1697664267016574200,5.20757421875,4.687173843383789,-2.1763534545898438,8.429319381713867
1697664267026166800,5.217166748046875,7.411635398864746,-5.736732482910156,2.1353209018707275
1697664267035758800,5.2267587890625,9.461631774902344,-9.325909614562988,-3.723525047302246
1697664267045351400,5.236351318359375,3.6802735328674316,-7.740715980529785,-3.386030435562134
1697664267054945000,5.245945068359375,-1.0745444297790527,-2.5959596633911133,-1.7572946548461914
1697664267064537900,5.255537841796875,-2.699556827545166,-0.5898542404174805,2.415755033493042
1697664267074129700,5.265129638671875,-1.0610160827636719,0.7149295806884766,2.643066167831421
1697664267083722500,5.274722412109375,-5.448470115661621,-1.4124107360839844,0.14166760444641113
1697664267093316000,5.284316162109375,-5.357779026031494,0.22948360443115234,-4.075963973999023
1697664267102908700,5.29390869140625,-6.396661758422852,0.5819911956787109,-0.9195457696914673
1697664267112500700,5.303500732421875,-4.2888288497924805,2.806765556335449,2.2280497550964355
1697664267122093600,5.313093505859375,-7.1916399002075195,-0.6527318954467773,3.249621629714966
1697664267131687000,5.32268701171875,-8.08198356628418,0.5971956253051758,1.1256611347198486
1697664267141279700,5.33227978515625,-4.936430931091309,0.8493413925170898,0.01148378849029541
1697664267150871600,5.34187158203125,-3.5950422286987305,-0.2790050506591797,0.19321203231811523
1697664267160464400,5.35146435546875,0.3982199430465698,-1.886591911315918,-1.4459456205368042
1697664267170058000,5.36105810546875,1.1890748739242554,-3.996999740600586,-1.0574721097946167
1697664267179650600,5.370650634765625,3.063822031021118,-5.483283042907715,-2.7307121753692627
1697664267189242600,5.38024267578125,4.893388271331787,-6.729355812072754,-5.351173400878906
1697664267198835200,5.389835205078125,2.99577260017395,-5.116668701171875,-3.7743539810180664
1697664267208428800,5.3994287109375,2.7823591232299805,-0.5627555847167969,1.4305505752563477
1697664267218021600,5.409021728515625,-4.152307510375977,6.232913017272949,11.220794677734375
1697664267227613400,5.418613525390625,-3.082524061203003,-2.325662612915039,6.791153430938721
1697664267237206300,5.428206298828125,4.366269588470459,1.2797746658325195,-3.0695769786834717
1697664267246800000,5.4377998046875,2.3262951374053955,-0.22390079498291016,-4.415711402893066
1697664267256392400,5.447392333984375,4.176844596862793,-1.6640968322753906,-3.1954963207244873
1697664267265984500,5.456984619140625,4.521193027496338,-3.149198532104492,-9.38987922668457
1697664267275577000,5.4665771484375,5.218386173248291,-3.3339977264404297,-9.844510078430176
1697664267285170700,5.476170654296875,2.2912073135375977,-0.028478622436523438,-0.576826810836792
1697664267294763500,5.485763427734375,-0.5635108947753906,0.4233579635620117,4.336455345153809
1697664267304355300,5.495355224609375,0.8046607971191406,4.113358497619629,12.693230628967285
1697664267313948200,5.5049482421875,-3.082735538482666,6.138592720031738,18.329622268676758
1697664267323541800,5.514541748046875,-3.6493353843688965,6.1689863204956055,16.94048309326172
1697664267333134300,5.52413427734375,-3.602726697921753,5.034064769744873,14.719827651977539
1697664267342726400,5.533726318359375,-0.8516949415206909,3.3698368072509766,13.07167911529541
1697664267352319200,5.5433193359375,0.37923145294189453,1.873948097229004,13.072407722473145
1697664267361912600,5.55291259765625,5.415355205535889,-1.8000755310058594,1.3949859142303467
1697664267371505400,5.56250537109375,8.234039306640625,-2.1874876022338867,-1.944225788116455
1697664267381097200,5.57209716796875,15.788862228393555,-4.271364212036133,-9.184303283691406
1697664267390690000,5.58168994140625,-5.743227958679199,0.6965169906616211,3.4161510467529297
1697664267400283600,5.59128369140625,-7.6139421463012695,4.528765678405762,12.332906723022461
1697664267409876200,5.600876220703125,-5.717000484466553,2.902738571166992,8.04493522644043
1697664267419468300,5.61046826171875,-1.8112932443618774,-0.33350276947021484,1.2578320503234863
1697664267429061000,5.62006103515625,-1.8834645748138428,-0.14745712280273438,2.5300545692443848
1697664267438654500,5.629654541015625,-3.9304277896881104,1.0514302253723145,6.1470818519592285
1697664267448247300,5.639247314453125,-3.8975367546081543,3.2372212409973145,7.813673973083496
1697664267457839000,5.648839111328125,-1.2874624729156494,3.738072395324707,3.1055431365966797
1697664267467432000,5.658431884765625,-0.7141809463500977,3.1173038482666016,2.9278526306152344
1697664267477025500,5.668025634765625,-0.7911241054534912,2.640990734100342,3.1699113845825195
1697664267486618000,5.6776181640625,-2.145944356918335,2.358450412750244,2.6197633743286133
1697664267496210200,5.687210205078125,-0.24798059463500977,1.6797738075256348,3.792325019836426
1697664267505802800,5.696802734375,1.038336992263794,-0.010401725769042969,6.052738189697266
1697664267515396400,5.706396240234375,-2.1097707748413086,-1.8022527694702148,6.9211344718933105
1697664267524989200,5.7159892578125,0.05518603324890137,-4.391921043395996,3.82773494720459
1697664267534581000,5.7255810546875,0.15180838108062744,-5.4590959548950195,-1.1565141677856445
1697664267544173800,5.735173828125,-3.1463074684143066,-4.137218475341797,6.194693565368652
1697664267553767400,5.744767333984375,-2.1305556297302246,-3.6400394439697266,10.034134864807129
1697664267563360000,5.754360107421875,-1.0179901123046875,-6.384160995483398,-5.6959452629089355
1697664267572952000,5.7639521484375,4.496594429016113,-8.180548667907715,-11.272994995117188
1697664267582544600,5.773544677734375,4.763787269592285,-10.380953788757324,-16.461772918701172
1697664267592138200,5.78313818359375,5.422820568084717,-10.390167236328125,-9.487778663635254
1697664267601731000,5.79273095703125,4.894471645355225,-7.184914588928223,-5.134428977966309
1697664267611323000,5.802322998046875,0.635444700717926,-3.7355356216430664,-4.726930618286133
1697664267620915700,5.811915771484375,-2.920894145965576,-2.0097169876098633,-0.5898177623748779
1697664267630509300,5.82150927734375,-4.2186665534973145,0.38806915283203125,3.033978223800659
1697664267640102000,5.831101806640625,-3.5287303924560547,2.57504940032959,3.6501195430755615
1697664267649694000,5.84069384765625,-5.0713372230529785,3.001861095428467,4.789454936981201
1697664267659286500,5.85028662109375,-1.3066716194152832,4.112912178039551,-0.6838963031768799
1697664267668880100,5.859880126953125,-1.2998571395874023,3.3407392501831055,5.635391712188721
1697664267678473000,5.869472900390625,-1.2282357215881348,2.581350326538086,7.2293853759765625
1697664267688064800,5.879064697265625,1.6483603715896606,-2.0535926818847656,4.236882209777832
1697664267697657600,5.88865771484375,3.9344170093536377,-3.177734375,1.1066408157348633
1697664267707251200,5.898251220703125,3.730156898498535,-2.055832862854004,-0.3496948182582855
1697664267716843800,5.90784375,4.1579694747924805,-0.6614217758178711,-1.5933160781860352
1697664267726435800,5.917435791015625,4.353061676025391,0.6437263488769531,-3.393993377685547
1697664267736028400,5.9270283203125,2.3109731674194336,2.085536003112793,-7.233063220977783
1697664267745622000,5.9366220703125,0.9871368408203125,4.131257057189941,-14.340546607971191
1697664267755214800,5.94621484375,0.33218955993652344,3.4316701889038086,-11.293172836303711
1697664267764806700,5.955806640625,2.3728511333465576,1.6922712326049805,-4.811473846435547
1697664267774399500,5.9653994140625,-1.4970136880874634,2.375253677368164,-12.031845092773438
1697664267783993000,5.9749931640625,0.16223418712615967,2.7044334411621094,-4.762770652770996
1697664267793585700,5.984585693359375,1.8033167123794556,2.1280412673950195,1.0916707515716553
1697664267803177700,5.994177734375,2.238929271697998,1.3501243591308594,-2.3222742080688477
1697664267812770300,6.003770263671875,1.1142761707305908,-0.38037586212158203,-1.2038702964782715
1697664267822364000,6.013364013671875,3.0764901638031006,-0.11937332153320312,0.07870280742645264
1697664267831956700,6.022956787109375,1.1779990196228027,0.35720348358154297,2.0357742309570312
1697664267841548500,6.032548583984375,-1.1947895288467407,1.837742805480957,2.010939121246338
1697664267851141400,6.042141357421875,-4.728019714355469,6.649240493774414,4.326926231384277
1697664267860735000,6.05173486328125,-4.624002456665039,5.8738484382629395,4.4824981689453125
1697664267870327600,6.06132763671875,13.27895736694336,-5.546645164489746,-5.398046493530273
1697664267879919600,6.070919677734375,5.435441970825195,-7.422884941101074,-2.975450038909912
1697664267889512200,6.08051220703125,0.15633606910705566,-7.034858703613281,2.657620668411255
1697664267899105800,6.090105712890625,1.126452922821045,-1.8762531280517578,3.2155117988586426
1697664267908698600,6.09969873046875,3.7425832748413086,0.9825506210327148,1.8750684261322021
1697664267918290400,6.10929052734375,4.392949104309082,2.660708427429199,0.4803397059440613
1697664267927883300,6.11888330078125,3.2578554153442383,1.7740740776062012,-0.5615519881248474
1697664267937476900,6.128476806640625,2.3804068565368652,1.5651683807373047,-0.5575951933860779
1697664267947069400,6.1380693359375,1.9058828353881836,1.0359725952148438,-0.6088826656341553
1697664267956661500,6.14766162109375,3.21553897857666,-0.843235969543457,-1.228257417678833
1697664267966254000,6.157254150390625,3.0030505657196045,-1.0533390045166016,-0.3640024960041046
1697664267975847700,6.16684765625,2.497387409210205,-2.055535316467285,-0.04350079223513603
1697664267985440300,6.176440185546875,1.7885010242462158,-3.287104606628418,-0.1118137389421463
1697664267995032300,6.1860322265625,0.5004730224609375,-2.8742904663085938,0.7464631199836731
1697664268004625200,6.195625244140625,0.76853346824646,-1.906137466430664,0.007677704095840454
1697664268014218800,6.20521875,0.013941526412963867,-0.24174213409423828,0.756550133228302
1697664268023811300,6.214811279296875,-1.011256217956543,0.7189483642578125,2.378112316131592
1697664268033403400,6.2244033203125,-0.5165510177612305,-0.96746826171875,1.34199059009552
1697664268042996000,6.233995849609375,-2.123495578765869,-3.2458791732788086,0.45558518171310425
1697664268052589600,6.243589599609375,-4.219254493713379,-3.2116594314575195,0.23519551753997803
1697664268062182100,6.25318212890625,-2.664917469024658,-0.6037225723266602,-1.4844188690185547
1697664268071774200,6.262774169921875,-5.152869701385498,-0.8134326934814453,-3.0191798210144043
1697664268081367000,6.272366943359375,-4.653892517089844,-1.5626440048217773,-3.0729808807373047
1697664268090960400,6.28196044921875,-4.581577301025391,-4.427785873413086,-2.3661227226257324
1697664268100553200,6.29155322265625,-3.1760590076446533,-4.169804573059082,-2.1696534156799316
1697664268110145000,6.30114501953125,-3.339578151702881,-4.426334381103516,-1.8905699253082275
1697664268119737900,6.31073779296875,-2.556027412414551,-5.5926008224487305,-1.026107907295227
1697664268129331500,6.32033154296875,-0.7712386846542358,-2.7697830200195312,-1.5460891723632812
1697664268138924000,6.329924072265625,-0.6852878332138062,-1.3493423461914062,-1.4460699558258057
1697664268148516000,6.33951611328125,-0.7152425050735474,-0.8183507919311523,-2.0578136444091797
1697664268158109000,6.34910888671875,-0.7442991733551025,0.8079910278320312,-2.370957136154175
1697664268167702300,6.358702392578125,-0.887515664100647,1.2117719650268555,-1.8715320825576782
1697664268177295000,6.368295166015625,-0.9265820980072021,1.724074363708496,-1.5562982559204102
1697664268186887000,6.377886962890625,-2.4894094467163086,1.7931089401245117,0.2599623203277588
1697664268196479700,6.387479736328125,-4.186220645904541,3.6642370223999023,-1.1348464488983154
1697664268206073300,6.3970732421875,-2.6867570877075195,5.260567665100098,-0.9428927898406982
1697664268215666000,6.406666015625,-1.6825616359710693,6.188103199005127,0.07116222381591797
1697664268225258000,6.416258056640625,-0.4729783535003662,7.758498191833496,0.8800878524780273
1697664268234850800,6.425850830078125,1.9357243776321411,9.873383522033691,1.6125653982162476
1697664268244444200,6.435444091796875,2.644838809967041,9.393698692321777,1.618107557296753
1697664268254037000,6.445037109375,1.200394630432129,8.665325164794922,1.6872632503509521
1697664268263628800,6.45462890625,-0.32908034324645996,9.60251522064209,1.2273931503295898
1697664268273221600,6.4642216796875,-0.429348349571228,10.00058364868164,2.8798716068267822
1697664268282815200,6.473815185546875,-2.945455312728882,11.02778434753418,4.325763702392578
1697664268292407800,6.48340771484375,-0.49680477380752563,11.35433578491211,5.772205352783203
1697664268301999900,6.492999755859375,4.499698162078857,4.390528202056885,5.834217548370361
1697664268311592700,6.5025927734375,5.189542770385742,0.036574363708496094,5.216705322265625
1697664268321186000,6.51218603515625,4.632392406463623,-1.0550537109375,4.457496166229248
1697664268330779000,6.52177880859375,2.980865955352783,-3.1818151473999023,4.062552452087402
1697664268340370700,6.53137060546875,0.4069499969482422,-4.551976203918457,3.3467447757720947
1697664268349963500,6.540963623046875,-0.4300856292247772,-4.687682151794434,2.7779088020324707
1697664268359557000,6.55055712890625,0.6729342341423035,-5.078673362731934,1.6357011795043945
1697664268369149700,6.560149658203125,-0.7191132307052612,-7.211648941040039,-1.9273769855499268
1697664268378741800,6.56974169921875,-3.1823294162750244,-8.414131164550781,-8.675497055053711
1697664268388334600,6.57933447265625,-1.3342885971069336,-7.359947204589844,-6.236708641052246
1697664268397928000,6.588927978515625,2.0223915576934814,-4.538139343261719,1.1026387214660645
1697664268407520800,6.598520751953125,3.865009307861328,-2.099553108215332,3.2840683460235596
1697664268417112600,6.608112548828125,4.608572959899902,-2.215179443359375,3.215162754058838
1697664268426705400,6.617705322265625,3.1585652828216553,-3.2972841262817383,3.7070369720458984
1697664268436299000,6.627299072265625,1.7644141912460327,-1.2905378341674805,3.614710807800293
1697664268445891600,6.6368916015625,0.9756829142570496,-2.543537139892578,4.248501777648926
1697664268455483600,6.646483642578125,-0.4875326156616211,-4.529443740844727,4.469168663024902
1697664268465076500,6.656076416015625,0.23057520389556885,-4.804356575012207,3.791142702102661
1697664268474669800,6.665669921875,1.7407429218292236,-4.919800758361816,3.2947583198547363
1697664268484262700,6.6752626953125,2.8187313079833984,-5.2132673263549805,3.007458448410034
1697664268493854500,6.6848544921875,4.213960647583008,-5.746101379394531,2.9300894737243652
1697664268503447300,6.694447265625,3.7926087379455566,-3.600846290588379,1.9479352235794067
1697664268513041000,6.704041015625,4.513493061065674,-2.589268684387207,1.6648868322372437
1697664268522633500,6.713633544921875,2.4825947284698486,1.187230110168457,0.4159175455570221
1697664268532225500,6.7232255859375,5.354684829711914,1.1994953155517578,3.5525574684143066
1697664268541818400,6.732818359375,1.6360430717468262,-1.0218467712402344,-1.478338360786438
1697664268551411700,6.74241162109375,-0.8019043207168579,-3.25604248046875,-1.1014652252197266
1697664268561004500,6.752004638671875,-1.1317472457885742,-3.812605857849121,-1.1337690353393555
1697664268570596400,6.761596435546875,-1.8308916091918945,-5.229174613952637,-1.4289549589157104
1697664268580189200,6.771189208984375,-8.98613166809082,-5.903386116027832,-1.9284429550170898
1697664268589782800,6.78078271484375,-5.345389366149902,-4.372128486633301,-2.3796284198760986
1697664268599375400,6.790375244140625,-5.324605464935303,-2.6713342666625977,-3.608783483505249
1697664268608967400,6.799967529296875,-3.6244473457336426,-1.0012922286987305,-2.6343324184417725
1697664268618560000,6.80956005859375,-4.121805667877197,0.219146728515625,-1.6732186079025269
1697664268628153600,6.819153564453125,-2.941239356994629,1.037735939025879,1.5808993577957153
1697664268637746400,6.828746337890625,-0.6929787397384644,0.7592649459838867,1.282795786857605
1697664268647338200,6.838338134765625,1.3213403224945068,-0.5580272674560547,-1.215125560760498
1697664268656931000,6.84793115234375,-0.017640233039855957,-0.8739347457885742,-3.129121780395508
1697664268666524700,6.857524658203125,0.20530760288238525,-1.842350959777832,-1.5987553596496582
1697664268676117200,6.8671171875,-2.0094056129455566,-4.354081153869629,0.7112628817558289
1697664268685709000,6.876708984375,-5.087599277496338,2.7846860885620117,-5.764100074768066
1697664268695302000,6.886302001953125,-1.5665982961654663,0.7252368927001953,-2.8222384452819824
1697664268704895500,6.8958955078125,1.4486368894577026,1.843064308166504,-4.597107887268066
1697664268714488000,6.905488037109375,0.6990485191345215,1.5005273818969727,-4.00283670425415
1697664268724080000,6.915080078125,-0.24708247184753418,0.8634071350097656,-3.6722004413604736
1697664268733673000,6.9246728515625,0.20717716217041016,0.9757204055786133,-4.013683319091797
1697664268743266300,6.934266357421875,2.1163790225982666,-0.6187372207641602,-1.909631609916687
1697664268752859100,6.943859130859375,3.872648000717163,-1.1757307052612305,-2.00478196144104
1697664268762451000,6.953450927734375,4.013942718505859,-0.5140380859375,-2.3587324619293213
1697664268772043800,6.963043701171875,3.281309127807617,0.24617767333984375,-2.3585333824157715
1697664268781637400,6.972637451171875,2.3747055530548096,1.025111198425293,-1.8004975318908691
1697664268791230000,6.98222998046875,1.7436704635620117,1.9539289474487305,-0.6382018327713013
1697664268800822000,6.991822021484375,1.5301176309585571,1.6737232208251953,-0.5726227760314941
1697664268810414800,7.001414794921875,1.3281782865524292,2.2890138626098633,-1.1373963356018066
1697664268820008200,7.01100830078125,0.7860813140869141,3.219398021697998,-0.5064026117324829
1697664268829601000,7.02060107421875,0.8351885080337524,3.12738037109375,1.4241931438446045
1697664268839193000,7.030193115234375,0.21010065078735352,1.9083318710327148,0.4656374454498291
1697664268848785700,7.03978564453125,-0.07903742790222168,2.584529399871826,-0.6909087896347046
1697664268858379300,7.049379150390625,-0.3553464412689209,2.1198253631591797,-1.2102712392807007
1697664268867971800,7.058971923828125,-0.09984135627746582,1.2242918014526367,-1.9166169166564941
1697664268877564000,7.06856396484375,-0.42722368240356445,0.0011663436889648438,-1.833062767982483
1697664268887156700,7.07815673828125,0.40802812576293945,-0.28750133514404297,-2.487560749053955
1697664268896750300,7.087750244140625,1.4611213207244873,0.016847610473632812,-1.0472440719604492
1697664268906343000,7.097343017578125,2.626121997833252,-0.03591346740722656,0.35722672939300537
1697664268915935000,7.10693505859375,3.9660794734954834,-0.05486869812011719,0.9841662049293518
1697664268925527600,7.116527587890625,4.846303939819336,0.44398021697998047,1.7518576383590698
1697664268935121200,7.12612109375,5.294478893280029,0.49843502044677734,2.7209582328796387
1697664268944713700,7.135713623046875,5.456817626953125,0.8931398391723633,2.8667497634887695
1697664268954305800,7.145305908203125,5.759746551513672,2.1709494590759277,2.969517230987549
1697664268963898600,7.154898681640625,5.300819396972656,3.4120311737060547,4.134583473205566
1697664268973492200,7.1644921875,4.537639617919922,4.283725738525391,5.150110244750977
1697664268983084800,7.174084716796875,3.708444595336914,3.8304505348205566,5.450878143310547
1697664268992676600,7.183676513671875,3.3621034622192383,2.3152427673339844,4.590306282043457
1697664269002269400,7.19326953125,2.433617353439331,0.06913089752197266,3.410414457321167
1697664269011863000,7.202863037109375,2.30861759185791,-2.5976076126098633,2.548656702041626
1697664269021455600,7.21245556640625,3.1426243782043457,-4.712736129760742,2.096798896789551
1697664269031047700,7.222047607421875,4.100996971130371,-5.573845863342285,2.7511565685272217
1697664269040640500,7.231640625,4.316474914550781,-5.1979875564575195,4.027342796325684
1697664269050233900,7.24123388671875,3.5385172367095947,-4.489947319030762,4.529489994049072
1697664269059826700,7.25082666015625,2.2590155601501465,-3.5115928649902344,3.305346965789795
1697664269069418800,7.260418701171875,1.2757971286773682,-2.2250795364379883,1.646813988685608
1697664269079011300,7.27001123046875,0.49184441566467285,-0.8079166412353516,0.4896191358566284
1697664269088605000,7.27960498046875,0.28434324264526367,0.9625205993652344,-0.9197795391082764
1697664269098197500,7.289197509765625,0.28455162048339844,2.4346818923950195,-2.505828380584717
1697664269107789600,7.29878955078125,0.3608914613723755,2.932380199432373,-4.336264610290527
1697664269117382400,7.30838232421875,0.38188862800598145,2.128239154815674,-5.815245151519775
1697664269126976000,7.31797607421875,-0.8571339845657349,1.2814035415649414,-6.108735084533691
1697664269136568600,7.327568603515625,-3.022240400314331,0.19985294342041016,-5.259554862976074
1697664269146160600,7.33716064453125,-5.304782867431641,-1.566751480102539,-4.55938720703125
1697664269155753500,7.34675341796875,-7.637444972991943,-4.764853477478027,-4.051140308380127
1697664269165346800,7.356346923828125,-8.821670532226562,-8.046624183654785,-4.371750354766846
1697664269174939600,7.365939697265625,-8.557698249816895,-10.789610862731934,-4.28460168838501
1697664269184531500,7.375531494140625,-7.41023588180542,-11.678858757019043,-3.287735939025879
1697664269194124300,7.385124267578125,-5.4566192626953125,-11.34058666229248,-1.492480993270874
1697664269203718000,7.3947177734375,-1.6975346803665161,-9.664024353027344,0.5807809829711914
1697664269213310500,7.404310546875,2.061795711517334,-7.440495491027832,1.9432016611099243
1697664269222902500,7.413902587890625,3.3573291301727295,-5.000975608825684,3.5201358795166016
1697664269232495000,7.4234951171875,5.17467737197876,-1.9775266647338867,4.075355529785156
1697664269242088700,7.433088623046875,3.822388172149658,-0.2597217559814453,5.3431878089904785
1697664269251681500,7.442681640625,1.8419829607009888,1.1830120086669922,6.5243120193481445
1697664269261273300,7.4522734375,0.1045231819152832,3.0732364654541016,6.170597553253174
1697664269270866200,7.4618662109375,-1.8333293199539185,4.4775214195251465,5.133431911468506
1697664269280459800,7.471459716796875,-2.56896710395813,5.711897373199463,3.2783806324005127
1697664269290052400,7.48105224609375,-2.278780937194824,6.793789863586426,2.131204605102539
1697664269299644400,7.49064453125,-2.101107120513916,7.158228397369385,1.238756537437439
1697664269309237200,7.5002373046875,-2.0304131507873535,6.901079177856445,0.21266694366931915
1697664269318830600,7.50983056640625,-2.3695993423461914,6.521576881408691,0.07949566841125488
1697664269328423400,7.51942333984375,-1.6768118143081665,6.730007171630859,0.2913220226764679
1697664269338015200,7.52901513671875,-1.581738829612732,7.373128414154053,0.666345477104187
1697664269347608000,7.538608154296875,-2.1109116077423096,7.581482887268066,1.3761121034622192
1697664269357201700,7.54820166015625,-1.9595465660095215,6.98129415512085,2.2428722381591797
1697664269366794200,7.557794189453125,-0.8681764006614685,5.774707794189453,2.536062240600586
1697664269376386300,7.56738623046875,0.510749876499176,4.275699615478516,1.973139762878418
1697664269385979000,7.576978759765625,1.2593293190002441,2.3076210021972656,0.8676835298538208
1697664269395572500,7.586572509765625,1.0812067985534668,0.5747451782226562,0.3248217701911926
1697664269405165300,7.596165283203125,0.9332541227340698,0.2097187042236328,0.5814331769943237
1697664269414757000,7.605757080078125,1.2105510234832764,0.35854339599609375,0.4270194172859192
1697664269424350000,7.615349853515625,0.8969495892524719,0.21545886993408203,1.1189520359039307
1697664269433943600,7.624943603515625,1.5382685661315918,-0.32693958282470703,2.61930775642395
1697664269443536100,7.6345361328125,2.660306692123413,-1.5541563034057617,3.6320321559906006
1697664269453128200,7.644128173828125,3.1887059211730957,-3.691953659057617,2.834163188934326
1697664269462721000,7.653720947265625,3.362215280532837,-4.4909772872924805,-0.2768602967262268
1697664269472314400,7.663314453125,3.1129395961761475,-5.429159164428711,-3.282011032104492
1697664269481907200,7.6729072265625,5.07383918762207,-5.257652282714844,-3.090435266494751
1697664269491499000,7.6824990234375,4.387321949005127,-3.2141904830932617,-1.6195546388626099
1697664269501091800,7.692091796875,1.7477595806121826,-2.526521682739258,-0.4406384825706482
1697664269510685400,7.701685546875,-0.8626068830490112,-3.5044212341308594,0.127020925283432
1697664269520278000,7.711278076171875,-1.788111686706543,-3.865017890930176,-1.0119004249572754
1697664269529870000,7.7208701171875,0.37308794260025024,-4.91313362121582,-0.6025260090827942
1697664269539463000,7.730462890625,-3.652573585510254,-8.354494094848633,-0.14974620938301086
1697664269549056300,7.74005615234375,-6.967191696166992,-8.70022964477539,0.04978157579898834
1697664269558649000,7.749649169921875,-6.177318572998047,-4.85710334777832,-1.53252112865448
1697664269568241000,7.759240966796875,-5.829291820526123,-2.824991226196289,-1.682444453239441
1697664269577833700,7.768833740234375,-6.330137252807617,-1.8663339614868164,-2.032902956008911
1697664269587427300,7.77842724609375,-5.590945243835449,-0.934809684753418,-1.269523024559021
1697664269597020000,7.78802001953125,-5.04157018661499,-0.8305912017822266,-1.3434292078018188
1697664269606612000,7.797612060546875,-4.684635639190674,-2.427244186401367,-1.5334460735321045
1697664269616204800,7.807204833984375,-3.071897029876709,-4.78099250793457,0.1816573143005371
1697664269625798400,7.81679833984375,-0.9148728251457214,-4.825008392333984,1.1869525909423828
1697664269635391000,7.826390869140625,25.983427047729492,-2.050539016723633,-18.785465240478516
1697664269644983000,7.835983154296875,-12.387775421142578,-9.462477684020996,-5.0345916748046875
1697664269654575600,7.84557568359375,-8.803976058959961,-3.9170475006103516,-0.5822310447692871
1697664269664169200,7.855169189453125,-17.570322036743164,-3.606114387512207,-8.955072402954102
1697664269673762000,7.864761962890625,-19.05255889892578,-3.0545082092285156,-7.1135993003845215
1697664269683353900,7.874353759765625,-17.731460571289062,1.2362213134765625,-4.930515289306641
1697664269692946700,7.88394677734375,-16.488224029541016,4.749935626983643,-3.440990686416626
1697664269702540300,7.893540283203125,-13.480188369750977,5.157732963562012,-0.08373069763183594
1697664269712132900,7.9031328125,-5.494795322418213,4.961443901062012,1.2836042642593384
1697664269721725000,7.912724853515625,0.06968569755554199,5.229379653930664,-0.07271230220794678
1697664269731317200,7.922317138671875,14.80087661743164,6.443273544311523,-3.4217989444732666
1697664269740910800,7.931910888671875,25.542797088623047,7.992781639099121,-6.443349838256836
1697664269750503700,7.941503662109375,21.653242111206055,5.700788497924805,-3.568744659423828
1697664269760095500,7.951095458984375,11.890347480773926,3.228571891784668,-0.7808195352554321
1697664269769688300,7.960688232421875,4.33408260345459,2.8914084434509277,-0.7384456396102905
1697664269779281700,7.97028173828125,-2.71883225440979,4.247776508331299,-2.9328982830047607
1697664269788874500,7.97987451171875,-4.771914005279541,4.093602180480957,-3.6831064224243164
1697664269798466600,7.989466552734375,-4.734327793121338,2.703758716583252,-3.562004327774048
1697664269808059100,7.99905908203125,-2.569866418838501,0.2180318832397461,-2.47265625
1697664269817652700,8.00865283203125,-0.5168126821517944,-2.0917625427246094,-1.6224316358566284
1697664269827245600,8.01824560546875,-0.7228710651397705,-4.127805709838867,-1.2143638134002686
1697664269836837400,8.02783740234375,0.98784339427948,-4.69232177734375,-1.4232999086380005
1697664269846430200,8.03743017578125,2.1760082244873047,-4.661395072937012,-0.6654374599456787
1697664269856023800,8.04702392578125,3.948157787322998,-3.947890281677246,1.0866777896881104
1697664269865616400,8.056616455078125,5.527561187744141,-2.2748498916625977,3.1278200149536133
1697664269875208400,8.06620849609375,4.8678693771362305,0.12065601348876953,4.28108024597168
1697664269884801000,8.075801025390625,4.884778022766113,2.112031936645508,4.921806335449219
1697664269894394600,8.08539453125,5.137338638305664,3.5195960998535156,4.946899890899658
1697664269903987500,8.094987548828126,4.386932373046875,4.333953380584717,5.029340744018555
1697664269913579300,8.104579345703126,3.7958173751831055,4.418504238128662,5.545871257781982
1697664269923172000,8.114172119140624,2.8307876586914062,3.634006977081299,5.9223151206970215
1697664269932765700,8.123765625,2.7198851108551025,1.9800481796264648,6.0577545166015625
1697664269942358300,8.133358154296875,3.2431788444519043,-0.022708892822265625,6.126089572906494
1697664269951950300,8.142950439453125,4.030681133270264,-1.6778688430786133,5.650859355926514
1697664269961543000,8.15254296875,4.752602577209473,-2.933269500732422,4.699872016906738
1697664269971136500,8.162136474609374,5.03854513168335,-3.7293853759765625,3.7338953018188477
1697664269980729300,8.171729248046875,4.5649309158325195,-4.171120643615723,3.0618762969970703
1697664269990321200,8.181321044921875,3.144510269165039,-3.031984329223633,2.6678929328918457
1697664269999914000,8.1909140625,1.4094936847686768,-1.2223472595214844,3.045032024383545
1697664270009507600,8.200507568359376,0.7692283391952515,-1.6814765930175781,2.698519706726074
1697664270019100200,8.21010009765625,0.6433670520782471,-2.4244956970214844,1.1044204235076904
1697664270028692200,8.219692138671874,-0.09549844264984131,-1.4715490341186523,-0.341117262840271
1697664270038285000,8.22928515625,-0.128365159034729,-0.438232421875,-1.0090255737304688
1697664270047878700,8.238878662109375,0.04289209842681885,0.27081871032714844,-1.6325894594192505
1697664270057471200,8.24847119140625,-0.6260074377059937,0.9189395904541016,-2.39725399017334
1697664270067063300,8.258063232421875,-2.274679183959961,1.7026920318603516,-3.287372350692749
1697664270076656000,8.26765625,-4.212824821472168,1.9295001029968262,-3.2237305641174316
1697664270086249500,8.27724951171875,-6.465901851654053,1.7374086380004883,-2.609126091003418
1697664270095842300,8.28684228515625,-7.285048007965088,0.41411590576171875,-2.284336566925049
1697664270105434000,8.29643408203125,-7.549379825592041,-2.571599006652832,-2.051584243774414
1697664270115027000,8.30602685546875,-7.532531261444092,-5.8065385818481445,-3.5726242065429688
1697664270124620500,8.31562060546875,-5.154841899871826,-7.865109443664551,-5.01856803894043
1697664270134213000,8.325213134765624,-1.2413051128387451,-9.711297988891602,-5.007537364959717
1697664270143805200,8.33480517578125,2.9417226314544678,-11.631815910339355,-3.223832130432129
1697664270153398000,8.34439794921875,3.504246234893799,-11.305147171020508,-0.7152019739151001
1697664270162991400,8.353991455078125,1.170314073562622,-8.07114315032959,3.1274218559265137
1697664270172584200,8.363584228515625,-1.0365798473358154,-3.8338756561279297,4.17280387878418
1697664270182176000,8.373176025390626,-2.6836953163146973,-0.22185516357421875,3.457916498184204
1697664270191768800,8.382768798828126,-3.4384374618530273,2.9883008003234863,4.223430156707764
1697664270201362400,8.392362548828125,-2.794818639755249,5.544681072235107,4.498378753662109
1697664270210955000,8.401955078125,-1.518640398979187,6.436903953552246,3.116936206817627
1697664270220547000,8.411547119140625,0.4661077558994293,6.596920967102051,2.6360559463500977
1697664270230140000,8.421139892578125,0.9017701745033264,5.868529319763184,2.747328996658325
1697664270239733500,8.4307333984375,1.2167328596115112,5.1589274406433105,2.076205253601074
1697664270249326000,8.440326171875,1.8748376369476318,5.118156909942627,0.7228702306747437
1697664270258918100,8.449918212890625,1.7084450721740723,4.888027667999268,-0.2612430453300476
1697664270268510700,8.4595107421875,1.836705207824707,4.436151027679443,-0.8837065100669861
1697664270278104300,8.469104248046875,2.709343910217285,3.892416477203369,-0.8078317642211914
1697664270287697200,8.478697265625,2.6707754135131836,3.2642407417297363,-0.09072283655405045
1697664270297289000,8.4882890625,2.466834306716919,2.702080249786377,0.915462851524353
1697664270306881800,8.4978818359375,2.194634199142456,2.2008285522460938,1.8273115158081055
1697664270316475400,8.507475341796875,1.5099745988845825,1.5857677459716797,1.8748257160186768
1697664270326068000,8.51706787109375,0.841212272644043,1.3083629608154297,1.318103313446045
1697664270335660000,8.526659912109375,0.9106423258781433,1.296030044555664,0.842598021030426
1697664270345252900,8.5362529296875,0.9755650758743286,1.4595584869384766,0.7479408979415894
1697664270354846200,8.54584619140625,0.8611988425254822,1.967811107635498,0.9695307016372681
1697664270364439000,8.55543896484375,1.4125392436981201,2.323216438293457,2.4225521087646484
1697664270374030800,8.56503076171875,1.11016845703125,2.1418886184692383,3.9818344116210938
1697664270383623700,8.574623779296875,0.7943964600563049,1.2728080749511719,4.411429405212402
1697664270393217300,8.58421728515625,1.5871210098266602,0.4642496109008789,4.414623260498047
1697664270402809900,8.593809814453126,2.9441661834716797,-0.18673419952392578,4.017023086547852
1697664270412402000,8.60340185546875,3.34835147857666,-0.7470026016235352,2.6764395236968994
1697664270421994800,8.612994873046874,0.5860270857810974,-1.6212072372436523,0.5282525420188904
1697664270431588400,8.62258837890625,1.4722356796264648,-2.279280662536621,-0.6909564733505249
1697664270441181000,8.632180908203125,1.9216103553771973,-2.4901294708251953,0.25555741786956787
1697664270450773000,8.64177294921875,1.5263192653656006,-2.3797378540039062,1.052738904953003
1697664270460365600,8.651365478515626,0.4156162738800049,-3.368570327758789,0.6532232761383057
1697664270469959200,8.660959228515624,-0.45582953095436096,-4.305931091308594,-1.3687071800231934
1697664270479552000,8.670552001953125,-2.388967752456665,-7.527314186096191,-1.7432169914245605
1697664270489143800,8.680143798828125,-6.465034008026123,-9.95869255065918,-2.077552080154419
1697664270498736600,8.689736572265625,-9.845002174377441,-9.581779479980469,-3.240779161453247
1697664270508330200,8.699330322265626,-8.776287078857422,-7.275036811828613,-1.7346526384353638
1697664270517922800,8.7089228515625,-6.602406024932861,-3.186483383178711,-4.08978271484375
1697664270527515000,8.718514892578124,-3.0235683917999268,-0.7970466613769531,-4.1230950355529785
1697664270537107700,8.728107666015624,-2.795213460922241,-1.6857500076293945,-1.9901022911071777
1697664270546701000,8.737701171875,-1.271073341369629,-3.78128719329834,-0.7575370669364929
1697664270556294000,8.7472939453125,1.1934130191802979,-4.734829902648926,-2.288879632949829
1697664270565885700,8.7568857421875,2.7328522205352783,-3.603846549987793,-6.6598310470581055
1697664270575478500,8.766478515625,-0.8399307727813721,-2.4574880599975586,-5.296383857727051
1697664270585072000,8.776072021484374,-6.202446937561035,-1.7947015762329102,-0.1800059974193573
1697664270594664700,8.785664794921875,-5.244874477386475,-0.43242454528808594,-2.304738998413086
1697664270604256800,8.7952568359375,-4.793433666229248,-0.08535194396972656,-3.361191749572754
1697664270613849600,8.804849609375,-4.2026848793029785,0.34427642822265625,-4.235934257507324
1697664270623443200,8.814443115234376,-3.7202534675598145,0.8572463989257812,-5.182987213134766
1697664270633035800,8.824035888671874,-2.6280879974365234,0.5991430282592773,-5.312660217285156
1697664270642627800,8.8336279296875,-0.7026965618133545,-0.09141731262207031,-4.865743637084961
1697664270652220400,8.843220458984375,2.0892109870910645,-0.6947422027587891,-3.3575375080108643
1697664270661814000,8.85281396484375,4.0723700523376465,-0.49576473236083984,-2.17631196975708
1697664270671406800,8.86240673828125,4.885014533996582,0.727412223815918,-1.701277732849121
1697664270680998700,8.87199853515625,5.441456317901611,2.638408660888672,-2.3647103309631348
1697664270690591500,8.881591552734376,5.272249698638916,4.189615249633789,-1.5127569437026978
1697664270700185000,8.89118505859375,4.6457929611206055,5.476990699768066,-0.8506501317024231
1697664270709777700,8.900777587890625,4.303981304168701,6.383697032928467,-0.8050031661987305
1697664270719369700,8.91036962890625,3.2809791564941406,6.730259418487549,-0.8074320554733276
1697664270728962300,8.91996240234375,1.8519848585128784,6.587648391723633,-0.641822099685669
1697664270738556000,8.929555908203126,0.13109028339385986,5.766219139099121,-0.7726542949676514
1697664270748148700,8.939148681640624,-1.0600156784057617,4.060618877410889,-0.27557992935180664
1697664270757740500,8.948740478515624,-2.0085721015930176,1.8415093421936035,-0.5353653430938721
1697664270767333400,8.95833349609375,-2.1711065769195557,-0.5377035140991211,-1.6719664335250854
1697664270776927000,8.967927001953125,-0.6773173809051514,-2.2541866302490234,-2.9005398750305176
1697664270786519600,8.97751953125,1.5729576349258423,-3.0171566009521484,-2.851655960083008
1697664270796111600,8.987111572265626,3.0005359649658203,-2.860353469848633,-2.2079076766967773
1697664270805704400,8.996704345703124,3.9859414100646973,-1.741180419921875,-0.7652207612991333
1697664270815298000,9.006298095703125,4.716053009033203,-0.05729198455810547,1.378803014755249
1697664270824890600,9.015890625,5.292468070983887,1.6282129287719727,3.6306557655334473
1697664270834482700,9.025482666015625,5.518083095550537,3.0500926971435547,4.998818874359131
1697664270844075300,9.0350751953125,5.520760536193848,3.744919776916504,5.660717964172363
1697664270853668900,9.0446689453125,5.422895431518555,3.7588553428649902,6.00761604309082
1697664270863261700,9.05426171875,4.590529441833496,3.522757053375244,5.758788108825684
1697664270872853500,9.063853515625,3.826658248901367,3.027019500732422,4.977700710296631
1697664270882446300,9.0734462890625,2.9980523586273193,1.9296503067016602,3.8251595497131348
1697664270892040000,9.0830400390625,2.442202091217041,0.21159839630126953,3.093432664871216
1697664270901632500,9.092632568359376,2.300873279571533,-1.6053028106689453,2.9044833183288574
1697664270911224600,9.102224609375,2.6690621376037598,-2.9388723373413086,3.177515983581543
1697664270920817400,9.1118173828125,3.2637648582458496,-3.801492691040039,3.567808151245117
1697664270930410800,9.12141064453125,4.053898811340332,-4.246345520019531,3.8027262687683105
1697664270940003600,9.131003662109375,4.770604133605957,-3.731903076171875,3.7104692459106445
1697664270949595600,9.140595703125,4.831732749938965,-1.9292411804199219,3.505601406097412
1697664270959188200,9.150188232421876,3.6381068229675293,0.9165821075439453,4.164267063140869
1697664270968781800,9.15978173828125,1.9993659257888794,1.9010801315307617,3.517632484436035
1697664270978374700,9.169374755859375,0.7491632699966431,0.7839574813842773,2.2914445400238037
1697664270987966500,9.178966552734375,-1.422562837600708,-0.33774566650390625,1.983525276184082
1697664270997559300,9.188559326171875,-3.053368091583252,-0.5682401657104492,0.7379856705665588
1697664271007153000,9.19815283203125,-3.809817314147949,-1.213028907775879,-1.0132962465286255
1697664271016745500,9.207745361328126,-4.652341365814209,-0.9742908477783203,-3.506178379058838
1697664271026337500,9.217337646484374,-2.3303475379943848,-2.3835744857788086,-4.2927680015563965
1697664271035930400,9.226930419921874,-3.4072484970092773,-2.228011131286621,-5.023632049560547
1697664271045523700,9.236523681640625,-4.48820686340332,-2.1029653549194336,-5.55717658996582
1697664271055116500,9.246116455078125,-4.810780048370361,-2.592754364013672,-5.5337605476379395
1697664271064708400,9.255708251953125,-3.8558311462402344,-4.5287065505981445,-4.371784687042236
1697664271074301200,9.26530126953125,-3.317117214202881,-9.658299446105957,-4.073131561279297
1697664271083894800,9.274894775390624,-4.261458873748779,-13.02999210357666,-5.891017913818359
1697664271093487400,9.2844873046875,-4.827539443969727,-13.057731628417969,-5.292916774749756
1697664271103079400,9.294079345703125,-4.700178623199463,-10.767732620239258,-1.9733530282974243
1697664271112672300,9.30367236328125,-4.170679092407227,-6.581223487854004,1.5612834692001343
1697664271122265900,9.313265869140626,-3.7632734775543213,-2.40572452545166,4.088637351989746
1697664271131858400,9.3228583984375,-4.120996475219727,0.5466794967651367,4.944422245025635
1697664271141450500,9.332450439453124,-3.271495819091797,1.7455015182495117,4.853340148925781
1697664271151043000,9.34204296875,-1.1281239986419678,2.467280864715576,5.055809020996094
1697664271160636700,9.35163671875,0.2969015836715698,3.0327649116516113,5.434234619140625
1697664271170229500,9.3612294921875,-0.2344089150428772,2.918550491333008,5.171203136444092
1697664271179821300,9.3708212890625,0.8923713564872742,3.5461783409118652,4.928455352783203
1697664271189414100,9.3804140625,1.2890905141830444,4.499758243560791,4.298442840576172
1697664271199007700,9.3900078125,0.7350937724113464,5.312017917633057,1.745601773262024
1697664271208600300,9.399600341796875,0.5954775810241699,5.6229352951049805,-0.6577024459838867
1697664271218192400,9.4091923828125,1.9453366994857788,5.391496658325195,-1.0001627206802368
1697664271227785000,9.418784912109375,2.040546417236328,4.918272972106934,-1.169172763824463
1697664271237378600,9.428378662109376,1.334346055984497,4.218908309936523,-1.0026057958602905
1697664271246971400,9.437971435546874,1.1485050916671753,3.4855146408081055,-0.2214599996805191
1697664271256563200,9.447563232421874,0.6962646245956421,2.780606269836426,0.3520013093948364
1697664271266156000,9.457156005859375,0.45071613788604736,2.2022852897644043,0.7993186712265015
1697664271275749600,9.46674951171875,0.4429047703742981,1.6739301681518555,1.2494205236434937
1697664271285342200,9.47634228515625,0.6121684312820435,1.5965862274169922,1.5868463516235352
1697664271294934300,9.485934326171876,0.6419157981872559,0.8011465072631836,2.442676544189453
1697664271304527000,9.495527099609374,0.12480482459068298,0.693511962890625,2.7004356384277344
1697664271314120700,9.50512060546875,-0.28262919187545776,1.1355171203613281,3.01899790763855
1697664271323713300,9.51471337890625,-0.6394884586334229,0.8261260986328125,4.062867641448975
1697664271333305300,9.524305419921875,-0.14905975759029388,0.8080053329467773,5.097988128662109
1697664271342898000,9.53389794921875,1.271248459815979,1.1949739456176758,5.16878604888916
1697664271352491500,9.543491455078126,2.5671119689941406,1.253096580505371,4.485177993774414
1697664271362084400,9.55308447265625,3.3864827156066895,0.4128122329711914,3.4359140396118164
1697664271371676200,9.56267626953125,3.492760181427002,-0.5566902160644531,2.344392776489258
1697664271381269000,9.57226904296875,2.8696811199188232,-1.2727975845336914,0.9131723046302795
1697664271390862600,9.581862548828125,2.379298686981201,-2.010730743408203,-0.9646068215370178
1697664271400455200,9.591455078125,2.9611732959747314,-2.013369560241699,-2.311643123626709
1697664271410047200,9.601047119140626,3.7699642181396484,-0.9505996704101562,-3.291633129119873
1697664271419640000,9.61064013671875,3.292410373687744,-0.5542583465576172,-3.3929038047790527
1697664271429233400,9.6202333984375,0.7404731512069702,-2.167896270751953,-3.5749597549438477
1697664271438826200,9.629826171875,-1.0196805000305176,-3.8098573684692383,-4.891422271728516
1697664271448418300,9.639418212890625,-4.158173561096191,-4.877044677734375,-4.238039493560791
1697664271458011000,9.649010986328125,-6.860560417175293,-7.130470275878906,-3.4194493293762207
1697664271467604500,9.6586044921875,-7.232845783233643,-7.802530288696289,-4.980497360229492
1697664271477197300,9.668197265625,-4.868647575378418,-7.440187454223633,-4.194507598876953
1697664271486789000,9.6777890625,1.4028996229171753,-5.133469581604004,-5.880553245544434
1697664271496382000,9.6873818359375,11.24234390258789,-3.7543039321899414,-9.175097465515137
1697664271505975600,9.6969755859375,-7.177420616149902,-3.1101303100585938,1.1735343933105469
1697664271515568000,9.706568115234376,-8.480114936828613,-2.3406076431274414,2.0328731536865234
1697664271525160200,9.71616015625,-8.81926441192627,-2.2891979217529297,2.312371015548706
1697664271534752800,9.725752685546874,-8.206619262695312,-0.9958009719848633,0.021394073963165283
1697664271544346400,9.735346435546875,-6.997992515563965,-0.5650320053100586,-2.1289713382720947
1697664271553939200,9.744939208984375,-5.075346946716309,-0.6985292434692383,-3.361522674560547
1697664271563531000,9.754531005859375,-1.9148939847946167,-0.7851037979125977,-3.5982251167297363
1697664271573123800,9.764123779296876,0.8171637058258057,-0.945155143737793,-4.339047908782959
1697664271582717400,9.773717529296874,2.1038594245910645,-0.6759471893310547,-5.758800029754639
1697664271592310000,9.78331005859375,1.8198045492172241,-0.19431781768798828,-7.008887767791748
1697664271601902000,9.792902099609375,0.5024953484535217,-0.6330995559692383,-7.15617561340332
1697664271611495000,9.802494873046875,0.33153772354125977,-1.1227331161499023,-5.935839653015137
1697664271621088300,9.812088134765625,1.5931793451309204,-0.9052305221557617,-3.3265817165374756
1697664271630681000,9.82168115234375,2.351688861846924,-0.1210031509399414,-1.5657858848571777
1697664271640273200,9.831273193359374,2.601889133453369,1.0774316787719727,-0.8659462928771973
1697664271649865700,9.84086572265625,3.2904391288757324,2.673567295074463,-0.2994123101234436
1697664271659459300,9.850459228515625,3.403477907180786,3.8976597785949707,0.2822945713996887
1697664271669052200,9.86005224609375,3.3489112854003906,4.714693546295166,0.38190966844558716
1697664271678644000,9.86964404296875,3.310870885848999,5.326138973236084,0.011474311351776123
1697664271688236800,9.87923681640625,3.237962484359741,5.70313835144043,-0.4182746410369873
1697664271697830400,9.888830322265624,2.6368584632873535,6.0503411293029785,-1.0795221328735352
1697664271707423000,9.898423095703125,1.448474407196045,5.8500823974609375,-1.269320011138916
1697664271717015000,9.90801513671875,0.2377990484237671,5.006687641143799,-1.0314710140228271
1697664271726608000,9.91760791015625,-0.42000484466552734,3.750535488128662,-0.7221039533615112
1697664271736201200,9.927201171875,-0.780832052230835,2.2735118865966797,-1.0736465454101562
1697664271745794000,9.9367939453125,-0.3167393207550049,0.9539594650268555,-1.9663026332855225
1697664271755385900,9.9463857421875,0.7752771377563477,0.22810745239257812,-2.7266855239868164
1697664271764978700,9.955978759765625,2.4562790393829346,-0.27764129638671875,-2.277818202972412
1697664271774572300,9.965572265625,3.3974952697753906,-0.6357154846191406,-1.3139530420303345
1697664271784164900,9.975164794921875,3.7407383918762207,-0.44925498962402344,-0.17797815799713135
1697664271793757000,9.9847568359375,3.9875054359436035,-0.051296234130859375,1.3235584497451782
1697664271803349800,9.994349853515626,4.25529146194458,0.08775901794433594,2.964665412902832
1697664271812943000,10.003943115234375,4.806086540222168,0.17409133911132812,4.301262855529785
1697664271822536000,10.013535888671875,4.922926902770996,0.35050106048583984,5.029041767120361
1697664271832128000,10.0231279296875,4.607144355773926,0.6298322677612305,5.136255741119385
1697664271841720600,10.032720458984375,3.8242475986480713,1.1302461624145508,4.993714332580566
1697664271851314200,10.042314208984376,2.4480161666870117,1.381636619567871,5.240926265716553
1697664271860907000,10.051906982421874,2.9907917976379395,1.4490299224853516,5.230735778808594
1697664271870498800,10.061498779296874,1.7353318929672241,0.8284692764282227,4.736278533935547
1697664271880091600,10.071091552734375,0.9681040048599243,0.09561347961425781,3.3143694400787354
1697664271889685200,10.080685302734375,0.792883038520813,-1.1347637176513672,2.578178882598877
1697664271899277800,10.09027783203125,1.7184865474700928,-2.669644355773926,2.1691339015960693
1697664271908870000,10.099869873046876,3.0477092266082764,-3.8560800552368164,2.025690793991089
1697664271918462700,10.109462646484374,4.1987810134887695,-4.218865394592285,2.2554595470428467
1697664271928056000,10.11905615234375,4.374917984008789,-3.5555410385131836,2.2769131660461426
1697664271937649000,10.12864892578125,3.8391757011413574,-2.2755613327026367,2.5718111991882324
1697664271947240700,10.13824072265625,3.4420347213745117,-0.6201238632202148,2.566094398498535
1697664271956833500,10.14783349609375,1.973297119140625,-0.2088031768798828,2.116452217102051
1697664271966427100,10.15742724609375,0.3583998680114746,-1.0246152877807617,1.6350529193878174
1697664271976019700,10.167019775390624,-0.5190284252166748,-0.8221597671508789,0.8556185364723206
1697664271985611800,10.17661181640625,-1.4019551277160645,0.20616436004638672,-0.4456294775009155
1697664271995204600,10.18620458984375,-1.6841962337493896,1.0695552825927734,-1.3866169452667236
1697664272004798000,10.1957978515625,-1.8024134635925293,1.4818897247314453,-2.310781717300415
1697664272014390800,10.205390869140626,-2.0263917446136475,1.1141033172607422,-3.4114627838134766
1697664272023982600,10.214982666015626,-2.065746784210205,0.4860725402832031,-4.507715225219727
1697664272033575400,10.224575439453124,-1.7134681940078735,-0.39573192596435547,-5.225776195526123
1697664272043169000,10.2341689453125,-0.8111798763275146,-1.9328317642211914,-5.630894660949707
1697664272052761900,10.243761962890625,0.19199752807617188,-4.54680061340332,-5.673808574676514
1697664272062353700,10.253353759765625,-0.13489067554473877,-6.42872428894043,-5.8212995529174805
1697664272071946500,10.262946533203126,-1.3361225128173828,-9.415547370910645,-4.428806304931641
1697664272081539800,10.272539794921874,-4.171565055847168,-10.222125053405762,-3.7820026874542236
1697664272091132700,10.282132568359375,-5.716668605804443,-8.171982765197754,-1.6391410827636719
1697664272100724700,10.291724853515625,-6.322314262390137,-5.585016250610352,0.8483289480209351
1697664272110317300,10.3013173828125,-6.595335006713867,-2.6818695068359375,2.188844919204712
1697664272119911000,10.310910888671875,-5.870700836181641,0.0766916275024414,1.4823088645935059
1697664272129503700,10.320503662109376,-5.188709735870361,0.9219388961791992,1.6449761390686035
1697664272139095600,10.330095458984376,-3.6754872798919678,1.5642786026000977,2.9222769737243652
1697664272148688400,10.3396884765625,-1.2160849571228027,1.8714275360107422,5.835361957550049
1697664272158282000,10.349281982421875,0.6666231155395508,2.1855735778808594,7.126142978668213
1697664272167874600,10.35887451171875,1.0869426727294922,2.1592178344726562,6.243691921234131
1697664272177466600,10.368466552734375,0.9147270917892456,2.047883987426758,4.404241561889648
1697664272187059200,10.37805908203125,1.421248435974121,2.3866806030273438,2.6336073875427246
1697664272196652800,10.38765283203125,2.0122480392456055,3.3253865242004395,1.0788874626159668
1697664272206245600,10.39724560546875,2.018541097640991,4.380609512329102,-0.1852559596300125
1697664272215837400,10.40683740234375,1.7970502376556396,5.079721450805664,-1.0855731964111328
1697664272225430300,10.41643017578125,1.6381711959838867,5.486067295074463,-1.2754533290863037
1697664272235024000,10.42602392578125,1.464918851852417,5.359476566314697,-1.7544803619384766
1697664272244616400,10.435616455078126,1.428243637084961,4.615403175354004,-1.994265079498291
1697664272254208500,10.44520849609375,1.1283100843429565,3.7614235877990723,-1.8330321311950684
1697664272263801000,10.454801025390625,0.9029982089996338,3.4328222274780273,-1.7621747255325317
1697664272273394700,10.464394775390625,0.6354696750640869,3.133758544921875,-1.5342093706130981
1697664272282987500,10.473987548828125,0.16459307074546814,2.7277631759643555,-1.1337361335754395
1697664272292579300,10.483579345703125,-0.18962791562080383,2.2481765747070312,-0.5855618119239807
1697664272302172200,10.493172119140626,-0.23575010895729065,1.8882322311401367,0.42421674728393555
1697664272311765800,10.502765869140624,-0.03945434093475342,1.6546459197998047,1.9232391119003296
1697664272321358300,10.5123583984375,0.5723057985305786,1.3206043243408203,3.350992441177368
1697664272330950400,10.521950439453125,1.6128041744232178,0.7223615646362305,4.04503059387207
1697664272340543200,10.531543212890625,2.0187153816223145,-0.21994400024414062,3.941694498062134
1697664272350136800,10.54113671875,2.2599565982818604,-0.7290134429931641,2.5833520889282227
1697664272359729400,10.5507294921875,2.4817464351654053,-1.0015907287597656,0.6282567977905273
1697664272369321500,10.560321533203124,2.8404035568237305,-1.5373430252075195,-0.5000614523887634
1697664272378914300,10.569914306640625,3.63572359085083,-1.6742639541625977,-0.6748704314231873
1697664272388507600,10.579507568359375,5.041114330291748,-1.260782241821289,-0.03202507644891739
1697664272398100500,10.5891005859375,5.248019695281982,-1.0225448608398438,0.49614259600639343
1697664272407692300,10.5986923828125,4.399828910827637,-1.6740751266479492,0.927707314491272
1697664272417285000,10.60828515625,2.5419299602508545,-3.0396108627319336,1.2559031248092651
1697664272426878700,10.617878662109375,-0.7898602485656738,-5.53542423248291,1.2456769943237305
1697664272436471300,10.62747119140625,-3.6385626792907715,-8.530206680297852,0.24848240613937378
1697664272446063400,10.6370634765625,-5.836142063140869,-10.802116394042969,-1.5617694854736328
1697664272455656200,10.64665625,-5.157687187194824,-11.340625762939453,-2.3182482719421387
1697664272465249500,10.65624951171875,-7.696285724639893,-8.86489486694336,-5.088873863220215
1697664272474842400,10.66584228515625,-6.723154067993164,-4.772066116333008,-6.14735746383667
1697664272484434200,10.67543408203125,1.948542594909668,-0.7902240753173828,-8.42396354675293
1697664272494027000,10.685027099609375,4.247058391571045,-0.7161798477172852,-8.039170265197754
1697664272503620600,10.69462060546875,-6.213171482086182,-2.140216827392578,3.1908841133117676
1697664272513213200,10.704213134765626,-5.5789690017700195,-2.557772636413574,1.0736098289489746
1697664272522805200,10.71380517578125,-6.0125322341918945,-2.3443078994750977,-0.30878371000289917
1697664272532397800,10.723397705078124,-4.832348823547363,-1.4922828674316406,-1.81287682056427
1697664272541991400,10.732991455078125,-2.8726441860198975,-1.0020208358764648,-2.622457981109619
1697664272551584300,10.742584228515625,-1.1793711185455322,-0.6812639236450195,-3.010432481765747
1697664272561176000,10.752176025390625,-0.16156542301177979,-0.2657899856567383,-4.06059455871582
1697664272570769000,10.761768798828125,-0.2337353229522705,0.11562347412109375,-6.205069541931152
1697664272580362500,10.771362548828124,-0.6638830900192261,-0.2737150192260742,-7.9905924797058105
1697664272589955000,10.780955078125,-0.29406416416168213,-1.4212970733642578,-7.926544189453125
1697664272599547100,10.790547119140625,1.5842976570129395,-1.9735870361328125,-5.586848735809326
1697664272609140000,10.800139892578125,2.773684501647949,-1.4820747375488281,-2.5248806476593018
1697664272618733600,10.809733642578125,3.6292026042938232,0.41558837890625,-1.5907686948776245
1697664272628326100,10.819326171875,4.177131652832031,2.2246642112731934,-0.1528809368610382
1697664272637918200,10.828918212890626,3.6232731342315674,3.7777228355407715,1.2037365436553955
1697664272647510800,10.8385107421875,3.0603184700012207,4.9215168952941895,1.4762804508209229
1697664272657104400,10.8481044921875,2.4582300186157227,5.557864189147949,1.4688222408294678
1697664272666697000,10.857697021484375,1.8265795707702637,5.973635196685791,0.8708239793777466
1697664272676289000,10.8672890625,1.3058973550796509,6.049082279205322,0.13389801979064941
1697664272685881900,10.8768818359375,0.20188510417938232,5.633893013000488,-0.6415656805038452
1697664272695475200,10.88647509765625,0.19094693660736084,4.589831829071045,-0.7384000420570374
1697664272705068000,10.896068115234375,-0.7177150249481201,2.8055944442749023,-0.24181246757507324
1697664272714660000,10.90566015625,-1.4207792282104492,1.5575370788574219,-1.4669723510742188
1697664272724252700,10.915252685546875,-0.6138052940368652,0.22886943817138672,-2.5678982734680176
1697664272733846300,10.92484619140625,0.4870675802230835,-0.5878629684448242,-3.670823097229004
1697664272743438800,10.93443896484375,1.5589261054992676,-1.0108880996704102,-3.192811965942383
1697664272753031000,10.944031005859374,2.2414519786834717,-1.0408992767333984,-2.280991554260254
1697664272762623700,10.953623779296874,2.9657554626464844,-0.643157958984375,-1.0788508653640747
1697664272772217300,10.96321728515625,3.1922779083251953,0.2361774444580078,0.2509456276893616
1697664272781810000,10.972809814453125,3.697564125061035,1.2374086380004883,1.8347723484039307
1697664272791402000,10.982402099609375,3.6306674480438232,2.160409927368164,2.91253399848938
1697664272800994800,10.991994873046876,4.440542221069336,2.8369531631469727,3.526477813720703
1697664272810588200,11.001588134765624,3.9134066104888916,3.09450626373291,3.304702043533325
1697664272820181000,11.011180908203125,3.9245457649230957,2.969130516052246,2.9653754234313965
1697664272829772800,11.020772705078125,3.858996868133545,2.5214977264404297,2.3830628395080566
1697664272839365600,11.03036572265625,3.6342930793762207,1.7251739501953125,1.7625815868377686
1697664272848959200,11.039959228515626,2.7373878955841064,0.8188552856445312,1.183313250541687
1697664272858551800,11.0495517578125,1.84260892868042,-0.3858175277709961,0.9446560144424438
1697664272868143900,11.059143798828124,1.5714741945266724,-2.0173301696777344,0.9826010465621948
1697664272877736400,11.068736328125,2.11584210395813,-3.555689811706543,1.2160518169403076
1697664272887330000,11.078330078125,2.812340259552002,-4.644749641418457,1.5040781497955322
1697664272896923000,11.0879228515625,3.2538671493530273,-4.712985992431641,1.837751865386963
1697664272906514700,11.0975146484375,2.9025793075561523,-3.412388801574707,2.380493402481079
1697664272916107500,11.107107421875,1.989953637123108,-2.198716163635254,2.2734320163726807
1697664272925701000,11.116701171875,1.3318017721176147,-1.6300830841064453,1.26705801486969
1697664272935293700,11.126293701171875,0.6102935075759888,-1.0680513381958008,0.988027036190033
1697664272944885800,11.1358857421875,-0.12408208847045898,-0.533024787902832,0.9140269756317139
1697664272954478600,11.145478515625,-0.2591404914855957,0.09196186065673828,0.29865652322769165
1697664272964072000,11.155072021484376,0.06244826316833496,0.7832298278808594,-0.5859377384185791
1697664272973664800,11.164664794921874,0.027785301208496094,1.2367429733276367,-1.4283740520477295
1697664272983256600,11.174256591796874,-0.25754666328430176,1.0961341857910156,-1.7953492403030396
1697664272992849400,11.183849365234375,-0.5523704290390015,0.6647453308105469,-2.7097935676574707
1697664273002443000,11.193443115234375,-0.8528413772583008,0.30985069274902344,-3.50557804107666
1697664273012035600,11.20303564453125,-1.3133052587509155,-0.2850303649902344,-4.166245460510254
1697664273021627600,11.212627685546876,-2.0533838272094727,-0.9381437301635742,-4.913338661193848
1697664273031220200,11.22222021484375,-2.3591506481170654,-1.8335628509521484,-5.694525241851807
1697664273040813800,11.231813720703125,-2.256289005279541,-5.416341781616211,-5.309656143188477
1697664273050406700,11.24140673828125,-2.3721163272857666,-8.491836547851562,-5.202753067016602
1697664273059998500,11.25099853515625,-2.6652815341949463,-10.744625091552734,-3.499535322189331
1697664273069591300,11.26059130859375,-4.0304765701293945,-10.104384422302246,-0.8653516173362732
1697664273079185000,11.270184814453126,-5.491013526916504,-6.617870330810547,1.145376205444336
1697664273088777500,11.279777587890624,-6.0974440574646,-2.9390478134155273,2.2505531311035156
1697664273098369500,11.28936962890625,-6.277266502380371,-0.2138843536376953,2.261698007583618
1697664273107962400,11.29896240234375,-6.015871047973633,1.3071508407592773,1.6759190559387207
1697664273117555700,11.3085556640625,-4.530245304107666,1.775979995727539,2.1644539833068848
1697664273127148500,11.3181484375,-1.5720183849334717,2.483501434326172,3.382417678833008
1697664273136740400,11.327740234375,0.3685508966445923,3.0118212699890137,4.660159111022949
1697664273146333200,11.337333251953124,1.0147838592529297,2.9812307357788086,5.2911553382873535
1697664273155926800,11.3469267578125,1.4592311382293701,3.2281570434570312,5.140580177307129
1697664273165519400,11.356519287109375,1.101731538772583,3.500113010406494,3.8755502700805664
1697664273175111400,11.366111328125,1.0882675647735596,3.946773052215576,2.5139687061309814
1697664273184704000,11.3757041015625,1.627434253692627,4.617702960968018,1.4110431671142578
1697664273194297600,11.385297607421874,1.9145370721817017,4.793584823608398,-0.005583528429269791
1697664273203890400,11.394890380859374,2.2007241249084473,4.566835403442383,-1.192588210105896
1697664273213482200,11.404482177734375,2.3989834785461426,3.9652762413024902,-1.7895597219467163
1697664273223075000,11.414074951171875,2.2787325382232666,3.0499820709228516,-2.0436038970947266
1697664273232668700,11.423668701171875,1.9238784313201904,2.1062941551208496,-2.0711450576782227
1697664273242261200,11.43326123046875,1.5415594577789307,1.4473466873168945,-1.9416440725326538
1697664273251853300,11.442853271484376,1.373426079750061,1.0867834091186523,-1.5848742723464966
1697664273261446100,11.452446044921874,1.093171238899231,1.2170124053955078,-1.1568739414215088
1697664273271039500,11.46203955078125,0.4947362542152405,0.9167976379394531,-0.016024738550186157
1697664273280632300,11.47163232421875,-0.461752712726593,0.8506565093994141,0.41330063343048096
1697664273290224000,11.48122412109375,-0.9164570569992065,1.3520851135253906,0.49592286348342896
1697664273299817000,11.49081689453125,-0.9876456260681152,2.1902108192443848,1.146487832069397
1697664273309410600,11.50041064453125,-0.7687622308731079,2.6525135040283203,2.251385450363159
1697664273319003100,11.510003173828125,0.05925247073173523,2.446566581726074,3.7094786167144775
1697664273328595200,11.51959521484375,1.1680841445922852,1.7824602127075195,4.3052473068237305
1697664273338188000,11.52918798828125,1.9832677841186523,0.3372659683227539,4.437131404876709
1697664273347781400,11.538781494140625,1.8864059448242188,-0.8239297866821289,3.259463310241699
1697664273357374200,11.548374267578126,2.429027795791626,-1.6200695037841797,1.9474246501922607
1697664273366966300,11.55796630859375,3.2448153495788574,-2.1758365631103516,0.07311269640922546
1697664273376558800,11.567558837890624,3.1990504264831543,-2.547123908996582,-1.1406922340393066
1697664273386152400,11.57715234375,3.509094476699829,-1.686746597290039,-1.3038325309753418
1697664273395745000,11.5867451171875,3.7677159309387207,-1.057663917541504,-1.1615562438964844
1697664273405337000,11.596337158203125,2.40748929977417,-2.1623544692993164,-1.436736822128296
1697664273414930000,11.605929931640626,1.1513406038284302,-4.430887222290039,-0.4652756154537201
1697664273424523500,11.6155234375,-0.9940681457519531,-6.599169731140137,0.9867510199546814
1697664273434116000,11.6251162109375,-4.1589860916137695,-6.692203521728516,-0.5513240694999695
1697664273443708000,11.6347080078125,-6.41956090927124,-7.122300148010254,-1.6545594930648804
1697664273453300700,11.64430078125,-5.429423809051514,-7.955659866333008,-1.7066668272018433
1697664273462894300,11.653894287109376,-5.330249309539795,-6.487865447998047,-3.474717617034912
1697664273472487000,11.66348681640625,-3.060415744781494,-4.240598678588867,-4.522387981414795
1697664273482079000,11.673078857421874,-0.36056339740753174,-2.4451656341552734,-3.4704508781433105
1697664273491671600,11.682671630859375,-1.9841017723083496,-1.886521339416504,-1.5661423206329346
1697664273501265200,11.69226513671875,-5.454963684082031,-2.455122947692871,0.05257442593574524
1697664273510858000,11.70185791015625,-5.608561992645264,-2.1808128356933594,-0.8969582319259644
1697664273520449800,11.71144970703125,-3.5162954330444336,-1.0463981628417969,-2.830702304840088
1697664273530042600,11.721042724609376,-2.0884203910827637,-0.24057865142822266,-4.025598049163818
1697664273539636200,11.73063623046875,-1.0384726524353027,0.05861473083496094,-4.4152092933654785
1697664273549228800,11.740228759765625,-0.7174758315086365,0.17248249053955078,-4.349398612976074
1697664273558820900,11.74982080078125,-1.2338989973068237,0.466339111328125,-4.9053635597229
1697664273568413700,11.75941357421875,-1.5066784620285034,0.8576602935791016,-5.898556232452393
1697664273578007000,11.769007080078126,-1.1935299634933472,0.6194677352905273,-6.449251174926758
1697664273587600000,11.778599853515624,0.3516939878463745,-0.39675140380859375,-4.597757816314697
1697664273597191700,11.788191650390624,1.5822110176086426,-1.3136043548583984,-2.011730432510376
1697664273606784500,11.797784423828125,2.2641685009002686,-0.7091569900512695,-1.3478449583053589
1697664273616378000,11.807378173828125,3.37923002243042,0.8647546768188477,-0.8928273916244507
1697664273625970700,11.816970703125,3.862853527069092,2.508470058441162,0.09765350818634033
1697664273635562800,11.826562744140626,3.5894646644592285,3.915806770324707,0.5405092835426331
1697664273645155600,11.836155517578124,3.4849514961242676,4.80293083190918,0.7539743781089783
1697664273654749000,11.8457490234375,2.9055047035217285,5.242112159729004,0.795813798904419
1697664273664341800,11.855341796875,2.281134605407715,5.51747989654541,0.1858237385749817
1697664273673933600,11.86493359375,1.4410687685012817,5.3226399421691895,-0.19592249393463135
1697664273683526400,11.8745263671875,0.5429736375808716,4.84399938583374,-0.5339516401290894
1697664273693120000,11.8841201171875,-0.2049403190612793,3.9119324684143066,-0.45740973949432373
1697664273702712600,11.893712646484374,-0.8684954643249512,2.50319766998291,-0.1713782548904419
1697664273712304600,11.9033046875,-0.8782172203063965,0.9387121200561523,-0.7079707384109497
1697664273721897500,11.9128974609375,-0.3147599697113037,-0.4270477294921875,-1.2558332681655884
1697664273731490800,11.92249072265625,0.5562161207199097,-1.3398847579956055,-1.7487549781799316
1697664273741083600,11.932083740234376,1.4491596221923828,-1.6887645721435547,-1.389944076538086
1697664273750675500,11.941675537109376,2.3718974590301514,-1.7072486877441406,0.012546777725219727
1697664273760268300,11.951268310546874,2.8797852993011475,-1.2632513046264648,1.4863437414169312
1697664273769862000,11.96086181640625,3.579188108444214,-0.6692571640014648,2.6774492263793945
1697664273779454500,11.970454345703125,4.348714828491211,-0.2730293273925781,3.6691532135009766
1697664273789046500,11.980046630859375,4.720268249511719,0.43181800842285156,3.9382376670837402
1697664273798639400,11.989639404296875,4.60876989364624,1.3177480697631836,3.5721991062164307
1697664273808232700,11.999232666015626,3.94351863861084,2.246880531311035,2.9599223136901855
1697664273817825500,12.008825439453124,3.190216302871704,2.9081974029541016,2.168137311935425
1697664273827417300,12.018417236328125,2.8323099613189697,2.747903347015381,1.4640182256698608
1697664273837010200,12.02801025390625,2.5629775524139404,2.0459060668945312,0.6559675335884094
1697664273846603800,12.037603759765625,2.1952502727508545,1.4966058731079102,0.0429530143737793
1697664273856196400,12.0471962890625,1.916903018951416,0.6804933547973633,-0.18364059925079346
1697664273865788400,12.056788330078126,2.1607749462127686,-0.8048677444458008,0.37560588121414185
1697664273875381200,12.06638134765625,3.0118846893310547,-2.369076728820801,1.2366551160812378
1697664273884974600,12.075974609375,3.5571603775024414,-3.420363426208496,2.165886878967285
1697664273894567400,12.0855673828125,3.367115020751953,-3.0136871337890625,2.8959603309631348
1697664273904159200,12.0951591796875,2.270256519317627,-2.141667366027832,2.9917874336242676
1697664273913752000,12.104751953125,1.388279676437378,-1.879960060119629,2.1936142444610596
1697664273923345700,12.114345703125,1.0514577627182007,-1.4501447677612305,1.5589176416397095
1697664273932938200,12.123938232421875,0.40473008155822754,-0.7215099334716797,1.394065499305725
1697664273942530300,12.1335302734375,-0.07606244087219238,-0.22955799102783203,0.7641198635101318
1697664273952123100,12.143123046875,0.10894322395324707,0.20586872100830078,-0.25432372093200684
1697664273961716500,12.152716552734375,0.295369029045105,0.4337425231933594,-1.10788893699646
1697664273971309300,12.162309326171876,-0.04569530487060547,0.3283805847167969,-1.9573556184768677
1697664273980901000,12.171901123046876,-0.6557437181472778,0.43060302734375,-3.1806459426879883
1697664273990494000,12.181493896484374,-0.26914310455322266,-0.47974586486816406,-3.7704997062683105
1697664274000087600,12.191087646484375,-0.9185672998428345,-1.158308982849121,-4.307709693908691
1697664274009680100,12.20068017578125,-1.230645775794983,-1.7700252532958984,-5.3458943367004395
1697664274019272200,12.210272216796875,-1.476204514503479,-3.8264265060424805,-5.578948020935059
1697664274028865000,12.219864990234376,-1.5520093441009521,-5.522223472595215,-6.087019920349121
1697664274038458400,12.229458251953124,-1.9467217922210693,-9.25358772277832,-4.604897499084473
1697664274048051200,12.23905126953125,-3.3682518005371094,-10.998416900634766,-2.5278682708740234
