time,seconds_elapsed,z,y,x
1697664261970782000,0.161781982421875,0.16859383881092072,0.14614520967006683,0.08964183181524277
1697664261980374800,0.171374755859375,0.07574506103992462,-0.10430216789245605,0.3828485310077667
1697664261989968400,0.180968505859375,-0.03176405653357506,-0.36452311277389526,0.656660795211792
1697664261999561000,0.19056103515625,-0.12827792763710022,-0.5686988234519958,0.8667922616004944
1697664262009153000,0.200153076171875,-0.19913621246814728,-0.7128587365150452,0.9840749502182007
1697664262018745900,0.209745849609375,-0.24311721324920654,-0.7898254990577698,0.9950701594352722
1697664262028339500,0.21933935546875,-0.26632940769195557,-0.7934905886650085,0.9144383668899536
1697664262037932300,0.228932373046875,-0.2883199155330658,-0.7372926473617554,0.7482879161834717
1697664262047524000,0.238524169921875,-0.3151971995830536,-0.6200099587440491,0.5123481154441833
1697664262057117000,0.248116943359375,-0.33474430441856384,-0.4428642690181732,0.23258009552955627
1697664262066710500,0.25771044921875,-0.342074453830719,-0.21914145350456238,-0.06062658876180649
1697664262076303000,0.26730322265625,-0.3396310806274414,0.0068720318377017975,-0.32695600390434265
1697664262085895200,0.276895263671875,-0.32374903559684753,0.18279604613780975,-0.5273138880729675
1697664262095488000,0.286488037109375,-0.29320669174194336,0.29030516743659973,-0.6311579346656799
1697664262105081600,0.29608154296875,-0.2602209448814392,0.31229567527770996,-0.62627112865448
1697664262114674400,0.30567431640625,-0.23212195932865143,0.2707580327987671,-0.5260922312736511
1697664262124266200,0.315266357421875,-0.19913621246814728,0.1901262104511261,-0.3611634373664856
1697664262133859300,0.324859375,-0.16615045070648193,0.09116895496845245,-0.1656923145055771
1697664262143452700,0.33445263671875,-0.14782503247261047,-0.028557108715176582,0.034665580838918686
1697664262153045500,0.34404541015625,-0.13438639044761658,-0.14217470586299896,0.22280654311180115
1697664262162637600,0.353637451171875,-0.11972606182098389,-0.26067906618118286,0.37918344140052795
1697664262172230400,0.36323046875,-0.09407047927379608,-0.3596363365650177,0.49646610021591187
1697664262181824000,0.372823974609375,-0.07696675509214401,-0.42331716418266296,0.5723638534545898
1697664262191416600,0.38241650390625,-0.08185353130102158,-0.446529358625412,0.6016845703125
1697664262201008600,0.392008544921875,-0.10262233763933182,-0.4563029110431671,0.573585569858551
1697664262210601500,0.4016015625,-0.1185043677687645,-0.49173203110694885,0.48547086119651794
1697664262220195000,0.411195068359375,-0.13805148005485535,-0.4819584786891937,0.36696648597717285
1697664262229787600,0.42078759765625,-0.16248537600040436,-0.4416425824165344,0.22402822971343994
1697664262239379700,0.430379638671875,-0.20035789906978607,-0.4294256269931793,0.07620319724082947
1697664262248972500,0.43997265625,-0.2101314514875412,-0.3865135908126831,-0.072843536734581
1697664262258566100,0.449566162109375,-0.16492876410484314,-0.2814478874206543,-0.18646112084388733
1697664262268158700,0.45915869140625,-0.09284878522157669,-0.111632339656353,-0.19501298666000366
1697664262277750800,0.468750732421875,-0.01954711228609085,0.10338589549064636,-0.1375933438539505
1697664262287343600,0.478343505859375,0.03176405653357506,0.2939702570438385,-0.054518118500709534
1697664262296937200,0.487937255859375,0.025655584409832954,0.4014793634414673,0.05665608495473862
1697664262306530000,0.497530029296875,-0.029320668429136276,0.39414918422698975,0.1751604527235031
1697664262316121900,0.507121826171875,-0.07696675509214401,0.34039464592933655,0.2692309319972992
1697664262325714700,0.516714599609375,-0.09407047927379608,0.27808821201324463,0.33764582872390747
1697664262335308300,0.526308349609375,-0.05375456064939499,0.19745637476444244,0.3718532621860504
1697664262344901000,0.535901123046875,0.026877280324697495,0.12171131372451782,0.36818817257881165
1697664262354493000,0.545492919921875,0.10017894953489304,0.04963133856654167,0.34375429153442383
1697664262364086000,0.5550859375,0.15515519678592682,0.06917845457792282,0.3083251416683197
1697664262373679400,0.564679443359375,0.20524467527866364,0.14858859777450562,0.2924431264400482
1697664262383272200,0.574272216796875,0.2235700935125351,0.14614520967006683,0.32665055990219116
1697664262392864300,0.5838642578125,0.18691925704479218,0.02641914412379265,0.3962871730327606
1697664262402457000,0.59345703125,0.130721315741539,-0.07620319724082947,0.4524851143360138
1697664262412050400,0.603050537109375,0.1172826737165451,-0.07375980913639069,0.4622586667537689
1697664262421643300,0.612643310546875,0.13927318155765533,-0.1238492801785469,0.3889569938182831
1697664262431235300,0.6222353515625,0.18691925704479218,-0.23868857324123383,0.23746687173843384
1697664262440828200,0.631828125,0.25411245226860046,-0.2570139765739441,0.05665608495473862
1697664262450421800,0.641421875,0.3274141252040863,-0.09086353331804276,-0.13026317954063416
1697664262460014300,0.651014404296875,0.3787252902984619,0.1620272397994995,-0.30007871985435486
1697664262469606400,0.6606064453125,0.41537612676620483,0.36849361658096313,-0.4136963188648224
1697664262479199200,0.67019921875,0.4312581717967987,0.4821111857891083,-0.4503471553325653
1697664262488792800,0.679792724609375,0.4080459773540497,0.5163186192512512,-0.4027010500431061
1697664262498385400,0.689385498046875,0.3518480062484741,0.4662291705608368,-0.29030516743659973
1697664262507977500,0.6989775390625,0.2492256760597229,0.3489464819431305,-0.1510319858789444
1697664262517570300,0.7085703125,0.05864133685827255,0.1363716572523117,-0.036192700266838074
1697664262527164000,0.718163818359375,-0.15515519678592682,-0.111632339656353,0.06398624926805496
1697664262536756700,0.7277568359375,-0.27854636311531067,-0.2154763638973236,0.18126893043518066
1697664262546348500,0.7373486328125,-0.27976804971694946,-0.21058958768844604,0.32665055990219116
1697664262555941400,0.74694140625,-0.17348061501979828,-0.23258009552955627,0.4121691882610321
1697664262565535000,0.756534912109375,-0.1050657257437706,-0.2423536479473114,0.3877353072166443
1697664262575127800,0.7661279296875,-0.11117420345544815,-0.19592925906181335,0.2716743052005768
1697664262584719600,0.7757197265625,-0.11361759155988693,-0.0456608310341835,0.10552386194467545
1697664262594312700,0.785312744140625,-0.06963659077882767,0.15347537398338318,-0.07406523078680038
1697664262603906000,0.794906005859375,-0.010995250195264816,0.33917292952537537,-0.24754585325717926
1697664262613499000,0.804498779296875,0.03787253051996231,0.48577627539634705,-0.3953709006309509
1697664262623091000,0.814091064453125,0.08185353130102158,0.5835118293762207,-0.4906630516052246
1697664262632683800,0.823683837890625,0.12339114397764206,0.5908420085906982,-0.5187620520591736
1697664262642277000,0.833277099609375,0.15026842057704926,0.5016583204269409,-0.4784461259841919
1697664262651870000,0.842869873046875,0.16615045070648193,0.38071054220199585,-0.3733803927898407
1697664262661462000,0.8524619140625,0.17836740612983704,0.252432644367218,-0.22311195731163025
1697664262671054800,0.862054931640625,0.19058434665203094,0.12048961967229843,-0.058183200657367706
1697664262680648200,0.871648193359375,0.2113531529903412,0.004428642801940441,0.0981936976313591
1697664262690241000,0.881240966796875,0.2480039894580841,-0.04810422286391258,0.2276933193206787
1697664262699833000,0.8908330078125,0.27976804971694946,-0.06520794332027435,0.31687700748443604
1697664262709426000,0.900426025390625,0.2993151545524597,-0.06154286116361618,0.3620797097682953
1697664262719019500,0.91001953125,0.3005368411540985,-0.009009997360408306,0.37918344140052795
1697664262728612000,0.919612060546875,0.2761029601097107,0.009315420873463154,0.36452311277389526
1697664262738204200,0.9292041015625,0.2235700935125351,-0.017561858519911766,0.3217637836933136
1697664262747797000,0.938796875,0.14782503247261047,-0.07742489129304886,0.270452618598938
1697664262757390600,0.948390625,0.06352811306715012,-0.12751436233520508,0.21914145350456238
1697664262766983200,0.957983154296875,-0.01588202826678753,-0.10430216789245605,0.18004722893238068
1697664262776575200,0.9675751953125,-0.09407047927379608,-0.016340164467692375,0.1629435122013092
1697664262786168000,0.97716796875,-0.16859383881092072,0.058183200657367706,0.15683503448963165
1697664262795761700,0.98676171875,-0.22845686972141266,0.08017370104789734,0.1495048701763153
1697664262805354200,0.996354248046875,-0.2748812735080719,0.06306997686624527,0.1372879147529602
1697664262814946300,1.0059462890625,-0.30786702036857605,0.0068720318377017975,0.11651911586523056
1697664262824539100,1.0155390625,-0.3286358118057251,-0.06520794332027435,0.09697200357913971
1697664262834132700,1.0251328125,-0.3384093940258026,-0.10796725004911423,0.08842013776302338
1697664262843725600,1.0347255859375,-0.33474430441856384,-0.11529742181301117,0.10308047384023666
1697664262853317400,1.0443173828125,-0.3115321099758148,-0.10918894410133362,0.1372879147529602
1697664262862910200,1.05391015625,-0.27976804971694946,-0.07009471952915192,0.18737739324569702
1697664262872503800,1.06350390625,-0.25655585527420044,-0.009009997360408306,0.2411319613456726
1697664262882096600,1.0730966796875,-0.2516690790653229,-0.017561858519911766,0.26067906618118286
1697664262891688400,1.0826884765625,-0.24556060135364532,-0.14583978056907654,0.22524993121623993
1697664262901281300,1.09228125,-0.237008735537529,-0.36696648597717285,0.12995775043964386
1697664262910875000,1.101875,-0.23212195932865143,-0.6187883019447327,-0.001985253533348441
1697664262920467700,1.1114677734375,-0.22845686972141266,-0.80937260389328,-0.1510319858789444
1697664262930059800,1.121059814453125,-0.2235700935125351,-0.8729007244110107,-0.2939702570438385
1697664262939652600,1.130652587890625,-0.21623992919921875,-0.8252546191215515,-0.4112529158592224
1697664262949246000,1.140245849609375,-0.20646637678146362,-0.6872031688690186,-0.49799323081970215
1697664262958838800,1.1498388671875,-0.19424942135810852,-0.45385950803756714,-0.5236487984657288
1697664262968430800,1.159430908203125,-0.19302773475646973,-0.1763821393251419,-0.4637857675552368
1697664262978023700,1.169023681640625,-0.24189551174640656,0.1253764033317566,-0.335507869720459
1697664262987617000,1.178616943359375,-0.3127537965774536,0.35383328795433044,-0.17424418032169342
1697664262997209900,1.1882099609375,-0.36162158846855164,0.36360684037208557,-0.015423892997205257
1697664263006802000,1.197802001953125,-0.3958290219306946,0.20600824058055878,0.11896250396966934
1697664263016394800,1.207394775390625,-0.40071579813957214,-0.03955236077308655,0.22158484160900116
1697664263025988000,1.216988037109375,-0.3921639323234558,-0.3229855000972748,0.296108216047287
1697664263035581000,1.226580810546875,-0.393385648727417,-0.550373375415802,0.3352024257183075
1697664263045173000,1.236173095703125,-0.3921639323234558,-0.6749862432479858,0.32542887330055237
1697664263054765800,1.245765869140625,-0.3897205591201782,-0.70797199010849,0.270452618598938
1697664263064359400,1.255359375,-0.38849884271621704,-0.6823163628578186,0.16905197501182556
1697664263073952000,1.264951904296875,-0.3811686933040619,-0.5772506594657898,0.03833066672086716
1697664263083544000,1.2745439453125,-0.3665083646774292,-0.3608580231666565,-0.11560284346342087
1697664263093137000,1.284136962890625,-0.3567348122596741,-0.16783028841018677,-0.2658712565898895
1697664263102730500,1.29373046875,-0.34696123003959656,-0.011453386396169662,-0.40636613965034485
1697664263112323000,1.303322998046875,-0.3408527672290802,0.08994726091623306,-0.5212054252624512
1697664263121915100,1.3129150390625,-0.33718767762184143,0.15591876208782196,-0.5749599933624268
1697664263131508000,1.322508056640625,-0.3310792148113251,0.21211670339107513,-0.5602996349334717
1697664263141101600,1.3321015625,-0.342074453830719,0.2170034945011139,-0.4906630516052246
1697664263150694100,1.341694091796875,-0.3298575282096863,0.25121092796325684,-0.3831539452075958
1697664263160286200,1.3512861328125,-0.27976804971694946,0.27197974920272827,-0.26098448038101196
1697664263169879000,1.360879150390625,-0.21501824259757996,0.27197974920272827,-0.14125843346118927
1697664263179472600,1.37047265625,-0.14660334587097168,0.2560977041721344,-0.03008422814309597
1697664263189065200,1.380065185546875,-0.08429691940546036,0.2145601063966751,0.06520794332027435
1697664263198657300,1.3896572265625,-0.04153761267662048,0.15591876208782196,0.14339639246463776
1697664263208250000,1.39925,-0.014660334214568138,0.09972081333398819,0.20081603527069092
1697664263217843700,1.40884375,0.007330167107284069,0.06673506647348404,0.23624517023563385
1697664263227436500,1.4184365234375,0.03542914241552353,0.054518118500709534,0.2533488869667053
1697664263237028400,1.4280283203125,0.06841489672660828,0.03130592033267021,0.24724042415618896
1697664263246621200,1.43762109375,0.10750912129878998,-0.04321744292974472,0.20570281147956848
1697664263256214800,1.44721484375,0.15149012207984924,-0.15439164638519287,0.12995775043964386
1697664263265807400,1.456807373046875,0.19913621246814728,-0.27289602160453796,0.031000498682260513
1697664263275399400,1.4663994140625,0.24433889985084534,-0.34131091833114624,-0.06184828653931618
1697664263284992300,1.4759921875,0.25533416867256165,-0.3498627543449402,-0.12171131372451782
1697664263294585900,1.4855859375,0.24189551174640656,-0.296108216047287,-0.1388150453567505
1697664263304178400,1.495178466796875,0.22845686972141266,-0.18493400514125824,-0.12171131372451782
1697664263313770500,1.5047705078125,0.22845686972141266,-0.06276455521583557,-0.09239064902067184
1697664263323363300,1.51436328125,0.24067382514476776,0.03374931216239929,-0.07528692483901978
1697664263332957000,1.52395703125,0.26999449729919434,0.1107160672545433,-0.06917845457792282
1697664263342549500,1.533549560546875,0.3139754831790924,0.1889045089483261,-0.072843536734581
1697664263352141600,1.5431416015625,0.365286648273468,0.2426590770483017,-0.09605573117733002
1697664263361734400,1.552734375,0.41415444016456604,0.2683146595954895,-0.13392825424671173
1697664263371328000,1.562327880859375,0.44958359003067017,0.29885703325271606,-0.17057909071445465
1697664263380920800,1.5719208984375,0.4593571424484253,0.3489464819431305,-0.1889045089483261
1697664263390512600,1.5815126953125,0.4434750974178314,0.36727190017700195,-0.20356485247612
1697664263400105500,1.59110546875,0.41171106696128845,0.3086305856704712,-0.2438807636499405
1697664263409699000,1.600698974609375,0.3836120665073395,0.21211670339107513,-0.32573428750038147
1697664263419291600,1.610291748046875,0.36284327507019043,0.10827267915010452,-0.44423866271972656
1697664263428883700,1.6198837890625,0.3396310806274414,-0.031000498682260513,-0.5993938446044922
1697664263438476500,1.6294765625,0.3384093940258026,-0.21914145350456238,-0.7643226385116577
1697664263448070100,1.639070068359375,0.3701734244823456,-0.40728241205215454,-0.9121476411819458
1697664263457662700,1.648662841796875,0.4092676639556885,-0.5063923597335815,-1.011104941368103
1697664263467254800,1.6582548828125,0.42392799258232117,-0.4734066128730774,-1.0245435237884521
1697664263476847600,1.66784765625,0.41415444016456604,-0.270452618598938,-0.9170344471931458
1697664263486441200,1.677441162109375,0.41171106696128845,0.09483403712511063,-0.6983511447906494
1697664263496034000,1.687033935546875,0.41048935055732727,0.465007483959198,-0.3880407214164734
1697664263505625900,1.6966259765625,0.38849884271621704,0.6800256967544556,-0.022754060104489326
1697664263515218700,1.70621875,0.36039987206459045,0.6995728015899658,0.31687700748443604
1697664263524812300,1.715812255859375,0.3506263196468353,0.5993938446044922,0.5528167486190796
1697664263534404900,1.72540478515625,0.3762819170951843,0.4784461259841919,0.6700994372367859
1697664263543997000,1.734996826171875,0.4227063059806824,0.36727190017700195,0.6835380792617798
1697664263553589800,1.74458984375,0.47768256068229675,0.252432644367218,0.6236750483512878
1697664263563183400,1.754183349609375,0.5192201733589172,0.14125843346118927,0.527161180973053
1697664263572776200,1.763776123046875,0.5436540842056274,0.06062658876180649,0.41949936747550964
1697664263582368000,1.773367919921875,0.554649293422699,0.02641914412379265,0.3083251416683197
1697664263591960800,1.7829609375,0.5509842038154602,0.04718795046210289,0.2154763638973236
1697664263601554400,1.792554443359375,0.5289937257766724,0.11315945535898209,0.15561333298683167
1697664263611147000,1.80214697265625,0.5008947253227234,0.20845162868499756,0.1238492801785469
1697664263620739000,1.811739013671875,0.4691306948661804,0.31473904848098755,0.10674555599689484
1697664263630332000,1.821331787109375,0.448361873626709,0.40514445304870605,0.0847550556063652
1697664263639925500,1.830925537109375,0.43981003761291504,0.46012070775032043,0.052990999072790146
1697664263649518300,1.840518310546875,0.4422534108161926,0.4747810363769531,0.011453386396169662
1697664263659110100,1.850110107421875,0.45324867963790894,0.4491254389286041,-0.036192700266838074
1697664263668703000,1.859702880859375,0.4850127100944519,0.38193225860595703,-0.08628217875957489
1697664263678296600,1.869296630859375,0.5448757410049438,0.30007871985435486,-0.11926792562007904
1697664263687889400,1.878889404296875,0.5851916670799255,0.19379130005836487,-0.1241547018289566
1697664263697481200,1.888481201171875,0.6035171151161194,0.11315945535898209,-0.09483403712511063
1697664263707074000,1.898073974609375,0.6022953987121582,0.08261708915233612,-0.03008422814309597
1697664263716667600,1.907667724609375,0.5790832042694092,0.09239064902067184,0.0713164210319519
1697664263726260200,1.91726025390625,0.5436540842056274,0.13514995574951172,0.18615570664405823
1697664263735852300,1.926852294921875,0.49234288930892944,0.17913095653057098,0.296108216047287
1697664263745445000,1.936445068359375,0.43736663460731506,0.16080553829669952,0.37918344140052795
1697664263755038700,1.946038818359375,0.38483378291130066,0.10216420143842697,0.423164427280426
1697664263764631300,1.95563134765625,0.3310792148113251,0.04352286830544472,0.4390464723110199
1697664263774223400,1.965223388671875,0.2724378705024719,-0.010231691412627697,0.42927291989326477
1697664263783816200,1.974816162109375,0.21257483959197998,-0.050547610968351364,0.3840702176094055
1697664263793409800,1.984409912109375,0.1588202863931656,-0.06642963737249374,0.3095468580722809
1697664263803002400,1.99400244140625,0.10384403169155121,-0.0456608310341835,0.22036315500736237
1697664263812594400,2.003594482421875,0.05131116881966591,-0.0004581354442052543,0.1238492801785469
1697664263822187300,2.013187255859375,-0.0024433890357613564,0.02764083817601204,0.018783552572131157
1697664263831780900,2.02278076171875,-0.05741964280605316,0.008093725889921188,-0.08872556686401367
1697664263841373400,2.03237353515625,-0.09529217332601547,-0.02367033064365387,-0.18157434463500977
1697664263850965500,2.041965576171875,-0.10750912129878998,-0.03833066672086716,-0.24510246515274048
1697664263860558300,2.051558349609375,-0.10017894953489304,-0.03588727489113808,-0.2658712565898895
1697664263870152000,2.06115185546875,-0.08185353130102158,-0.029778804630041122,-0.23410721123218536
1697664263879744500,2.07074462890625,-0.07452336698770523,-0.033443886786699295,-0.1632489264011383
1697664263889336600,2.080336669921875,-0.10262233763933182,-0.012675080448389053,-0.08994726091623306
1697664263898929400,2.089929443359375,-0.16492876410484314,0.020310672000050545,-0.0594048947095871
1697664263908523000,2.09952294921875,-0.2357870489358902,-0.032222192734479904,-0.09727742522954941
1697664263918115600,2.109115478515625,-0.29320669174194336,-0.21181128919124603,-0.18768282234668732
1697664263927707600,2.118707763671875,-0.3151971995830536,-0.43919917941093445,-0.2951919436454773
1697664263937300500,2.128300537109375,-0.2993151545524597,-0.610236406326294,-0.3868190348148346
1697664263946894000,2.13789404296875,-0.26755109429359436,-0.6872031688690186,-0.44546034932136536
1697664263956486700,2.147486572265625,-0.22967857122421265,-0.6908682584762573,-0.45523393154144287
1697664263966078700,2.15707861328125,-0.1820324808359146,-0.5650337338447571,-0.3965925872325897
1697664263975671600,2.166671630859375,-0.13316470384597778,-0.3217637836933136,-0.2658712565898895
1697664263985265200,2.17626513671875,-0.08429691940546036,-0.050547610968351364,-0.07040014863014221
1697664263994857700,2.185857666015625,-0.0390942245721817,0.1510319858789444,0.16050012409687042
1697664264004449800,2.19544970703125,0.0012216945178806782,0.22311195731163025,0.39262208342552185
1697664264014042600,2.205042724609375,0.026877280324697495,0.1656923145055771,0.5955760478973389
1697664264023636200,2.21463623046875,0.03176405653357506,0.03008422814309597,0.7470661997795105
1697664264033228800,2.224228759765625,0.030542362481355667,-0.11896250396966934,0.8313631415367126
1697664264042820900,2.23382080078125,0.02076880633831024,-0.21425467729568481,0.846023440361023
1697664264052413700,2.24341357421875,0.004886778071522713,-0.21791976690292358,0.8044858574867249
1697664264062007300,2.25300732421875,-0.01954711228609085,-0.1519482582807541,0.7116370797157288
1697664264071599900,2.262599853515625,-0.062306419014930725,-0.050547610968351364,0.578472375869751
1697664264081192000,2.27219189453125,-0.12339114397764206,0.055739812552928925,0.4121691882610321
1697664264090784800,2.28178466796875,-0.18081079423427582,0.15347537398338318,0.22402822971343994
1697664264100378000,2.291378173828125,-0.22967857122421265,0.21944688260555267,0.04199574887752533
1697664264109971000,2.300970947265625,-0.26877278089523315,0.2548760175704956,-0.11682453751564026
1697664264119563000,2.31056298828125,-0.29687178134918213,0.2560977041721344,-0.24632415175437927
1697664264129155600,2.320155517578125,-0.3151971995830536,0.2438807636499405,-0.3379512429237366
1697664264138749200,2.329749267578125,-0.3176405727863312,0.22677704691886902,-0.3880407214164734
1697664264148342000,2.339342041015625,-0.3042019307613373,0.20600824058055878,-0.4014793634414673
1697664264157934000,2.34893408203125,-0.2761029601097107,0.19867807626724243,-0.3855973184108734
1697664264167527000,2.35852685546875,-0.23090025782585144,0.20356485247612,-0.3465031087398529
1697664264177120300,2.368120361328125,-0.17592400312423706,0.19256959855556488,-0.284196674823761
1697664264186713000,2.377713134765625,-0.11606097966432571,0.1656923145055771,-0.19623468816280365
1697664264196305200,2.38730517578125,-0.07085828483104706,0.15347537398338318,-0.08261708915233612
1697664264205897700,2.396897705078125,-0.03787253051996231,0.12904147803783417,0.04077405482530594
1697664264215491300,2.4064912109375,-0.014660334214568138,0.08628217875957489,0.14828316867351532
1697664264225084200,2.416084228515625,-0.004886778071522713,0.04963133856654167,0.22524993121623993
1697664264234676000,2.425676025390625,-0.008551862090826035,0.023975754156708717,0.2692309319972992
1697664264244268800,2.435268798828125,-0.026877280324697495,0.014202198944985867,0.27533939480781555
1697664264253862400,2.4448623046875,-0.061084724962711334,0.02641914412379265,0.24724042415618896
1697664264263455200,2.454455322265625,-0.10628741979598999,0.05207473039627075,0.188599094748497
1697664264273047000,2.464047119140625,-0.15149012207984924,0.0716218426823616,0.10063708573579788
1697664264282640000,2.473639892578125,-0.17714570462703705,0.0984991192817688,-0.0032069480512291193
1697664264292233500,2.4832333984375,-0.1844758689403534,0.12904147803783417,-0.10949437320232391
1697664264301826300,2.492826416015625,-0.1832541823387146,0.15347537398338318,-0.21333840489387512
1697664264311418000,2.502418212890625,-0.1710372269153595,0.18646112084388733,-0.28664007782936096
1697664264321011000,2.512010986328125,-0.14660334587097168,0.23899398744106293,-0.30252209305763245
1697664264330604500,2.5216044921875,-0.12583453953266144,0.30985227227211,-0.2573194205760956
1697664264340197000,2.531197021484375,-0.10995250940322876,0.3599417507648468,-0.16080553829669952
1697664264349789200,2.5407890625,-0.09040539711713791,0.3746020793914795,-0.036192700266838074
1697664264359382000,2.550382080078125,-0.062306419014930725,0.34161633253097534,0.09086353331804276
1697664264368975600,2.5599755859375,-0.01832541823387146,0.27564483880996704,0.19715094566345215
1697664264378568200,2.569568115234375,0.029320668429136276,0.18279604613780975,0.2680092453956604
1697664264388160300,2.57916015625,0.08674030750989914,0.09116895496845245,0.293664813041687
1697664264397753000,2.588753173828125,0.1441599577665329,0.04352286830544472,0.27533939480781555
1697664264407346700,2.5983466796875,0.17836740612983704,0.056961506605148315,0.23258009552955627
1697664264416939300,2.607939208984375,0.18081079423427582,0.1363716572523117,0.18493400514125824
1697664264426531300,2.61753125,0.14660334587097168,0.2170034945011139,0.1385096162557602
1697664264436124200,2.627124267578125,0.10384403169155121,0.24876753985881805,0.0859767496585846
1697664264445717800,2.6367177734375,0.0916270911693573,0.28664007782936096,0.03588727489113808
1697664264455310300,2.646310302734375,0.10750912129878998,0.32817769050598145,-0.017867282032966614
1697664264464902400,2.65590234375,0.129499614238739,0.26464956998825073,-0.11315945535898209
1697664264474495200,2.6654951171875,0.14904673397541046,0.07528692483901978,-0.2658712565898895
1697664264484088600,2.675088623046875,0.18691925704479218,-0.11285403370857239,-0.4381301999092102
1697664264493681400,2.684681396484375,0.22601348161697388,-0.19226416945457458,-0.5896202921867371
1697664264503273500,2.6942734375,0.23334364593029022,-0.14828316867351532,-0.6678087711334229
1697664264512866300,2.7038662109375,0.19180603325366974,-0.005344913341104984,-0.6348230242729187
1697664264522459600,2.713459716796875,0.1319430023431778,0.21944688260555267,-0.4906630516052246
1697664264532052500,2.723052490234375,0.08674030750989914,0.4662291705608368,-0.27564483880996704
1697664264541644300,2.732644287109375,0.05619794875383377,0.649483323097229,-0.0459662564098835
1697664264551237000,2.742237060546875,0.042759306728839874,0.6812474131584167,0.1360662281513214
1697664264560830700,2.751830810546875,0.04153761267662048,0.6164975762367249,0.26312246918678284
1697664264570423600,2.761423583984375,0.05375456064939499,0.5212054252624512,0.3461976945400238
1697664264580015400,2.771015380859375,0.07574506103992462,0.40758782625198364,0.3889569938182831
1697664264589608200,2.780608154296875,0.10140064358711243,0.2939702570438385,0.4011739492416382
1697664264599201800,2.790201904296875,0.12094775587320328,0.18279604613780975,0.39506545662879944
1697664264608794400,2.79979443359375,0.13805148005485535,0.07773031294345856,0.36452311277389526
1697664264618386400,2.809386474609375,0.15149012207984924,-0.0029015245381742716,0.3046600818634033
1697664264627979300,2.818979248046875,0.1588202863931656,-0.0261137206107378,0.21791976690292358
1697664264637572900,2.82857275390625,0.16248537600040436,0.0325276181101799,0.11529742181301117
1697664264647165400,2.83816552734375,0.16248537600040436,0.12904147803783417,0.0016798300202935934
1697664264656757500,2.847757568359375,0.16004198789596558,0.20356485247612,-0.11560284346342087
1697664264666350300,2.857350341796875,0.17225892841815948,0.25121092796325684,-0.2279987335205078
1697664264675944000,2.86694384765625,0.1954711228609085,0.2658712565898895,-0.32573428750038147
1697664264685536500,2.87653662109375,0.21623992919921875,0.2304421216249466,-0.3892624080181122
1697664264695128600,2.886128662109375,0.2357870489358902,0.1656923145055771,-0.4136963188648224
1697664264704721400,2.895721435546875,0.25411245226860046,0.07773031294345856,-0.4112529158592224
1697664264714314800,2.905314697265625,0.2626643180847168,-0.028557108715176582,-0.3758237659931183
1697664264723907600,2.914907470703125,0.26877278089523315,-0.10796725004911423,-0.29885703325271606
1697664264733499600,2.924499755859375,0.2773246467113495,-0.15316994488239288,-0.1901262104511261
1697664264743092500,2.934092529296875,0.28343313932418823,-0.1751604527235031,-0.07040014863014221
1697664264752685800,2.943685791015625,0.28098973631858826,-0.19592925906181335,0.034665580838918686
1697664264762278700,2.953278564453125,0.27976804971694946,-0.22647161781787872,0.11529742181301117
1697664264771870700,2.96287060546875,0.26999449729919434,-0.25945737957954407,0.16538690030574799
1697664264781463300,2.97246337890625,0.24433889985084534,-0.3071034550666809,0.18371231853961945
1697664264791057000,2.982056884765625,0.21868331730365753,-0.3339807391166687,0.17271706461906433
1697664264800649700,2.991649658203125,0.18814095854759216,-0.31199023127555847,0.13973131775856018
1697664264810241500,3.001241455078125,0.10873081535100937,-0.30221667885780334,0.09575030952692032
1697664264819834400,3.01083447265625,-0.024433890357613564,-0.29977330565452576,0.0590994730591774
1697664264829428000,3.020427978515625,-0.1441599577665329,-0.15316994488239288,0.032222192734479904
1697664264839020500,3.0300205078125,-0.23823043704032898,-0.0029015245381742716,-0.022754060104489326
1697664264848612600,3.039612548828125,-0.3054236173629761,0.04840964451432228,-0.11315945535898209
1697664264858205400,3.049205322265625,-0.37261682748794556,0.04352286830544472,-0.20356485247612
1697664264867799000,3.058799072265625,-0.416597843170166,0.0325276181101799,-0.2683146595954895
1697664264877391600,3.0683916015625,-0.4324798583984375,-0.011453386396169662,-0.2976353168487549
1697664264886983700,3.077983642578125,-0.42637139558792114,-0.07498150318861008,-0.2829749882221222
1697664264896576500,3.087576416015625,-0.3921639323234558,-0.11896250396966934,-0.21089501678943634
1697664264906169900,3.097169921875,-0.34451785683631897,-0.17027367651462555,-0.08872556686401367
1697664264915762700,3.1067626953125,-0.3005368411540985,-0.22402822971343994,0.06765133142471313
1697664264925354800,3.116354736328125,-0.2870981991291046,-0.31565532088279724,0.2166980654001236
1697664264934947600,3.125947509765625,-0.3005368411540985,-0.5564818382263184,0.2985515892505646
1697664264944541000,3.135541015625,-0.3249707520008087,-0.8643488883972168,0.2924431264400482
1697664264954133800,3.1451337890625,-0.3506263196468353,-1.1013575792312622,0.2166980654001236
1697664264963725800,3.154725830078125,-0.3555130958557129,-1.192984700202942,0.11774080991744995
1697664264973318400,3.164318359375,-0.3384093940258026,-1.1465603113174438,0.02244863659143448
1697664264982912000,3.173912109375,-0.32374903559684753,-1.0292776823043823,-0.06795676052570343
1697664264992504800,3.1835048828125,-0.3261924386024475,-0.9242119193077087,-0.14858859777450562
1697664265002096600,3.1930966796875,-0.33352261781692505,-0.8289197087287903,-0.19867807626724243
1697664265011689500,3.202689453125,-0.3506263196468353,-0.731184184551239,-0.19623468816280365
1697664265021283000,3.212282958984375,-0.3823903799057007,-0.6749862432479858,-0.15836215019226074
1697664265030875600,3.221875732421875,-0.4178195297718048,-0.6310052275657654,-0.10460758954286575
1697664265040467700,3.2314677734375,-0.4434750974178314,-0.5662553906440735,-0.05207473039627075
1697664265050060500,3.241060546875,-0.4679090082645416,-0.5234960913658142,-0.0007635590736754239
1697664265059654100,3.250654052734375,-0.4850127100944519,-0.4746283292770386,0.04932591691613197
1697664265069246700,3.260246826171875,-0.5118899941444397,-0.3755183517932892,0.10063708573579788
1697664265078838800,3.2698388671875,-0.5497625470161438,-0.22280654311180115,0.13117945194244385
1697664265088431600,3.279431640625,-0.5925218462944031,-0.10185877978801727,0.10063708573579788
1697664265098025000,3.28902490234375,-0.6487197875976562,-0.06398624926805496,0.009009997360408306
1697664265107617800,3.29861767578125,-0.7244648337364197,-0.07009471952915192,-0.12171131372451782
1697664265117209900,3.3082099609375,-0.8087617754936218,-0.07986827939748764,-0.27808821201324463
1697664265126802700,3.317802734375,-0.8918370008468628,-0.10918894410133362,-0.4503471553325653
1697664265136396000,3.32739599609375,-0.9773555994033813,-0.19226416945457458,-0.62627112865448
1697664265145988900,3.33698876953125,-1.0274450778961182,-0.2790044844150543,-0.7924215793609619
1697664265155580700,3.34658056640625,-1.0323318243026733,-0.33886751532554626,-0.9035958051681519
1697664265165173500,3.356173583984375,-0.994459331035614,-0.3498627543449402,-0.913369357585907
1697664265174767000,3.36576708984375,-0.9260444641113281,-0.27533939480781555,-0.8131904006004333
1697664265184360000,3.37535986328125,-0.8539644479751587,-0.1763821393251419,-0.6348230242729187
1697664265193951700,3.38495166015625,-0.7879929542541504,-0.12018419802188873,-0.4246915578842163
1697664265203544600,3.394544677734375,-0.7293516397476196,-0.13973131775856018,-0.22066856920719147
1697664265213138200,3.40413818359375,-0.6804838180541992,-0.19348587095737457,-0.036192700266838074
1697664265222730800,3.413730712890625,-0.6377245187759399,-0.22402822971343994,0.11529742181301117
1697664265232322800,3.42332275390625,-0.6169557571411133,-0.25945737957954407,0.20081603527069092
1697664265241915600,3.43291552734375,-0.6303943991661072,-0.31443363428115845,0.21791976690292358
1697664265251509200,3.44250927734375,-0.6487197875976562,-0.32542887330055237,0.17882554233074188
1697664265261101800,3.452101806640625,-0.6572716236114502,-0.2411319613456726,0.10185877978801727
1697664265270694000,3.46169384765625,-0.660936713218689,-0.09941539168357849,0.0065666078589856625
1697664265280286500,3.471286376953125,-0.6572716236114502,0.03374931216239929,-0.09483403712511063
1697664265289880000,3.480880126953125,-0.6450546979904175,0.13392825424671173,-0.17302247881889343
1697664265299473000,3.490472900390625,-0.6377245187759399,0.19989976286888123,-0.2145601063966751
1697664265309064700,3.500064697265625,-0.624285876750946,0.2292204350233078,-0.22555534541606903
1697664265318657500,3.509657470703125,-0.6071822047233582,0.2292204350233078,-0.21089501678943634
1697664265328251100,3.519251220703125,-0.582748293876648,0.18646112084388733,-0.17424418032169342
1697664265337843700,3.52884375,-0.5375455617904663,0.1363716572523117,-0.10827267915010452
1697664265347435800,3.538435791015625,-0.474017471075058,0.09483403712511063,-0.009315420873463154
1697664265357028600,3.548028564453125,-0.4056025743484497,0.014202198944985867,0.10308047384023666
1697664265366622200,3.557622314453125,-0.3518480062484741,-0.11651911586523056,0.2166980654001236
1697664265376214800,3.56721484375,-0.3127537965774536,-0.1910424828529358,0.32665055990219116
1697664265385806800,3.576806884765625,-0.26755109429359436,-0.23624517023563385,0.4158342778682709
1697664265395399700,3.586399658203125,-0.2357870489358902,-0.2948864996433258,0.4610369801521301
1697664265404993300,3.5959931640625,-0.20280128717422485,-0.31199023127555847,0.4659237563610077
1697664265414585900,3.6055859375,-0.16615045070648193,-0.23258009552955627,0.4390464723110199
1697664265424178000,3.615177978515625,-0.13560809195041656,-0.06520794332027435,0.37918344140052795
1697664265433770500,3.6247705078125,-0.11972606182098389,0.10827267915010452,0.2912214398384094
1697664265443364000,3.634364013671875,-0.12461283802986145,0.18157434463500977,0.18249061703681946
1697664265452957000,3.64395703125,-0.14660334587097168,0.11804623156785965,0.04443913698196411
1697664265462548700,3.653548828125,-0.16615045070648193,-0.017561858519911766,-0.10338589549064636
1697664265472141600,3.6631416015625,-0.1710372269153595,-0.20814619958400726,-0.25121092796325684
1697664265481735200,3.672735107421875,-0.16615045070648193,-0.46607646346092224,-0.3965925872325897
1697664265491327700,3.68232763671875,-0.15149012207984924,-0.7336275577545166,-0.5309789776802063
1697664265500919800,3.691919921875,-0.14049486815929413,-0.9559759497642517,-0.6384881138801575
1697664265510512600,3.7015126953125,-0.15026842057704926,-1.0976924896240234,-0.7130114436149597
1697664265520106200,3.711106201171875,-0.1966928243637085,-1.1771026849746704,-0.755770742893219
1697664265529698800,3.72069873046875,-0.2602209448814392,-1.1624423265457153,-0.755770742893219
1697664265539291000,3.730290771484375,-0.284654825925827,-1.0158389806747437,-0.705681324005127
1697664265548883700,3.7398837890625,-0.26999449729919434,-0.8509102463722229,-0.6079457402229309
1697664265558477000,3.74947705078125,-0.2492256760597229,-0.8276980519294739,-0.462564080953598
1697664265568070000,3.75906982421875,-0.23334364593029022,-1.0280559062957764,-0.2695363461971283
1697664265577661700,3.76866162109375,-0.25655585527420044,-1.4446537494659424,-0.03497100621461868
1697664265587254500,3.778254638671875,-0.33596599102020264,-1.9821993112564087,0.2545706033706665
1697664265596848000,3.78784814453125,-0.4850127100944519,-2.638249397277832,0.5699204802513123
1697664265606440700,3.797440673828125,-0.6719319820404053,-3.340723752975464,0.8448017835617065
1697664265616032800,3.80703271484375,-0.7501204609870911,-3.5227560997009277,1.0280559062957764
1697664265625625600,3.81662548828125,-0.6829272508621216,-3.1171536445617676,1.0854755640029907
1697664265635219200,3.82621923828125,-0.5632011890411377,-2.73720645904541,1.0659284591674805
1697664265644811800,3.835811767578125,-0.34940463304519653,-2.3328256607055664,0.8887827396392822
1697664265654403800,3.84540380859375,-0.023212196305394173,-1.8404828310012817,0.5332696437835693
1697664265663996700,3.85499658203125,0.38483378291130066,-1.4861913919448853,0.12018419802188873
1697664265673590000,3.864590087890625,0.7440119385719299,-1.3371446132659912,-0.2536543309688568
1697664265683182800,3.874182861328125,1.014006495475769,-1.4764177799224854,-0.5395308136940002
1697664265692774700,3.883774658203125,1.180156946182251,-1.7793980836868286,-0.7496622800827026
1697664265702367500,3.893367431640625,1.2876659631729126,-2.2375335693359375,-0.9304730892181396
1697664265711961000,3.902961181640625,1.5564388036727905,-3.2881908416748047,-1.0123265981674194
1697664265721554000,3.912553955078125,2.148960590362549,-4.931369781494141,-0.8999307155609131
1697664265731145500,3.9221455078125,2.65229868888855,-6.172764301300049,-0.7227849960327148
1697664265740738300,3.93173828125,2.9284017086029053,-6.833701133728027,-0.5456393361091614
1697664265750332000,3.941331787109375,2.9577224254608154,-7.197765827178955,-0.3965925872325897
1697664265759924500,3.950924560546875,2.7463693618774414,-7.433553218841553,-0.2939702570438385
1697664265769516500,3.9605166015625,2.4482758045196533,-7.5948166847229,-0.20967331528663635
1697664265779109400,3.970109375,2.1660642623901367,-6.528277397155762,0.31443363428115845
1697664265788703000,3.979702880859375,1.998692274093628,-3.4726667404174805,0.860683798789978
1697664265798295600,3.989295654296875,2.057333469390869,-0.9400939345359802,0.8753440976142883
1697664265807887600,3.9988876953125,2.0548901557922363,-0.5943543910980225,1.064706802368164
1697664265817480400,4.00848046875,2.05366849899292,-1.2052016258239746,0.9376505613327026
1697664265827073800,4.01807373046875,2.0438950061798096,-1.719534993171692,0.8338065147399902
1697664265836666600,4.02766650390625,2.0121309757232666,-1.8807986974716187,0.9975135922431946
1697664265846258400,4.037258544921875,1.9058434963226318,-1.8893505334854126,1.2186403274536133
1697664265855851300,4.046851318359375,1.696933627128601,-1.599808931350708,1.276059865951538
1697664265865444900,4.05644482421875,1.4868022203445435,-1.3285927772521973,1.136786699295044
1697664265875037400,4.066037353515625,1.2510151863098145,-1.2235270738601685,0.9266552925109863
1697664265884629500,4.07562939453125,0.9492566585540771,-1.3505833148956299,0.7678350210189819
1697664265894222300,4.085222412109375,0.7293516397476196,-1.4642008543014526,0.6774296164512634
1697664265903815700,4.094815673828125,0.6316160559654236,-1.207645058631897,0.6713211536407471
1697664265913408500,4.104408447265625,0.5815265774726868,-1.0304993391036987,0.7776085734367371
1697664265923000600,4.11400048828125,0.5057815313339233,-1.0549331903457642,0.9352071285247803
1697664265932593400,4.123593505859375,0.416597843170166,-1.216196894645691,1.0610417127609253
1697664265942186800,4.133186767578125,0.33596599102020264,-1.3664653301239014,1.1453386545181274
1697664265951779600,4.142779541015625,0.26632940769195557,-1.4629791975021362,1.184432864189148
1697664265961371400,4.152371337890625,0.29320669174194336,-1.6059174537658691,1.1123528480529785
1697664265970964200,4.161964111328125,0.3396310806274414,-1.7989451885223389,0.9327637553215027
1697664265980557800,4.171557861328125,0.3054236173629761,-1.9198929071426392,0.6859814524650574
1697664265990150400,4.181150390625,0.3274141252040863,-1.7586292028427124,0.42072105407714844
1697664265999742500,4.190742431640625,0.5961869359016418,-1.3933426141738892,0.05421269312500954
1697664266009335300,4.200335205078125,1.138619303703308,-1.058598279953003,-0.35505497455596924
1697664266018928600,4.2099287109375,1.8447587490081787,-0.7690566778182983,-0.7032378911972046
1697664266028521500,4.219521484375,2.615648031234741,-0.81425940990448,-0.9451334476470947
1697664266038113300,4.22911328125,3.294910192489624,-0.8484668135643005,-1.0477557182312012
1697664266047706000,4.2387060546875,3.792139768600464,-0.9217684864997864,-1.0697462558746338
1697664266057299700,4.2482998046875,4.020596504211426,-1.0671501159667969,-1.0697462558746338
1697664266066892300,4.257892333984375,3.9534034729003906,-1.3029371500015259,-1.0074398517608643
1697664266076484400,4.267484375,3.7041778564453125,-1.5863703489303589,-0.8180772066116333
1697664266086077200,4.2770771484375,3.352329730987549,-1.845369577407837,-0.45767730474472046
1697664266095670800,4.2866708984375,2.9112980365753174,-2.1312460899353027,-0.004428642801940441
1697664266105263400,4.296263427734375,2.4666011333465576,-2.274184226989746,0.4158342778682709
1697664266114855400,4.30585546875,2.030456304550171,-2.07993483543396,0.6664343476295471
1697664266124448000,4.315447998046875,1.6908252239227295,-1.7158699035644531,0.7348492741584778
1697664266134041600,4.32504150390625,1.6077499389648438,-1.3835690021514893,0.679872989654541
1697664266143634400,4.334634521484375,1.7873390913009644,-1.1807677745819092,0.5723638534545898
1697664266153226200,4.344226318359375,2.175837993621826,-1.0671501159667969,0.4622586667537689
1697664266162819000,4.353819091796875,2.615648031234741,-0.8716790676116943,0.34008920192718506
1697664266172412700,4.36341259765625,2.899080991744995,-0.6175665855407715,0.1898207813501358
1697664266182005200,4.373005126953125,3.150750160217285,-0.22647161781787872,-0.010537114925682545
1697664266191597300,4.382597412109375,3.3364477157592773,-0.23502348363399506,-0.29885703325271606
1697664266201190000,4.39218994140625,3.288801670074463,-0.40361732244491577,-0.6409314870834351
1697664266210783500,4.401783447265625,2.9491705894470215,-0.5442649126052856,-0.9927794933319092
1697664266220376300,4.411376220703125,2.4226202964782715,-0.8252546191215515,-1.3385190963745117
1697664266229968400,4.420968505859375,1.8899613618850708,-1.2333005666732788,-1.6463860273361206
1697664266239561000,4.43056103515625,1.470920205116272,-1.5509412288665771,-1.8821730613708496
1697664266249154600,4.440154541015625,1.2094775438308716,-1.7134265899658203,-2.0263330936431885
1697664266258747100,4.4497470703125,1.0677610635757446,-1.780619740486145,-2.0837526321411133
1697664266268339200,4.459339111328125,0.9907942414283752,-1.8649166822433472,-2.059318780899048
1697664266277932000,4.46893212890625,0.9309312105178833,-1.976090908050537,-1.8369704484939575
1697664266287525600,4.478525634765625,0.8796200752258301,-2.279071092605591,-1.3922736644744873
1697664266297118200,4.4881181640625,0.8014315962791443,-2.5588390827178955,-0.8376243114471436
1697664266306710300,4.497710205078125,0.7098045349121094,-2.7787442207336426,-0.2805316150188446
1697664266316303400,4.507303466796875,0.5937435626983643,-2.855710983276367,0.19715094566345215
1697664266325897000,4.51689697265625,0.4043808877468109,-2.549065589904785,0.6139014959335327
1697664266335489500,4.526489501953125,0.22479179501533508,-2.1850006580352783,0.9474241137504578
1697664266345081600,4.53608154296875,0.3518480062484741,-1.656006932258606,1.0842539072036743
1697664266354674400,4.54567431640625,0.5864133834838867,-1.6718889474868774,1.119683027267456
1697664266364267800,4.555267822265625,0.5974085927009583,-1.8062753677368164,1.2846118211746216
1697664266373860600,4.564860595703125,0.4691306948661804,-1.4409886598587036,1.5118470191955566
1697664266383452400,4.574452392578125,0.46546560525894165,-1.323706030845642,1.7036529779434204
1697664266393045200,4.584045166015625,0.6145123243331909,-1.1502254009246826,1.7622942924499512
1697664266402638800,4.593638916015625,0.9749122262001038,-0.8228112459182739,1.5961438417434692
1697664266412231400,4.6032314453125,1.52711820602417,-0.42698222398757935,1.252847671508789
1697664266421823500,4.612823486328125,2.057333469390869,0.10582929104566574,0.8900044560432434
1697664266431416300,4.622416259765625,2.409181594848633,0.7960866689682007,0.6090146899223328
1697664266441010000,4.632010009765625,2.5069172382354736,1.51566481590271,0.3461976945400238
1697664266450602500,4.6416025390625,2.372530698776245,1.8797297477722168,0.12995775043964386
1697664266460194600,4.651194580078125,2.131856918334961,1.916380524635315,-0.0032069480512291193
1697664266469787100,4.660787109375,1.7824523448944092,1.6292823553085327,-0.07406523078680038
1697664266479380700,4.670380615234375,1.3536375761032104,1.3617312908172607,-0.2170034945011139
1697664266488973600,4.6799736328125,0.999346137046814,1.5132213830947876,-1.004996418952942
1697664266498565400,4.6895654296875,0.8270871639251709,1.570641040802002,-2.3268699645996094
1697664266508158200,4.699158203125,0.6927008032798767,1.546207070350647,-3.5534512996673584
1697664266517751800,4.708751708984375,0.43736663460731506,1.6781501770019531,-4.52103328704834
1697664266527344400,4.718344482421875,0.10873081535100937,1.7062491178512573,-5.163797378540039
1697664266536936400,4.7279365234375,-0.1966928243637085,1.5205515623092651,-5.336056232452393
1697664266546529000,4.737529052734375,-0.37139514088630676,1.2065759897232056,-5.125924587249756
1697664266556122600,4.74712255859375,-0.474017471075058,0.7631009221076965,-4.551575660705566
1697664266565715500,4.756715576171875,-0.2907632887363434,0.6946860551834106,-3.8087854385375977
1697664266575307300,4.766307373046875,0.07696675509214401,0.45645561814308167,-3.109976053237915
1697664266584900000,4.775900146484375,0.522885262966156,0.29030516743659973,-2.638401985168457
1697664266594493700,4.78549365234375,1.0738694667816162,0.2170034945011139,-2.2462379932403564
1697664266604086300,4.795086181640625,1.5991981029510498,0.36605021357536316,-1.8516308069229126
1697664266613678300,4.80467822265625,2.1648426055908203,0.5749599933624268,-1.5181081295013428
1697664266623271000,4.81427099609375,2.6388602256774902,0.8241856694221497,-1.2798776626586914
1697664266632864500,4.823864501953125,2.9088547229766846,0.8620582222938538,-1.0917367935180664
1697664266642457300,4.833457275390625,2.817227602005005,0.9072608947753906,-0.8913788795471191
1697664266652049200,4.843049072265625,2.6657373905181885,0.6116108298301697,-0.6665870547294617
1697664266661642000,4.85264208984375,2.5362377166748047,0.4540122151374817,-0.3758237659931183
1697664266671235600,4.862235595703125,2.647412061691284,-0.10796725004911423,-0.07773031294345856
1697664266680828200,4.871828125,2.890529155731201,-0.30343836545944214,0.12873606383800507
1697664266690421000,4.8814208984375,3.0102553367614746,0.1889045089483261,0.18493400514125824
1697664266700013000,4.891012939453125,3.0737833976745605,0.7887565493583679,0.1751604527235031
1697664266709606400,4.9006064453125,3.193509578704834,1.3849434852600098,0.2020377367734909
1697664266719199200,4.91019921875,3.2301602363586426,1.9322625398635864,0.18371231853961945
1697664266728791000,4.919791015625,3.0994389057159424,2.201035499572754,0.02367033064365387
1697664266738384000,4.9293837890625,2.8343312740325928,2.29388427734375,-0.1913478970527649
1697664266747977500,4.9389775390625,2.4458324909210205,2.183931589126587,-0.34161633253097534
1697664266757570000,4.948570068359375,2.002357244491577,1.7563385963439941,-0.3978142738342285
1697664266767162000,4.958162109375,1.793447494506836,1.4643535614013672,-0.37826716899871826
1697664266776755000,4.9677548828125,1.7641268968582153,1.3263020515441895,-0.2585411071777344
1697664266786348500,4.9773486328125,1.641957402229309,1.232231616973877,-0.0068720318377017975
1697664266795941000,4.986941162109375,1.643179178237915,1.1931374073028564,0.24601873755455017
1697664266805533200,4.996533203125,1.674943208694458,1.0673028230667114,0.3205420970916748
1697664266815125800,5.006125732421875,1.7238109111785889,1.0440906286239624,0.10185877978801727
1697664266824719400,5.01571923828125,1.7225892543792725,1.2077977657318115,-0.44546034932136536
1697664266834312000,5.02531201171875,1.7751221656799316,1.4240376949310303,-1.0831849575042725
1697664266843904000,5.034904052734375,1.9400508403778076,1.625617265701294,-1.5083346366882324
1697664266853496800,5.044496826171875,2.148960590362549,1.945701241493225,-1.7111358642578125
1697664266863090400,5.05409033203125,2.3151111602783203,2.2633419036865234,-1.7025840282440186
1697664266872683000,5.06368310546875,2.3786392211914062,2.4783599376678467,-1.569419264793396
1697664266882275000,5.073275146484375,2.265021562576294,2.3989498615264893,-1.3544011116027832
1697664266891867600,5.08286767578125,2.0377864837646484,2.71903395652771,-1.270104169845581
1697664266901461200,5.092461181640625,1.6639479398727417,2.945047378540039,-1.4570233821868896
1697664266911054000,5.10205419921875,1.4660334587097168,3.000023603439331,-1.593853235244751
1697664266920646000,5.11164599609375,1.2840009927749634,3.150291919708252,-1.6989189386367798
1697664266930238700,5.12123876953125,1.0408837795257568,3.1576220989227295,-1.5730843544006348
1697664266939832300,5.130832275390625,1.0335536003112793,2.786226987838745,-1.3128634691238403
1697664266949425000,5.1404248046875,1.1410627365112305,2.8106608390808105,-1.0734113454818726
1697664266959017000,5.150016845703125,1.1496145725250244,2.7410242557525635,-0.9097042679786682
1697664266968609800,5.15960986328125,1.2363548278808594,2.340308666229248,-0.7337802648544312
1697664266978203100,5.169203125,1.437934398651123,2.3818461894989014,-0.41736137866973877
1697664266987796000,5.1787958984375,1.5063493251800537,2.494241952896118,-0.39292749762535095
1697664266997387800,5.1883876953125,1.6297404766082764,2.3794028759002686,-0.4503471553325653
1697664267006980600,5.197980712890625,1.7286977767944336,2.36596417427063,-0.14736689627170563
1697664267016574200,5.20757421875,1.4696985483169556,1.774664044380188,0.19470755755901337
1697664267026166800,5.217166748046875,1.3292036056518555,0.6604785919189453,0.8521319031715393
1697664267035758800,5.2267587890625,1.3243168592453003,0.7533273696899414,1.5399459600448608
1697664267045351400,5.236351318359375,1.8117729425430298,1.3067549467086792,1.828265905380249
1697664267054945000,5.245945068359375,2.085432529449463,1.8785080909729004,1.6511201858520508
1697664267064537900,5.255537841796875,1.9644848108291626,2.0666489601135254,1.5521628856658936
1697664267074129700,5.265129638671875,1.6883817911148071,1.9493663311004639,1.7647377252578735
1697664267083722500,5.274722412109375,1.744579792022705,1.5193297863006592,1.599808931350708
1697664267093316000,5.284316162109375,2.1281919479370117,1.1503781080245972,1.4617575407028198
1697664267102908700,5.29390869140625,2.195384979248047,0.9243646264076233,1.3994510173797607
1697664267112500700,5.303500732421875,1.9620413780212402,1.0221002101898193,1.5509412288665771
1697664267122093600,5.313093505859375,1.8533105850219727,0.44546034932136536,1.221083641052246
1697664267131687000,5.32268701171875,1.9950271844863892,0.28664007782936096,0.8252546191215515
1697664267141279700,5.33227978515625,2.252804756164551,0.45523393154144287,0.6908682584762573
1697664267150871600,5.34187158203125,2.423841953277588,0.603058934211731,0.7287407517433167
1697664267160464400,5.35146435546875,2.6620724201202393,0.44668206572532654,1.0195040702819824
1697664267170058000,5.36105810546875,2.869760513305664,0.10216420143842697,1.2882769107818604
1697664267179650600,5.370650634765625,3.197174549102783,-0.02367033064365387,1.6059174537658691
1697664267189242600,5.38024267578125,3.5160367488861084,-0.12995775043964386,1.8526997566223145
1697664267198835200,5.389835205078125,3.4879379272460938,-0.3755183517932892,1.9394400119781494
1697664267208428800,5.3994287109375,3.031024217605591,-0.5332696437835693,2.013963460922241
1697664267218021600,5.409021728515625,2.2894554138183594,0.21089501678943634,1.6767756938934326
1697664267227613400,5.418613525390625,1.4135005474090576,0.1620272397994995,1.466644287109375
1697664267237206300,5.428206298828125,1.94249427318573,0.06062658876180649,1.780619740486145
1697664267246800000,5.4377998046875,2.5594499111175537,0.48577627539634705,1.9406617879867554
1697664267256392400,5.447392333984375,3.013920307159424,0.5786250829696655,2.123915910720825
1697664267265984500,5.456984619140625,3.726168394088745,0.4246915578842163,2.4537734985351562
1697664267275577000,5.4665771484375,4.346941947937012,0.2927485406398773,2.845937490463257
1697664267285170700,5.476170654296875,4.469111442565918,0.594507098197937,2.968106746673584
1697664267294763500,5.485763427734375,4.106115341186523,0.7899782061576843,2.695668935775757
1697664267304355300,5.495355224609375,3.274141311645508,0.8021951913833618,2.4427781105041504
1697664267313948200,5.5049482421875,2.328549861907959,1.0367605686187744,2.07993483543396
1697664267323541800,5.514541748046875,1.641957402229309,1.122279167175293,1.6498984098434448
1697664267333134300,5.52413427734375,1.1508362293243408,1.168703556060791,1.1673290729522705
1697664267342726400,5.533726318359375,0.7293516397476196,1.8308619260787964,0.8887827396392822
1697664267352319200,5.5433193359375,0.5045598149299622,2.4001715183258057,0.9413156509399414
1697664267361912600,5.55291259765625,0.9150491952896118,2.4368224143981934,1.5277290344238281
1697664267371505400,5.56250537109375,1.582094430923462,1.1467130184173584,2.1678969860076904
1697664267381097200,5.57209716796875,2.241809368133545,0.04840964451432228,3.048738718032837
1697664267390690000,5.58168994140625,1.9559329748153687,0.07773031294345856,2.2644107341766357
1697664267400283600,5.59128369140625,1.180156946182251,0.04352286830544472,1.4910781383514404
1697664267409876200,5.600876220703125,0.7806627750396729,0.015423892997205257,1.0793671607971191
1697664267419468300,5.61046826171875,0.9260444641113281,0.054518118500709534,0.9852966070175171
1697664267429061000,5.62006103515625,0.8918370008468628,0.37826716899871826,0.860683798789978
1697664267438654500,5.629654541015625,0.41415444016456604,0.5248705148696899,0.4915793240070343
1697664267448247300,5.639247314453125,-0.2480039894580841,0.649483323097229,0.17149536311626434
1697664267457839000,5.648839111328125,-0.7244648337364197,0.6445965766906738,-0.056961506605148315
1697664267467432000,5.658431884765625,-1.2707149982452393,0.8266290426254272,-0.3831539452075958
1697664267477025500,5.668025634765625,-1.7581710815429688,1.0208784341812134,-0.778982937335968
1697664267486618000,5.6776181640625,-2.1136841773986816,1.2530004978179932,-1.1980241537094116
1697664267496210200,5.687210205078125,-2.537612199783325,1.2517787218093872,-1.4606884717941284
1697664267505802800,5.696802734375,-3.0971484184265137,1.288429617881775,-1.648829460144043
1697664267515396400,5.706396240234375,-3.601708173751831,1.5352119207382202,-1.9347059726715088
1697664267524989200,5.7159892578125,-3.653019428253174,1.7343480587005615,-1.9689134359359741
1697664267534581000,5.7255810546875,-3.375694751739502,1.703805685043335,-2.0031208992004395
1697664267544173800,5.735173828125,-3.800844430923462,1.7954328060150146,-2.3329784870147705
1697664267553767400,5.744767333984375,-4.423908710479736,1.9603615999221802,-2.450261116027832
1697664267563360000,5.754360107421875,-3.722656011581421,1.2493354082107544,-2.6188549995422363
1697664267572952000,5.7639521484375,-2.277391195297241,0.30740886926651,-2.462477922439575
1697664267582544600,5.773544677734375,-1.0799779891967773,-0.017561858519911766,-1.852852463722229
1697664267592138200,5.78313818359375,-0.6022953987121582,-0.446529358625412,-1.1344960927963257
1697664267601731000,5.79273095703125,-0.37139514088630676,-1.1147962808609009,-0.4674508571624756
1697664267611323000,5.802322998046875,-0.12461283802986145,-1.300493836402893,-0.04474456235766411
1697664267620915700,5.811915771484375,-0.15149012207984924,-1.0928057432174683,0.1250709742307663
1697664267630509300,5.82150927734375,-0.25411245226860046,-1.372573733329773,-0.1510319858789444
1697664267640102000,5.831101806640625,-0.46546560525894165,-1.6340163946151733,-0.6714738607406616
1697664267649694000,5.84069384765625,-0.948034942150116,-1.4397670030593872,-1.0306520462036133
1697664267659286500,5.85028662109375,-1.2010784149169922,-1.8307092189788818,-1.3678396940231323
1697664267668880100,5.859880126953125,-2.121014356613159,-2.3279387950897217,-1.8687344789505005
1697664267678473000,5.869472900390625,-3.398906946182251,-2.53440523147583,-2.256011724472046
1697664267688064800,5.879064697265625,-4.2773051261901855,-2.695668935775757,-2.256011724472046
1697664267697657600,5.88865771484375,-4.594945907592773,-3.225884437561035,-2.2657852172851562
1697664267707251200,5.898251220703125,-4.640148639678955,-3.528864622116089,-2.2633419036865234
1697664267716843800,5.90784375,-4.560738563537598,-3.497100591659546,-2.0874178409576416
1697664267726435800,5.917435791015625,-4.293187141418457,-3.3187332153320312,-1.7001405954360962
1697664267736028400,5.9270283203125,-3.6114816665649414,-3.040186882019043,-1.3397407531738281
1697664267745622000,5.9366220703125,-2.3152637481689453,-2.5588390827178955,-1.0868499279022217
1697664267755214800,5.94621484375,-1.3195828199386597,-2.3181653022766113,-0.8412894010543823
1697664267764806700,5.955806640625,-0.6914790868759155,-2.1532366275787354,-0.6604785919189453
1697664267774399500,5.9653994140625,0.2235700935125351,-1.5900354385375977,-0.7154548764228821
1697664267783993000,5.9749931640625,0.5534276366233826,-1.096470832824707,-0.7398887276649475
1697664267793585700,5.984585693359375,0.5363239049911499,-0.7690566778182983,-0.5175403356552124
1697664267803177700,5.994177734375,0.8478559851646423,-0.3718532621860504,-0.3196258246898651
1697664267812770300,6.003770263671875,1.0347752571105957,0.27564483880996704,-0.23288552463054657
1697664267822364000,6.013364013671875,1.0799779891967773,0.5212054252624512,-0.06429167091846466
1697664267831956700,6.022956787109375,1.1288456916809082,0.5444176197052002,0.031000498682260513
1697664267841548500,6.032548583984375,1.1862653493881226,0.6922426819801331,-0.22433365881443024
1697664267851141400,6.042141357421875,1.0531007051467896,0.6360446810722351,-0.9561286568641663
1697664267860735000,6.05173486328125,1.2913310527801514,0.39048412442207336,-1.0184351205825806
1697664267870327600,6.06132763671875,2.2063803672790527,-0.4146125912666321,0.05787777900695801
1697664267879919600,6.070919677734375,2.546011447906494,0.2915268540382385,0.3095468580722809
1697664267889512200,6.08051220703125,1.8594191074371338,0.9109259843826294,-0.056961506605148315
1697664267899105800,6.090105712890625,0.856407880783081,1.2395617961883545,-0.11315945535898209
1697664267908698600,6.09969873046875,0.043981000781059265,1.482679009437561,0.13484452664852142
1697664267918290400,6.10929052734375,-0.2480039894580841,1.3605095148086548,0.24479703605175018
1697664267927883300,6.11888330078125,-0.15271180868148804,1.3055332899093628,0.08353336155414581
1697664267937476900,6.128476806640625,0.0525328628718853,1.19191575050354,-0.21944688260555267
1697664267947069400,6.1380693359375,0.22723518311977386,0.9084826111793518,-0.4136963188648224
1697664267956661500,6.14766162109375,0.4459185004234314,0.31229567527770996,-0.5407525300979614
1697664267966254000,6.157254150390625,0.7562289237976074,-0.6285618543624878,-0.6739172339439392
1697664267975847700,6.16684765625,1.0201148986816406,-1.3347012996673584,-0.6213843822479248
1697664267985440300,6.176440185546875,1.086086392402649,-1.6584503650665283,-0.441795289516449
1697664267995032300,6.1860322265625,1.0518789291381836,-1.6682238578796387,-0.22433365881443024
1697664268004625200,6.195625244140625,1.031110167503357,-1.5423892736434937,0.06276455521583557
1697664268014218800,6.20521875,0.7806627750396729,-1.1868761777877808,0.3694098889827728
1697664268023811300,6.214811279296875,0.35795649886131287,-0.9144383668899536,0.5577035546302795
1697664268033403400,6.2244033203125,0.1832541823387146,-0.7617265582084656,0.6041279435157776
1697664268042996000,6.233995849609375,0.17836740612983704,-0.2533488869667053,0.5393781065940857
1697664268052589600,6.243589599609375,0.2492256760597229,0.22677704691886902,0.44515493512153625
1697664268062182100,6.25318212890625,0.5961869359016418,0.41980478167533875,0.3987305462360382
1697664268071774200,6.262774169921875,1.1862653493881226,0.8571714162826538,0.48424917459487915
1697664268081367000,6.272366943359375,1.5100144147872925,1.419150948524475,0.8191461563110352
1697664268090960400,6.28196044921875,1.211920976638794,1.7538951635360718,1.1001359224319458
1697664268100553200,6.29155322265625,0.8160919547080994,1.6463860273361206,1.245517611503601
1697664268110145000,6.30114501953125,0.5558710098266602,1.2957597970962524,1.151447057723999
1697664268119737900,6.31073779296875,0.33718767762184143,0.7264500856399536,0.8777875304222107
1697664268129331500,6.32033154296875,0.284654825925827,0.04474456235766411,0.5723638534545898
1697664268138924000,6.329924072265625,0.1966928243637085,-0.3889569938182831,0.3071034550666809
1697664268148516000,6.33951611328125,0.19302773475646973,-0.7849387526512146,0.14461809396743774
1697664268158109000,6.34910888671875,0.2602209448814392,-1.1099094152450562,0.06887302547693253
1697664268167702300,6.358702392578125,0.2492256760597229,-1.3701304197311401,0.02733541466295719
1697664268177295000,6.368295166015625,0.16615045070648193,-1.5118470191955566,0.11896250396966934
1697664268186887000,6.377886962890625,-0.03665083646774292,-1.136786699295044,0.293664813041687
1697664268196479700,6.387479736328125,0.11606097966432571,-0.45141613483428955,0.19715094566345215
1697664268206073300,6.3970732421875,0.3811686933040619,0.008093725889921188,0.06276455521583557
1697664268215666000,6.406666015625,0.5326588153839111,0.284196674823761,-0.03130592033267021
1697664268225258000,6.416258056640625,0.5925218462944031,0.30252209305763245,-0.10582929104566574
1697664268234850800,6.425850830078125,0.5570927262306213,-0.12995775043964386,0.0004581354442052543
1697664268244444200,6.435444091796875,0.43858832120895386,-0.7140804529190063,0.22280654311180115
1697664268254037000,6.445037109375,0.2101314514875412,-0.8435800671577454,0.43415969610214233
1697664268263628800,6.45462890625,0.03542914241552353,-0.739736020565033,0.5833591222763062
1697664268273221600,6.4642216796875,-0.2626643180847168,-0.6786513328552246,0.7018635272979736
1697664268282815200,6.473815185546875,-0.730573296546936,-0.05543438717722893,0.7702783942222595
1697664268292407800,6.48340771484375,-1.3598986864089966,0.4760027229785919,0.9449806809425354
1697664268301999900,6.492999755859375,-1.9841846227645874,0.2951919436454773,1.1624423265457153
1697664268311592700,6.5025927734375,-2.2981600761413574,0.08261708915233612,1.342031478881836
1697664268321186000,6.51218603515625,-2.3531363010406494,-0.06520794332027435,1.4128897190093994
1697664268330779000,6.52177880859375,-2.2346320152282715,-0.27411770820617676,1.1624423265457153
1697664268340370700,6.53137060546875,-2.0440475940704346,-0.3449759781360626,0.6212316751480103
1697664268349963500,6.540963623046875,-1.9463120698928833,-0.47829338908195496,0.06887302547693253
1697664268359557000,6.55055712890625,-1.7997087240219116,-0.9254335761070251,-0.3709369897842407
1697664268369149700,6.560149658203125,-1.2023000717163086,-1.2846118211746216,-1.002553105354309
1697664268378741800,6.56974169921875,-0.130721315741539,-1.3469182252883911,-1.7367914915084839
1697664268388334600,6.57933447265625,0.5986303091049194,-1.4532055854797363,-2.1949269771575928
1697664268397928000,6.588927978515625,0.8209787011146545,-1.378682255744934,-2.1240687370300293
1697664268407520800,6.598520751953125,0.833195686340332,-1.0427162647247314,-1.6378341913223267
1697664268417112600,6.608112548828125,0.7513421177864075,-0.7886037826538086,-1.0477557182312012
1697664268426705400,6.617705322265625,0.6193991303443909,-0.5442649126052856,-0.5676298141479492
1697664268436299000,6.627299072265625,0.5326588153839111,-0.21181128919124603,-0.12293300777673721
1697664268445891600,6.6368916015625,0.3115321099758148,0.05329642444849014,0.2411319613456726
1697664268455483600,6.646483642578125,-0.02076880633831024,0.3171824514865875,0.3315373361110687
1697664268465076500,6.656076416015625,-0.3054236173629761,0.5126535892486572,0.3633013963699341
1697664268474669800,6.665669921875,-0.5351021885871887,0.6555918455123901,0.4537068009376526
1697664268484262700,6.6752626953125,-0.7379034757614136,0.677582323551178,0.5601469278335571
1697664268493854500,6.6848544921875,-0.9419264793395996,0.5651864409446716,0.7568397521972656
1697664268503447300,6.694447265625,-0.9565867781639099,0.4405735731124878,0.8826742768287659
1697664268513041000,6.704041015625,-0.7098045349121094,0.20722992718219757,0.8851176500320435
1697664268522633500,6.713633544921875,-0.0659715011715889,-0.011453386396169662,0.49646610021591187
1697664268532225500,6.7232255859375,-0.13316470384597778,-0.5650337338447571,0.45981526374816895
1697664268541818400,6.732818359375,-0.18691925704479218,-1.0451596975326538,0.41705596446990967
1697664268551411700,6.74241162109375,-0.15393351018428802,-1.0488247871398926,0.18004722893238068
1697664268561004500,6.752004638671875,-0.16492876410484314,-0.8741224408149719,-0.10705098509788513
1697664268570596400,6.761596435546875,-0.15515519678592682,-0.6786513328552246,-0.33917292952537537
1697664268580189200,6.771189208984375,-0.10873081535100937,-0.10918894410133362,-0.8290724158287048
1697664268589782800,6.78078271484375,-0.2089097648859024,0.26342788338661194,-1.0208784341812134
1697664268599375400,6.790375244140625,-0.22479179501533508,0.6201626658439636,-1.2334532737731934
1697664268608967400,6.799967529296875,-0.12827792763710022,0.8437327742576599,-1.349514365196228
1697664268618560000,6.80956005859375,0.10750912129878998,0.9243646264076233,-1.546207070350647
1697664268628153600,6.819153564453125,0.15271180868148804,1.2652174234390259,-1.562089204788208
1697664268637746400,6.828746337890625,0.1820324808359146,1.6476078033447266,-1.3592878580093384
1697664268647338200,6.838338134765625,0.20768806338310242,2.0446584224700928,-1.0318737030029297
1697664268656931000,6.84793115234375,0.24433889985084534,2.890071153640747,-0.4540122151374817
1697664268666524700,6.857524658203125,0.1979145109653473,3.8918604850769043,0.6029062271118164
1697664268676117200,6.8671171875,0.01588202826678753,3.1515138149261475,0.6297835111618042
1697664268685709000,6.876708984375,0.27121618390083313,0.8632798790931702,-0.8522846102714539
1697664268695302000,6.886302001953125,0.5192201733589172,0.12659808993339539,-1.154043197631836
1697664268704895500,6.8958955078125,0.8380824327468872,-0.4734066128730774,-1.0819631814956665
1697664268714488000,6.905488037109375,1.0555440187454224,-0.9193251132965088,-1.0465340614318848
1697664268724080000,6.915080078125,1.2143644094467163,-1.2467392683029175,-1.1344960927963257
1697664268733673000,6.9246728515625,1.3340904712677002,-1.45198392868042,-1.1955808401107788
1697664268743266300,6.934266357421875,1.243685007095337,-1.6389031410217285,-1.1186140775680542
1697664268752859100,6.943859130859375,1.1166287660598755,-1.7244218587875366,-0.8400676846504211
1697664268762451000,6.953450927734375,1.0640959739685059,-1.6572285890579224,-0.4906630516052246
1697664268772043800,6.963043701171875,1.0763128995895386,-1.4971866607666016,-0.22433365881443024
1697664268781637400,6.972637451171875,1.1141854524612427,-1.3151541948318481,-0.0850604772567749
1697664268791230000,6.98222998046875,1.1031901836395264,-1.1270132064819336,-0.07040014863014221
1697664268800822000,6.991822021484375,1.09219491481781,-0.7702783942222595,-0.04840964451432228
1697664268810414800,7.001414794921875,1.1080769300460815,-0.5234960913658142,-0.12171131372451782
1697664268820008200,7.01100830078125,1.0714260339736938,-0.2790044844150543,-0.23410721123218536
1697664268829601000,7.02060107421875,0.9199360013008118,0.05207473039627075,-0.2927485406398773
1697664268839193000,7.030193115234375,0.8209787011146545,0.34283801913261414,-0.4246915578842163
1697664268848785700,7.03978564453125,0.7806627750396729,0.6580352187156677,-0.5835118293762207
1697664268858379300,7.049379150390625,0.7733326554298401,0.9268079996109009,-0.7496622800827026
1697664268867971800,7.058971923828125,0.8173136115074158,1.1149489879608154,-0.858393132686615
1697664268877564000,7.06856396484375,0.7953231334686279,1.343405842781067,-0.9268079996109009
1697664268887156700,7.07815673828125,0.9077190160751343,1.5535372495651245,-0.8987090587615967
1697664268896750300,7.087750244140625,1.0115630626678467,1.6842585802078247,-0.7911999225616455
1697664268906343000,7.097343017578125,1.0176715850830078,1.7624469995498657,-0.6079457402229309
1697664268915935000,7.10693505859375,0.9492566585540771,1.8406355381011963,-0.30252209305763245
1697664268925527600,7.116527587890625,0.9028322696685791,1.712357521057129,-0.022754060104489326
1697664268935121200,7.12612109375,0.8234221339225769,1.6195087432861328,0.1250709742307663
1697664268944713700,7.135713623046875,0.652384877204895,1.6524945497512817,0.22158484160900116
1697664268954305800,7.145305908203125,0.5241069197654724,1.5901881456375122,0.31565532088279724
1697664268963898600,7.154898681640625,0.43981003761291504,1.3617312908172607,0.34008920192718506
1697664268973492200,7.1644921875,0.40071579813957214,1.130831003189087,0.28755635023117065
1697664268983084800,7.174084716796875,0.393385648727417,0.9744541049003601,0.21181128919124603
1697664268992676600,7.183676513671875,0.4324798583984375,0.6922426819801331,0.14461809396743774
1697664269002269400,7.19326953125,0.4850127100944519,0.3379512429237366,0.04810422286391258
1697664269011863000,7.202863037109375,0.5375455617904663,0.014202198944985867,-0.0325276181101799
1697664269021455600,7.21245556640625,0.5363239049911499,-0.20814619958400726,-0.010537114925682545
1697664269031047700,7.222047607421875,0.4312581717967987,-0.4146125912666321,0.08108997344970703
1697664269040640500,7.231640625,0.21501824259757996,-0.656660795211792,0.1910424828529358
1697664269050233900,7.24123388671875,-0.05864133685827255,-0.7653915882110596,0.2948864996433258
1697664269059826700,7.25082666015625,-0.3542914092540741,-0.6542174220085144,0.4243861436843872
1697664269069418800,7.260418701171875,-0.601073682308197,-0.578472375869751,0.6126797795295715
1697664269079011300,7.27001123046875,-0.7806627750396729,-0.5882459282875061,0.8704573512077332
1697664269088605000,7.27960498046875,-0.8808417320251465,-0.6151232123374939,1.252847671508789
1697664269098197500,7.289197509765625,-0.8759549856185913,-0.7995990514755249,1.7280869483947754
1697664269107789600,7.29878955078125,-0.7647807598114014,-1.0757020711898804,2.23020339012146
1697664269117382400,7.30838232421875,-0.5876350402832031,-1.2821683883666992,2.68467378616333
1697664269126976000,7.31797607421875,-0.42514967918395996,-1.317597508430481,3.0194180011749268
1697664269136568600,7.327568603515625,-0.33474430441856384,-1.2235270738601685,3.205115556716919
1697664269146160600,7.33716064453125,-0.30786702036857605,-1.0304993391036987,3.236879587173462
1697664269155753500,7.34675341796875,-0.33718767762184143,-0.70797199010849,3.0597338676452637
1697664269165346800,7.356346923828125,-0.3286358118057251,-0.3205420970916748,2.6431360244750977
1697664269174939600,7.365939697265625,-0.2638860046863556,0.072843536734581,2.0322887897491455
1697664269184531500,7.375531494140625,-0.1954711228609085,0.49799323081970215,1.3273711204528809
1697664269194124300,7.385124267578125,-0.22967857122421265,0.8083036541938782,0.6945333480834961
1697664269203718000,7.3947177734375,-0.40071579813957214,0.8144121170043945,0.40972578525543213
1697664269213310500,7.404310546875,-0.6707102656364441,0.6702521443367004,0.5308262705802917
1697664269222902500,7.413902587890625,-0.9724688529968262,0.4955498278141022,0.7922688722610474
1697664269232495000,7.4234951171875,-1.2584980726242065,0.21822518110275269,1.0989142656326294
1697664269242088700,7.433088623046875,-1.5846904516220093,0.10705098509788513,1.262621283531189
1697664269251681500,7.442681640625,-1.8827840089797974,0.08261708915233612,1.216196894645691
1697664269261273300,7.4522734375,-2.0953588485717773,0.18279604613780975,1.0304993391036987
1697664269270866200,7.4618662109375,-2.1882076263427734,0.30007871985435486,0.7275190949440002
1697664269280459800,7.471459716796875,-2.1283445358276367,0.28908345103263855,0.4109475016593933
1697664269290052400,7.48105224609375,-1.9927364587783813,0.26098448038101196,0.18493400514125824
1697664269299644400,7.49064453125,-1.8070389032363892,0.21822518110275269,0.02489202655851841
1697664269309237200,7.5002373046875,-1.5773603916168213,0.11682453751564026,-0.11315945535898209
1697664269318830600,7.50983056640625,-1.352568507194519,-0.028557108715176582,-0.24876753985881805
1697664269328423400,7.51942333984375,-1.086086392402649,-0.2912214398384094,-0.335507869720459
1697664269338015200,7.52901513671875,-0.7391251921653748,-0.5638120174407959,-0.43446511030197144
1697664269347608000,7.538608154296875,-0.34573954343795776,-0.7446228265762329,-0.5932853817939758
1697664269357201700,7.54820166015625,0.042759306728839874,-0.8887827396392822,-0.7484406232833862
1697664269366794200,7.557794189453125,0.41048935055732727,-1.0671501159667969,-0.8131904006004333
1697664269376386300,7.56738623046875,0.8038749694824219,-1.3127107620239258,-0.7728744745254517
1697664269385979000,7.576978759765625,1.2058124542236328,-1.5167337656021118,-0.6897992491722107
1697664269395572500,7.586572509765625,1.462368369102478,-1.443432092666626,-0.6531484127044678
1697664269405165300,7.596165283203125,1.5368916988372803,-1.342031478881836,-0.7117897868156433
1697664269414757000,7.605757080078125,1.5039058923721313,-1.433658480644226,-0.8327375054359436
1697664269424350000,7.615349853515625,1.3145432472229004,-1.623021125793457,-0.9561286568641663
1697664269433943600,7.624943603515625,0.9688037633895874,-1.8148272037506104,-0.9194778203964233
1697664269443536100,7.6345361328125,0.5167768001556396,-1.646233320236206,-0.695907711982727
1697664269453128200,7.644128173828125,0.02076880633831024,-1.2247487306594849,-0.36482852697372437
1697664269462721000,7.653720947265625,-0.3701734244823456,-0.6969767212867737,-0.0325276181101799
1697664269472314400,7.663314453125,-0.5998520255088806,-0.30099499225616455,0.26190075278282166
1697664269481907200,7.6729072265625,-0.7342383861541748,-0.22158484160900116,0.6407787799835205
1697664269491499000,7.6824990234375,-0.7782194018363953,-0.06032116711139679,0.9119949340820312
1697664269501091800,7.692091796875,-0.7623373866081238,0.19867807626724243,0.9046648144721985
1697664269510685400,7.701685546875,-0.7525638341903687,0.37704548239707947,0.6151232123374939
1697664269520278000,7.711278076171875,-0.730573296546936,0.24632415175437927,0.26312246918678284
1697664269529870000,7.7208701171875,-0.7110261917114258,-0.4343124032020569,0.14706148207187653
1697664269539463000,7.730462890625,-0.7941014170646667,-0.35230615735054016,0.10918894410133362
1697664269549056300,7.74005615234375,-0.8979454636573792,0.37948885560035706,0.06154286116361618
1697664269558649000,7.749649169921875,-0.8893936276435852,0.6763606071472168,0.020005248486995697
1697664269568241000,7.759240966796875,-0.8588512539863586,0.6800256967544556,-0.10582929104566574
1697664269577833700,7.768833740234375,-0.8356390595436096,0.6238277554512024,-0.2817533016204834
1697664269587427300,7.77842724609375,-0.813648521900177,0.3245126008987427,-0.39048412442207336
1697664269597020000,7.78802001953125,-0.6817055344581604,-0.49417543411254883,-0.7313368916511536
1697664269606612000,7.797612060546875,-0.5680879354476929,-1.410446286201477,-1.2762126922607422
1697664269616204800,7.807204833984375,-0.4080459773540497,-1.5607147216796875,-1.3934953212738037
1697664269625798400,7.81679833984375,-0.16615045070648193,-1.9308881759643555,-1.08074152469635
1697664269635391000,7.826390869140625,0.6218425035476685,-10.770000457763672,1.8636950254440308
1697664269644983000,7.835983154296875,0.6413896083831787,-9.788980484008789,3.555741786956787
1697664269654575600,7.84557568359375,0.9565867781639099,-4.561196327209473,3.2796390056610107
1697664269664169200,7.855169189453125,1.391510009765625,-0.7421793937683105,2.4513299465179443
1697664269673762000,7.864761962890625,1.5307831764221191,0.7643226385116577,1.018282413482666
1697664269683353900,7.874353759765625,1.5943113565444946,1.4667969942092896,-0.728893518447876
1697664269692946700,7.88394677734375,1.6480659246444702,2.585869073867798,-2.374516010284424
1697664269702540300,7.893540283203125,1.5295615196228027,3.8454360961914062,-3.6291961669921875
1697664269712132900,7.9031328125,1.2925528287887573,4.855777740478516,-4.275472640991211
1697664269721724700,7.912724609375,1.1117420196533203,5.995771408081055,-4.13864278793335
1697664269731317200,7.922317138671875,1.1862653493881226,5.788083076477051,-2.7813403606414795
1697664269740910800,7.931910888671875,1.439156174659729,4.414745807647705,-0.73255854845047
1697664269750503700,7.941503662109375,1.3878449201583862,3.0879855155944824,0.739736020565033
1697664269760095500,7.951095458984375,1.1398409605026245,2.0348849296569824,1.2198619842529297
1697664269769688300,7.960688232421875,1.0152281522750854,1.5205515623092651,1.0366077423095703
1697664269779281700,7.97028173828125,1.1251806020736694,1.7526735067367554,0.4903576374053955
1697664269788874500,7.97987451171875,1.3414205312728882,1.8919466733932495,-0.14736689627170563
1697664269798466600,7.989466552734375,1.5136795043945312,1.876064658164978,-0.649483323097229
1697664269808059100,7.99905908203125,1.627297043800354,1.6879236698150635,-0.9035958051681519
1697664269817652700,8.00865283203125,1.6676130294799805,1.4729053974151611,-0.959793746471405
1697664269827245600,8.01824560546875,1.6492875814437866,1.5596457719802856,-0.9060391783714294
1697664269836837400,8.02783740234375,1.6529526710510254,1.7135792970657349,-0.7398887276649475
1697664269846430200,8.03743017578125,1.572320818901062,2.02266788482666,-0.4747810363769531
1697664269856023800,8.04702392578125,1.3585243225097656,2.270672082901001,-0.13514995574951172
1697664269865616400,8.056616455078125,1.0873081684112549,2.323204755783081,0.1763821393251419
1697664269875208400,8.06620849609375,0.7831062078475952,2.5553267002105713,0.39140036702156067
1697664269884801000,8.075801025390625,0.5118899941444397,2.684826374053955,0.5074613690376282
1697664269894394600,8.08539453125,0.30786702036857605,2.5015721321105957,0.4940227270126343
1697664269903987500,8.094987548828126,0.130721315741539,2.1827099323272705,0.32909396290779114
1697664269913579300,8.104579345703126,-0.023212196305394173,1.8589608669281006,0.09452861547470093
1697664269923172000,8.114172119140624,-0.13560809195041656,1.7062491178512573,-0.10094250738620758
1697664269932765700,8.123765625,-0.17348061501979828,1.4606884717941284,-0.2304421216249466
1697664269942358300,8.133358154296875,-0.13316470384597778,1.042868971824646,-0.27808821201324463
1697664269951950300,8.142950439453125,-0.024433890357613564,0.5493044257164001,-0.24754585325717926
1697664269961543000,8.15254296875,0.129499614238739,0.055739812552928925,-0.1644706279039383
1697664269971136500,8.162136474609374,0.2651077210903168,-0.34008920192718506,-0.058183200657367706
1697664269980729300,8.171729248046875,0.30786702036857605,-0.6163448691368103,0.04077405482530594
1697664269990321200,8.181321044921875,0.29320669174194336,-0.8802309036254883,0.09208522737026215
1697664269999914000,8.1909140625,0.2211267054080963,-1.1477819681167603,0.14706148207187653
1697664270009507600,8.200507568359376,0.03665083646774292,-1.2137534618377686,0.32542887330055237
1697664270019100200,8.21010009765625,-0.24433889985084534,-0.9962918758392334,0.6383354067802429
1697664270028692200,8.219692138671874,-0.5253286361694336,-0.8228112459182739,0.9571976661682129
1697664270038285000,8.22928515625,-0.7464553713798523,-0.8264763355255127,1.300493836402893
1697664270047878700,8.238878662109375,-0.8600729703903198,-0.9510892033576965,1.656006932258606
1697664270057471200,8.24847119140625,-0.8478559851646423,-1.0537115335464478,1.938218355178833
1697664270067063300,8.258063232421875,-0.7660024762153625,-0.9535325765609741,2.082378387451172
1697664270076656000,8.26765625,-0.7024743556976318,-0.6957550048828125,2.0445058345794678
1697664270086249500,8.27724951171875,-0.7244648337364197,-0.22036315500736237,1.860029935836792
1697664270095842300,8.28684228515625,-0.7708892226219177,-0.0029015245381742716,1.5814836025238037
1697664270105434000,8.29643408203125,-0.8307522535324097,-0.08108997344970703,1.2479609251022339
1697664270115027000,8.30602685546875,-0.8270871639251709,-0.0065666078589856625,0.9119949340820312
1697664270124620500,8.31562060546875,-0.6694886088371277,0.10338589549064636,0.6542174220085144
1697664270134213000,8.325213134765624,-0.5008947253227234,0.10460758954286575,0.5858024954795837
1697664270143805200,8.33480517578125,-0.448361873626709,-0.0456608310341835,0.8191461563110352
1697664270153398000,8.34439794921875,-0.41048935055732727,-0.04810422286391258,1.2357439994812012
1697664270162991400,8.353991455078125,-0.47646087408065796,0.03130592033267021,1.498408317565918
1697664270172584200,8.363584228515625,-0.582748293876648,0.10094250738620758,1.4080029726028442
1697664270182176000,8.373176025390626,-0.6584933400154114,0.18279604613780975,0.9865183234214783
1697664270191768800,8.382768798828126,-0.8307522535324097,0.2560977041721344,0.36818817257881165
1697664270201362400,8.392362548828125,-1.0213366746902466,0.31473904848098755,-0.24754585325717926
1697664270210955000,8.401955078125,-1.1031901836395264,0.36360684037208557,-0.6861341595649719
1697664270220547000,8.411547119140625,-1.1349542140960693,0.335507869720459,-0.8938222527503967
1697664270230140000,8.421139892578125,-1.147171139717102,0.2964136302471161,-0.9610154628753662
1697664270239733500,8.4307333984375,-1.0836430788040161,0.27564483880996704,-0.8889354467391968
1697664270249326000,8.440326171875,-0.9174925684928894,0.24510246515274048,-0.6934643387794495
1697664270258918100,8.449918212890625,-0.7110261917114258,0.26220619678497314,-0.4808894991874695
1697664270268510700,8.4595107421875,-0.47646087408065796,0.20600824058055878,-0.28786176443099976
1697664270278104300,8.469104248046875,-0.24067382514476776,-0.05543438717722893,-0.1119377613067627
1697664270287697200,8.478697265625,-0.05986303091049194,-0.32542887330055237,0.0016798300202935934
1697664270297289000,8.4882890625,0.0525328628718853,-0.5662553906440735,0.031000498682260513
1697664270306881800,8.4978818359375,0.10873081535100937,-0.8069292306900024,-0.0032069480512291193
1697664270316475400,8.507475341796875,0.15271180868148804,-1.009730577468872,-0.10827267915010452
1697664270326068000,8.51706787109375,0.22479179501533508,-1.105022668838501,-0.23655059933662415
1697664270335660000,8.526659912109375,0.35795649886131287,-1.1465603113174438,-0.32695600390434265
1697664270345252900,8.5362529296875,0.5326588153839111,-1.1147962808609009,-0.3868190348148346
1697664270354846200,8.54584619140625,0.6951441764831543,-0.9889616966247559,-0.4405735731124878
1697664270364439000,8.55543896484375,0.767224133014679,-0.9449806809425354,-0.488219678401947
1697664270374030800,8.56503076171875,0.7415685653686523,-0.9022213816642761,-0.5468609929084778
1697664270383623700,8.574623779296875,0.6548282504081726,-0.8448017835617065,-0.5774033665657043
1697664270393217300,8.58421728515625,0.4727957844734192,-0.8167027831077576,-0.4747810363769531
1697664270402809900,8.593809814453126,0.237008735537529,-0.9608627557754517,-0.20967331528663635
1697664270412402000,8.60340185546875,0.004886778071522713,-0.9107732772827148,0.08719844371080399
1697664270421994800,8.612994873046874,-0.19424942135810852,-0.23868857324123383,0.293664813041687
1697664270431588400,8.62258837890625,-0.25533416867256165,0.1107160672545433,0.5196782946586609
1697664270441181000,8.632180908203125,-0.33596599102020264,0.2292204350233078,0.8044858574867249
1697664270450773000,8.64177294921875,-0.42392799258232117,0.31473904848098755,1.0915840864181519
1697664270460365600,8.651365478515626,-0.53143709897995,0.4405735731124878,1.271173119544983
1697664270469959200,8.660959228515624,-0.7049177289009094,0.594507098197937,1.2467392683029175
1697664270479552000,8.670552001953125,-1.045770525932312,0.5212054252624512,1.0231691598892212
1697664270489143800,8.680143798828125,-1.2633848190307617,0.2793098986148834,0.6920899152755737
1697664270498736600,8.689736572265625,-1.2462811470031738,0.12781979143619537,0.2276933193206787
1697664270508330200,8.699330322265626,-1.2291773557662964,0.22555534541606903,-0.20845162868499756
1697664270517922800,8.7089228515625,-1.0066763162612915,0.4747810363769531,-0.4112529158592224
1697664270527515000,8.718514892578124,-0.809983491897583,0.4027010500431061,-0.35261157155036926
1697664270537107700,8.728107666015624,-0.786771297454834,0.004428642801940441,-0.26342788338661194
1697664270546701000,8.737701171875,-0.8429692387580872,-0.6664343476295471,-0.18646112084388733
1697664270556294000,8.7472939453125,-0.7085828185081482,-1.3505833148956299,-0.1375933438539505
1697664270565885700,8.7568857421875,-0.18691925704479218,-1.8404828310012817,-0.06673506647348404
1697664270575478500,8.766478515625,0.21257483959197998,-1.3334795236587524,-0.14003673195838928
1697664270585072000,8.776072021484374,0.2602209448814392,-0.14828316867351532,-0.46012070775032043
1697664270594664700,8.785664794921875,0.3799470067024231,0.36727190017700195,-0.7740961909294128
1697664270604256800,8.7952568359375,0.5167768001556396,0.5138752460479736,-1.052642583847046
1697664270613849600,8.804849609375,0.7000309824943542,0.5651864409446716,-1.3201936483383179
1697664270623443200,8.814443115234376,0.9614735841751099,0.6800256967544556,-1.5987399816513062
1697664270633035800,8.824035888671874,1.220472812652588,0.8412894010543823,-1.8394137620925903
1697664270642627800,8.8336279296875,1.3902883529663086,1.019656777381897,-1.9066070318222046
1697664270652220400,8.843220458984375,1.4232741594314575,1.1418262720108032,-1.7148009538650513
1697664270661814000,8.85281396484375,1.3792930841445923,1.288429617881775,-1.3531793355941772
1697664270671406800,8.86240673828125,1.3426423072814941,1.5168864727020264,-0.9756757616996765
1697664270680998700,8.87199853515625,1.3939534425735474,1.7929893732070923,-0.6055023670196533
1697664270690591500,8.881591552734376,1.4037270545959473,2.126512050628662,-0.27808821201324463
1697664270700185000,8.89118505859375,1.346307396888733,2.44781756401062,-0.037414394319057465
1697664270709777700,8.900777587890625,1.2705622911453247,2.649397373199463,0.14095300436019897
1697664270719369700,8.91036962890625,1.1777135133743286,2.7055952548980713,0.20814619958400726
1697664270728962300,8.91996240234375,1.0714260339736938,2.6054162979125977,0.11651911586523056
1697664270738556000,8.929555908203126,0.9822424054145813,2.475916624069214,-0.11926792562007904
1697664270748148700,8.939148681640624,0.8918370008468628,2.3366434574127197,-0.45767730474472046
1697664270757740500,8.948740478515624,0.8637380003929138,2.2499032020568848,-0.8278507590293884
1697664270767333400,8.95833349609375,0.9565867781639099,2.224247694015503,-1.1369394063949585
1697664270776927000,8.967927001953125,1.1422843933105469,2.1558327674865723,-1.2762126922607422
1697664270786519600,8.97751953125,1.321873426437378,2.0238897800445557,-1.2126845121383667
1697664270796111600,8.987111572265626,1.4232741594314575,1.972578525543213,-0.9927794933319092
1697664270805704400,8.996704345703124,1.4232741594314575,1.954253077507019,-0.6739172339439392
1697664270815298000,9.006298095703125,1.3182083368301392,1.8687344789505005,-0.3086305856704712
1697664270824890600,9.015890625,1.1202938556671143,1.7441216707229614,0.03955236077308655
1697664270834482700,9.025482666015625,0.8686248064041138,1.7526735067367554,0.3205420970916748
1697664270844075300,9.0350751953125,0.6365028619766235,1.8174233436584473,0.47081053256988525
1697664270853668900,9.0446689453125,0.4581354558467865,1.884616494178772,0.5111264586448669
1697664270863261700,9.05426171875,0.3408527672290802,1.972578525543213,0.4610369801521301
1697664270872853500,9.063853515625,0.3139754831790924,1.8943901062011719,0.34008920192718506
1697664270882446300,9.0734462890625,0.3408527672290802,1.6243956089019775,0.20570281147956848
1697664270892040000,9.0830400390625,0.367730051279068,1.310420036315918,0.11285403370857239
1697664270901632500,9.092632568359376,0.37383851408958435,1.0697462558746338,0.09697200357913971
1697664270911224600,9.102224609375,0.3506263196468353,0.8486195802688599,0.13240113854408264
1697664270920817400,9.1118173828125,0.28221142292022705,0.6470399498939514,0.17027367651462555
1697664270930410800,9.12141064453125,0.1575985997915268,0.5419742465019226,0.19226416945457458
1697664270940003600,9.131003662109375,-0.004886778071522713,0.5065450668334961,0.20936790108680725
1697664270949595600,9.140595703125,-0.1441599577665329,0.2951919436454773,0.21791976690292358
1697664270959188200,9.150188232421876,-0.24067382514476776,-0.14095300436019897,0.2313583940267563
1697664270968781800,9.15978173828125,-0.31886225938796997,-0.5955760478973389,0.3571929335594177
1697664270978374700,9.169374755859375,-0.38727715611457825,-0.9828532338142395,0.6639909744262695
1697664270987966500,9.178966552734375,-0.4446968138217926,-1.199093222618103,1.0024003982543945
1697664270997559300,9.188559326171875,-0.4459185004234314,-1.2919420003890991,1.3212625980377197
1697664271007153000,9.19815283203125,-0.41048935055732727,-1.206423282623291,1.6340163946151733
1697664271016745500,9.207745361328126,-0.33474430441856384,-0.8423583507537842,1.915006160736084
1697664271026337500,9.217337646484374,-0.2235700935125351,-0.892447829246521,2.1275811195373535
1697664271035930400,9.226930419921874,-0.21868331730365753,-0.7128587365150452,2.244863748550415
1697664271045523700,9.236523681640625,-0.2345653474330902,-0.5027272701263428,2.2900664806365967
1697664271055116500,9.246116455078125,-0.29320669174194336,-0.32787227630615234,2.3755850791931152
1697664271064708400,9.255708251953125,-0.4459185004234314,-0.36818817257881165,2.424452781677246
1697664271074301200,9.26530126953125,-0.6584933400154114,-0.6420004963874817,2.1825573444366455
1697664271083894800,9.274894775390624,-0.6413896083831787,-0.5418215394020081,1.6951011419296265
1697664271093487400,9.2844873046875,-0.4300364851951599,0.08139539510011673,1.309045672416687
1697664271103079400,9.294079345703125,-0.2480039894580841,0.695907711982727,1.0891406536102295
1697664271112672300,9.30367236328125,-0.21623992919921875,1.0233218669891357,0.938872218132019
1697664271122265900,9.313265869140626,-0.40193748474121094,1.2224581241607666,0.7983773946762085
1697664271131858400,9.3228583984375,-0.6682668924331665,1.4386980533599854,0.5906893014907837
1697664271141450500,9.332450439453124,-0.8625163435935974,1.546207070350647,0.3620797097682953
1697664271151043000,9.34204296875,-1.0396620035171509,1.444806456565857,0.21914145350456238
1697664271160636700,9.35163671875,-1.2377293109893799,1.2420052289962769,0.12262758612632751
1697664271170229500,9.3612294921875,-1.4099881649017334,0.8877137899398804,-0.02886253222823143
1697664271179821300,9.3708212890625,-1.54193115234375,0.30007871985435486,-0.09727742522954941
1697664271189414100,9.3804140625,-1.6433318853378296,-0.17027367651462555,-0.06062658876180649
1697664271199007700,9.3900078125,-1.5871338844299316,-0.31687700748443604,-0.020310672000050545
1697664271208600300,9.399600341796875,-1.3904410600662231,-0.3046600818634033,0.03588727489113808
1697664271218192400,9.4091923828125,-1.1778662204742432,-0.45019441843032837,0.1507265567779541
1697664271227785000,9.418784912109375,-0.9663603901863098,-0.6554391384124756,0.2313583940267563
1697664271237378600,9.428378662109376,-0.7525638341903687,-0.8130376935005188,0.22647161781787872
1697664271246971400,9.437971435546874,-0.5583143830299377,-0.9767447710037231,0.18126893043518066
1697664271256563200,9.447563232421874,-0.3823903799057007,-1.073258638381958,0.10674555599689484
1697664271266156000,9.457156005859375,-0.2101314514875412,-1.1209046840667725,0.009009997360408306
1697664271275749600,9.46674951171875,-0.042759306728839874,-1.1587772369384766,-0.09605573117733002
1697664271285342200,9.47634228515625,0.11606097966432571,-1.2442958354949951,-0.19745637476444244
1697664271294934300,9.485934326171876,0.22845686972141266,-1.411668062210083,-0.31351736187934875
1697664271304527000,9.495527099609374,0.3384093940258026,-1.568044900894165,-0.4637857675552368
1697664271314120700,9.50512060546875,0.42514967918395996,-1.6731106042861938,-0.62627112865448
1697664271323713300,9.51471337890625,0.43981003761291504,-1.6902143955230713,-0.7765395641326904
1697664271333305300,9.524305419921875,0.38605546951293945,-1.6816625595092773,-0.8681666851043701
1697664271342898000,9.53389794921875,0.3029802441596985,-1.6731106042861938,-0.8693883419036865
1697664271352491500,9.543491455078126,0.19424942135810852,-1.6205778121948242,-0.7814263701438904
1697664271362084400,9.55308447265625,0.0647498071193695,-1.5118470191955566,-0.6287145614624023
1697664271371676200,9.56267626953125,-0.08307522535324097,-1.3310362100601196,-0.43568679690361023
1697664271381269000,9.57226904296875,-0.24067382514476776,-1.106244444847107,-0.2279987335205078
1697664271390862600,9.581862548828125,-0.37506023049354553,-0.9535325765609741,-0.023975754156708717
1697664271400455200,9.591455078125,-0.49234288930892944,-0.938872218132019,0.21914145350456238
1697664271410047200,9.601047119140626,-0.5094466209411621,-1.0488247871398926,0.4622586667537689
1697664271419640000,9.61064013671875,-0.45447036623954773,-1.0573766231536865,0.6627692580223083
1697664271429233400,9.6202333984375,-0.4459185004234314,-1.090362310409546,0.6200099587440491
1697664271438826200,9.629826171875,-0.577861487865448,-1.5827052593231201,0.14217470586299896
1697664271448418300,9.639418212890625,-0.44103172421455383,-1.4886348247528076,-0.284196674823761
1697664271458011000,9.649010986328125,-0.14171656966209412,-0.9559759497642517,-0.6653653979301453
1697664271467604500,9.6586044921875,0.07207997888326645,-0.5222744345664978,-0.9316948056221008
1697664271477197300,9.668197265625,-0.004886778071522713,-0.5125008225440979,-0.9439117312431335
1697664271486789000,9.6777890625,-0.03787253051996231,-1.4739744663238525,-0.44546034932136536
1697664271496382000,9.6873818359375,0.021990500390529633,-2.1764488220214844,0.5882459282875061
1697664271505975600,9.6969755859375,-0.1453816443681717,-0.8301414251327515,0.6591041684150696
1697664271515568000,9.706568115234376,-0.32374903559684753,0.20356485247612,0.31443363428115845
1697664271525160200,9.71616015625,-0.41293275356292725,1.1063971519470215,-0.1754658818244934
1697664271534752800,9.725752685546874,-0.3555130958557129,1.7697771787643433,-0.6897992491722107
1697664271544346400,9.735346435546875,-0.18081079423427582,2.1717147827148438,-1.1198357343673706
1697664271553939200,9.744939208984375,0.03176405653357506,2.306101083755493,-1.3861651420593262
1697664271563531000,9.754531005859375,0.2345653474330902,2.033663272857666,-1.4301460981369019
1697664271573123800,9.764123779296876,0.45324867963790894,1.499782681465149,-1.2982031106948853
1697664271582717400,9.773717529296874,0.7415685653686523,0.9952229261398315,-1.1100621223449707
1697664271592310000,9.78331005859375,1.100746750831604,0.6372663974761963,-1.004996418952942
1697664271601902000,9.792902099609375,1.4269392490386963,0.4869979918003082,-1.0453124046325684
1697664271611495000,9.802494873046875,1.5930896997451782,0.45889899134635925,-1.1296093463897705
1697664271621088300,9.812088134765625,1.5466653108596802,0.45889899134635925,-1.1161706447601318
1697664271630681000,9.82168115234375,1.4110571146011353,0.603058934211731,-0.9976662993431091
1697664271640273200,9.831273193359374,1.2840009927749634,0.9268079996109009,-0.8266290426254272
1697664271649865700,9.84086572265625,1.1923738718032837,1.2444485425949097,-0.6213843822479248
1697664271659459300,9.850459228515625,1.123958945274353,1.537655234336853,-0.43568679690361023
1697664271669052200,9.86005224609375,1.0726478099822998,1.8125364780426025,-0.27808821201324463
1697664271678644000,9.86964404296875,1.031110167503357,2.069092273712158,-0.14248012006282806
1697664271688236800,9.87923681640625,1.0103414058685303,2.2352428436279297,-0.04963133856654167
1697664271697830400,9.888830322265624,1.0237799882888794,2.334200143814087,-0.021532366052269936
1697664271707423000,9.898423095703125,1.0482138395309448,2.329313278198242,-0.09605573117733002
1697664271717015000,9.90801513671875,1.0531007051467896,2.1802666187286377,-0.26098448038101196
1697664271726608000,9.91760791015625,1.0335536003112793,1.9786869287490845,-0.45523393154144287
1697664271736201200,9.927201171875,1.035996913909912,1.8308619260787964,-0.6323796510696411
1697664271745794000,9.9367939453125,1.0934165716171265,1.760003685951233,-0.7350019812583923
1697664271755385900,9.9463857421875,1.1777135133743286,1.7636687755584717,-0.7081246972084045
1697664271764978700,9.955978759765625,1.2302464246749878,1.7367914915084839,-0.5627430081367493
1697664271774572300,9.965572265625,1.2192511558532715,1.72823965549469,-0.36727190017700195
1697664271784164900,9.975164794921875,1.1496145725250244,1.7148009538650513,-0.1889045089483261
1697664271793757000,9.9847568359375,1.0042328834533691,1.6011834144592285,-0.06429167091846466
1697664271803349800,9.994349853515626,0.790436327457428,1.4631319046020508,0.02367033064365387
1697664271812943000,10.003943115234375,0.5619794726371765,1.3617312908172607,0.09452861547470093
1697664271822536000,10.013535888671875,0.36162158846855164,1.3531793355941772,0.1495048701763153
1697664271832128000,10.0231279296875,0.21623992919921875,1.4167075157165527,0.18493400514125824
1697664271841720600,10.032720458984375,0.11972606182098389,1.6121786832809448,0.21058958768844604
1697664271851314200,10.042314208984376,0.0781884491443634,1.760003685951233,0.20814619958400726
1697664271860907000,10.051906982421874,0.12583453953266144,1.4765704870224,0.15316994488239288
1697664271870498800,10.061498779296874,0.129499614238739,1.255443811416626,0.04688252881169319
1697664271880091600,10.071091552734375,0.16370706260204315,0.9500201940536499,-0.1107160672545433
1697664271889685200,10.080685302734375,0.1820324808359146,0.6311579346656799,-0.2145601063966751
1697664271899277800,10.09027783203125,0.1698155403137207,0.3465031087398529,-0.19867807626724243
1697664271908870000,10.099869873046876,0.11606097966432571,0.15591876208782196,-0.09483403712511063
1697664271918462700,10.109462646484374,0,0.10094250738620758,0.007788302376866341
1697664271928056000,10.11905615234375,-0.16126367449760437,0.1901262104511261,0.04810422286391258
1697664271937649000,10.12864892578125,-0.35795649886131287,0.2927485406398773,0.033443886786699295
1697664271947240700,10.13824072265625,-0.5204418897628784,0.22677704691886902,0.010231691412627697
1697664271956833500,10.14783349609375,-0.6438329815864563,0.03497100621461868,0.03955236077308655
1697664271966427100,10.15742724609375,-0.8050966858863831,-0.11529742181301117,0.14461809396743774
1697664271976019700,10.167019775390624,-0.962695300579071,-0.19959434866905212,0.26312246918678284
1697664271985611800,10.17661181640625,-1.0237799882888794,-0.3205420970916748,0.3877353072166443
1697664271995204600,10.18620458984375,-0.9797990322113037,-0.5344913601875305,0.5613686442375183
1697664272004798000,10.1957978515625,-0.8576295375823975,-0.7116370797157288,0.7715001106262207
1697664272014390800,10.205390869140626,-0.7232431769371033,-0.7385143637657166,0.9633061289787292
1697664272023982600,10.214982666015626,-0.5961869359016418,-0.6322268843650818,1.151447057723999
1697664272033575400,10.224575439453124,-0.4813476502895355,-0.5173876285552979,1.4177764654159546
1697664272043169000,10.2341689453125,-0.37261682748794556,-0.5796940326690674,1.828265905380249
1697664272052761900,10.243761962890625,-0.2895416021347046,-0.8240329623222351,2.335268974304199
1697664272062353700,10.253353759765625,-0.23334364593029022,-0.9804098606109619,2.7677488327026367
1697664272071946500,10.262946533203126,-0.16492876410484314,-1.009730577468872,2.9143521785736084
1697664272081539800,10.272539794921874,-0.04031591862440109,-0.8057075142860413,2.701777458190918
1697664272091132700,10.282132568359375,-0.007330167107284069,-0.6090146899223328,2.219208002090454
1697664272100724700,10.291724853515625,-0.12583453953266144,-0.40606072545051575,1.6083608865737915
1697664272110317300,10.3013173828125,-0.28098973631858826,-0.1372879147529602,0.9852966070175171
1697664272119911000,10.310910888671875,-0.3432961702346802,0.1632489264011383,0.44515493512153625
1697664272129503700,10.320503662109376,-0.3823903799057007,0.41980478167533875,0.01511846948415041
1697664272139095600,10.330095458984376,-0.4813476502895355,0.5004366040229797,-0.27564483880996704
1697664272148688400,10.3396884765625,-0.7488987445831299,0.39048412442207336,-0.37948885560035706
1697664272158282000,10.349281982421875,-1.0592091083526611,0.20845162868499756,-0.34405970573425293
1697664272167874600,10.35887451171875,-1.2548329830169678,0.07773031294345856,-0.2915268540382385
1697664272177466600,10.368466552734375,-1.3244695663452148,-0.005344913341104984,-0.252432644367218
1697664272187059200,10.37805908203125,-1.3085875511169434,-0.16050012409687042,-0.17913095653057098
1697664272196652800,10.38765283203125,-1.22795569896698,-0.35352784395217896,-0.04840964451432228
1697664272206245600,10.39724560546875,-1.0824213027954102,-0.4819584786891937,0.08842013776302338
1697664272215837400,10.40683740234375,-0.8845068216323853,-0.5528167486190796,0.2044811248779297
1697664272225430300,10.41643017578125,-0.6719319820404053,-0.6151232123374939,0.28633466362953186
1697664272235024000,10.42602392578125,-0.42759308218955994,-0.6444438695907593,0.3205420970916748
1697664272244616400,10.435616455078126,-0.1844758689403534,-0.7091936469078064,0.29977330565452576
1697664272254208500,10.44520849609375,0.008551862090826035,-0.7812736630439758,0.20936790108680725
1697664272263801000,10.454801025390625,0.16737215220928192,-0.8509102463722229,0.06154286116361618
1697664272273394700,10.464394775390625,0.3139754831790924,-0.8961129188537598,-0.11804623156785965
1697664272282987500,10.473987548828125,0.45080527663230896,-0.883895993232727,-0.31351736187934875
1697664272292579300,10.483579345703125,0.5815265774726868,-0.8521319031715393,-0.5053234100341797
1697664272302172200,10.493172119140626,0.675597071647644,-0.8240329623222351,-0.654370129108429
1697664272311765800,10.502765869140624,0.6939224600791931,-0.8179244995117188,-0.7227849960327148
1697664272321358300,10.5123583984375,0.6316160559654236,-0.8105943202972412,-0.6824691295623779
1697664272330950400,10.521950439453125,0.5082249045372009,-0.7934905886650085,-0.5395308136940002
1697664272340543200,10.531543212890625,0.3274141252040863,-0.7324058413505554,-0.3489464819431305
1697664272350136800,10.54113671875,0.1575985997915268,-0.739736020565033,-0.15958385169506073
1697664272359729400,10.5507294921875,0.01832541823387146,-0.8191461563110352,0.03955236077308655
1697664272369321500,10.560321533203124,-0.10873081535100937,-0.9229902029037476,0.2533488869667053
1697664272378914300,10.569914306640625,-0.2101314514875412,-1.041494607925415,0.4756973087787628
1697664272388507600,10.579507568359375,-0.33230090141296387,-1.207645058631897,0.7226322889328003
1697664272398100500,10.5891005859375,-0.4349232614040375,-1.317597508430481,0.9633061289787292
1697664272407692300,10.5986923828125,-0.49112120270729065,-1.2479609251022339,1.1343433856964111
1697664272417285000,10.60828515625,-0.5436540842056274,-0.9962918758392334,1.1038010120391846
1697664272426878700,10.617878662109375,-0.6927008032798767,-0.8130376935005188,0.8313631415367126
1697664272436471300,10.62747119140625,-0.8454126119613647,-0.8240329623222351,0.4891359508037567
1697664272446063400,10.6370634765625,-0.9553651213645935,-0.9254335761070251,0.12995775043964386
1697664272455656200,10.64665625,-1.0714260339736938,-0.9535325765609741,-0.21211670339107513
1697664272465249500,10.65624951171875,-1.0017894506454468,-0.5882459282875061,-0.5871769189834595
1697664272474842400,10.66584228515625,-0.856407880783081,-0.7067502737045288,-0.7704311013221741
1697664272484434200,10.67543408203125,-0.5534276366233826,-2.3425991535186768,-0.2793098986148834
1697664272494027000,10.685027099609375,-0.4349232614040375,-2.6015985012054443,0.3315373361110687
1697664272503620600,10.69462060546875,-0.45324867963790894,-1.1001359224319458,0.188599094748497
1697664272513213200,10.704213134765626,-0.33718767762184143,0.06429167091846466,-0.15836215019226074
1697664272522805200,10.71380517578125,-0.20524467527866364,0.7740961909294128,-0.649483323097229
1697664272532397800,10.723397705078124,-0.05497625470161438,0.8828269839286804,-1.0648595094680786
1697664272541991400,10.732991455078125,0.07452336698770523,0.6372663974761963,-1.311641812324524
1697664272551584300,10.742584228515625,0.20524467527866364,0.31229567527770996,-1.3739482164382935
1697664272561176000,10.752176025390625,0.4190412163734436,0.004428642801940441,-1.325080394744873
1697664272570769000,10.761768798828125,0.763559103012085,-0.25090551376342773,-1.3006465435028076
1697664272580362500,10.771362548828124,1.1679399013519287,-0.4453076422214508,-1.3446274995803833
1697664272589955000,10.780955078125,1.5051276683807373,-0.4355340898036957,-1.3409624099731445
1697664272599547100,10.790547119140625,1.6444008350372314,-0.2851129472255707,-1.2041326761245728
1697664272609140000,10.800139892578125,1.572320818901062,-0.0456608310341835,-0.996444582939148
1697664272618733600,10.809733642578125,1.4745852947235107,0.2817533016204834,-0.728893518447876
1697664272628326100,10.819326171875,1.346307396888733,0.5908420085906982,-0.44423866271972656
1697664272637918200,10.828918212890626,1.1923738718032837,0.8009734749794006,-0.25976279377937317
1697664272647510800,10.8385107421875,1.0555440187454224,0.959793746471405,-0.18523943424224854
1697664272657104400,10.8481044921875,0.9297095537185669,1.0954018831253052,-0.22189027070999146
1697664272666697000,10.857697021484375,0.8234221339225769,1.2371183633804321,-0.333064466714859
1697664272676289000,10.8672890625,0.7452336549758911,1.3030898571014404,-0.4955498278141022
1697664272685881900,10.8768818359375,0.684148907661438,1.468018651008606,-0.6873558759689331
1697664272695475200,10.88647509765625,0.6413896083831787,1.381278395652771,-0.9084826111793518
1697664272705068000,10.896068115234375,0.5644228458404541,1.238340139389038,-1.1503781080245972
1697664272714660000,10.90566015625,0.5607577562332153,1.185807228088379,-1.3641746044158936
1697664272724252700,10.915252685546875,0.6707102656364441,1.1564866304397583,-1.459466814994812
1697664272733846300,10.92484619140625,0.833195686340332,1.2102410793304443,-1.3996037244796753
1697664272743438800,10.93443896484375,0.9578084945678711,1.1259442567825317,-1.2493354082107544
1697664272753031000,10.944031005859374,1.0103414058685303,0.9500201940536499,-1.0318737030029297
1697664272762623700,10.953623779296874,0.9969027042388916,0.7117897868156433,-0.7728744745254517
1697664272772217300,10.96321728515625,0.911384105682373,0.5957288146018982,-0.4772244095802307
1697664272781810000,10.972809814453125,0.7476770281791687,0.5835118293762207,-0.15958385169506073
1697664272791402000,10.982402099609375,0.5167768001556396,0.8107470273971558,0.1385096162557602
1697664272800994800,10.991994873046876,0.33352261781692505,0.9219212532043457,0.3107685446739197
1697664272810588200,11.001588134765624,0.20035789906978607,1.145491361618042,0.36696648597717285
1697664272820181000,11.011180908203125,0.1588202863931656,1.3372973203659058,0.34131091833114624
1697664272829772800,11.020772705078125,0.20646637678146362,1.3397407531738281,0.26190075278282166
1697664272839365600,11.03036572265625,0.2736595869064331,1.1662601232528687,0.1507265567779541
1697664272848959200,11.039959228515626,0.33596599102020264,0.8522846102714539,-0.0032069480512291193
1697664272858551800,11.0495517578125,0.40071579813957214,0.5028799772262573,-0.1522536724805832
1697664272868143900,11.059143798828124,0.45080527663230896,0.24021568894386292,-0.21822518110275269
1697664272877736400,11.068736328125,0.4349232614040375,0.09361234307289124,-0.1901262104511261
1697664272887330000,11.078330078125,0.3151971995830536,0.03374931216239929,-0.09972081333398819
1697664272896923000,11.0879228515625,0.11972606182098389,-0.04321744292974472,0.02244863659143448
1697664272906514700,11.0975146484375,-0.07330167293548584,-0.15927842259407043,0.1250709742307663
1697664272916107500,11.107107421875,-0.23334364593029022,-0.21425467729568481,0.23380178213119507
1697664272925701000,11.116701171875,-0.3823903799057007,-0.2166980654001236,0.3755183517932892
1697664272935293700,11.126293701171875,-0.5033381581306458,-0.23624517023563385,0.5099047422409058
1697664272944885800,11.1358857421875,-0.6022953987121582,-0.2814478874206543,0.6126797795295715
1697664272954478600,11.145478515625,-0.6878139972686768,-0.3486410677433014,0.7299624681472778
1697664272964072000,11.155072021484376,-0.7330167293548584,-0.40728241205215454,0.9034430980682373
1697664272973664800,11.164664794921874,-0.7244648337364197,-0.47951510548591614,1.0989142656326294
1697664272983256600,11.174256591796874,-0.7000309824943542,-0.5479300022125244,1.2723948955535889
1697664272992849400,11.183849365234375,-0.6633801460266113,-0.5882459282875061,1.4031161069869995
1697664273002443000,11.193443115234375,-0.6267293095588684,-0.6872031688690186,1.4861913919448853
1697664273012035600,11.20303564453125,-0.5644228458404541,-0.8057075142860413,1.5326157808303833
1697664273021627600,11.212627685546876,-0.4446968138217926,-0.8020424246788025,1.5961438417434692
1697664273031220200,11.22222021484375,-0.24678228795528412,-0.7519529461860657,1.6963227987289429
1697664273040813800,11.231813720703125,-0.0659715011715889,-0.7250757217407227,1.8001668453216553
1697664273050406700,11.24140673828125,0.08307522535324097,-0.6371136903762817,1.9137845039367676
1697664273059998500,11.25099853515625,0.2101314514875412,-0.6322268843650818,1.9650956392288208
1697664273069591300,11.26059130859375,0.25777754187583923,-0.6908682584762573,1.8539214134216309
1697664273079185000,11.270184814453126,0.18814095854759216,-0.6273401379585266,1.5851486921310425
1697664273088777500,11.279777587890624,0.04886778071522713,-0.47707170248031616,1.192984700202942
1697664273098369500,11.28936962890625,-0.0659715011715889,-0.293664813041687,0.7104153633117676
1697664273107962400,11.29896240234375,-0.13316470384597778,-0.08353336155414581,0.19226416945457458
1697664273117555700,11.3085556640625,-0.2480039894580841,0.06429167091846466,-0.2157817929983139
1697664273127148500,11.3181484375,-0.448361873626709,0.08261708915233612,-0.39414918422698975
1697664273136740400,11.327740234375,-0.7159129977226257,0.0716218426823616,-0.41980478167533875
1697664273146333200,11.337333251953124,-0.9797990322113037,0.022754060104489326,-0.4002576768398285
1697664273155926800,11.3469267578125,-1.1974133253097534,-0.02367033064365387,-0.333064466714859
1697664273165519400,11.356519287109375,-1.3403515815734863,0.0459662564098835,-0.2707580327987671
1697664273175111400,11.366111328125,-1.4063230752944946,0.11926792562007904,-0.21089501678943634
1697664273184704000,11.3757041015625,-1.4112098217010498,0.09239064902067184,-0.12293300777673721
1697664273194297600,11.385297607421874,-1.32935631275177,0.005650337319821119,-0.025197450071573257
1697664273203890400,11.394890380859374,-1.1691616773605347,-0.1104106456041336,0.07742489129304886
1697664273213482200,11.404482177734375,-0.9565867781639099,-0.2802261710166931,0.16905197501182556
1697664273223075000,11.414074951171875,-0.7134696245193481,-0.4477510452270508,0.2289150059223175
1697664273232668700,11.423668701171875,-0.45080527663230896,-0.5528167486190796,0.2680092453956604
1697664273242261200,11.43326123046875,-0.18081079423427582,-0.5955760478973389,0.2924431264400482
1697664273251853300,11.442853271484376,0.0781884491443634,-0.6615476012229919,0.31199023127555847
1697664273261446100,11.452446044921874,0.30786702036857605,-0.7898254990577698,0.2912214398384094
1697664273271039500,11.46203955078125,0.4556920528411865,-0.92054682970047,0.1776038408279419
1697664273280632300,11.47163232421875,0.5607577562332153,-1.0158389806747437,-0.038636088371276855
1697664273290224000,11.48122412109375,0.6658235192298889,-1.0488247871398926,-0.27442312240600586
1697664273299817000,11.49081689453125,0.7379034757614136,-0.9767447710037231,-0.46134239435195923
1697664273309410600,11.50041064453125,0.7366818189620972,-0.8484668135643005,-0.5786250829696655
1697664273319003100,11.510003173828125,0.6365028619766235,-0.7678350210189819,-0.6164975762367249
1697664273328595200,11.51959521484375,0.4691306948661804,-0.7238540053367615,-0.5810684561729431
1697664273338188000,11.52918798828125,0.25533416867256165,-0.5919110178947449,-0.48455458879470825
1697664273347781400,11.538781494140625,0.061084724962711334,-0.32787227630615234,-0.35138988494873047
1697664273357374200,11.548374267578126,-0.1172826737165451,-0.13240113854408264,-0.1363716572523117
1697664273366966300,11.55796630859375,-0.23823043704032898,-0.11774080991744995,0.16905197501182556
1697664273376558800,11.567558837890624,-0.3005368411540985,-0.16660858690738678,0.4695888161659241
1697664273386152400,11.57715234375,-0.3151971995830536,-0.32909396290779114,0.7214106321334839
1697664273395745000,11.5867451171875,-0.3017585575580597,-0.5198310017585754,0.9266552925109863
1697664273405337000,11.596337158203125,-0.23823043704032898,-0.5515950918197632,0.9926267862319946
1697664273414930000,11.605929931640626,-0.23823043704032898,-0.49295374751091003,0.8631271719932556
1697664273424523500,11.6155234375,-0.3775036036968231,-0.3889569938182831,0.6041279435157776
1697664273434116000,11.6251162109375,-0.46424391865730286,-0.35352784395217896,0.3071034550666809
1697664273443708000,11.6347080078125,-0.5522059202194214,-0.39262208342552185,-0.05207473039627075
1697664273453300700,11.64430078125,-0.6768187880516052,-0.3107685446739197,-0.3220692276954651
1697664273462894300,11.653894287109376,-0.6365028619766235,-0.018783552572131157,-0.44790375232696533
1697664273472487000,11.66348681640625,-0.5424323678016663,-0.07864658534526825,-0.3721587061882019
1697664273482079000,11.673078857421874,-0.5265503525733948,-0.5100574493408203,-0.12293300777673721
1697664273491671600,11.682671630859375,-0.5277720093727112,-0.5699204802513123,-0.055739812552928925
1697664273501265200,11.69226513671875,-0.5045598149299622,-0.09941539168357849,-0.3611634373664856
1697664273510858000,11.70185791015625,-0.4056025743484497,0.39414918422698975,-0.7631009221076965
1697664273520449800,11.71144970703125,-0.2223484069108963,0.571294903755188,-1.0269869565963745
1697664273530042600,11.721042724609376,-0.009773556143045425,0.5383091568946838,-1.1503781080245972
1697664273539636200,11.73063623046875,0.1832541823387146,0.3746020793914795,-1.1748119592666626
1697664273549228800,11.740228759765625,0.3530697226524353,0.16935740411281586,-1.1638166904449463
1697664273558820900,11.74982080078125,0.5558710098266602,-0.013896775431931019,-1.200467586517334
1697664273568413700,11.75941357421875,0.8502993583679199,-0.1507265567779541,-1.2859861850738525
1697664273578007000,11.769007080078126,1.178935170173645,-0.17149536311626434,-1.3409624099731445
1697664273587600000,11.778599853515624,1.3499724864959717,-0.07498150318861008,-1.2762126922607422
1697664273597191700,11.788191650390624,1.3499724864959717,0.1754658818244934,-1.1198357343673706
1697664273606784500,11.797784423828125,1.3438639640808105,0.47111594676971436,-0.9231429100036621
1697664273616378000,11.807378173828125,1.3414205312728882,0.700794517993927,-0.6836907863616943
1697664273625970700,11.816970703125,1.2717839479446411,0.9011524319648743,-0.45767730474472046
1697664273635562800,11.826562744140626,1.1740484237670898,1.08074152469635,-0.29885703325271606
1697664273645155600,11.836155517578124,1.0640959739685059,1.238340139389038,-0.18768282234668732
1697664273654749000,11.8457490234375,0.9492566585540771,1.3776133060455322,-0.14248012006282806
1697664273664341800,11.855341796875,0.8722898960113525,1.4777922630310059,-0.1656923145055771
1697664273673933600,11.86493359375,0.813648521900177,1.552315592765808,-0.2536543309688568
1697664273683526400,11.8745263671875,0.7733326554298401,1.5779712200164795,-0.39292749762535095
1697664273693120000,11.8841201171875,0.730573296546936,1.529103398323059,-0.5700731873512268
1697664273702712600,11.893712646484374,0.6731536984443665,1.4521366357803345,-0.7679877281188965
1697664273712304600,11.9033046875,0.6633801460266113,1.3470709323883057,-0.9341381788253784
1697664273721897500,11.9128974609375,0.707361102104187,1.2676607370376587,-1.0184351205825806
1697664273731490800,11.92249072265625,0.781884491443634,1.2456703186035156,-1.0013313293457031
1697664273741083600,11.932083740234376,0.8197570443153381,1.2163496017456055,-0.8999307155609131
1697664273750675500,11.941675537109376,0.7855495810508728,1.0905150175094604,-0.7667660117149353
1697664273760268300,11.951268310546874,0.6743753552436829,0.9952229261398315,-0.62627112865448
1697664273769862000,11.96086181640625,0.5167768001556396,0.9512419104576111,-0.4662291705608368
1697664273779454500,11.970454345703125,0.3249707520008087,0.9292513728141785,-0.28786176443099976
1697664273789046500,11.980046630859375,0.13682979345321655,0.9585720896720886,-0.13148486614227295
1697664273798639400,11.989639404296875,0.008551862090826035,1.0306520462036133,-0.04840964451432228
1697664273808232700,11.999232666015626,-0.029320668429136276,1.1283875703811646,-0.06551336497068405
1697664273817825500,12.008825439453124,0.025655584409832954,1.2077977657318115,-0.1498102843761444
1697664273827417300,12.018417236328125,0.12339114397764206,1.1809204816818237,-0.2304421216249466
1697664273837010200,12.02801025390625,0.23090025782585144,1.0123265981674194,-0.27320143580436707
1697664273846603800,12.037603759765625,0.33230090141296387,0.7252284288406372,-0.2976353168487549
1697664273856196400,12.0471962890625,0.4056025743484497,0.40636613965034485,-0.28664007782936096
1697664273865788400,12.056788330078126,0.41537612676620483,0.17913095653057098,-0.19379130005836487
1697664273875381200,12.06638134765625,0.3310792148113251,0.07528692483901978,-0.009315420873463154
1697664273884974600,12.075974609375,0.15393351018428802,-0.0261137206107378,0.19348587095737457
1697664273894567400,12.0855673828125,-0.042759306728839874,-0.11774080991744995,0.3217637836933136
1697664273904159200,12.0951591796875,-0.20402298867702484,-0.14583978056907654,0.36818817257881165
