time,seconds_elapsed,z,y,x
1698317275499851800,0.182851806640625,-0.06352811306715012,0.32573428750038147,-0.6238277554512024
1698317275509444600,0.192444580078125,-0.09040539711713791,0.34161633253097534,-0.6702521443367004
1698317275519038000,0.202037841796875,-0.10017894953489304,0.30740886926651,-0.672695517539978
1698317275528630800,0.211630859375,-0.09040539711713791,0.25121092796325684,-0.6323796510696411
1698317275538222600,0.22122265625,-0.04886778071522713,0.20845162868499756,-0.5578562617301941
1698317275547815400,0.2308154296875,0.03420744836330414,0.19501298666000366,-0.44790375232696533
1698317275557409000,0.240408935546875,0.1429382562637329,0.2047865390777588,-0.31473904848098755
1698317275567001600,0.250001708984375,0.2211267054080963,0.21944688260555267,-0.16691401600837708
1698317275576593400,0.259593505859375,0.19424942135810852,0.23166382312774658,-0.0032069480512291193
1698317275586186200,0.269186279296875,0.1050657257437706,0.22555534541606903,0.164165198802948
1698317275595779800,0.27877978515625,0.01954711228609085,0.17424418032169342,0.30099499225616455
1698317275605372400,0.288372314453125,-0.043981000781059265,0.08017370104789734,0.39262208342552185
1698317275614964500,0.297964599609375,-0.05497625470161438,-0.029778804630041122,0.42927291989326477
1698317275624557000,0.30755712890625,-0.03787253051996231,-0.14095300436019897,0.41949936747550964
1698317275634150700,0.317150634765625,-0.03298575058579445,-0.24601873755455017,0.36452311277389526
1698317275643743200,0.3267431640625,-0.01832541823387146,-0.2301367074251175,0.3474193811416626
1698317275653335300,0.336335205078125,0.0012216945178806782,-0.18737739324569702,0.3706315755844116
1698317275662928000,0.345927978515625,-0.01954711228609085,-0.22036315500736237,0.3828485310077667
1698317275672521500,0.355521484375,-0.08551861345767975,-0.32787227630615234,0.39506545662879944
1698317275682114300,0.3651142578125,-0.20646637678146362,-0.399952232837677,0.42072105407714844
1698317275691706000,0.3747060546875,-0.35795649886131287,-0.41949936747550964,0.45737189054489136
1698317275701299000,0.384298828125,-0.5118899941444397,-0.4575245976448059,0.4695888161659241
1698317275710892300,0.393892333984375,-0.660936713218689,-0.5381564497947693,0.42927291989326477
1698317275720485000,0.403485107421875,-0.7721109390258789,-0.5992411375045776,0.3608580231666565
1698317275730077000,0.413076904296875,-0.8674030900001526,-0.5748072862625122,0.30221667885780334
1698317275739669800,0.422669677734375,-0.9553651213645935,-0.5100574493408203,0.24601873755455017
1698317275749263400,0.432263427734375,-0.9895725846290588,-0.4819584786891937,0.19837264716625214
1698317275758856000,0.44185595703125,-0.9358180165290833,-0.45141613483428955,0.1385096162557602
1698317275768447700,0.45144775390625,-0.8014315962791443,-0.3339807391166687,-0.02641914412379265
1698317275778040600,0.46104052734375,-0.7281299233436584,-0.16538690030574799,-0.1913478970527649
1698317275787634200,0.47063427734375,-0.7024743556976318,0.07650861889123917,-0.26342788338661194
1698317275797226800,0.480226806640625,-0.5253286361694336,0.16813570261001587,-0.23166382312774658
1698317275806818600,0.489818603515625,-0.23334364593029022,0.0594048947095871,-0.12781979143619537
1698317275816411400,0.499411376953125,0.05008947476744652,-0.18004722893238068,0.0065666078589856625
1698317275826005000,0.5090048828125,0.23212195932865143,-0.4611896872520447,0.10430216789245605
1698317275835597600,0.51859765625,0.17348061501979828,-0.7788302302360535,0.09086353331804276
1698317275845189600,0.528189697265625,-0.01710372418165207,-0.943759024143219,0.037108972668647766
1698317275854782200,0.5377822265625,-0.21501824259757996,-1.0231691598892212,-0.055739812552928925
1698317275864375800,0.547375732421875,-0.45202696323394775,-1.119683027267456,-0.24876753985881805
1698317275873968400,0.556968505859375,-0.5925218462944031,-0.9877400398254395,-0.4246915578842163
1698317275883560400,0.566560546875,-0.6499415040016174,-0.7153021693229675,-0.5590779781341553
1698317275893153000,0.576153076171875,-0.6694886088371277,-0.4158342778682709,-0.6824691295623779
1698317275902746600,0.58574658203125,-0.6951441764831543,-0.1104106456041336,-0.7850914597511292
1698317275912339200,0.595339111328125,-0.7464553713798523,0.19256959855556488,-0.835180938243866
1698317275921931300,0.60493115234375,-0.8026533126831055,0.4503471553325653,-0.8083036541938782
1698317275931524000,0.614524169921875,-0.873511552810669,0.7105680704116821,-0.7020162343978882
1698317275941117400,0.624117431640625,-0.9541434049606323,0.9683456420898438,-0.5456393361091614
1698317275950710300,0.633710205078125,-1.022558331489563,1.1723686456680298,-0.39048412442207336
1698317275960302000,0.643302001953125,-1.0408837795257568,1.1796988248825073,-0.2793098986148834
1698317275969895000,0.65289501953125,-0.9895725846290588,0.9524635672569275,-0.20356485247612
1698317275979488300,0.66248828125,-0.9223793745040894,0.6519267559051514,-0.13026317954063416
1698317275989081000,0.6720810546875,-0.8490777015686035,0.4527905285358429,-0.056961506605148315
1698317275998673000,0.6816728515625,-0.758672297000885,0.4674508571624756,-0.01175880990922451
1698317276008265700,0.691265625,-0.6865923404693604,0.6274928450584412,0.04688252881169319
1698317276017859000,0.700859130859375,-0.6474980711936951,0.7826480269432068,0.12873606383800507
1698317276027452000,0.710451904296875,-0.6193991303443909,0.8241856694221497,0.2423536479473114
1698317276037043700,0.720043701171875,-0.5913001298904419,0.7411104440689087,0.3608580231666565
1698317276046636500,0.729636474609375,-0.5717530250549316,0.566408097743988,0.4537068009376526
1698317276056230000,0.73922998046875,-0.5680879354476929,0.32817769050598145,0.5210527181625366
1698317276065822700,0.74882275390625,-0.6328377723693848,-0.03588727489113808,0.5491516590118408
1698317276075414500,0.75841455078125,-0.7525638341903687,-0.4416425824165344,0.5760289430618286
1698317276085007400,0.76800732421875,-0.8588512539863586,-0.7140804529190063,0.6395570635795593
1698317276094601000,0.77760107421875,-0.9529217481613159,-0.9229902029037476,0.7177455425262451
1698317276104193500,0.787193603515625,-1.012784719467163,-1.0769237279891968,0.8020424246788025
1698317276113785600,0.79678564453125,-1.0091196298599243,-1.1209046840667725,0.8521319031715393
1698317276123378200,0.806378173828125,-0.9468132257461548,-0.9950701594352722,0.8350282311439514
1698317276132971800,0.8159716796875,-0.8319739699363708,-0.7776085734367371,0.7678350210189819
1698317276142564400,0.825564453125,-0.6963658928871155,-0.5772506594657898,0.6615476012229919
1698317276152156400,0.835156494140625,-0.5558710098266602,-0.47707170248031616,0.5332696437835693
1698317276161749000,0.8447490234375,-0.42881476879119873,-0.4734066128730774,0.40606072545051575
1698317276171342600,0.854342529296875,-0.36039987206459045,-0.5320479869842529,0.28633466362953186
1698317276180935200,0.86393505859375,-0.36284327507019043,-0.5980194807052612,0.1910424828529358
1698317276190527200,0.87352734375,-0.37506023049354553,-0.5845808386802673,0.11529742181301117
1698317276200119800,0.883119873046875,-0.3799470067024231,-0.45385950803756714,0.050547610968351364
1698317276209713400,0.89271337890625,-0.3640649616718292,-0.2716743052005768,0.02489202655851841
1698317276219306000,0.902305908203125,-0.3139754831790924,-0.09575030952692032,0.028557108715176582
1698317276228898000,0.91189794921875,-0.21990501880645752,0.017867282032966614,0.02244863659143448
1698317276238490600,0.92149072265625,-0.10017894953489304,0.037414394319057465,-0.02886253222823143
1698317276248084200,0.931084228515625,-0.02076880633831024,-0.08353336155414581,-0.14003673195838928
1698317276257676800,0.9406767578125,-0.03176405653357506,-0.270452618598938,-0.2548760175704956
1698317276267268900,0.950268798828125,-0.05619794875383377,-0.31443363428115845,-0.30007871985435486
1698317276276861700,0.95986181640625,-0.024433890357613564,-0.3083251416683197,-0.2939702570438385
1698317276286455000,0.969455078125,0.03542914241552353,-0.3180987238883972,-0.27564483880996704
1698317276296047600,0.979047607421875,0.09284878522157669,-0.2973299026489258,-0.24876753985881805
1698317276305639700,0.9886396484375,0.13927318155765533,-0.2313583940267563,-0.2145601063966751
1698317276315232500,0.998232421875,0.1698155403137207,-0.1519482582807541,-0.1766875684261322
1698317276324825900,1.007825927734375,0.18569757044315338,-0.0725381150841713,-0.13270656764507294
1698317276334418400,1.01741845703125,0.1832541823387146,-0.013896775431931019,-0.07895200699567795
1698317276344010500,1.027010498046875,0.16370706260204315,0.04840964451432228,-0.0032069480512291193
1698317276353603300,1.036603271484375,0.12827792763710022,0.09361234307289124,0.08964183181524277
1698317276363196700,1.04619677734375,0.07207997888326645,0.07773031294345856,0.1910424828529358
1698317276372789200,1.055789306640625,-0.0012216945178806782,0.0068720318377017975,0.296108216047287
1698317276382381300,1.06538134765625,-0.06963659077882767,-0.06642963737249374,0.3852919042110443
1698317276391974000,1.074973876953125,-0.12216944992542267,-0.10430216789245605,0.4366030693054199
1698317276401567500,1.0845673828125,-0.15515519678592682,-0.08719844371080399,0.44515493512153625
1698317276411160000,1.09416015625,-0.16004198789596558,0.004428642801940441,0.43049460649490356
1698317276420752100,1.103752197265625,-0.15026842057704926,0.13270656764507294,0.4133908748626709
1698317276430345000,1.113344970703125,-0.13438639044761658,0.2829749882221222,0.40483900904655457
1698317276439938300,1.122938232421875,-0.10750912129878998,0.41736137866973877,0.4158342778682709
1698317276449531000,1.13253076171875,-0.07330167293548584,0.5126535892486572,0.45737189054489136
1698317276459123000,1.142123046875,-0.029320668429136276,0.571294903755188,0.5172349214553833
1698317276468715800,1.1517158203125,0.021990500390529633,0.5908420085906982,0.5931326746940613
1698317276478309000,1.16130908203125,0.0659715011715889,0.5957288146018982,0.6688777208328247
1698317276487902000,1.17090185546875,0.10017894953489304,0.5908420085906982,0.7226322889328003
1698317276497493800,1.18049365234375,0.13805148005485535,0.5737382769584656,0.7519529461860657
1698317276507086600,1.190086669921875,0.19180603325366974,0.5358657836914062,0.7568397521972656
1698317276516680000,1.199679931640625,0.24311721324920654,0.47355934977531433,0.7238540053367615
1698317276526272800,1.209272705078125,0.2724378705024719,0.36482852697372437,0.6285618543624878
1698317276535864600,1.218864501953125,0.26999449729919434,0.18157434463500977,0.4683671295642853
1698317276545457400,1.22845751953125,0.2492256760597229,-0.0004581354442052543,0.26067906618118286
1698317276555050800,1.23805078125,0.23090025782585144,-0.09941539168357849,0.03833066672086716
1698317276564643300,1.247643310546875,0.22723518311977386,-0.09086353331804276,-0.15469707548618317
1698317276574235400,1.2572353515625,0.25411245226860046,0.016645587980747223,-0.27564483880996704
1698317276583828200,1.266828125,0.3176405727863312,0.19501298666000366,-0.28908345103263855
1698317276593421600,1.276421630859375,0.4056025743484497,0.4283566474914551,-0.18523943424224854
1698317276603014400,1.286014404296875,0.47646087408065796,0.6421532034873962,0.029778804630041122
1698317276612606200,1.295606201171875,0.5021164417266846,0.7679877281188965,0.31565532088279724
1698317276622199000,1.305198974609375,0.4874561131000519,0.7777612805366516,0.6065713167190552
1698317276631792400,1.31479248046875,0.4593571424484253,0.6824691295623779,0.846023440361023
1698317276641385000,1.324385009765625,0.4324798583984375,0.4869979918003082,1.0133955478668213
1698317276650977000,1.33397705078125,0.4092676639556885,0.22066856920719147,1.105022668838501
1698317276660569900,1.34356982421875,0.393385648727417,-0.04443913698196411,1.1245697736740112
1698317276670163200,1.3531630859375,0.38483378291130066,-0.24846212565898895,1.0805888175964355
1698317276679755800,1.362755859375,0.38483378291130066,-0.3962871730327606,0.9926267862319946
1698317276689347800,1.372347900390625,0.3897205591201782,-0.5051707029342651,0.869235634803772
1698317276698940700,1.381940673828125,0.38483378291130066,-0.5662553906440735,0.7250757217407227
1698317276708534000,1.391533935546875,0.367730051279068,-0.5650337338447571,0.5662553906440735
1698317276718126600,1.401126708984375,0.3396310806274414,-0.4990622103214264,0.4011739492416382
1698317276727718700,1.41071875,0.3017585575580597,-0.3865135908126831,0.24479703605175018
1698317276737311500,1.4203115234375,0.258999228477478,-0.26312246918678284,0.11774080991744995
1698317276746904800,1.42990478515625,0.1979145109653473,-0.1104106456041336,0.04321744292974472
1698317276756497400,1.439497314453125,0.13682979345321655,0.03130592033267021,0.016340164467692375
1698317276766089500,1.44908935546875,0.08918370306491852,0.10705098509788513,0.017561858519911766
1698317276775682300,1.458682373046875,0.046424392610788345,0.15958385169506073,0.03955236077308655
1698317276785275600,1.468275634765625,0.008551862090826035,0.18279604613780975,0.06032116711139679
1698317276794868200,1.4778681640625,-0.024433890357613564,0.1656923145055771,0.06887302547693253
1698317276804460300,1.487460205078125,-0.04886778071522713,0.14858859777450562,0.07498150318861008
1698317276814052900,1.497052978515625,-0.05864133685827255,0.15958385169506073,0.0847550556063652
1698317276823646500,1.506646484375,-0.05864133685827255,0.18523943424224854,0.08719844371080399
1698317276833239000,1.516239013671875,-0.047646086663007736,0.2011214643716812,0.08353336155414581
1698317276842831000,1.5258310546875,-0.02076880633831024,0.20967331528663635,0.09086353331804276
1698317276852423700,1.535423583984375,0.004886778071522713,0.20234315097332,0.11529742181301117
1698317276862017300,1.545017333984375,0.009773556143045425,0.20600824058055878,0.16538690030574799
1698317276871609900,1.55460986328125,0.007330167107284069,0.15591876208782196,0.21914145350456238
1698317276881202000,1.564201904296875,0.0036650835536420345,0.07040014863014221,0.2680092453956604
1698317276890794500,1.57379443359375,-0.013438640162348747,-0.02244863659143448,0.3071034550666809
1698317276900388000,1.58338818359375,-0.04153761267662048,-0.10430216789245605,0.3315373361110687
1698317276909980700,1.592980712890625,-0.08307522535324097,-0.14828316867351532,0.3352024257183075
1698317276919572700,1.60257275390625,-0.129499614238739,-0.15927842259407043,0.31687700748443604
1698317276929165300,1.612165283203125,-0.17348061501979828,-0.14461809396743774,0.2838912606239319
1698317276938759000,1.621759033203125,-0.1966928243637085,-0.06887302547693253,0.24724042415618896
1698317276948351500,1.6313515625,-0.1966928243637085,0.03497100621461868,0.20692451298236847
1698317276957943600,1.640943603515625,-0.1710372269153595,0.09972081333398819,0.16660858690738678
1698317276967536000,1.6505361328125,-0.13316470384597778,0.12048961967229843,0.14217470586299896
1698317276977129700,1.660129638671875,-0.08674030750989914,0.09116895496845245,0.1495048701763153
1698317276986722300,1.669722412109375,-0.0390942245721817,-0.009009997360408306,0.18371231853961945
1698317276996314000,1.679314208984375,-0.010995250195264816,-0.16660858690738678,0.2313583940267563
1698317277005907000,1.688906982421875,-0.0036650835536420345,-0.34008920192718506,0.2802261710166931
1698317277015500500,1.69850048828125,-0.009773556143045425,-0.5002838969230652,0.3217637836933136
1698317277025093000,1.708093017578125,-0.029320668429136276,-0.6114581227302551,0.35597124695777893
1698317277034685000,1.717684814453125,-0.0525328628718853,-0.6444438695907593,0.3742966651916504
1698317277044277800,1.72727783203125,-0.05864133685827255,-0.5919110178947449,0.376740038394928
1698317277053871000,1.73687109375,-0.0525328628718853,-0.49295374751091003,0.3620797097682953
1698317277063464000,1.7464638671875,-0.043981000781059265,-0.40728241205215454,0.31687700748443604
1698317277073055700,1.7560556640625,-0.028098974376916885,-0.3584146201610565,0.2545706033706665
1698317277082648600,1.765648681640625,-0.004886778071522713,-0.3217637836933136,0.21058958768844604
1698317277092242000,1.775241943359375,0.006108472589403391,-0.2973299026489258,0.2020377367734909
1698317277101834800,1.784834716796875,-0.014660334214568138,-0.32909396290779114,0.21791976690292358
1698317277111426600,1.794426513671875,-0.07207997888326645,-0.42453885078430176,0.2435753494501114
1698317277121019400,1.804019287109375,-0.16004198789596558,-0.5259394645690918,0.28999972343444824
1698317277130612700,1.81361279296875,-0.261442631483078,-0.5625903010368347,0.3327590525150299
1698317277140205300,1.823205322265625,-0.34940463304519653,-0.5296045541763306,0.34008920192718506
1698317277149797400,1.83279736328125,-0.41171106696128845,-0.45263782143592834,0.28877803683280945
1698317277159390200,1.84239013671875,-0.45080527663230896,-0.36696648597717285,0.1629435122013092
1698317277168983600,1.851983642578125,-0.4703523814678192,-0.296108216047287,-0.017867282032966614
1698317277178576100,1.861576171875,-0.4752391576766968,-0.22280654311180115,-0.21333840489387512
1698317277188168200,1.871168212890625,-0.4679090082645416,-0.14095300436019897,-0.3868190348148346
1698317277197761000,1.880760986328125,-0.4605788290500641,-0.07498150318861008,-0.5224271416664124
1698317277207354400,1.890354248046875,-0.4569137394428253,-0.051769305020570755,-0.6128324866294861
1698317277216947000,1.899947021484375,-0.4446968138217926,-0.06765133142471313,-0.6433748602867126
1698317277226539000,1.9095390625,-0.41293275356292725,-0.08108997344970703,-0.6006155610084534
1698317277236131600,1.919131591796875,-0.37261682748794556,-0.0847550556063652,-0.49677154421806335
1698317277245725200,1.92872509765625,-0.3310792148113251,-0.07620319724082947,-0.3501681983470917
1698317277255317800,1.93831787109375,-0.29320669174194336,-0.05543438717722893,-0.18646112084388733
1698317277264909800,1.947909912109375,-0.25411245226860046,-0.037108972668647766,-0.039857782423496246
1698317277274502400,1.95750244140625,-0.21257483959197998,-0.06276455521583557,0.07009471952915192
1698317277284096000,1.967095947265625,-0.17592400312423706,-0.13117945194244385,0.14706148207187653
1698317277293688600,1.9766884765625,-0.1429382562637329,-0.2289150059223175,0.19715094566345215
1698317277303280400,1.9862802734375,-0.12583453953266144,-0.3352024257183075,0.22524993121623993
1698317277312873200,1.995873291015625,-0.1319430023431778,-0.4146125912666321,0.23502348363399506
1698317277322466600,2.005466552734375,-0.1575985997915268,-0.4709632396697998,0.2313583940267563
1698317277332059400,2.015059326171875,-0.19424942135810852,-0.5063923597335815,0.21303297579288483
1698317277341651200,2.024651123046875,-0.23823043704032898,-0.5149442553520203,0.1763821393251419
1698317277351244000,2.034244140625,-0.284654825925827,-0.5100574493408203,0.11529742181301117
1698317277360837400,2.04383740234375,-0.32374903559684753,-0.4953971207141876,0.028557108715176582
1698317277370430200,2.05343017578125,-0.34696123003959656,-0.4721849262714386,-0.08628217875957489
1698317277380022000,2.06302197265625,-0.3518480062484741,-0.4416425824165344,-0.20845162868499756
1698317277389614800,2.07261474609375,-0.34818294644355774,-0.4146125912666321,-0.3245126008987427
1698317277399208200,2.082208251953125,-0.33596599102020264,-0.3987305462360382,-0.4234698712825775
1698317277408800800,2.09180078125,-0.30908870697021484,-0.3742966651916504,-0.4906630516052246
1698317277418392800,2.101392822265625,-0.27976804971694946,-0.3217637836933136,-0.5150969624519348
1698317277427985400,2.1109853515625,-0.25655585527420044,-0.23868857324123383,-0.5028799772262573
1698317277437579000,2.1205791015625,-0.24678228795528412,-0.17149536311626434,-0.4637857675552368
1698317277447171600,2.130171630859375,-0.25533416867256165,-0.13973131775856018,-0.4100312292575836
1698317277456763600,2.139763671875,-0.2638860046863556,-0.12629267573356628,-0.35138988494873047
1698317277466356200,2.149356201171875,-0.26632940769195557,-0.13240113854408264,-0.28664007782936096
1698317277475949800,2.15894970703125,-0.258999228477478,-0.18004722893238068,-0.2279987335205078
1698317277485542400,2.16854248046875,-0.24067382514476776,-0.24479703605175018,-0.17913095653057098
1698317277495134500,2.178134521484375,-0.21746163070201874,-0.31199023127555847,-0.14248012006282806
1698317277504727000,2.18772705078125,-0.20280128717422485,-0.3730749487876892,-0.12048961967229843
1698317277514320600,2.197320556640625,-0.20280128717422485,-0.4146125912666321,-0.11438114941120148
1698317277523913200,2.206913330078125,-0.20280128717422485,-0.40850409865379333,-0.11438114941120148
1698317277533505000,2.216505126953125,-0.20157960057258606,-0.3571929335594177,-0.12048961967229843
1698317277543097900,2.226097900390625,-0.19424942135810852,-0.27656111121177673,-0.12781979143619537
1698317277552691200,2.235691162109375,-0.17592400312423706,-0.18249061703681946,-0.1119377613067627
1698317277562284000,2.245283935546875,-0.15393351018428802,-0.10063708573579788,-0.038636088371276855
1698317277571875800,2.254875732421875,-0.1563768982887268,-0.07986827939748764,0.07009471952915192
1698317277581468400,2.264468505859375,-0.16370706260204315,-0.13240113854408264,0.18004722893238068
1698317277591062000,2.27406201171875,-0.11239589750766754,-0.2289150059223175,0.23868857324123383
1698317277600654600,2.283654541015625,-0.024433890357613564,-0.5247178077697754,0.14339639246463776
1698317277610246700,2.29324658203125,0.07085828483104706,-0.8790091872215271,-0.0032069480512291193
1698317277619839200,2.302839111328125,0.042759306728839874,-0.9486457705497742,-0.09239064902067184
1698317277629432800,2.312432861328125,-0.06963659077882767,-0.9828532338142395,-0.13148486614227295
1698317277639025400,2.322025390625,-0.13927318155765533,-1.2504043579101562,-0.1620272397994995
1698317277648617500,2.331617431640625,-0.15149012207984924,-1.623021125793457,-0.15591876208782196
1698317277658210000,2.3412099609375,-0.08307522535324097,-2.0261802673339844,-0.14003673195838928
1698317277667803600,2.3508037109375,0.17348061501979828,-2.502641201019287,-0.14858859777450562
1698317277677396200,2.360396240234375,0.5118899941444397,-2.8337204456329346,-0.038636088371276855
1698317277686988000,2.369988037109375,0.7598940134048462,-2.8715929985046387,0.07864658534526825
1698317277696580900,2.379580810546875,0.8796200752258301,-2.722546339035034,0.13973131775856018
1698317277706174200,2.38917431640625,0.999346137046814,-2.46232533454895,0.11529742181301117
1698317277715767000,2.39876708984375,1.1361758708953857,-2.117807388305664,-0.022754060104489326
1698317277725358800,2.40835888671875,1.248571753501892,-1.8099404573440552,-0.23655059933662415
1698317277734951400,2.417951416015625,1.4342693090438843,-1.5570496320724487,-0.4503471553325653
1698317277744545000,2.427544921875,1.7519099712371826,-1.4165548086166382,-0.6103891134262085
1698317277754137600,2.4371376953125,2.2760169506073,-1.5985872745513916,-0.669030487537384
1698317277763729700,2.446729736328125,2.9259583950042725,-2.0897085666656494,-0.6201626658439636
1698317277773322200,2.456322265625,3.5038199424743652,-2.693225622177124,-0.4784461259841919
1698317277782915800,2.465915771484375,3.8813235759735107,-3.147696018218994,-0.2927485406398773
1698317277792508400,2.47550830078125,4.053582191467285,-3.190455198287964,-0.13026317954063416
1698317277802100200,2.485100341796875,4.049917221069336,-3.2185542583465576,0.033443886786699295
1698317277811693000,2.494693115234375,3.922861099243164,-3.50565242767334,0.23258009552955627
1698317277821286400,2.504286376953125,3.705399513244629,-4.098174095153809,0.42927291989326477
1698317277830879200,2.513879150390625,3.3889806270599365,-4.379164218902588,0.40483900904655457
1698317277840471000,2.523470947265625,3.049349546432495,-4.194688320159912,0.12751436233520508
1698317277850064000,2.53306396484375,2.8013455867767334,-3.824514627456665,-0.24021568894386292
1698317277859657200,2.5426572265625,2.8111190795898438,-3.268643617630005,-0.6531484127044678
1698317277869249800,2.552249755859375,3.2435989379882812,-3.078059434890747,-0.9231429100036621
1698317277878841900,2.561841796875,3.7506022453308105,-2.9436728954315186,-1.0917367935180664
1698317277888434400,2.571434326171875,4.104893684387207,-2.817838430404663,-1.185807228088379
1698317277898028000,2.581028076171875,4.2711968421936035,-2.7005558013916016,-0.9940012097358704
1698317277907620600,2.59062060546875,4.265088081359863,-2.502641201019287,-0.488219678401947
1698317277917212700,2.600212646484375,4.071907997131348,-1.8710252046585083,0.1519482582807541
1698317277926805200,2.60980517578125,3.8434510231018066,-1.0060654878616333,0.6786513328552246
1698317277936398800,2.61939892578125,3.7481586933135986,-0.48928865790367126,0.9999569654464722
1698317277945991400,2.628991455078125,3.6980693340301514,-0.5063923597335815,1.1355650424957275
1698317277955583200,2.638583251953125,3.502598285675049,-0.9498674869537354,1.0610417127609253
1698317277965176000,2.648176025390625,3.0847785472869873,-1.7244218587875366,0.7678350210189819
1698317277974769400,2.657769287109375,2.615648031234741,-2.5209665298461914,0.44393324851989746
1698317277984362200,2.6673623046875,2.3700873851776123,-3.0963847637176514,0.32909396290779114
1698317277993954000,2.6769541015625,2.4262852668762207,-3.4262423515319824,0.4549284875392914
1698317278003547000,2.686546875,2.6058743000030518,-3.6400387287139893,0.7409577369689941
1698317278013140200,2.69614013671875,2.6193130016326904,-3.786642074584961,1.1355650424957275
1698317278022732800,2.70573291015625,2.2833471298217773,-3.7707600593566895,1.6254645586013794
1698317278032324900,2.715324951171875,1.7604618072509766,-3.381039619445801,2.068939685821533
1698317278041917400,2.72491748046875,1.3011046648025513,-2.913130521774292,2.2986183166503906
1698317278051511000,2.734510986328125,1.0787562131881714,-2.4598820209503174,2.2057695388793945
1698317278061103600,2.744103515625,1.1044118404388428,-1.8807986974716187,1.748855710029602
1698317278070695400,2.7536953125,1.346307396888733,-1.2894985675811768,1.0121738910675049
1698317278080288300,2.763288330078125,1.7323628664016724,-0.8716790676116943,0.20936790108680725
1698317278089881600,2.772881591796875,2.1501822471618652,-0.6407787799835205,-0.45889899134635925
1698317278099474200,2.78247412109375,2.5154690742492676,-0.47829338908195496,-0.9671239256858826
1698317278109066000,2.79206591796875,2.7927937507629395,-0.3205420970916748,-1.3825000524520874
1698317278118658800,2.801658935546875,2.9516139030456543,-0.2154763638973236,-1.7209094762802124
1698317278128252200,2.811252197265625,2.9809346199035645,-0.028557108715176582,-1.9603615999221802
1698317278137845000,2.820844970703125,2.9320669174194336,0.6372663974761963,-2.105743169784546
1698317278147436800,2.830436767578125,2.857543468475342,1.4570233821868896,-2.3219830989837646
1698317278157029600,2.840029541015625,2.886864185333252,1.8552958965301514,-2.8021090030670166
1698317278166623000,2.849623046875,3.1116559505462646,1.5975183248519897,-3.566889762878418
1698317278176215600,2.859215576171875,3.349886417388916,0.39292749762535095,-4.607773780822754
1698317278185807600,2.8688076171875,4.05480432510376,-1.1001359224319458,-5.206556797027588
1698317278195400200,2.878400146484375,4.944350242614746,-1.9675390720367432,-5.233433723449707
1698317278204993800,2.887993896484375,5.437914848327637,-2.95955491065979,-4.953665733337402
1698317278214586400,2.89758642578125,5.338957786560059,-3.2698652744293213,-4.321897029876709
1698317278224178200,2.90717822265625,4.866161823272705,-1.3334795236587524,-2.667722702026367
1698317278233771000,2.91677099609375,4.487436771392822,1.449693202972412,-0.39170581102371216
1698317278243364400,2.9263642578125,4.307847499847412,2.534558057785034,1.1257915496826172
1698317278252957000,2.93595703125,3.928969621658325,2.5614352226257324,1.5375025272369385
1698317278262549000,2.945549072265625,3.178849220275879,2.149724245071411,1.7464122772216797
1698317278272141600,2.9551416015625,2.6400818824768066,1.240783452987671,1.8869072198867798
1698317278281735200,2.964735107421875,2.1196398735046387,0.5932853817939758,1.6486767530441284
1698317278291327700,2.97432763671875,1.6224102973937988,0.037414394319057465,1.183211088180542
1698317278300919600,2.98391943359375,1.8459804058074951,1.0795198678970337,0.5589252710342407
1698317278310512400,2.993512451171875,2.5667800903320312,1.6060701608657837,0.5247178077697754
1698317278320105700,3.003105712890625,2.8966376781463623,1.8357486724853516,1.0708152055740356
1698317278329698600,3.012698486328125,2.9613873958587646,2.0385499000549316,1.6303513050079346
1698317278339290400,3.022290283203125,2.855100154876709,2.2486815452575684,2.1947741508483887
1698317278348883200,3.03188330078125,2.542346239089966,2.439265727996826,2.690782070159912
1698317278358476500,3.0414765625,2.0988712310791016,2.190040111541748,2.932677745819092
1698317278368069000,3.051069091796875,1.5210096836090088,1.3629529476165771,2.23020339012146
1698317278377661200,3.0606611328125,0.9602518677711487,0.4259132444858551,-0.3965925872325897
1698317278387253800,3.070253662109375,0.8710681796073914,0.31229567527770996,-1.8284186124801636
1698317278396847400,3.079847412109375,1.014006495475769,0.06062658876180649,-1.3690614700317383
1698317278406440000,3.08943994140625,1.0738694667816162,-0.5125008225440979,0.09697200357913971
1698317278416031700,3.09903173828125,1.180156946182251,-1.1880979537963867,1.905232548713684
1698317278425624600,3.10862451171875,1.155722975730896,-0.7055285573005676,2.111698865890503
1698317278435218000,3.118218017578125,1.0653176307678223,0.3599417507648468,1.4825263023376465
1698317278444810800,3.127810791015625,0.9504783153533936,0.9524635672569275,1.4177764654159546
1698317278454402600,3.137402587890625,0.6340594291687012,1.1552648544311523,1.3505833148956299
1698317278463995100,3.1469951171875,0.26999449729919434,0.9329164624214172,1.2003148794174194
1698317278473588700,3.156588623046875,-0.06719319522380829,0.7142331600189209,1.0830321311950684
1698317278483181300,3.166181396484375,-0.448361873626709,0.3086305856704712,0.7531746625900269
1698317278492773000,3.175773193359375,-0.8454126119613647,-0.22402822971343994,0.3865135908126831
1698317278502366000,3.185365966796875,-1.0640959739685059,-0.8203678727149963,0.19226416945457458
1698317278511959300,3.194959228515625,-1.1766445636749268,-1.2980504035949707,0.15927842259407043
1698317278521552100,3.20455224609375,-1.3696722984313965,-1.6437900066375732,0.14461809396743774
1698317278531144000,3.21414404296875,-1.4270919561386108,-1.6816625595092773,0.0016798300202935934
1698317278540736500,3.223736572265625,-1.2450593709945679,-1.387234091758728,-0.06795676052570343
1698317278550330000,3.233330078125,-1.1447277069091797,-1.1184613704681396,-0.15469707548618317
1698317278559922700,3.242922607421875,-1.031110167503357,-0.9303203821182251,-0.2915268540382385
1698317278569514800,3.2525146484375,-1.3269129991531372,-0.9486457705497742,-0.4161396920681
1698317278579107300,3.262107421875,-1.8534632921218872,-1.2027583122253418,-0.511431872844696
1698317278588700700,3.27170068359375,-2.2468488216400146,-1.2601778507232666,-0.5761816501617432
1698317278598293500,3.28129345703125,-2.400782346725464,-1.1013575792312622,-0.6531484127044678
1698317278607885300,3.29088525390625,-2.8039417266845703,-0.7715001106262207,-0.5468609929084778
1698317278617478000,3.300477783203125,-3.3659210205078125,-0.6578825116157532,-0.5334223508834839
1698317278627071500,3.310071533203125,-3.9877636432647705,-0.8997780084609985,-0.3965925872325897
1698317278636664000,3.3196640625,-4.623044967651367,-1.4031161069869995,-0.12904147803783417
1698317278646256000,3.329256103515625,-4.970005989074707,-1.868581771850586,0.05787777900695801
1698317278655848700,3.3388486328125,-4.91991662979126,-1.9883078336715698,-0.012980503961443901
1698317278665442300,3.3484423828125,-4.188121318817139,-1.851478099822998,-0.28541839122772217
1698317278675035000,3.358034912109375,-2.751408815383911,-1.7085397243499756,-0.13148486614227295
1698317278684626700,3.367626708984375,-1.219403862953186,-1.5399459600448608,0.14217470586299896
1698317278694219300,3.37721923828125,-0.7098045349121094,-1.1819894313812256,0.270452618598938
1698317278703812900,3.386812744140625,-1.1459494829177856,-0.8105943202972412,0.08719844371080399
1698317278713405400,3.396405517578125,-1.5993508100509644,-0.7507312893867493,-0.16691401600837708
1698317278722997500,3.40599755859375,-1.2988139390945435,-0.7116370797157288,-0.30985227227211
1698317278732590600,3.415590576171875,-0.10262233763933182,-0.3730749487876892,-0.4405735731124878
1698317278742184000,3.425183837890625,1.2974395751953125,-0.028557108715176582,-0.46134239435195923
1698317278751776500,3.434776611328125,1.4831371307373047,0.1522536724805832,-0.2585411071777344
1698317278761368600,3.44436865234375,-0.1710372269153595,0.24632415175437927,-0.30007871985435486
1698317278770961200,3.453961181640625,-1.6103460788726807,0.17302247881889343,-0.4772244095802307
1698317278780554800,3.4635546875,-1.890114188194275,0.1779092699289322,-0.4808894991874695
1698317278790147300,3.473147216796875,-1.3916627168655396,0.24632415175437927,-0.4906630516052246
1698317278799739100,3.4827392578125,-0.9431481957435608,-0.016340164467692375,-0.5871769189834595
1698317278809331700,3.492331787109375,-0.7317950129508972,-0.48806697130203247,-0.5468609929084778
1698317278818925300,3.50192529296875,-0.4850127100944519,-0.9999569654464722,-0.335507869720459
1698317278828518000,3.511517822265625,-0.1698155403137207,-1.3347012996673584,-0.10582929104566574
1698317278838110000,3.52110986328125,0.03298575058579445,-1.434880256652832,-0.036192700266838074
1698317278847702500,3.53070263671875,-0.03298575058579445,-1.3664653301239014,-0.07406523078680038
1698317278857296100,3.540296142578125,-0.17592400312423706,-1.106244444847107,-0.04840964451432228
1698317278866888700,3.549888671875,-0.22479179501533508,-1.032942771911621,0.011453386396169662
1698317278876480500,3.55948046875,-0.26999449729919434,-1.063485026359558,-0.004428642801940441
1698317278886073300,3.5690732421875,-0.36162158846855164,-1.0024003982543945,-0.019088976085186005
1698317278895666700,3.578666748046875,-0.4715740978717804,-0.8936695456504822,0.012675080448389053
1698317278905259300,3.58825927734375,-0.5790832042694092,-0.8802309036254883,0.12995775043964386
1698317278914851300,3.597851318359375,-0.6682668924331665,-0.91566002368927,0.2154763638973236
1698317278924444000,3.60744384765625,-0.7501204609870911,-0.9217684864997864,0.24724042415618896
1698317278934037500,3.61703759765625,-0.8612946271896362,-0.9498674869537354,0.2838912606239319
1698317278943630000,3.626630126953125,-0.9785773158073425,-1.0866972208023071,0.3852919042110443
1698317278953222000,3.636221923828125,-0.9468132257461548,-1.3163758516311646,0.49646610021591187
1698317278962814700,3.645814697265625,-0.5265503525733948,-1.8074970245361328,0.6456655263900757
1698317278972408000,3.655407958984375,0.21257483959197998,-2.0982604026794434,0.6407787799835205
1698317278982000600,3.665000732421875,0.7427902817726135,-1.969982385635376,0.376740038394928
1698317278991592700,3.6745927734375,0.9969027042388916,-1.1025793552398682,-0.20967331528663635
1698317279001185300,3.684185302734375,0.5241069197654724,-0.35230615735054016,-0.45645561814308167
1698317279010779000,3.69377880859375,-0.06719319522380829,-0.6126797795295715,-0.1119377613067627
1698317279020371500,3.703371337890625,-0.0024433890357613564,-1.2357439994812012,0.04688252881169319
1698317279029963300,3.71296337890625,0.2223484069108963,-1.7928366661071777,0.13362284004688263
1698317279039556000,3.72255615234375,-0.06352811306715012,-1.7366387844085693,0.3889569938182831
1698317279049149400,3.7321494140625,-0.10628741979598999,-1.4861913919448853,0.48424917459487915
1698317279058742000,3.741741943359375,0.24311721324920654,-1.3310362100601196,0.3474193811416626
1698317279068334000,3.751333984375,0.6022953987121582,-1.4263283014297485,0.21425467729568481
1698317279077926700,3.7609267578125,0.893058717250824,-1.401894450187683,0.07498150318861008
1698317279087520300,3.770520263671875,1.258345365524292,-1.5521628856658936,-0.19867807626724243
1698317279097112800,3.78011279296875,1.665169596672058,-2.1544582843780518,-0.5529694557189941
1698317279106704600,3.78970458984375,2.233257532119751,-2.7726356983184814,-0.7973083853721619
1698317279116297500,3.79929736328125,2.5362377166748047,-2.316943645477295,-0.6702521443367004
1698317279125890800,3.808890869140625,2.195384979248047,-1.2504043579101562,-0.6116108298301697
1698317279135483400,3.8184833984375,1.689603567123413,-0.20081603527069092,-0.6250494718551636
1698317279145075500,3.828075439453125,1.479472041130066,0.439351886510849,-0.4161396920681
1698317279154668000,3.83766796875,1.4513731002807617,1.002553105354309,-0.09361234307289124
1698317279164261600,3.84726171875,1.470920205116272,1.4142640829086304,0.19348587095737457
1698317279173854200,3.856854248046875,1.7164808511734009,1.6964755058288574,0.35230615735054016
1698317279183446000,3.866446044921875,2.1391870975494385,1.7612253427505493,0.5369347333908081
1698317279193038600,3.87603857421875,2.520355701446533,1.6109569072723389,1.1013575792312622
1698317279202632200,3.885632080078125,2.03412127494812,1.2420052289962769,1.6401249170303345
1698317279212224800,3.895224853515625,1.8862963914871216,1.5254383087158203,1.6804407835006714
1698317279221816800,3.90481689453125,2.7732465267181396,2.331756591796875,1.26872980594635
1698317279231409400,3.914409423828125,3.705399513244629,2.0556538105010986,0.9584193229675293
1698317279241003000,3.9240029296875,4.01570987701416,0.24632415175437927,1.113574504852295
1698317279250595600,3.933595703125,3.254594087600708,-1.2504043579101562,1.6743323802947998
1698317279260187400,3.9431875,1.8814095258712769,-1.5839269161224365,1.8930156230926514
1698317279269780200,3.9527802734375,0.7244648337364197,-0.6737645268440247,1.5643798112869263
1698317279279373600,3.96237353515625,-0.01588202826678753,0.07406523078680038,1.2699514627456665
1698317279288966100,3.971966064453125,-0.3249707520008087,0.5615213513374329,1.1318999528884888
1698317279298558200,3.98155810546875,-0.11483928561210632,1.2859861850738525,1.0561549663543701
1698317279308150800,3.99115087890625,0.3775036036968231,2.11429500579834,0.9914051294326782
1698317279317744400,4.000744384765625,0.5888567566871643,2.6860480308532715,1.106244444847107
1698317279327337000,4.0103369140625,0.582748293876648,2.543109893798828,0.9352071285247803
1698317279336928800,4.0199287109375,0.8148702383041382,1.8956117630004883,0.5210527181625366
1698317279346521300,4.029521240234375,1.2363548278808594,1.0599727630615234,0.052990999072790146
1698317279356115000,4.039114990234375,1.6358489990234375,0.2414373755455017,-0.21211670339107513
1698317279365707500,4.04870751953125,2.019461154937744,-0.1385096162557602,-0.19867807626724243
1698317279375299600,4.058299560546875,2.3529837131500244,-0.050547610968351364,-0.1119377613067627
1698317279384892200,4.06789208984375,2.6278648376464844,0.20722992718219757,0.04810422286391258
1698317279394485800,4.07748583984375,2.6535205841064453,0.9781191945075989,0.28877803683280945
1698317279404078300,4.087078369140625,2.3590919971466064,1.5413203239440918,0.4671454429626465
1698317279413670100,4.096670166015625,1.9095085859298706,1.1845855712890625,0.6236750483512878
1698317279423263000,4.106262939453125,1.424495816230774,0.571294903755188,0.679872989654541
1698317279432856300,4.115856201171875,0.9272661209106445,0.3978142738342285,0.573585569858551
1698317279442449000,4.125448974609375,0.4227063059806824,0.6018372774124146,0.39262208342552185
1698317279452041000,4.135041015625,0.0659715011715889,0.8571714162826538,0.17271706461906433
1698317279461633500,4.144633544921875,0.04031591862440109,0.9768974781036377,-0.08139539510011673
1698317279471227100,4.15422705078125,0.33718767762184143,0.9634588360786438,-0.34161633253097534
1698317279480819700,4.16381982421875,0.8808417320251465,0.7191199064254761,-0.5444176197052002
1698317279490411500,4.17341162109375,1.3902883529663086,0.17913095653057098,-0.7643226385116577
1698317279500004400,4.18300439453125,1.6712781190872192,-0.1910424828529358,-0.747218906879425
1698317279509597700,4.19259765625,1.8032211065292358,-0.3095468580722809,-0.6617003083229065
1698317279519190300,4.202190185546875,1.9938054084777832,-0.13484452664852142,-0.724006712436676
1698317279528782300,4.2117822265625,2.2955639362335205,0.8254073858261108,-0.1644706279039383
1698317279538375000,4.221375,2.2564697265625,1.3983820676803589,-0.05207473039627075
1698317279547968500,4.230968505859375,1.5430002212524414,0.9634588360786438,-0.9439117312431335
1698317279557561000,4.24056103515625,0.7391251921653748,1.1247224807739258,-0.9805625677108765
1698317279567153000,4.25015283203125,0.3115321099758148,1.8577392101287842,-0.8693883419036865
1698317279576745700,4.259745849609375,0.5644228458404541,1.3030898571014404,-1.4753488302230835
1698317279586339000,4.269339111328125,0.9578084945678711,0.941468358039856,-1.0379822254180908
1698317279595932000,4.278931884765625,1.1398409605026245,0.548082709312439,-0.695907711982727
1698317279605523700,4.288523681640625,1.0640959739685059,0.2927485406398773,-0.35627666115760803
1698317279615116300,4.2981162109375,0.8991671800613403,0.4821111857891083,0.0016798300202935934
1698317279624710000,4.3077099609375,0.6401679515838623,0.775317907333374,0.37796175479888916
1698317279634302500,4.317302490234375,0.2895416021347046,1.0233218669891357,0.6664343476295471
1698317279643894500,4.32689453125,0.16859383881092072,1.1296093463897705,0.5589252710342407
1698317279653487000,4.336487060546875,0.1575985997915268,0.9768974781036377,0.3352024257183075
1698317279663080700,4.346080810546875,0.09651386737823486,0.6397097706794739,0.30221667885780334
1698317279672673300,4.35567333984375,0.07452336698770523,0.14248012006282806,0.45737189054489136
1698317279682265000,4.36526513671875,0.16859383881092072,0.0594048947095871,1.1221264600753784
1698317279691858000,4.37485791015625,0.3567348122596741,0.3489464819431305,0.8936695456504822
1698317279701451300,4.384451171875,0.261442631483078,0.4161396920681,0.11651911586523056
1698317279711043800,4.3940439453125,-0.15149012207984924,0.24876753985881805,-0.38071054220199585
1698317279720636000,4.403635986328125,-0.5986303091049194,0.39170581102371216,-0.5639647245407104
1698317279730228500,4.413228515625,-0.9455915689468384,0.6751389503479004,-0.677582323551178
1698317279739822000,4.422822021484375,-1.3867759704589844,0.7655443549156189,-0.7924215793609619
1698317279749414700,4.43241455078125,-1.79360032081604,0.6555918455123901,-0.8632798790931702
1698317279759006500,4.44200634765625,-1.802152156829834,0.21089501678943634,-1.4386980533599854
1698317279768599300,4.451599365234375,-1.0811996459960938,-0.26312246918678284,-3.285900115966797
1698317279778193000,4.46119287109375,-1.236507534980774,0.7447755336761475,-3.5424559116363525
1698317279787785500,4.470785400390625,-0.9651386737823486,0.8730534315109253,-3.5070269107818604
1698317279797377300,4.480377197265625,-0.29565006494522095,0.4149180054664612,-3.1979382038116455
1698317279806969900,4.489969970703125,0.2626643180847168,-0.11896250396966934,-2.5724306106567383
1698317279816563500,4.4995634765625,0.6988092660903931,-0.6737645268440247,-1.8858381509780884
1698317279826156000,4.509156005859375,1.391510009765625,-1.254069447517395,-1.2114628553390503
1698317279835748000,4.518748046875,2.2430310249328613,-2.035953998565674,-0.7643226385116577
1698317279845340700,4.528340576171875,3.277806282043457,-2.976658582687378,-0.24998924136161804
1698317279854934300,4.537934326171875,4.02548360824585,-2.0958168506622314,0.8008207678794861
1698317279864526800,4.54752685546875,4.288300514221191,-0.3620797097682953,1.6181343793869019
1698317279874118700,4.55711865234375,4.196673393249512,-0.7018635272979736,1.4617575407028198
1698317279883711500,4.56671142578125,4.029148578643799,-2.3597030639648438,1.0512681007385254
1698317279893304800,4.576304931640625,2.690171241760254,-2.122694253921509,-0.4503471553325653
1698317279902897700,4.585897705078125,1.9363858699798584,0.2951919436454773,-1.9469228982925415
1698317279912489500,4.595489501953125,2.9320669174194336,0.2157817929983139,-1.0440906286239624
1698317279922082000,4.60508203125,2.1477389335632324,0.7740961909294128,-1.0856282711029053
1698317279931675600,4.614675537109375,1.2192511558532715,1.2969814538955688,-1.8259751796722412
1698317279941268200,4.624268310546875,0.8124268651008606,0.9206995368003845,-2.0532102584838867
1698317279950860300,4.6338603515625,0.5705313682556152,-0.12018419802188873,-1.7868809700012207
1698317279960452900,4.643452880859375,0.3042019307613373,-0.8741224408149719,-1.4851224422454834
1698317279970046500,4.65304638671875,0.07085828483104706,-1.2027583122253418,-1.1515997648239136
1698317279979639000,4.66263916015625,-0.15271180868148804,-1.3334795236587524,-0.7814263701438904
1698317279989230800,4.67223095703125,-0.4813476502895355,-1.373795509338379,-0.42224815487861633
1698317279998823700,4.68182373046875,-0.7794411182403564,-1.2198619842529297,0.02244863659143448
1698317280008417000,4.6914169921875,-1.282931923866272,-1.0048437118530273,0.4891359508037567
1698317280018009900,4.701009765625,-1.7728314399719238,-0.8008207678794861,0.8875610828399658
1698317280027601700,4.7106015625,-2.1943161487579346,-0.81425940990448,1.1306782960891724
1698317280037194500,4.720194580078125,-2.412999391555786,-1.1013575792312622,1.184432864189148
1698317280046787800,4.729787841796875,-2.0122835636138916,-1.3579134941101074,1.1905412673950195
1698317280056380400,4.73938037109375,-1.307365894317627,-1.7622942924499512,1.3163758516311646
1698317280065972500,4.748972412109375,-1.1227372884750366,-1.8465912342071533,1.5411676168441772
1698317280075565300,4.7585654296875,-1.0274450778961182,-1.6425682306289673,1.6205778121948242
1698317280085158700,4.76815869140625,-0.9822424054145813,-1.245517611503601,1.4788612127304077
1698317280094751200,4.777751220703125,-0.916270911693573,-1.300493836402893,0.7018635272979736
1698317280104343300,4.78734326171875,-0.5289937257766724,-1.0573766231536865,-0.2707580327987671
1698317280113936000,4.796935791015625,0.1319430023431778,-0.42453885078430176,-0.5297572612762451
1698317280123529500,4.806529541015625,0.46668729186058044,-1.0304993391036987,-0.23899398744106293
1698317280133122000,4.8161220703125,0.4434750974178314,-2.086043357849121,-0.09116895496845245
1698317280142713900,4.8257138671875,0.3286358118057251,-2.2949531078338623,-0.16691401600837708
1698317280152306700,4.835306640625,0.36039987206459045,-2.0090765953063965,-0.3367295563220978
1698317280161900300,4.844900390625,0.4459185004234314,-1.271173119544983,-0.6824691295623779
1698317280171492900,4.854492919921875,0.15393351018428802,-0.04199574887752533,-0.9561286568641663
1698317280181084700,4.864084716796875,-0.09895725548267365,0.7398887276649475,-0.9194778203964233
1698317280190677500,4.873677490234375,-0.28098973631858826,0.9854493141174316,-0.5749599933624268
1698317280200270800,4.883270751953125,-0.3298575282096863,1.2016892433166504,0.10796725004911423
1698317280209863700,4.89286376953125,-0.21868331730365753,1.2334532737731934,0.8435800671577454
1698317280219455500,4.90245556640625,-0.061084724962711334,0.8767185211181641,1.3298144340515137
1698317280229048300,4.91204833984375,0.1966928243637085,0.30740886926651,1.4043378829956055
1698317280238641700,4.9216416015625,0.4960079789161682,-0.1104106456041336,1.1563338041305542
1698317280248234500,4.931234375,0.6132906675338745,-0.33764582872390747,0.7385143637657166
1698317280257826300,4.940826416015625,0.53143709897995,-0.37918344140052795,0.22036315500736237
1698317280267419100,4.950419189453125,0.38727715611457825,-0.3461976945400238,-0.19989976286888123
1698317280277012500,4.960012451171875,0.2748812735080719,-0.3901786804199219,-0.335507869720459
1698317280286605000,4.96960498046875,0.22967857122421265,-0.47829338908195496,-0.19623468816280365
1698317280296197000,4.979197021484375,0.22967857122421265,-0.6016845703125,0.051769305020570755
1698317280305790000,4.9887900390625,0.2980934679508209,-0.5210527181625366,0.2276933193206787
1698317280315383300,4.99838330078125,0.41048935055732727,-0.14461809396743774,0.28877803683280945
1698317280324975900,5.007975830078125,0.5851916670799255,0.4283566474914551,0.3046600818634033
1698317280334568000,5.01756787109375,0.8539644479751587,0.987892746925354,0.45615020394325256
1698317280344160500,5.027160400390625,1.1520578861236572,1.2603305578231812,0.7372926473617554
1698317280353754000,5.036754150390625,1.4501514434814453,1.167481780052185,1.0158389806747437
1698317280363346700,5.0463466796875,1.7592401504516602,0.7973083853721619,1.2027583122253418
1698317280372938800,5.055938720703125,1.9840319156646729,0.2548760175704956,1.2846118211746216
1698317280382531300,5.06553125,1.9828102588653564,-0.3046600818634033,1.2809467315673828
1698317280392125000,5.075125,1.7018204927444458,-0.6554391384124756,1.2406307458877563
1698317280401717500,5.084717529296875,1.2045907974243164,-0.7006418108940125,1.1868761777877808
1698317280411309600,5.0943095703125,0.6218425035476685,-0.5393781065940857,1.1013575792312622
1698317280420902100,5.103902099609375,0.11606097966432571,-0.23380178213119507,0.9914051294326782
1698317280430495700,5.113495849609375,-0.2223484069108963,0.15347537398338318,0.9095515608787537
1698317280440088300,5.12308837890625,-0.4202629029750824,0.6201626658439636,0.8631271719932556
1698317280449680400,5.132680419921875,-0.5094466209411621,1.1882506608963013,0.8350282311439514
1698317280459273000,5.14227294921875,-0.5143333673477173,1.8174233436584473,0.8386932611465454
1698317280468866600,5.151866455078125,-0.474017471075058,2.372072696685791,0.897334635257721
1698317280478459100,5.161459228515625,-0.33718767762184143,2.4979071617126465,0.990183413028717
1698317280488051200,5.17105126953125,0.01588202826678753,2.0409934520721436,1.0451596975326538
1698317280497643800,5.180643798828125,0.53143709897995,1.349514365196228,1.1270132064819336
1698317280507237400,5.1902373046875,1.0763128995895386,0.7398887276649475,1.2846118211746216
1698317280516830000,5.199829833984375,1.4428212642669678,0.020310672000050545,1.3298144340515137
1698317280526421800,5.209421875,1.4721418619155884,-0.8203678727149963,1.081810474395752
1698317280536014600,5.2190146484375,1.3792930841445923,-0.9278770089149475,0.6395570635795593
1698317280545608200,5.228608154296875,1.2082558870315552,-0.05421269312500954,0.0859767496585846
1698317280555200800,5.23820068359375,0.9614735841751099,1.223679780960083,-0.31473904848098755
1698317280564792800,5.247792724609375,0.7049177289009094,1.9713568687438965,-0.30007871985435486
1698317280574385400,5.257385498046875,0.5289937257766724,1.773442268371582,-0.07406523078680038
1698317280583979000,5.26697900390625,0.4727957844734192,1.316528558731079,0.11407572776079178
1698317280593571600,5.276571533203125,0.4312581717967987,1.028208613395691,0.2301367074251175
1698317280603163600,5.28616357421875,0.34696123003959656,0.8327375054359436,0.3486410677433014
1698317280612756200,5.295756103515625,0.2223484069108963,0.6507050395011902,0.5184566378593445
1698317280622349800,5.305349853515625,0.14049486815929413,0.5419742465019226,0.6615476012229919
1698317280631942400,5.3149423828125,0.1710372269153595,0.38071054220199585,0.6933116316795349
1698317280641534500,5.324534423828125,0.24678228795528412,-0.037108972668647766,0.6139014959335327
1698317280651127000,5.334126953125,0.23823043704032898,-0.6456655263900757,0.42072105407714844
1698317280660720600,5.343720703125,0.1820324808359146,-0.9877400398254395,0.188599094748497
1698317280670313200,5.353313232421875,0.046424392610788345,-0.8814526200294495,0.05421269312500954
1698317280679905300,5.3629052734375,-0.20035789906978607,-0.6627692580223083,-0.05207473039627075
1698317280689497900,5.372497802734375,-0.42392799258232117,-0.7776085734367371,-0.24021568894386292
1698317280699091500,5.382091552734375,-0.5717530250549316,-1.105022668838501,-0.44546034932136536
1698317280708684000,5.39168408203125,-0.6658235192298889,-1.2552911043167114,-0.6274928450584412
1698317280718276000,5.401276123046875,-0.7342383861541748,-1.199093222618103,-0.8779402375221252
1698317280727869000,5.410868896484375,-0.8124268651008606,-0.8753440976142883,-1.1393828392028809
1698317280737462300,5.420462158203125,-0.8380824327468872,-0.42453885078430176,-1.343405842781067
1698317280747055000,5.43005517578125,-0.7721109390258789,0.019088976085186005,-1.4948959350585938
1698317280756647000,5.43964697265625,-0.6902574300765991,0.3868190348148346,-1.579192876815796
1698317280766239700,5.44923974609375,-0.8148702383041382,0.7069029808044434,-1.593853235244751
1698317280775833000,5.4588330078125,-1.0702043771743774,1.0074398517608643,-1.4655753374099731
1698317280785426000,5.468426025390625,-1.0262234210968018,1.301868200302124,-1.1601516008377075
1698317280795017700,5.478017822265625,-0.5680879354476929,1.4545800685882568,-0.7960866689682007
1698317280804610600,5.487610595703125,-0.23823043704032898,1.5205515623092651,-0.511431872844696
1698317280814204000,5.497203857421875,-0.17714570462703705,1.4472498893737793,-0.22311195731163025
1698317280823796700,5.506796630859375,-0.12461283802986145,0.7667660117149353,-0.06429167091846466
1698317280833388500,5.516388427734375,-0.237008735537529,0.23166382312774658,-0.10582929104566574
1698317280842981400,5.5259814453125,-0.6230642199516296,0.04474456235766411,-0.32817769050598145
1698317280852575000,5.535574951171875,-1.0469921827316284,-0.0859767496585846,-0.5700731873512268
1698317280862167600,5.54516748046875,-1.4124315977096558,-0.38040512800216675,-0.7313368916511536
1698317280871759600,5.554759521484375,-1.5834687948226929,-0.7372926473617554,-0.8803836107254028
1698317280881352200,5.564352294921875,-1.6433318853378296,-1.174659252166748,-0.9976662993431091
1698317280890945800,5.57394580078125,-1.6628789901733398,-1.4703093767166138,-1.0306520462036133
1698317280900538400,5.583538330078125,-1.6323366165161133,-1.5900354385375977,-0.9536852836608887
1698317280910130400,5.59313037109375,-1.543152928352356,-1.6352381706237793,-0.8131904006004333
1698317280919723000,5.602722900390625,-1.417318344116211,-1.4849697351455688,-0.6531484127044678
1698317280929316600,5.612316650390625,-1.2438377141952515,-1.0989142656326294,-0.5126535892486572
1698317280938909400,5.621909423828125,-1.0152281522750854,-0.7140804529190063,-0.43446511030197144
1698317280948501200,5.631501220703125,-0.7733326554298401,-0.5625903010368347,-0.3978142738342285
1698317280958094000,5.641093994140625,-0.601073682308197,-0.6664343476295471,-0.36482852697372437
1698317280967687400,5.6506875,-0.4825693368911743,-0.9278770089149475,-0.2927485406398773
1698317280977280300,5.6602802734375,-0.34940463304519653,-1.2015365362167358,-0.25121092796325684
1698317280986872000,5.6698720703125,-0.21623992919921875,-1.3823473453521729,-0.2805316150188446
1698317280996465000,5.67946484375,-0.10017894953489304,-1.387234091758728,-0.38193225860595703
1698317281006058500,5.68905859375,-0.028098974376916885,-1.192984700202942,-0.5077667832374573
1698317281015651000,5.698651123046875,-0.029320668429136276,-0.8667922616004944,-0.5761816501617432
1698317281025243100,5.7082431640625,-0.12583453953266144,-0.5772506594657898,-0.5260922312736511
1698317281034835700,5.717835693359375,-0.2907632887363434,-0.4831801950931549,-0.36727190017700195
1698317281044429300,5.72742919921875,-0.4581354558467865,-0.5589252710342407,-0.15591876208782196
1698317281054022000,5.73702197265625,-0.5754181146621704,-0.656660795211792,0.009009997360408306
1698317281063614000,5.746614013671875,-0.6499415040016174,-0.7434011101722717,0.09208522737026215
1698317281073206800,5.756206787109375,-0.6792621612548828,-0.9352071285247803,0.09697200357913971
1698317281082800000,5.765800048828125,-0.6768187880516052,-1.1819894313812256,0.050547610968351364
1698317281092393000,5.77539306640625,-0.5558710098266602,-1.2833900451660156,0.06765133142471313
1698317281101984800,5.78498486328125,-0.2101314514875412,-1.2113101482391357,0.20814619958400726
1698317281111577600,5.79457763671875,0.09040539711713791,-1.174659252166748,0.3449759781360626
1698317281121171200,5.804171142578125,0.2235700935125351,-1.300493836402893,0.25212720036506653
1698317281130763800,5.813763671875,0.33352261781692505,-1.5570496320724487,-0.20722992718219757
1698317281140355600,5.82335546875,0.4422534108161926,-1.4275500774383545,-0.7398887276649475
1698317281149948400,5.832948486328125,0.41537612676620483,-0.8777875304222107,-1.0098832845687866
1698317281159542000,5.8425419921875,0.16615045070648193,-0.3058817684650421,-1.0245435237884521
1698317281169134600,5.852134521484375,-0.0647498071193695,0.3831539452075958,-0.6213843822479248
1698317281178726700,5.8617265625,-0.08185353130102158,1.089293360710144,0.11774080991744995
1698317281188319500,5.871319580078125,-0.05008947476744652,1.4252593517303467,0.6700994372367859
1698317281197913300,5.880913330078125,0.026877280324697495,1.3043116331100464,0.8032641410827637
1698317281207506000,5.890505859375,0.20280128717422485,1.025765299797058,0.5332696437835693
1698317281217098000,5.900097900390625,0.35795649886131287,0.747218906879425,0.07498150318861008
1698317281226690600,5.909690673828125,0.41171106696128845,0.44423866271972656,-0.3245126008987427
1698317281236284200,5.9192841796875,0.3811686933040619,0.10460758954286575,-0.48455458879470825
1698317281245877000,5.928876953125,0.3506263196468353,-0.2313583940267563,-0.4002576768398285
1698317281255468800,5.93846875,0.3384093940258026,-0.46851983666419983,-0.14736689627170563
1698317281265061600,5.9480615234375,0.2980934679508209,-0.6114581227302551,0.2557922899723053
1698317281274655000,5.957655029296875,0.24067382514476776,-0.6090146899223328,0.7140804529190063
1698317281284247800,5.967247802734375,0.2357870489358902,-0.34375429153442383,0.9962918758392334
1698317281293839600,5.976839599609375,0.30786702036857605,0.16935740411281586,0.9999569654464722
1698317281303432400,5.986432373046875,0.42881476879119873,0.7215633392333984,0.8301414251327515
1698317281313026000,5.996026123046875,0.5864133834838867,1.0868499279022217,0.6542174220085144
1698317281322618600,6.00561865234375,0.8038749694824219,1.255443811416626,0.5711421966552734
1698317281332210700,6.015210693359375,1.123958945274353,1.3006465435028076,0.5259394645690918
1698317281341803300,6.02480322265625,1.5039058923721313,1.2334532737731934,0.5222744345664978
1698317281351396900,6.03439697265625,1.8581973314285278,0.9952229261398315,0.5760289430618286
1698317281360989400,6.043989501953125,2.1049797534942627,0.5993938446044922,0.6627692580223083
1698317281370581500,6.05358154296875,2.1856114864349365,0.23655059933662415,0.7666133046150208
1698317281380174300,6.06317431640625,2.070772171020508,0.13392825424671173,0.8289197087287903
1698317281389767700,6.072767578125,1.8019994497299194,0.27197974920272827,0.8130376935005188
1698317281399360500,6.082360595703125,1.4208307266235352,0.5041016936302185,0.7568397521972656
1698317281408952300,6.091952392578125,0.9260444641113281,0.7423321604728699,0.7067502737045288
1698317281418545200,6.101545166015625,0.4080459773540497,0.9891144037246704,0.6969767212867737
1698317281428138800,6.111138671875,0.03665083646774292,1.2591089010238647,0.7666133046150208
1698317281437731300,6.1207314453125,-0.1832541823387146,1.5339901447296143,0.9181034564971924
1698317281447323400,6.130323486328125,-0.32252734899520874,1.6989189386367798,1.0793671607971191
1698317281456916200,6.139916259765625,-0.33474430441856384,1.5718626976013184,1.1856545209884644
1698317281466509600,6.149509521484375,-0.1441599577665329,1.1515997648239136,1.2748382091522217
1698317281476102400,6.159102294921875,0.2211267054080963,0.7459971904754639,1.4165548086166382
1698317281485694200,6.168694091796875,0.5949652194976807,0.4136963188648224,1.5118470191955566
1698317281495287000,6.178287109375,0.7782194018363953,0.04718795046210289,1.4092246294021606
1698317281504880600,6.187880615234375,0.7879929542541504,-0.2020377367734909,1.0695935487747192
1698317281514473200,6.19747314453125,0.7598940134048462,-0.08108997344970703,0.5638120174407959
1698317281524065300,6.207065185546875,0.7721109390258789,0.3318427801132202,0.0847550556063652
1698317281533657900,6.216657958984375,0.786771297454834,0.7020162343978882,-0.14248012006282806
1698317281543251500,6.22625146484375,0.763559103012085,0.8376243114471436,-0.08750387281179428
1698317281552844300,6.23584423828125,0.6963658928871155,0.8400676846504211,0.0725381150841713
1698317281562436000,6.24543603515625,0.6255075931549072,0.964680552482605,0.1776038408279419
1698317281572029000,6.25502880859375,0.5961869359016418,1.2249014377593994,0.2020377367734909
1698317281581622300,6.264622314453125,0.5839699506759644,1.334854006767273,0.2166980654001236
1698317281591215000,6.274215087890625,0.5680879354476929,1.1002886295318604,0.26434415578842163
1698317281600807000,6.283806884765625,0.5485408306121826,0.6348230242729187,0.31321191787719727
1698317281610399700,6.293399658203125,0.5302154421806335,0.1889045089483261,0.3828485310077667
1698317281619993300,6.302993408203125,0.4947862923145294,-0.08231166750192642,0.48424917459487915
1698317281629586000,6.3125859375,0.42514967918395996,-0.18737739324569702,0.5601469278335571
1698317281639178000,6.322177978515625,0.3115321099758148,-0.19470755755901337,0.6200099587440491
1698317281648770600,6.3317705078125,0.17470231652259827,-0.20570281147956848,0.6542174220085144
1698317281658364200,6.3413642578125,0.024433890357613564,-0.36452311277389526,0.555260181427002
1698317281667957000,6.35095703125,-0.11972606182098389,-0.5870242118835449,0.35108447074890137
1698317281677548800,6.360548828125,-0.22601348161697388,-0.5357130169868469,0.1898207813501358
1698317281687141600,6.3701416015625,-0.3310792148113251,-0.37918344140052795,0.07009471952915192
1698317281696735200,6.3797353515625,-0.4569137394428253,-0.40483900904655457,-0.10460758954286575
1698317281706327800,6.389327880859375,-0.5570927262306213,-0.42576053738594055,-0.35627666115760803
1698317281715920000,6.398919921875,-0.660936713218689,-0.31321191787719727,-0.6323796510696411
1698317281725512400,6.408512451171875,-0.8295305967330933,-0.10552386194467545,-0.8681666851043701
1698317281735106000,6.41810595703125,-0.9981244206428528,0.04230117425322533,-1.0001096725463867
1698317281744698600,6.42769873046875,-1.171757698059082,0.06795676052570343,-1.0379822254180908
1698317281754290700,6.437290771484375,-1.314695954322815,0.0325276181101799,-1.0123265981674194
1698317281763883500,6.446883544921875,-1.3696722984313965,0.05329642444849014,-0.983005940914154
1698317281773476900,6.456476806640625,-1.3012573719024658,0.1253764033317566,-0.9707890152931213
1698317281783069700,6.466069580078125,-1.1349542140960693,0.2438807636499405,-0.9402466416358948
1698317281792661500,6.47566162109375,-0.8686248064041138,0.5028799772262573,-0.8119687438011169
1698317281802254300,6.48525439453125,-0.5082249045372009,0.904817521572113,-0.5957288146018982
1698317281811848000,6.494847900390625,-0.1820324808359146,1.1577082872390747,-0.42224815487861633
1698317281821440500,6.5044404296875,0.03787253051996231,1.0844066143035889,-0.36727190017700195
1698317281831032600,6.514032470703125,0.16615045070648193,0.8864920735359192,-0.3855973184108734
1698317281840625200,6.523625244140625,0.24556060135364532,0.6897992491722107,-0.42102646827697754
1698317281850218800,6.53321875,0.1453816443681717,0.4088095426559448,-0.4943281412124634
1698317281859811600,6.5428115234375,-0.2638860046863556,0.30252209305763245,-0.617719292640686
1698317281869403400,6.5524033203125,-0.7782194018363953,0.43080002069473267,-0.700794517993927
1698317281878996200,6.561996337890625,-1.1803096532821655,0.6018372774124146,-0.7142331600189209
1698317281888589800,6.57158984375,-1.394106149673462,0.5370874404907227,-0.747218906879425
1698317281898182400,6.581182373046875,-1.5272709131240845,0.04352286830544472,-0.7496622800827026
1698317281907774200,6.590774169921875,-1.6787610054016113,-0.5992411375045776,-0.6751389503479004
1698317281917367000,6.600366943359375,-1.7606145143508911,-1.0292776823043823,-0.5700731873512268
1698317281926960600,6.609960693359375,-1.7166335582733154,-1.22963547706604,-0.4955498278141022
1698317281936553200,6.61955322265625,-1.589577317237854,-1.2809467315673828,-0.45889899134635925
1698317281946145300,6.629145263671875,-1.400214672088623,-1.2113101482391357,-0.4674508571624756
1698317281955738000,6.638738037109375,-1.1422843933105469,-0.9449806809425354,-0.45523393154144287
1698317281965331500,6.64833154296875,-0.8955020904541016,-0.762948215007782,-0.41736137866973877
1698317281974924300,6.65792431640625,-0.6731536984443665,-0.8790091872215271,-0.4149180054664612
1698317281984516000,6.66751611328125,-0.46546560525894165,-1.0366077423095703,-0.4381301999092102
1698317281994109000,6.67710888671875,-0.3164188861846924,-1.1416735649108887,-0.4955498278141022
1698317282003702500,6.68670263671875,-0.1844758689403534,-1.1538904905319214,-0.5566345453262329
1698317282013295000,6.696295166015625,-0.09651386737823486,-0.998735249042511,-0.6067240238189697
1698317282022887200,6.70588720703125,-0.12705622613430023,-0.684759795665741,-0.6006155610084534
1698317282032480000,6.71547998046875,-0.22601348161697388,-0.399952232837677,-0.4931064546108246
1698317282042073300,6.7250732421875,-0.3542914092540741,-0.3865135908126831,-0.3086305856704712
1698317282051666200,6.734666259765625,-0.4605788290500641,-0.5296045541763306,-0.11682453751564026
1698317282061258000,6.744258056640625,-0.5509842038154602,-0.6505523324012756,0.012675080448389053
1698317282070850800,6.753850830078125,-0.6193991303443909,-0.7434011101722717,0.03955236077308655
1698317282080444400,6.7634443359375,-0.6780404448509216,-0.9730796813964844,0.010231691412627697
1698317282090037000,6.773037109375,-0.6792621612548828,-1.2833900451660156,0.02489202655851841
1698317282099628800,6.78262890625,-0.5118899941444397,-1.3774605989456177,0.18615570664405823
1698317282109221600,6.7922216796875,-0.21379654109477997,-1.2650647163391113,0.4647020399570465
1698317282118815200,6.801815185546875,0.010995250195264816,-1.206423282623291,0.6358919739723206
1698317282128408000,6.811407958984375,0.14049486815929413,-1.262621283531189,0.573585569858551
1698317282138000000,6.820999755859375,0.24678228795528412,-1.3151541948318481,0.22524993121623993
1698317282147592700,6.8305927734375,0.2736595869064331,-1.2675080299377441,-0.3868190348148346
1698317282157186000,6.84018603515625,0.21746163070201874,-1.113574504852295,-0.9231429100036621
1698317282166779000,6.84977880859375,0.1429382562637329,-0.8203678727149963,-1.0856282711029053
1698317282176370700,6.85937060546875,0.05131116881966591,-0.5906893014907837,-0.9121476411819458
1698317282185963500,6.868963623046875,-0.03787253051996231,-0.14339639246463776,-0.30374380946159363
1698317282195557000,6.87855712890625,0.0012216945178806782,0.5847335457801819,0.5589252710342407
1698317282205149700,6.888149658203125,0.05619794875383377,1.05142080783844,1.0695935487747192
1698317282214741800,6.89774169921875,0.18691925704479218,1.1051753759384155,1.064706802368164
1698317282224334600,6.90733447265625,0.41415444016456604,0.8706100583076477,0.7275190949440002
1698317282233928000,6.916927978515625,0.6035171151161194,0.5798467397689819,0.2924431264400482
1698317282243520500,6.9265205078125,0.652384877204895,0.44668206572532654,-0.12048961967229843
1698317282253112600,6.936112548828125,0.5815265774726868,0.30985227227211,-0.36727190017700195
1698317282262705400,6.945705322265625,0.48989951610565186,0.12171131372451782,-0.41980478167533875
1698317282272299000,6.955299072265625,0.4569137394428253,-0.012675080448389053,-0.3110739588737488
1698317282281891600,6.9648916015625,0.43981003761291504,-0.2032594233751297,-0.038636088371276855
1698317282291483400,6.9744833984375,0.36284327507019043,-0.41705596446990967,0.29977330565452576
1698317282301076200,6.984076171875,0.3176405727863312,-0.4831801950931549,0.5001311898231506
1698317282310669800,6.993669921875,0.3836120665073395,-0.27289602160453796,0.45859357714653015
1698317282320262700,7.0032626953125,0.4874561131000519,0.07773031294345856,0.30343836545944214
1698317282329854500,7.0128544921875,0.5949652194976807,0.2964136302471161,0.26434415578842163
1698317282339447300,7.022447265625,0.7317950129508972,0.5322006940841675,0.34008920192718506
1698317282349040600,7.03204052734375,0.9455915689468384,0.7704311013221741,0.4524851143360138
1698317282358633500,7.041633544921875,1.226581335067749,0.8107470273971558,0.5943543910980225
1698317282368225300,7.051225341796875,1.5698775053024292,0.5981721878051758,0.7434011101722717
1698317282377818000,7.060818115234375,1.8997349739074707,0.284196674823761,0.860683798789978
1698317282387411700,7.07041162109375,2.1098663806915283,0.04718795046210289,0.9254335761070251
1698317282397004300,7.08000439453125,2.106201410293579,-0.04199574887752533,0.9022213816642761
1698317282406596400,7.089596435546875,1.832541823387146,0.0850604772567749,0.786160409450531
1698317282416189000,7.09918896484375,1.2742273807525635,0.4088095426559448,0.6346703171730042
1698317282425782500,7.108782470703125,0.5326588153839111,0.7533273696899414,0.5160132050514221
1698317282435375000,7.118375,0.045202698558568954,1.075854778289795,0.49890950322151184
1698317282444967200,7.12796728515625,-0.11239589750766754,1.3763915300369263,0.6053496599197388
1698317282454560000,7.13756005859375,-0.22845686972141266,1.6195087432861328,0.7495095729827881
1698317282464153300,7.1471533203125,-0.34451785683631897,1.5669759511947632,0.8741224408149719
1698317282473746200,7.15674609375,-0.3017585575580597,1.1503781080245972,0.9779664874076843
1698317282483338000,7.166337890625,-0.029320668429136276,0.7728744745254517,1.1404517889022827
1698317282492930800,7.175930908203125,0.393385648727417,0.6592568755149841,1.3615785837173462
1698317282502524400,7.1855244140625,0.763559103012085,0.6116108298301697,1.4996299743652344
1698317282512117000,7.195116943359375,0.9724688529968262,0.41736137866973877,1.3908991813659668
1698317282521709000,7.204708984375,1.068982720375061,0.24754585325717926,1.01706063747406
1698317282531302000,7.214302001953125,1.109298586845398,0.47111594676971436,0.4818057715892792
1698317282540895200,7.223895263671875,1.1215155124664307,1.0966235399246216,0.028557108715176582
1698317282550487800,7.23348779296875,1.077534556388855,1.686702013015747,-0.13392825424671173
1698317282560080000,7.243079833984375,0.962695300579071,1.806428074836731,0.0016798300202935934
1698317282569672700,7.252672607421875,0.8222004175186157,1.608513593673706,0.293664813041687
1698317282579266300,7.262266357421875,0.7207997441291809,1.3825000524520874,0.5613686442375183
1698317282588859000,7.27185888671875,0.6499415040016174,1.213906168937683,0.6908682584762573
1698317282598450700,7.28145068359375,0.5289937257766724,1.075854778289795,0.7067502737045288
1698317282608043500,7.29104345703125,0.36162158846855164,0.9695672988891602,0.70797199010849
1698317282617637000,7.30063720703125,0.21868331730365753,0.9011524319648743,0.7568397521972656
1698317282627229700,7.310229736328125,0.14782503247261047,0.7936432957649231,0.791047215461731
1698317282636821800,7.31982177734375,0.15149012207984924,0.543195903301239,0.7324058413505554
1698317282646414600,7.32941455078125,0.10384403169155121,0.11315945535898209,0.5858024954795837
1698317282656008000,7.339008056640625,0.09407047927379608,-0.35230615735054016,0.3901786804199219
1698317282665600800,7.348600830078125,0.09040539711713791,-0.5320479869842529,0.2166980654001236
1698317282675192600,7.358192626953125,-0.05619794875383377,-0.39506545662879944,0.11529742181301117
1698317282684785400,7.367785400390625,-0.25777754187583923,-0.4611896872520447,0.009009997360408306
1698317282694379000,7.37737890625,-0.4337015450000763,-0.5332696437835693,-0.13148486614227295
1698317282703971600,7.3869716796875,-0.5998520255088806,-0.2032594233751297,-0.34161633253097534
1698317282713563600,7.396563720703125,-0.8173136115074158,0.32573428750038147,-0.5383091568946838
1698317282723156200,7.40615625,-1.0702043771743774,0.7508839964866638,-0.6873558759689331
1698317282732749800,7.415749755859375,-1.314695954322815,1.0673028230667114,-0.8095253109931946
1698317282742342700,7.4253427734375,-1.472294569015503,1.2810994386672974,-0.9097042679786682
1698317282751934500,7.4349345703125,-1.4686294794082642,1.4179291725158691,-0.9768974781036377
1698317282761527300,7.44452734375,-1.2951488494873047,1.4167075157165527,-0.9683456420898438
1698317282771120600,7.45412060546875,-0.9565867781639099,1.1833637952804565,-0.9035958051681519
1698317282780713500,7.46371337890625,-0.5583143830299377,0.8754968047142029,-0.8058602213859558
1698317282790305300,7.47330517578125,-0.2761029601097107,0.7973083853721619,-0.6018372774124146
1698317282799898000,7.482898193359375,-0.06963659077882767,0.9060391783714294,-0.3501681983470917
1698317282809491700,7.49249169921875,0.15026842057704926,0.9952229261398315,-0.1498102843761444
1698317282819084300,7.502084228515625,0.3127537965774536,0.9842276573181152,-0.06551336497068405
1698317282828676400,7.51167626953125,0.42514967918395996,0.9194778203964233,-0.08994726091623306
1698317282838269000,7.52126904296875,0.3762819170951843,0.835180938243866,-0.20845162868499756
1698317282847862500,7.530862548828125,0.04031591862440109,0.8412894010543823,-0.4283566474914551
1698317282857455400,7.540455322265625,-0.5668662786483765,0.8449544906616211,-0.6274928450584412
1698317282867047200,7.550047119140625,-1.1178505420684814,1.0147700309753418,-0.7350019812583923
1698317282876640000,7.559639892578125,-1.408766508102417,1.1564866304397583,-0.798530101776123
1698317282886233300,7.5692333984375,-1.5907989740371704,0.7777612805366516,-0.8266290426254272
1698317282895826200,7.578826171875,-1.7435108423233032,0.07406523078680038,-0.8229639530181885
1698317282905418000,7.58841796875,-1.8546849489212036,-0.4978405237197876,-0.783869743347168
1698317282915010800,7.5980107421875,-1.9402035474777222,-0.7568397521972656,-0.7142331600189209
1698317282924604400,7.6076044921875,-1.9805195331573486,-0.7605048418045044,-0.6678087711334229
1698317282934197000,7.617197021484375,-1.9011093378067017,-0.6236750483512878,-0.6140542030334473
1698317282943788800,7.626788818359375,-1.7068599462509155,-0.40728241205215454,-0.5077667832374573
1698317282953381600,7.636381591796875,-1.431978702545166,-0.39506545662879944,-0.44423866271972656
1698317282962975200,7.645975341796875,-1.115407109260559,-0.6627692580223083,-0.4039227366447449
1698317282972567800,7.65556787109375,-0.7379034757614136,-1.0304993391036987,-0.3232909142971039
1698317282982160000,7.665159912109375,-0.38849884271621704,-1.2504043579101562,-0.28908345103263855
1698317282991752700,7.674752685546875,-0.19180603325366974,-1.2113101482391357,-0.3306210935115814
1698317283001346000,7.684345947265625,-0.11606097966432571,-1.0488247871398926,-0.3758237659931183
1698317283010939000,7.69393896484375,-0.10017894953489304,-0.8753440976142883,-0.3868190348148346
1698317283020530700,7.70353076171875,-0.1832541823387146,-0.6835380792617798,-0.34405970573425293
1698317283030123500,7.71312353515625,-0.3530697226524353,-0.4746283292770386,-0.2304421216249466
1698317283039716900,7.722716796875,-0.5558710098266602,-0.35474956035614014,-0.03374931216239929
1698317283049309700,7.732309814453125,-0.763559103012085,-0.2973299026489258,0.1507265567779541
1698317283058901500,7.741901611328125,-0.8845068216323853,-0.3584146201610565,0.23380178213119507
1698317283068494300,7.751494384765625,-0.9028322696685791,-0.6224533319473267,0.23868857324123383
1698317283078088000,7.761087890625,-0.7965448498725891,-0.9620844125747681,0.24846212565898895
1698317283087680500,7.770680419921875,-0.5522059202194214,-1.1624423265457153,0.3217637836933136
1698317283097272600,7.7802724609375,-0.27121618390083313,-1.378682255744934,0.43171629309654236
1698317283106865200,7.789865234375,-0.09651386737823486,-1.5265072584152222,0.35230615735054016
1698317283116458800,7.799458740234375,-0.046424392610788345,-1.4031161069869995,0.028557108715176582
1698317283126051600,7.809051513671875,-0.11117420345544815,-1.197871446609497,-0.3318427801132202
1698317283135643400,7.818643310546875,-0.2089097648859024,-1.0048437118530273,-0.700794517993927
1698317283145236200,7.828236328125,-0.19180603325366974,-0.8020424246788025,-0.9023740887641907
1698317283154829800,7.837829833984375,0.0036650835536420345,-0.70797199010849,-0.807081937789917
1698317283164422400,7.84742236328125,0.24556060135364532,-0.6383354067802429,-0.3733803927898407
1698317283174014200,7.85701416015625,0.4031592011451721,-0.1360662281513214,0.23746687173843384
1698317283183607000,7.86660693359375,0.4043808877468109,0.5920637249946594,0.7568397521972656
1698317283193200600,7.87620068359375,0.2993151545524597,1.1320526599884033,0.938872218132019
1698317283202793200,7.885793212890625,0.3017585575580597,1.316528558731079,0.8044858574867249
1698317283212385300,7.89538525390625,0.3970507085323334,1.1296093463897705,0.43415969610214233
1698317283221977900,7.904977783203125,0.42881476879119873,0.775317907333374,0.0261137206107378
1698317283231571500,7.914571533203125,0.3665083646774292,0.46989426016807556,-0.2793098986148834
1698317283241164000,7.9241640625,0.2980934679508209,0.26220619678497314,-0.39170581102371216
1698317283250756000,7.933756103515625,0.2345653474330902,0.06795676052570343,-0.2707580327987671
1698317283260349000,7.943348876953125,0.19913621246814728,-0.09208522737026215,0.02244863659143448
1698317283269942300,7.9529423828125,0.21501824259757996,-0.18737739324569702,0.3840702176094055
1698317283279535000,7.96253515625,0.2993151545524597,-0.1519482582807541,0.7189671993255615
1698317283289127000,7.972126953125,0.42637139558792114,0.10949437320232391,0.8936695456504822
1698317283298719700,7.9817197265625,0.5949652194976807,0.5358657836914062,0.8900044560432434
1698317283308313300,7.991313232421875,0.8063184022903442,0.9524635672569275,0.7507312893867493
1698317283317906000,8.000906005859376,1.007897973060608,1.200467586517334,0.5393781065940857
1698317283327498000,8.010498046875,1.178935170173645,1.287207841873169,0.3852919042110443
1698317283337090600,8.020090576171874,1.359745979309082,1.2603305578231812,0.37796175479888916
1698317283346684200,8.02968408203125,1.5833160877227783,1.0941801071166992,0.5013529062271118
1698317283356277000,8.039277099609375,1.8019994497299194,0.7973083853721619,0.7104153633117676
1698317283365868800,8.048868896484375,1.9217255115509033,0.5041016936302185,0.9523108601570129
1698317283375461600,8.058461669921876,1.9070651531219482,0.3501681983470917,1.1807677745819092
1698317283385055000,8.068054931640624,1.7506881952285767,0.35138988494873047,1.3102673292160034
1698317283394647800,8.077647705078125,1.453816533088684,0.43080002069473267,1.309045672416687
1698317283404239600,8.087239501953125,1.0408837795257568,0.49921491742134094,1.207645058631897
1698317283413832400,8.09683251953125,0.5558710098266602,0.5566345453262329,1.0488247871398926
1698317283423425800,8.10642578125,0.09773556143045425,0.6397097706794739,0.8741224408149719
1698317283433018600,8.1160185546875,-0.1575985997915268,0.7704311013221741,0.7470661997795105
1698317283442610400,8.1256103515625,-0.23945212364196777,0.9536852836608887,0.7018635272979736
1698317283452203300,8.135203369140624,-0.2626643180847168,1.1149489879608154,0.7226322889328003
1698317283461796900,8.144796875,-0.17592400312423706,1.1748119592666626,0.8057075142860413
1698317283471389400,8.154389404296875,0.08551861345767975,1.1039537191390991,0.9474241137504578
1698317283480981500,8.1639814453125,0.4679090082645416,0.9084826111793518,1.1551121473312378
1698317283490574000,8.173573974609376,0.7953231334686279,0.4821111857891083,1.3066022396087646
1698317283500167700,8.183167724609374,0.9309312105178833,-0.07498150318861008,1.271173119544983
1698317283509760500,8.192760498046875,0.9797990322113037,-0.42072105407714844,0.9865183234214783
1698317283519352300,8.202352294921875,1.045770525932312,-0.270452618598938,0.4671454429626465
1698317283528945200,8.211945068359375,1.0469921827316284,0.3196258246898651,-0.08383878320455551
1698317283538538500,8.22153857421875,0.9382613897323608,0.9549070000648499,-0.3758237659931183
1698317283548131300,8.23113134765625,0.7708892226219177,1.185807228088379,-0.3477247953414917
1698317283557723100,8.24072314453125,0.582748293876648,0.9475768208503723,-0.14492350816726685
1698317283567316000,8.25031591796875,0.42759308218955994,0.6055023670196533,0.12140589207410812
1698317283576909300,8.259909423828125,0.3151971995830536,0.43202173709869385,0.3730749487876892
1698317283586502100,8.269502197265625,0.21746163070201874,0.39292749762535095,0.5467082858085632
1698317283596094000,8.279093994140625,0.12339114397764206,0.3978142738342285,0.6224533319473267
1698317283605686800,8.288686767578126,0.08063183724880219,0.4112529158592224,0.6187883019447327
1698317283615280400,8.2982802734375,0.07696675509214401,0.3489464819431305,0.573585569858551
1698317283624873000,8.307873046875,0.05375456064939499,0.09239064902067184,0.48302745819091797
1698317283634465000,8.317465087890625,0.043981000781059265,-0.35108447074890137,0.3620797097682953
1698317283644057600,8.3270576171875,0.08918370306491852,-0.7617265582084656,0.2851129472255707
1698317283653651200,8.336651123046876,0.11361759155988693,-0.8802309036254883,0.3180987238883972
1698317283663243800,8.346243896484374,0.06352811306715012,-0.869235634803772,0.31687700748443604
1698317283672835800,8.3558359375,-0.0525328628718853,-0.8276980519294739,0.1495048701763153
1698317283682428700,8.3654287109375,-0.17958909273147583,-0.5955760478973389,-0.12781979143619537
1698317283692022000,8.37502197265625,-0.33230090141296387,-0.11529742181301117,-0.4246915578842163
1698317283701614800,8.38461474609375,-0.5265503525733948,0.4515688419342041,-0.7569924592971802
1698317283711206700,8.39420654296875,-0.7562289237976074,0.9035958051681519,-1.057529330253601
1698317283720799500,8.403799560546876,-0.9822424054145813,1.1381611824035645,-1.2163496017456055
1698317283730392800,8.413392822265624,-1.1435060501098633,1.1528215408325195,-1.2432268857955933
1698317283739985700,8.422985595703125,-1.1937482357025146,1.0318737030029297,-1.209019422531128
1698317283749577500,8.432577392578125,-1.1778662204742432,0.853506326675415,-1.1491564512252808
1698317283759170300,8.44217041015625,-1.1532796621322632,0.6702521443367004,-1.097845196723938
1698317283768764000,8.451763916015626,-1.0433270931243896,0.6103891134262085,-1.0404255390167236
1698317283778356500,8.4613564453125,-0.7892146706581116,0.8461761474609375,-0.8779402375221252
1698317283787948300,8.4709482421875,-0.45080527663230896,1.213906168937683,-0.6067240238189697
1698317283797541000,8.480541015625,-0.16004198789596558,1.177255392074585,-0.4027010500431061
1698317283807134700,8.490134765625,0.062306419014930725,0.7777612805366516,-0.3477247953414917
1698317283816727300,8.499727294921875,0.24556060135364532,0.32939937710762024,-0.3709369897842407
1698317283826319400,8.5093193359375,0.38849884271621704,-0.06398624926805496,-0.40514445304870605
1698317283835912000,8.518911865234376,0.23090025782585144,-0.2973299026489258,-0.4772244095802307
1698317283845505500,8.528505615234375,-0.24556060135364532,-0.2582356929779053,-0.5749599933624268
1698317283855098000,8.53809814453125,-0.7916580438613892,-0.10918894410133362,-0.5859552621841431
1698317283864690200,8.547690185546875,-1.2621631622314453,-0.020005248486995697,-0.6042806506156921
1698317283874283000,8.557282958984375,-1.5590349435806274,-0.23380178213119507,-0.669030487537384
1698317283883876400,8.56687646484375,-1.6934213638305664,-0.6884248852729797,-0.7569924592971802
1698317283893469200,8.57646923828125,-1.7056382894515991,-1.0793671607971191,-0.7704311013221741
1698317283903061000,8.58606103515625,-1.6274497509002686,-1.271173119544983,-0.700794517993927
1698317283912653800,8.59565380859375,-1.4771814346313477,-1.3053805828094482,-0.6103891134262085
1698317283922247400,8.605247314453125,-1.2902621030807495,-1.0598199367523193,-0.5309789776802063
1698317283931840000,8.614840087890625,-1.0811996459960938,-0.5308262705802917,-0.4869979918003082
1698317283941431800,8.624431884765626,-0.8527427911758423,-0.3461976945400238,-0.5322006940841675
1698317283951024600,8.634024658203124,-0.6352811455726624,-0.5405998229980469,-0.5163186192512512
1698317283960618200,8.6436181640625,-0.49356457591056824,-0.8631271719932556,-0.44546034932136536
1698317283970210800,8.6532109375,-0.36162158846855164,-1.0793671607971191,-0.36849361658096313
1698317283979803000,8.662802978515625,-0.22479179501533508,-1.221083641052246,-0.3171824514865875
1698317283989395500,8.6723955078125,-0.12339114397764206,-1.276059865951538,-0.2964136302471161
1698317283998989000,8.681989013671876,-0.05986303091049194,-1.152668833732605,-0.2976353168487549
1698317284008581600,8.69158154296875,-0.05986303091049194,-0.9657495021820068,-0.31351736187934875
1698317284018173700,8.701173583984374,-0.09651386737823486,-0.7971556782722473,-0.3184041380882263
1698317284027766300,8.710766357421875,-0.15271180868148804,-0.5955760478973389,-0.30740886926651
1698317284037359900,8.72035986328125,-0.2492256760597229,-0.4121691882610321,-0.28664007782936096
1698317284046952400,8.729952392578125,-0.3567348122596741,-0.26067906618118286,-0.2304421216249466
1698317284056544500,8.73954443359375,-0.4618005156517029,-0.2667875289916992,-0.15591876208782196
1698317284066137300,8.749137451171874,-0.5607577562332153,-0.4453076422214508,-0.10460758954286575
1698317284075730700,8.758730712890625,-0.7012526392936707,-0.7287407517433167,-0.06429167091846466
1698317284085323500,8.768323486328125,-0.8063184022903442,-0.9058864712715149,-0.0325276181101799
1698317284094915300,8.777915283203125,-0.6499415040016174,-0.7262973785400391,0.051769305020570755
1698317284104508200,8.787508056640625,-0.3176405727863312,-0.5760289430618286,0.30221667885780334
1698317284114101500,8.7971015625,-0.12827792763710022,-0.9523108601570129,0.5699204802513123
1698317284123694300,8.8066943359375,0.014660334214568138,-1.4617575407028198,0.5184566378593445
1698317284133286100,8.8162861328125,0.15393351018428802,-1.6767756938934326,-0.06917845457792282
1698317284142879000,8.82587890625,0.23334364593029022,-1.599808931350708,-0.8327375054359436
1698317284152472600,8.83547265625,0.1441599577665329,-1.2577345371246338,-1.2774343490600586
1698317284162065200,8.845065185546876,-0.05131116881966591,-0.7177455425262451,-1.3079767227172852
1698317284171657000,8.854656982421876,-0.18814095854759216,-0.02244863659143448,-0.8107470273971558
1698317284181249800,8.864249755859374,-0.17714570462703705,0.7154548764228821,0.10918894410133362
1698317284190843400,8.873843505859375,-0.20280128717422485,1.1418262720108032,0.8912261724472046
1698317284200436000,8.88343603515625,-0.15271180868148804,0.9842276573181152,1.1795459985733032
1698317284210028000,8.893028076171875,0.01710372418165207,0.7618792653083801,0.9571976661682129
1698317284219620600,8.90262060546875,0.16737215220928192,0.6604785919189453,0.49768781661987305
1698317284229214200,8.912214111328124,0.21868331730365753,0.462564080953598,0.05787777900695801
1698317284238806800,8.921806884765624,0.25655585527420044,0.19989976286888123,-0.15591876208782196
1698317284248398800,8.93139892578125,0.3151971995830536,-0.08842013776302338,-0.1375933438539505
1698317284257991400,8.940991455078125,0.38483378291130066,-0.31565532088279724,-0.023975754156708717
1698317284267585000,8.9505849609375,0.47890424728393555,-0.3217637836933136,0.17027367651462555
1698317284277177600,8.960177490234376,0.5412106513977051,-0.2289150059223175,0.4781406819820404
1698317284286769700,8.969769775390626,0.5741963982582092,-0.14217470586299896,0.7690566778182983
1698317284296362500,8.979362548828124,0.6120689511299133,0.05329642444849014,0.8301414251327515
1698317284305955800,8.988955810546875,0.6914790868759155,0.34283801913261414,0.6945333480834961
1698317284315548700,8.998548583984375,0.781884491443634,0.594507098197937,0.49890950322151184
1698317284325140500,9.008140380859375,0.8845068216323853,0.8364025950431824,0.36574479937553406
1698317284334733300,9.0177333984375,1.0567657947540283,1.0416473150253296,0.3461976945400238
1698317284344326700,9.02732666015625,1.3120999336242676,1.1137272119522095,0.4402681589126587
1698317284353919500,9.03691943359375,1.5991981029510498,1.0489774942398071,0.6029062271118164
1698317284363511300,9.04651123046875,1.83132004737854,0.8791618943214417,0.8215895891189575
1698317284373104000,9.056104248046875,1.9229471683502197,0.6042806506156921,1.0512681007385254
1698317284382697500,9.065697509765625,1.8105512857437134,0.2707580327987671,1.2003148794174194
1698317284392290300,9.075290283203126,1.4513731002807617,0.0716218426823616,1.2284138202667236
1698317284401882000,9.084882080078126,0.8625163435935974,0.14248012006282806,1.1245697736740112
1698317284411475000,9.094474853515624,0.21501824259757996,0.39292749762535095,0.9278770089149475
1698317284421068300,9.104068359375,-0.13805148005485535,0.6849125027656555,0.739736020565033
1698317284430661000,9.1136611328125,-0.25533416867256165,0.9109259843826294,0.6456655263900757
1698317284440253000,9.1232529296875,-0.36284327507019043,1.1051753759384155,0.6151232123374939
1698317284449845800,9.132845703125,-0.4471401870250702,1.2994248867034912,0.6236750483512878
1698317284459439400,9.142439453125,-0.38849884271621704,1.3837217092514038,0.6468872427940369
1698317284469032000,9.152031982421875,-0.14904673397541046,1.3311889171600342,0.7104153633117676
1698317284478623700,9.161623779296875,0.21746163070201874,1.1992459297180176,0.8667922616004944
1698317284488216600,9.171216552734375,0.582748293876648,0.8315158486366272,1.0805888175964355
1698317284497810200,9.18081005859375,0.8124268651008606,0.2145601063966751,1.2565127611160278
1698317284507402800,9.19040283203125,0.869846522808075,-0.3107685446739197,1.2907202243804932
1698317284516994800,9.199994873046874,0.8429692387580872,-0.47585001587867737,1.1318999528884888
1698317284526587400,9.20958740234375,0.7806627750396729,-0.20814619958400726,0.7201889157295227
1698317284536181000,9.219180908203125,0.7256865501403809,0.44423866271972656,0.2289150059223175
1698317284545773600,9.228773681640625,0.7085828185081482,1.004996418952942,-0.10582929104566574
1698317284555365600,9.23836572265625,0.7244648337364197,1.144269585609436,-0.1889045089483261
1698317284564958200,9.247958251953126,0.7550072073936462,0.9891144037246704,-0.07773031294345856
1698317284574551800,9.2575517578125,0.8063184022903442,0.8058602213859558,0.14828316867351532
1698317284584144400,9.267144287109375,0.8478559851646423,0.6910209655761719,0.3755183517932892
1698317284593736400,9.276736328125,0.8197570443153381,0.45767730474472046,0.5601469278335571
1698317284603329000,9.2863291015625,0.7293516397476196,0.072843536734581,0.6774296164512634
1698317284612922600,9.295922607421875,0.582748293876648,-0.23502348363399506,0.7360709309577942
1698317284622515200,9.30551513671875,0.3823903799057007,-0.2802261710166931,0.7372926473617554
1698317284632107300,9.315107177734374,0.16615045070648193,-0.19837264716625214,0.6615476012229919
1698317284641699800,9.324699951171874,0.0012216945178806782,-0.028557108715176582,0.5099047422409058
1698317284651293400,9.33429345703125,-0.11361759155988693,0.1107160672545433,0.32542887330055237
1698317284660886300,9.34388623046875,-0.21623992919921875,-0.050547610968351364,0.09941539168357849
1698317284670478000,9.35347802734375,-0.3261924386024475,-0.40483900904655457,-0.21822518110275269
1698317284680071000,9.36307080078125,-0.44103172421455383,-0.4367557764053345,-0.40636613965034485
1698317284689664300,9.372664306640624,-0.5485408306121826,-0.2924431264400482,-0.40636613965034485
1698317284699257000,9.382257080078125,-0.624285876750946,-0.4306473135948181,-0.44423866271972656
1698317284708849000,9.391848876953125,-0.6584933400154114,-0.5931326746940613,-0.6189410090446472
1698317284718441700,9.401441650390625,-0.6939224600791931,-0.5405998229980469,-0.8425110578536987
1698317284728035000,9.41103515625,-0.7708892226219177,-0.3596363365650177,-1.0966235399246216
1698317284737628000,9.4206279296875,-0.9321529269218445,-0.09697200357913971,-1.3825000524520874
1698317284747219700,9.4302197265625,-1.1398409605026245,0.20967331528663635,-1.6366125345230103
1698317284756812500,9.4398125,-1.3635637760162354,0.439351886510849,-1.7783291339874268
1698317284766406000,9.449406005859375,-1.4796247482299805,0.6128324866294861,-1.7624469995498657
1698317284775998700,9.458998779296875,-1.417318344116211,0.7117897868156433,-1.5755277872085571
1698317284785590500,9.468590576171875,-1.2035218477249146,0.7679877281188965,-1.2249014377593994
1698317284795183400,9.478183349609376,-0.8771766424179077,0.8266290426254272,-0.7875348329544067
1698317284804776700,9.487776611328124,-0.5741963982582092,0.7692093849182129,-0.39414918422698975
1698317284814369500,9.49736962890625,-0.367730051279068,0.5554128885269165,-0.11682453751564026
1698317284823961300,9.50696142578125,-0.21623992919921875,0.28786176443099976,-0.021532366052269936
1698317284833554200,9.51655419921875,-0.0525328628718853,0.12904147803783417,-0.1107160672545433
1698317284843147800,9.526147705078126,0.009773556143045425,0.06917845457792282,-0.2683146595954895
1698317284852740400,9.535740234375,-0.1844758689403534,0.18401773273944855,-0.4772244095802307
1698317284862332200,9.545332275390624,-0.4874561131000519,0.2976353168487549,-0.6433748602867126
1698317284871925000,9.554925048828125,-0.8307522535324097,0.25121092796325684,-0.7032378911972046
1698317284881518300,9.564518310546875,-1.123958945274353,0.06795676052570343,-0.7435538172721863
1698317284891111200,9.574111083984375,-1.2377293109893799,-0.28633466362953186,-0.7582141757011414
1698317284900703000,9.583702880859375,-1.2487244606018066,-0.7385143637657166,-0.7411104440689087
1698317284910295800,9.5932958984375,-1.2377293109893799,-1.1685508489608765,-0.7178982496261597
1698317284919889400,9.602889404296874,-1.1974133253097534,-1.4886348247528076,-0.7130114436149597
1698317284929482000,9.61248193359375,-1.0983033180236816,-1.6254645586013794,-0.724006712436676
1698317284939073800,9.62207373046875,-0.9089407324790955,-1.5521628856658936,-0.6788040399551392
1698317284948666600,9.63166650390625,-0.7036960124969482,-1.2601778507232666,-0.5419742465019226
1698317284958260200,9.64126025390625,-0.5399889945983887,-1.1209046840667725,-0.4918847680091858
1698317284967852800,9.650852783203124,-0.34940463304519653,-1.1233481168746948,-0.46989426016807556
1698317284977444600,9.660444580078124,-0.18081079423427582,-1.2149752378463745,-0.4271349310874939
1698317284987037400,9.670037353515625,-0.0647498071193695,-1.3579134941101074,-0.36727190017700195
1698317284996631000,9.679631103515625,0.05986303091049194,-1.5032950639724731,-0.28664007782936096
1698317285006223600,9.6892236328125,0.16737215220928192,-1.5717099905014038,-0.22066856920719147
1698317285015815400,9.6988154296875,0.21623992919921875,-1.6132476329803467,-0.19501298666000366
1698317285025408300,9.708408203125,0.21868331730365753,-1.6670022010803223,-0.15958385169506073
1698317285035001900,9.718001953125,0.13560809195041656,-1.6401249170303345,-0.05207473039627075
1698317285044594400,9.727594482421875,-0.0390942245721817,-1.5265072584152222,0.1238492801785469
1698317285054186200,9.737186279296875,-0.24189551174640656,-1.4703093767166138,0.2692309319972992
1698317285063779000,9.746779052734375,-0.4434750974178314,-1.5656014680862427,0.3242071866989136
1698317285073372700,9.75637255859375,-0.6548282504081726,-1.601030707359314,0.2802261710166931
1698317285082965200,9.76596533203125,-0.8527427911758423,-1.3933426141738892,0.15805672109127045
1698317285092557300,9.775557373046874,-0.8405258059501648,-0.9877400398254395,0.051769305020570755
1698317285102150000,9.78514990234375,-0.6340594291687012,-0.8631271719932556,0.23258009552955627
1698317285111743500,9.794743408203125,-0.23090025782585144,-1.0683718919754028,0.6725428104400635
1698317285121336000,9.804336181640625,0.11972606182098389,-1.513068675994873,0.6786513328552246
1698317285130928000,9.81392822265625,0.25289076566696167,-1.9198929071426392,-0.13026317954063416
1698317285140520700,9.823520751953126,0.30786702036857605,-2.1996610164642334,-1.1015102863311768
1698317285150114300,9.8331142578125,0.5204418897628784,-1.822157382965088,-1.602405071258545
1698317285159707000,9.842706787109375,0.4752391576766968,-1.050046443939209,-1.5999616384506226
1698317285169299000,9.852298828125,0.10384403169155121,-0.18249061703681946,-1.213906168937683
1698317285178891500,9.8618916015625,-0.1954711228609085,0.7545490860939026,-0.6641436815261841
1698317285188485000,9.871485107421876,-0.3115321099758148,1.5095562934875488,0.08108997344970703
1698317285198077700,9.88107763671875,-0.33596599102020264,1.358066201210022,0.5772506594657898
1698317285207669800,9.890669677734374,-0.237008735537529,0.7936432957649231,0.5931326746940613
1698317285217262300,9.900262451171875,-0.05986303091049194,0.2793098986148834,0.3828485310077667
1698317285226856000,9.90985595703125,0.15026842057704926,-0.2423536479473114,0.164165198802948
1698317285236448500,9.919448486328125,0.367730051279068,-0.7690566778182983,0.10185877978801727
1698317285246040600,9.92904052734375,0.5607577562332153,-1.2894985675811768,0.18493400514125824
1698317285255633200,9.938633056640626,0.6646018028259277,-1.5631581544876099,0.3596363365650177
1698317285265226800,9.948226806640625,0.6316160559654236,-1.4446537494659424,0.6139014959335327
1698317285274819300,9.9578193359375,0.49356457591056824,-1.0390511751174927,0.897334635257721
1698317285284411400,9.967411376953125,0.30786702036857605,-0.42072105407714844,1.0622633695602417
1698317285294004000,9.97700390625,0.19913621246814728,0.5651864409446716,0.9523108601570129
1698317285303597600,9.98659765625,0.17348061501979828,1.5669759511947632,0.679872989654541
1698317285313190100,9.996190185546874,0.22967857122421265,2.1472809314727783,0.5001311898231506
1698317285322782200,10.0057822265625,0.4349232614040375,2.241351366043091,0.4903576374053955
1698317285332374800,10.015374755859375,0.790436327457428,1.8467439413070679,0.573585569858551
1698317285341968400,10.024968505859375,1.226581335067749,0.9170344471931458,0.6517740488052368
1698317285351561000,10.03456103515625,1.582094430923462,-0.1763821393251419,0.7214106321334839
1698317285361153000,10.044153076171876,1.4196090698242188,-0.8863393664360046,0.7507312893867493
1698317285370745600,10.05374560546875,0.939483106136322,-0.8044858574867249,0.6969767212867737
1698317285380339200,10.063339111328125,0.7757760286331177,-0.050547610968351364,0.610236406326294
1698317285389931800,10.072931884765625,0.8173136115074158,0.8254073858261108,0.5074613690376282
1698317285399523800,10.08252392578125,0.6707102656364441,1.5315468311309814,0.39262208342552185
1698317285409116400,10.092116455078125,0.3384093940258026,1.9273757934570312,0.39140036702156067
1698317285418710000,10.1017099609375,0.024433890357613564,2.088639497756958,0.506239652633667
1698317285428302600,10.111302490234374,-0.16859383881092072,2.0409934520721436,0.6823163628578186
1698317285437894700,10.120894775390624,-0.2211267054080963,1.8870599269866943,0.8863393664360046
1698317285447487200,10.1304873046875,-0.14782503247261047,1.6683765649795532,1.1453386545181274
1698317285457080800,10.140080810546875,0.0659715011715889,1.3091983795166016,1.4495404958724976
1698317285466673400,10.14967333984375,0.3701734244823456,0.8681666851043701,1.6914360523223877
1698317285476265500,10.159265380859376,0.6352811455726624,0.4869979918003082,1.7610726356506348
1698317285485858000,10.168858154296874,0.8380824327468872,0.26342788338661194,1.7439689636230469
1698317285495451600,10.17845166015625,0.9907942414283752,0.058183200657367706,1.6205778121948242
1698317285505044200,10.188044189453125,1.0726478099822998,-0.2790044844150543,1.1184613704681396
1698317285514636300,10.19763623046875,1.0531007051467896,-0.05421269312500954,0.49646610021591187
1698317285524228900,10.207228759765625,0.9297095537185669,0.8864920735359192,0.06642963737249374
1698317285533822500,10.216822509765626,0.7684458494186401,1.773442268371582,-0.06673506647348404
1698317285543415000,10.2264150390625,0.6071822047233582,2.0923044681549072,0.018783552572131157
1698317285553007000,10.236007080078124,0.5131117105484009,1.844300627708435,0.20570281147956848
1698317285562599700,10.245599609375,0.5363239049911499,1.3544011116027832,0.40483900904655457
1698317285572193300,10.255193359375,0.5949652194976807,0.9390249252319336,0.5540384650230408
1698317285581785900,10.264785888671875,0.5534276366233826,0.6873558759689331,0.624896764755249
1698317285591378000,10.2743779296875,0.4727957844734192,0.7215633392333984,0.6542174220085144
1698317285600970500,10.283970458984374,0.3823903799057007,0.881605327129364,0.648108959197998
1698317285610564000,10.293564208984375,0.25655585527420044,0.8999307155609131,0.5796940326690674
1698317285620156700,10.30315673828125,0.0781884491443634,0.7178982496261597,0.4671454429626465
1698317285629748700,10.312748779296875,-0.06841489672660828,0.3306210935115814,0.3229855000972748
1698317285639341300,10.32234130859375,-0.13805148005485535,-0.18126893043518066,0.12751436233520508
1698317285648935000,10.331934814453126,-0.18081079423427582,-0.3975088596343994,-0.0068720318377017975
1698317285658527500,10.341527587890624,-0.3042019307613373,-0.3596363365650177,-0.06551336497068405
1698317285668119600,10.35111962890625,-0.4886777997016907,-0.37918344140052795,-0.1901262104511261
1698317285677712100,10.360712158203125,-0.6218425035476685,-0.31443363428115845,-0.46989426016807556
1698317285687305700,10.3703056640625,-0.726908266544342,-0.011453386396169662,-0.8657232522964478
1698317285696898300,10.379898193359375,-0.8783983588218689,0.3465031087398529,-1.2957597970962524
1698317285706490400,10.389490478515626,-1.0531007051467896,0.571294903755188,-1.5999616384506226
1698317285716083000,10.3990830078125,-1.2316207885742188,0.6580352187156677,-1.6744850873947144
1698317285725676500,10.408676513671875,-1.3904410600662231,0.705681324005127,-1.5596457719802856
1698317285735269000,10.41826904296875,-1.5272709131240845,0.7459971904754639,-1.3409624099731445
1698317285744861000,10.42786083984375,-1.5553698539733887,0.6531484127044678,-1.1173923015594482
1698317285754453800,10.437453857421875,-1.3598986864089966,0.4136963188648224,-0.9109259843826294
1698317285764047400,10.44704736328125,-0.9675820469856262,0.23410721123218536,-0.654370129108429
1698317285773640000,10.456639892578124,-0.5302154421806335,0.1779092699289322,-0.35505497455596924
1698317285783232000,10.46623193359375,-0.24311721324920654,0.16935740411281586,-0.1363716572523117
1698317285792824600,10.475824462890625,-0.03542914241552353,0.22677704691886902,-0.10338589549064636
1698317285802418200,10.485418212890625,0.129499614238739,0.33917292952537537,-0.22311195731163025
1698317285812010800,10.4950107421875,0.19424942135810852,0.46867257356643677,-0.37704548239707947
1698317285821602600,10.5046025390625,0.03298575058579445,0.5554128885269165,-0.5041016936302185
1698317285831195400,10.5141953125,-0.29565006494522095,0.5309789776802063,-0.6067240238189697
1698317285840789000,10.5237890625,-0.5986303091049194,0.24632415175437927,-0.5871769189834595
1698317285850381600,10.533381591796875,-0.9895725846290588,-0.16905197501182556,-0.5615213513374329
1698317285859973400,10.542973388671875,-1.3403515815734863,-0.7348492741584778,-0.5639647245407104
1698317285869566200,10.552566162109375,-1.5040587186813354,-1.2931636571884155,-0.5725166201591492
1698317285879159800,10.562159912109376,-1.4918416738510132,-1.6071391105651855,-0.571294903755188
1698317285888752400,10.57175244140625,-1.3721156120300293,-1.6340163946151733,-0.543195903301239
1698317285898344200,10.58134423828125,-1.1998567581176758,-1.428771734237671,-0.5150969624519348
1698317285907937000,10.59093701171875,-1.0213366746902466,-1.1490037441253662,-0.4931064546108246
1698317285917530600,10.600530517578125,-0.7879929542541504,-0.9767447710037231,-0.4515688419342041
1698317285927123200,10.610123291015626,-0.517998456954956,-0.9840749502182007,-0.4014793634414673
1698317285936715000,10.619715087890626,-0.3151971995830536,-1.0048437118530273,-0.3953709006309509
1698317285946307800,10.629307861328124,-0.16126367449760437,-1.0427162647247314,-0.4027010500431061
1698317285955901200,10.638901123046875,-0.0036650835536420345,-1.2430741786956787,-0.42224815487861633
1698317285965494000,10.648493896484375,0.130721315741539,-1.458092451095581,-0.4784461259841919
1698317285975085800,10.6580859375,0.2235700935125351,-1.483747959136963,-0.5407525300979614
1698317285984678700,10.6676787109375,0.27976804971694946,-1.3114891052246094,-0.5761816501617432
1698317285994272000,10.67727197265625,0.25655585527420044,-1.0940274000167847,-0.6055023670196533
1698317286003864800,10.68686474609375,0.1453816443681717,-0.9339854717254639,-0.5883986353874207
1698317286013456600,10.69645654296875,-0.01710372418165207,-0.7446228265762329,-0.4796678125858307
1698317286023049500,10.706049560546875,-0.2113531529903412,-0.6762079000473022,-0.3171824514865875
1698317286032642800,10.715642822265625,-0.4202629029750824,-0.7702783942222595,-0.19989976286888123
1698317286042235600,10.725235595703126,-0.629172682762146,-0.9364288449287415,-0.17913095653057098
1698317286051827500,10.734827392578126,-0.813648521900177,-1.1880979537963867,-0.19501298666000366
1698317286061420300,10.744420166015624,-0.9260444641113281,-1.2846118211746216,-0.14858859777450562
1698317286071013600,10.754013671875,-0.8869501948356628,-0.9645278453826904,0.15561333298683167
1698317286080606500,10.7636064453125,-0.6719319820404053,-0.5821374654769897,0.6065713167190552
1698317286090198300,10.7731982421875,-0.4312581717967987,-0.6713211536407471,0.8020424246788025
1698317286099791000,10.782791015625,-0.22601348161697388,-1.0976924896240234,0.5467082858085632
1698317286109384400,10.792384521484376,0.006108472589403391,-1.3359229564666748,-0.04352286830544472
1698317286118977000,10.80197705078125,0.1844758689403534,-1.2125318050384521,-0.7777612805366516
1698317286128569000,10.811569091796875,0.15149012207984924,-0.8557969927787781,-1.2847645282745361
1698317286138162000,10.821161865234375,-0.09284878522157669,-0.45141613483428955,-1.2945380210876465
1698317286147755300,10.83075537109375,-0.38483378291130066,-0.2411319613456726,-0.8486195802688599
1698317286157347800,10.840347900390626,-0.5497625470161438,-0.09575030952692032,0.06276455521583557
1698317286166940000,10.84993994140625,-0.4593571424484253,0.21211670339107513,0.9633061289787292
1698317286176532700,10.85953271484375,-0.22723518311977386,0.488219678401947,1.4226632118225098
1698317286186126000,10.8691259765625,0.03176405653357506,0.5725166201591492,1.3615785837173462
1698317286195718700,10.87871875,0.2980934679508209,0.5651864409446716,0.966971218585968
1698317286205310700,10.888310791015625,0.5143333673477173,0.5639647245407104,0.49890950322151184
1698317286214903300,10.8979033203125,0.629172682762146,0.49799323081970215,0.018783552572131157
1698317286224497000,10.907496826171876,0.6096255779266357,0.3061871826648712,-0.3477247953414917
1698317286234089500,10.91708935546875,0.5509842038154602,0.04840964451432228,-0.465007483959198
1698317286243681500,10.926681640625,0.5216635465621948,-0.15439164638519287,-0.3184041380882263
1698317286253274000,10.936274169921875,0.5754181146621704,-0.2044811248779297,-0.0032069480512291193
1698317286262867700,10.94586767578125,0.5961869359016418,-0.21914145350456238,0.376740038394928
1698317286272460300,10.955460205078126,0.517998456954956,-0.26067906618118286,0.6896465420722961
1698317286282052400,10.96505224609375,0.44103172421455383,-0.17271706461906433,0.7751652002334595
1698317286291645000,10.97464501953125,0.42514967918395996,0.15347537398338318,0.6493306159973145
1698317286301238500,10.984238525390625,0.4850127100944519,0.6250494718551636,0.4928010404109955
1698317286310831000,10.9938310546875,0.6120689511299133,1.0001096725463867,0.4671454429626465
1698317286320423000,11.0034228515625,0.8087617754936218,1.334854006767273,0.5772506594657898
1698317286330015700,11.013015625,1.0934165716171265,1.6195087432861328,0.7592831254005432
1698317286339609300,11.022609375,1.4208307266235352,1.686702013015747,0.9620844125747681
1698317286349202000,11.032201904296874,1.6944903135299683,1.4325895309448242,1.1563338041305542
1698317286358793700,11.041793701171875,1.7897825241088867,0.798530101776123,1.2577345371246338
1698317286368386600,11.051386474609375,1.595533013343811,-0.09086353331804276,1.184432864189148
1698317286377980200,11.060980224609375,1.110520362854004,-0.6872031688690186,0.9852966070175171
1698317286387572700,11.07057275390625,0.7110261917114258,-0.7324058413505554,0.7556180357933044
1698317286397164500,11.08016455078125,0.4825693368911743,-0.39384377002716064,0.5992411375045776
1698317286406757400,11.08975732421875,0.23334364593029022,0.13270656764507294,0.5540384650230408
1698317286416350700,11.099350830078125,-0.05986303091049194,0.7386670708656311,0.624896764755249
1698317286425943600,11.108943603515625,-0.2602209448814392,1.301868200302124,0.7617265582084656
1698317286435535400,11.118535400390625,-0.2993151545524597,1.6243956089019775,0.8729007244110107
1698317286445128200,11.128128173828125,-0.14049486815929413,1.5437637567520142,0.9290986657142639
1698317286454721500,11.137721435546876,0.19302773475646973,1.1515997648239136,0.9950701594352722
1698317286464314000,11.147314208984374,0.5937435626983643,0.6946860551834106,1.1404517889022827
1698317286473906200,11.15690625,0.8832851648330688,0.15836215019226074,1.2907202243804932
1698317286483499000,11.1664990234375,0.9602518677711487,-0.3889569938182831,1.2601778507232666
1698317286493092400,11.17609228515625,0.9492566585540771,-0.5711421966552734,0.9694145917892456
1698317286502685000,11.185684814453126,0.9174925684928894,-0.20570281147956848,0.4695888161659241
1698317286512277000,11.195277099609376,0.8600729703903198,0.5810684561729431,-0.01175880990922451
1698317286521869800,11.204869873046874,0.7745543122291565,1.2664390802383423,-0.22677704691886902
1698317286531463200,11.214463134765625,0.6951441764831543,1.419150948524475,-0.18035265803337097
1698317286541055700,11.2240556640625,0.6120689511299133,1.0868499279022217,0.0029015245381742716
1698317286550647800,11.233647705078125,0.5424323678016663,0.6067240238189697,0.21914145350456238
1698317286560240400,11.243240478515625,0.4825693368911743,0.28908345103263855,0.3962871730327606
1698317286569834000,11.252833984375,0.41048935055732727,0.18523943424224854,0.49768781661987305
1698317286579426600,11.262426513671874,0.32252734899520874,0.24754585325717926,0.555260181427002
1698317286589018600,11.2720185546875,0.2504473626613617,0.3868190348148346,0.6016845703125
1698317286598611200,11.281611083984375,0.21379654109477997,0.41736137866973877,0.6029062271118164
1698317286608204800,11.291204833984375,0.18814095854759216,0.35138988494873047,0.5099047422409058
1698317286617797400,11.30079736328125,0.11606097966432571,0.1901262104511261,0.34008920192718506
1698317286627389200,11.31038916015625,0.05008947476744652,-0.13484452664852142,0.11529742181301117
1698317286636982000,11.31998193359375,-0.023212196305394173,-0.30221667885780334,-0.03008422814309597
1698317286646575600,11.32957568359375,-0.14904673397541046,-0.16172181069850922,-0.04474456235766411
1698317286656168200,11.339168212890625,-0.2980934679508209,-0.09941539168357849,-0.10094250738620758
1698317286665760000,11.348760009765625,-0.3762819170951843,-0.19348587095737457,-0.28541839122772217
1698317286675352800,11.358352783203125,-0.4031592011451721,-0.14828316867351532,-0.5541911721229553
1698317286684946200,11.3679462890625,-0.522885262966156,0.12293300777673721,-0.8620582222938538
1698317286694539000,11.3775390625,-0.7244648337364197,0.462564080953598,-1.1833637952804565
1698317286704130800,11.387130859375,-0.9358180165290833,0.6507050395011902,-1.4093773365020752
1698317286713723600,11.3967236328125,-1.1373976469039917,0.6445965766906738,-1.4839006662368774
1698317286723317000,11.40631689453125,-1.3122526407241821,0.5138752460479736,-1.4558017253875732
1698317286732909600,11.41590966796875,-1.4051014184951782,0.3990359604358673,-1.3861651420593262
1698317286742501600,11.425501708984376,-1.3684505224227905,0.35505497455596924,-1.2810994386672974
1698317286752094500,11.435094482421874,-1.2169604301452637,0.3367295563220978,-1.1186140775680542
1698317286761687800,11.444687744140625,-0.9333745837211609,0.3880407214164734,-0.858393132686615
1698317286771280400,11.4542802734375,-0.5277720093727112,0.44301697611808777,-0.5493044257164001
1698317286780872400,11.46387255859375,-0.20035789906978607,0.3049654960632324,-0.2951919436454773
1698317286790465000,11.473465087890625,0.014660334214568138,0.06429167091846466,-0.20600824058055878
1698317286800058600,11.48305859375,0.17470231652259827,-0.14217470586299896,-0.27686652541160583
1698317286809651200,11.492651123046874,0.14660334587097168,-0.19226416945457458,-0.3855973184108734
1698317286819243000,11.502242919921875,-0.19058434665203094,-0.08842013776302338,-0.49921491742134094
1698317286828835800,11.5118359375,-0.5949652194976807,-0.06765133142471313,-0.543195903301239
1698317286838429400,11.521429443359375,-0.9724688529968262,-0.15927842259407043,-0.5334223508834839
1698317286848022000,11.53102197265625,-1.306144118309021,-0.33031564950942993,-0.5334223508834839
1698317286857613800,11.54061376953125,-1.5920206308364868,-0.7690566778182983,-0.5224271416664124
1698317286867206700,11.55020654296875,-1.7447324991226196,-1.2907202243804932,-0.5065450668334961
1698317286876800000,11.559800048828125,-1.7630579471588135,-1.6486767530441284,-0.47355934977531433
1698317286886392800,11.569392822265625,-1.684869408607483,-1.7378604412078857,-0.439351886510849
1698317286895984600,11.578984619140625,-1.5553698539733887,-1.601030707359314,-0.41736137866973877
1698317286905577500,11.588577392578125,-1.3696722984313965,-1.3860124349594116,-0.4088095426559448
1698317286915170800,11.5981708984375,-1.1117420196533203,-1.2113101482391357,-0.3868190348148346
1698317286924763600,11.607763671875,-0.8319739699363708,-1.2113101482391357,-0.32817769050598145
1698317286934355500,11.61735546875,-0.6084038615226746,-1.3078240156173706,-0.28786176443099976
1698317286943948000,11.626947998046875,-0.4056025743484497,-1.4177764654159546,-0.27808821201324463
1698317286953541600,11.636541748046875,-0.18081079423427582,-1.5338374376296997,-0.2683146595954895
1698317286963134200,11.64613427734375,0.01710372418165207,-1.576596736907959,-0.2683146595954895
1698317286972726300,11.655726318359376,0.1575985997915268,-1.5252856016159058,-0.28664007782936096
1698317286982318800,11.66531884765625,0.261442631483078,-1.395785927772522,-0.28664007782936096
1698317286991912400,11.674912353515625,0.28343313932418823,-1.294385313987732,-0.252432644367218
1698317287001505000,11.684505126953125,0.2101314514875412,-1.1673290729522705,-0.19623468816280365
1698317287011097000,11.69409716796875,0.09407047927379608,-0.9681929349899292,-0.1363716572523117
1698317287020689700,11.703689697265625,-0.04153761267662048,-0.7434011101722717,-0.10705098509788513
1698317287030283300,11.713283203125,-0.1820324808359146,-0.5613686442375183,-0.11315945535898209
1698317287039875800,11.722875732421874,-0.33596599102020264,-0.5283828973770142,-0.14614520967006683
1698317287049467600,11.732467529296875,-0.5082249045372009,-0.6041279435157776,-0.15714046359062195
1698317287059060500,11.742060546875,-0.624285876750946,-0.6554391384124756,-0.08994726091623306
1698317287068654000,11.751654052734375,-0.5925218462944031,-0.49173203110694885,0.06032116711139679
1698317287078246700,11.76124658203125,-0.4874561131000519,-0.2802261710166931,0.2680092453956604
1698317287087838500,11.77083837890625,-0.39949411153793335,-0.503948986530304,0.4659237563610077
1698317287097431300,11.780431396484374,-0.24067382514476776,-1.1673290729522705,0.44393324851989746
1698317287107024600,11.790024658203125,0.046424392610788345,-1.7293086051940918,0.020005248486995697
1698317287116617500,11.799617431640625,0.3530697226524353,-1.624242901802063,-0.7301151752471924
1698317287126209300,11.809209228515625,0.3127537965774536,-1.1709941625595093,-1.2578872442245483
1698317287135801900,11.8188017578125,-0.013438640162348747,-0.6578825116157532,-1.3556227684020996
1698317287145395500,11.8283955078125,-0.42514967918395996,-0.04321744292974472,-1.1271659135818481
1698317287154988000,11.837988037109374,-0.6560499668121338,0.6568135023117065,-0.30740886926651
1698317287164580000,11.847580078125,-0.6328377723693848,1.1833637952804565,0.9523108601570129
1698317287174172700,11.857172607421875,-0.4300364851951599,1.0221002101898193,1.8294875621795654
1698317287183766300,11.866766357421875,-0.09773556143045425,0.3086305856704712,1.8465912342071533
1698317287193358800,11.87635888671875,0.2480039894580841,-0.050547610968351364,1.3811256885528564
1698317287202951000,11.885950927734376,0.41048935055732727,-0.15561333298683167,0.9058864712715149
1698317287212543500,11.89554345703125,0.4434750974178314,-0.2435753494501114,0.40850409865379333
1698317287222137000,11.90513720703125,0.4080459773540497,-0.29977330565452576,-0.11315945535898209
1698317287231729700,11.914729736328125,0.3506263196468353,-0.37796175479888916,-0.41980478167533875
1698317287241321500,11.924321533203125,0.3518480062484741,-0.40361732244491577,-0.462564080953598
1698317287250914300,11.933914306640625,0.4312581717967987,-0.27411770820617676,-0.3245126008987427
1698317287260507600,11.943507568359376,0.5656445622444153,-0.04077405482530594,-0.11315945535898209
1698317287270100500,11.9531005859375,0.7012526392936707,0.23166382312774658,0.12140589207410812
1698317287279692300,11.9626923828125,0.8478559851646423,0.5102101564407349,0.35108447074890137
1698317287289284900,11.972284912109375,0.9932376146316528,0.7802046537399292,0.43049460649490356
1698317287298878500,11.98187841796875,1.1373976469039917,1.0905150175094604,0.3962871730327606
1698317287308471000,11.991470947265626,1.336533784866333,1.349514365196228,0.42927291989326477
1698317287318063000,12.00106298828125,1.6028631925582886,1.4765704870224,0.6053496599197388
1698317287327655700,12.01065576171875,1.855754017829895,1.4203726053237915,0.8826742768287659
1698317287337249300,12.020249267578125,1.9522678852081299,1.2053543329238892,1.1734375953674316
1698317287346841900,12.029841796875,1.7775654792785645,0.8571714162826538,1.342031478881836
1698317287356434000,12.039433837890625,1.2510151863098145,0.5260922312736511,1.3298144340515137
1698317287366026500,12.049026611328125,0.6878139972686768,0.3208475112915039,1.2088667154312134
1698317287375620000,12.0586201171875,0.37261682748794556,0.20356485247612,1.058598279953003
1698317287385212700,12.068212646484374,0.1429382562637329,0.15714046359062195,0.9009997248649597
1698317287394804500,12.077804443359375,-0.12339114397764206,0.19989976286888123,0.7702783942222595
1698317287404397300,12.087397216796875,-0.3970507085323334,0.3489464819431305,0.7006418108940125
1698317287413990700,12.09699072265625,-0.5876350402832031,0.6824691295623779,0.6884248852729797
1698317287423583500,12.10658349609375,-0.6499415040016174,1.1613733768463135,0.7006418108940125
1698317287433175300,12.11617529296875,-0.5363239049911499,1.4643535614013672,0.6994200944900513
