time,seconds_elapsed,z,y,x
1698317172903720000,0.134719970703125,0,0,0
1698317172913313300,0.144313232421875,0.36458873748779297,0.21685504913330078,-0.818942666053772
1698317172922905600,0.153905517578125,0,0,0
1698317172932498700,0.163498779296875,-0.37087059020996094,-0.22913217544555664,-0.4089665412902832
1698317172942092500,0.173092529296875,-0.9251279830932617,-0.19848299026489258,-0.4797818660736084
1698317172951685600,0.182685546875,-1.1729893684387207,-0.09931564331054688,-0.2958509922027588
1698317172961278000,0.19227783203125,-1.348435878753662,0.09600067138671875,0.03383982181549072
1698317172970871300,0.201871337890625,-1.2588000297546387,0.41301631927490234,0.4663817882537842
1698317172980465200,0.211465087890625,-1.2668066024780273,0.5664095878601074,0.8036715388298035
1698317172990058200,0.221058349609375,-1.209512710571289,0.6105856895446777,0.9745763540267944
1698317172999650600,0.230650634765625,-0.8531990051269531,0.6256499290466309,0.9647085666656494
1698317173009243600,0.24024365234375,-0.458127498626709,0.7078070640563965,0.9356564283370972
1698317173018837800,0.249837646484375,-0.41559410095214844,0.6366329193115234,0.874650239944458
1698317173028430800,0.259430908203125,-0.9057154655456543,0.4932680130004883,1.0043396949768066
1698317173038023200,0.269023193359375,-1.197174072265625,0.34372615814208984,1.2123007774353027
1698317173047616300,0.2786162109375,-0.9241223335266113,0.11166048049926758,1.4694037437438965
1698317173057210000,0.288210205078125,-0.3077826499938965,0.01770496368408203,1.5184720754623413
1698317173066803200,0.29780322265625,0.15503740310668945,0.05956411361694336,1.4189105033874512
1698317173076395500,0.3073955078125,0.4928274154663086,0.014855384826660156,1.289795994758606
1698317173085988900,0.31698876953125,0.6156558990478516,-0.20969009399414062,1.0509175062179565
1698317173095582700,0.326582763671875,0.9194622039794922,-0.4031519889831543,0.8649388551712036
1698317173105175800,0.33617578125,0.48296356201171875,-0.3302431106567383,0.8069060444831848
1698317173114768100,0.34576806640625,0.611607551574707,-0.032692909240722656,0.7577711939811707
1698317173124361200,0.355361328125,0.3550081253051758,-0.0035033226013183594,0.8138591647148132
1698317173133955300,0.364955322265625,0.08769798278808594,-0.20499753952026367,0.9475002884864807
1698317173143548400,0.37454833984375,0.04471302032470703,-0.2626352310180664,0.9587751626968384
1698317173153140700,0.384140625,0.2847480773925781,-0.24369001388549805,0.6449495553970337
1698317173162733800,0.39373388671875,0.6108884811401367,-0.2089557647705078,0.155760258436203
1698317173172327700,0.40332763671875,0.787898063659668,-0.28648805618286133,-0.2073904126882553
1698317173181920800,0.412920654296875,0.6585979461669922,-0.3401336669921875,-0.3667777180671692
1698317173191513000,0.42251318359375,0.45172691345214844,-0.3671274185180664,-0.409740686416626
1698317173201106400,0.4321064453125,0.2693328857421875,-0.3495368957519531,-0.19785356521606445
1698317173210700300,0.4417001953125,0.013432502746582031,-0.355654239654541,0.09731440991163254
1698317173220293400,0.45129345703125,-0.22539043426513672,-0.38474321365356445,0.31046175956726074
1698317173229885700,0.4608857421875,-0.47114038467407227,-0.3426394462585449,0.36157411336898804
1698317173239478800,0.470478759765625,-0.6955747604370117,-0.29170894622802734,0.314595103263855
1698317173249072600,0.48007275390625,-0.8329253196716309,-0.3335080146789551,0.26508626341819763
1698317173258666000,0.489666015625,-0.7880525588989258,-0.26759767532348633,0.07722118496894836
1698317173268258300,0.49925830078125,-0.4874391555786133,-0.17331409454345703,-0.03866878151893616
1698317173277851400,0.508851318359375,-0.23876476287841797,-0.18640756607055664,0.04530815780162811
1698317173287445200,0.5184453125,-0.09268951416015625,-0.2546048164367676,0.016862139105796814
1698317173297038300,0.528038330078125,0.11343193054199219,-0.2941732406616211,-0.08595502376556396
1698317173306630700,0.537630615234375,0.1856851577758789,-0.2631673812866211,-0.1702490746974945
1698317173316223700,0.5472236328125,0.2443990707397461,-0.23830938339233398,-0.1275983303785324
1698317173325817900,0.55681787109375,0.19395065307617188,-0.1678166389465332,0.04365937411785126
1698317173335411000,0.566410888671875,0.18407726287841797,-0.14147043228149414,0.14783760905265808
1698317173345003300,0.576003173828125,0.11749267578125,-0.14607858657836914,0.18481293320655823
1698317173354596400,0.585596435546875,-0.07848739624023438,-0.2050032615661621,0.23363664746284485
1698317173364190200,0.595190185546875,-0.15861129760742188,-0.1001124382019043,0.14197783172130585
1698317173373783300,0.604783203125,-0.19621753692626953,-0.14339876174926758,0.15669772028923035
1698317173383375600,0.614375732421875,-0.17563915252685547,-0.1890268325805664,0.20515704154968262
1698317173392969000,0.623968994140625,-0.11863136291503906,-0.19307708740234375,0.14894650876522064
1698317173402562800,0.633562744140625,0.07386207580566406,-0.2706642150878906,0.1671471744775772
1698317173412156000,0.643156005859375,0.06432342529296875,-0.12559938430786133,0.020603924989700317
1698317173421748200,0.652748291015625,0.07223701477050781,-0.19812393188476562,0.04237601161003113
1698317173431341300,0.66234130859375,0.045454978942871094,-0.21855640411376953,0.08631722629070282
1698317173440935200,0.67193505859375,-0.03196430206298828,-0.14072275161743164,0.030681312084197998
1698317173450528500,0.681528564453125,-0.07244873046875,-0.2057642936706543,0.006945595145225525
1698317173460120600,0.69112060546875,-0.3010673522949219,-0.1511397361755371,0.04220442473888397
1698317173469714000,0.7007138671875,-0.40010976791381836,-0.20145654678344727,0.17925861477851868
1698317173479307800,0.710307861328125,-0.38815927505493164,-0.2987947463989258,0.3247297406196594
1698317173488900900,0.71990087890625,-0.34677743911743164,-0.2828102111816406,0.29479944705963135
1698317173498493200,0.7294931640625,-0.1911458969116211,-0.26668453216552734,0.23404482007026672
1698317173508086300,0.739086181640625,-0.1556072235107422,-0.2792854309082031,0.18726249039173126
1698317173517680400,0.748680419921875,-0.13914966583251953,-0.2850933074951172,0.17123237252235413
1698317173527273500,0.7582734375,-0.1371774673461914,-0.24108219146728516,0.128352090716362
1698317173536865800,0.76786572265625,-0.0761556625366211,-0.2026982307434082,0.07083985209465027
1698317173546459000,0.777458984375,0.02692890167236328,-0.22003459930419922,0.05385313928127289
1698317173556052700,0.787052734375,0.08207893371582031,-0.25713205337524414,0.05887439846992493
1698317173565645800,0.796645751953125,0.1844339370727539,-0.2598090171813965,0.12877658009529114
1698317173575238100,0.806238037109375,0.23444080352783203,-0.2807192802429199,0.18728530406951904
1698317173584831200,0.815831298828125,0.17866992950439453,-0.3075838088989258,0.18576091527938843
1698317173594425000,0.825425048828125,0.06013298034667969,-0.23970460891723633,0.14575102925300598
1698317173604018400,0.835018310546875,-0.019277572631835938,-0.15341758728027344,0.1361035704612732
1698317173613610800,0.84461083984375,-0.057808876037597656,-0.1127161979675293,0.23734211921691895
1698317173623203800,0.854203857421875,-0.013833999633789062,-0.08373546600341797,0.3784130811691284
1698317173632797700,0.863797607421875,0.0742950439453125,-0.04607963562011719,0.4234050214290619
1698317173642390800,0.873390869140625,0.12400150299072266,0.02759695053100586,0.3981838524341583
1698317173651983000,0.882983154296875,0.15747737884521484,0.042063236236572266,0.31883129477500916
1698317173661576200,0.892576171875,0.13280487060546875,0.06866312026977539,0.25216832756996155
1698317173671170300,0.90217041015625,0.06956291198730469,0.05332612991333008,0.2958495020866394
1698317173680763400,0.911763427734375,-0.003917694091796875,0.009280681610107422,0.3837531805038452
1698317173690355700,0.921355712890625,-0.07831954956054688,-0.03681373596191406,0.41383036971092224
1698317173699948800,0.93094873046875,-0.16585063934326172,-0.0937356948852539,0.35984572768211365
1698317173709542700,0.940542724609375,-0.20773029327392578,-0.15616989135742188,0.24218428134918213
1698317173719135700,0.9501357421875,-0.26615238189697266,-0.1741805076599121,0.1665266454219818
1698317173728728000,0.95972802734375,-0.3337521553039551,-0.1672673225402832,0.14206147193908691
1698317173738321200,0.969321044921875,-0.31816720962524414,-0.17871665954589844,0.09801173210144043
1698317173747915300,0.978915283203125,-0.30743837356567383,-0.17113161087036133,0.08701056241989136
1698317173757508400,0.98850830078125,-0.4335904121398926,-0.12789678573608398,0.07212665677070618
1698317173767100700,0.9981005859375,-0.4355616569519043,-0.08464384078979492,0.10042649507522583
1698317173776693800,1.00769384765625,-0.3836359977722168,-0.020369529724121094,0.14717087149620056
1698317173786287600,1.01728759765625,-0.2809786796569824,-0.02517843246459961,0.2550547420978546
1698317173795880700,1.026880615234375,-0.25098657608032227,-0.057808876037597656,0.29770323634147644
1698317173805473000,1.03647314453125,-0.28115129470825195,-0.04414224624633789,0.26925885677337646
1698317173815066000,1.046066162109375,-0.29059839248657227,-0.029384613037109375,0.19132962822914124
1698317173824660200,1.05566015625,-0.23703336715698242,-0.06808042526245117,0.20344692468643188
1698317173834253300,1.06525341796875,-0.1610431671142578,-0.05170631408691406,0.16438958048820496
1698317173843845600,1.074845703125,-0.08145332336425781,-0.07818937301635742,0.17272591590881348
1698317173853438700,1.084438720703125,-0.05705738067626953,-0.06922769546508789,0.16516852378845215
1698317173863032600,1.094032470703125,-0.08700180053710938,-0.09113597869873047,0.074422687292099
1698317173872625700,1.103625732421875,-0.17758750915527344,-0.10316038131713867,-0.008642733097076416
1698317173882218000,1.113218017578125,-0.18673324584960938,-0.0934748649597168,-0.1021779477596283
1698317173891811300,1.122811279296875,-0.06357955932617188,-0.10076713562011719,-0.06174027919769287
1698317173901405000,1.132405029296875,0.14319324493408203,-0.1257328987121582,0.04823818802833557
1698317173910998300,1.141998291015625,0.22324562072753906,-0.1596512794494629,0.2264619767665863
1698317173920590600,1.151590576171875,0.24665260314941406,-0.17376041412353516,0.2729194760322571
1698317173930183700,1.16118359375,0.1290149688720703,-0.1627979278564453,0.1847732663154602
1698317173939777500,1.170777587890625,-0.07906818389892578,-0.11358213424682617,0.0525209903717041
1698317173949370600,1.18037060546875,-0.27105283737182617,-0.03709697723388672,-0.013936817646026611
1698317173958963000,1.189962890625,-0.4031224250793457,0.0060138702392578125,-0.007408082485198975
1698317173968556000,1.19955615234375,-0.37476491928100586,0.02532958984375,0.0023415982723236084
1698317173978150000,1.20914990234375,-0.24677324295043945,-0.000995635986328125,0.005563855171203613
1698317173987743200,1.2187431640625,0.055914878845214844,-0.08368539810180664,0.05946257710456848
1698317173997335300,1.228335205078125,0.28674793243408203,-0.16717052459716797,0.05178549885749817
1698317174006928600,1.2379287109375,0.39069175720214844,-0.20714187622070312,-0.018367648124694824
1698317174016522500,1.2475224609375,0.3245992660522461,-0.16109323501586914,-0.08981576561927795
1698317174026115600,1.257115478515625,0.16353607177734375,-0.14468097686767578,-0.10415160655975342
1698317174035708000,1.2667080078125,0.035561561584472656,-0.09524679183959961,-0.11641162633895874
1698317174045301000,1.276301025390625,-0.1310110092163086,-0.031434059143066406,-0.14301148056983948
1698317174054894800,1.285894775390625,-0.2890181541442871,-0.011517047882080078,-0.1129833459854126
1698317174064488200,1.29548828125,-0.3989443778991699,-0.013019561767578125,-0.11226925253868103
1698317174074080300,1.305080322265625,-0.312772274017334,0.0014033317565917969,-0.08933737874031067
1698317174083673600,1.314673583984375,-0.15081024169921875,-0.011877059936523438,-0.009142071008682251
1698317174093267500,1.324267333984375,0.05846595764160156,-0.03284597396850586,0.1358422338962555
1698317174102860500,1.333860595703125,0.17354774475097656,-0.05052900314331055,0.12731587886810303
1698317174112452900,1.343452880859375,0.22915935516357422,-0.07234334945678711,0.0031345784664154053
1698317174122046000,1.3530458984375,0.2119131088256836,-0.1095428466796875,-0.14162364602088928
1698317174131639800,1.362639892578125,0.12257003784179688,-0.09519290924072266,-0.2300274521112442
1698317174141233000,1.37223291015625,-0.052430152893066406,-0.03855276107788086,-0.2262246459722519
1698317174150825200,1.3818251953125,-0.13094425201416016,0.03937053680419922,-0.16542264819145203
1698317174160418600,1.39141845703125,-0.17106914520263672,0.0580286979675293,-0.04463419318199158
1698317174170012400,1.401012451171875,-0.21581506729125977,0.03950786590576172,-0.031032085418701172
1698317174179605500,1.41060546875,-0.25353193283081055,0.03887176513671875,-0.08761376142501831
1698317174189197800,1.42019775390625,-0.24891233444213867,-0.052731990814208984,-0.08972743153572083
1698317174198791000,1.429791015625,-0.18117380142211914,-0.10247087478637695,-0.11987102031707764
1698317174208384800,1.439384765625,-0.03408527374267578,-0.10510587692260742,-0.1617276966571808
1698317174217977900,1.448977783203125,0.0030536651611328125,-0.1065225601196289,-0.16280972957611084
1698317174227570200,1.458570068359375,-0.06102180480957031,-0.12286186218261719,-0.19818773865699768
1698317174237163300,1.468163330078125,-0.16848087310791016,-0.0778799057006836,-0.22171425819396973
1698317174246757000,1.477757080078125,-0.2697463035583496,-0.01650857925415039,-0.1765780746936798
1698317174256350500,1.4873505859375,-0.37232542037963867,0.0048313140869140625,-0.0927632749080658
1698317174265942800,1.49694287109375,-0.38933420181274414,0.045955657958984375,-0.10664209723472595
1698317174275536000,1.506535888671875,-0.3928365707397461,-0.015885353088378906,-0.11752355098724365
1698317174285129700,1.516129638671875,-0.27173471450805664,-0.1164712905883789,-0.06126469373703003
1698317174294722800,1.525722900390625,-0.09081268310546875,-0.13394927978515625,-0.09966862201690674
1698317174304315100,1.535315185546875,-0.0037584304809570312,-0.07239198684692383,-0.20702284574508667
1698317174313908200,1.544908203125,-0.05401420593261719,-0.09271955490112305,-0.2793797254562378
1698317174323502000,1.554502197265625,-0.09375190734863281,-0.09881782531738281,-0.32391518354415894
1698317174333095200,1.56409521484375,-0.14490318298339844,-0.08781147003173828,-0.3259934186935425
1698317174342687500,1.5736875,-0.10177040100097656,-0.06413507461547852,-0.2948281764984131
1698317174352280800,1.58328076171875,-0.0717763900756836,-0.03536081314086914,-0.23860451579093933
1698317174361874700,1.592874755859375,-0.014687538146972656,-0.013303756713867188,-0.1180911660194397
1698317174371467800,1.6024677734375,-0.11249828338623047,-0.00917816162109375,-0.05953836441040039
1698317174381060000,1.61206005859375,-0.16503524780273438,0.03411722183227539,-0.09308332204818726
1698317174390653200,1.621653076171875,-0.1517934799194336,0.00047016143798828125,-0.028825044631958008
1698317174400247000,1.6312470703125,-0.054447174072265625,-0.032152652740478516,-0.00600433349609375
1698317174409840000,1.640840087890625,0.1711587905883789,-0.010765552520751953,-0.13086926937103271
1698317174419432400,1.650432373046875,0.28327369689941406,-0.04762554168701172,-0.210983544588089
1698317174429025500,1.660025634765625,0.30780029296875,-0.08111000061035156,-0.2581396698951721
1698317174438619600,1.66961962890625,0.2911529541015625,-0.0973820686340332,-0.20584765076637268
1698317174448212700,1.679212646484375,0.2411050796508789,-0.08029460906982422,-0.13349327445030212
1698317174457804800,1.6888046875,0.1318225860595703,-0.08623266220092773,0.027728497982025146
1698317174467398100,1.698398193359375,-0.0270843505859375,-0.06661033630371094,0.11719262599945068
1698317174476992000,1.707991943359375,-0.2665410041809082,0.008037567138671875,0.08776754140853882
1698317174486585000,1.717585205078125,-0.45891332626342773,0.025079727172851562,0.011883020401000977
1698317174496177400,1.727177490234375,-0.603182315826416,0.07348203659057617,-0.08202528953552246
1698317174505770500,1.7367705078125,-0.5420775413513184,0.046402931213378906,-0.0865907073020935
1698317174515364400,1.7463642578125,-0.3744807243347168,0.01419210433959961,-0.041567862033843994
1698317174524957400,1.75595751953125,-0.10551834106445312,0.012618064880371094,-0.028327584266662598
1698317174534549800,1.7655498046875,0.08750343322753906,-0.05445528030395508,0.024524390697479248
1698317174544142800,1.775142822265625,0.18766117095947266,-0.16828584671020508,0.1486782431602478
1698317174553737000,1.784737060546875,0.08548831939697266,-0.12749624252319336,0.10338681936264038
1698317174563330000,1.794330078125,-0.10136795043945312,-0.050660133361816406,0.06763678789138794
1698317174572922400,1.80392236328125,-0.3892531394958496,-0.05898284912109375,0.014130234718322754
1698317174582515500,1.813515380859375,-0.565269947052002,-0.01822805404663086,-0.08482241630554199
1698317174592109300,1.823109375,-0.6951446533203125,0.02204275131225586,-0.17136216163635254
1698317174601702400,1.832702392578125,-0.789212703704834,0.017766475677490234,-0.2838301658630371
1698317174611294700,1.842294677734375,-0.829047679901123,0.02839803695678711,-0.3871501684188843
1698317174620887800,1.8518876953125,-0.7636151313781738,-0.026684284210205078,-0.324970543384552
1698317174630481700,1.861481689453125,-0.6510987281799316,-0.010048389434814453,-0.25665169954299927
1698317174640075000,1.871074951171875,-0.30098867416381836,0.043254852294921875,-0.1420971155166626
1698317174649667000,1.8806669921875,0.07880592346191406,-0.022346973419189453,0.12998193502426147
1698317174659260400,1.890260498046875,0.3237943649291992,-0.051425933837890625,0.18397563695907593
1698317174668854300,1.899854248046875,0.48841381072998047,-0.09935140609741211,0.05347222089767456
1698317174678447400,1.909447265625,0.4231424331665039,-0.14664125442504883,-0.03081822395324707
1698317174688039700,1.919039794921875,0.25153160095214844,-0.13836908340454102,-0.11603611707687378
1698317174697632800,1.9286328125,0.09314441680908203,-0.1199498176574707,-0.15246093273162842
1698317174707226600,1.9382265625,-0.061492919921875,-0.08895015716552734,-0.17172396183013916
1698317174716819700,1.94781982421875,-0.3519415855407715,-0.04426431655883789,-0.2440255880355835
1698317174726412000,1.957412109375,-0.6761236190795898,-0.011843681335449219,-0.20463675260543823
1698317174736005000,1.967005126953125,-0.7776474952697754,-0.03513050079345703,-0.24729621410369873
1698317174745599200,1.97659912109375,-0.7379026412963867,0.01573467254638672,-0.46913230419158936
1698317174755192300,1.9861923828125,-0.5330066680908203,0.028389930725097656,-0.4153652787208557
1698317174764784600,1.99578466796875,-0.17646121978759766,-0.04753923416137695,-0.09071540832519531
1698317174774377700,2.005377685546875,0.10902214050292969,-0.008030414581298828,0.2176450490951538
1698317174783971600,2.0149716796875,0.31798458099365234,-0.07514762878417969,0.3495522737503052
1698317174793564700,2.024564697265625,0.4237060546875,-0.16299915313720703,0.31085145473480225
1698317174803157000,2.034156982421875,0.37827396392822266,-0.1508769989013672,0.12057113647460938
1698317174812750000,2.04375,0.1199197769165039,-0.10000991821289062,-0.018239617347717285
1698317174822344000,2.053343994140625,-0.2716832160949707,-0.045578956604003906,0.013956308364868164
1698317174831937000,2.06293701171875,-0.5504717826843262,-0.0024023056030273438,0.05414462089538574
1698317174841529300,2.072529296875,-0.5652961730957031,0.003325939178466797,0.13692688941955566
1698317174851122400,2.082122314453125,-0.3031735420227051,-0.03198385238647461,0.21571552753448486
1698317174860716500,2.091716552734375,-0.012330055236816406,-0.010732650756835938,0.0759817361831665
1698317174870309600,2.1013095703125,0.24665355682373047,0.03682422637939453,-0.07892429828643799
1698317174879902000,2.11090185546875,0.4137430191040039,-0.0978541374206543,0.030807137489318848
1698317174889495000,2.1204951171875,0.3680400848388672,-0.15086746215820312,0.11265182495117188
1698317174899089000,2.1300888671875,0.17799091339111328,-0.10046958923339844,0.1382913589477539
1698317174908682000,2.139681884765625,-0.037613868713378906,-0.0802311897277832,0.08731687068939209
1698317174918274300,2.1492744140625,-0.3173375129699707,-0.03870439529418945,0.052835941314697266
1698317174927867400,2.158867431640625,-0.4325737953186035,0.041689395904541016,0.02746295928955078
1698317174937461200,2.168461181640625,-0.3574376106262207,0.03287076950073242,0.09488654136657715
1698317174947054600,2.1780546875,-0.12689876556396484,-0.012067794799804688,0.17973089218139648
1698317174956646700,2.187646728515625,0.18027210235595703,-0.06471538543701172,0.2937943935394287
1698317174966240000,2.197239990234375,0.4825401306152344,-0.1352376937866211,0.3577672243118286
1698317174975833900,2.206833740234375,0.6279945373535156,-0.14997053146362305,0.0450139045715332
1698317174985427000,2.216427001953125,0.5912351608276367,-0.024796009063720703,-0.5457476377487183
1698317174995019300,2.226019287109375,0.3419685363769531,-0.05626344680786133,-0.6741869449615479
1698317175004612400,2.2356123046875,0.08862495422363281,0.0548243522644043,-0.7066705226898193
1698317175014206200,2.245206298828125,-0.19710540771484375,0.25177860260009766,-0.8405253887176514
1698317175023799300,2.25479931640625,-0.4342970848083496,0.24551725387573242,-0.4422268867492676
1698317175033391600,2.2643916015625,-0.861567497253418,-0.09636116027832031,-0.013658285140991211
1698317175042984700,2.273984619140625,-1.0268363952636719,-0.21784448623657227,0.2732057571411133
1698317175052578800,2.283578857421875,-0.7066750526428223,-0.40743494033813477,-0.08043646812438965
1698317175062171600,2.293171630859375,-0.2781562805175781,-0.3401784896850586,-0.49761366844177246
1698317175071764000,2.302763916015625,0.3271007537841797,-0.25992298126220703,-0.25270628929138184
1698317175081357300,2.312357421875,0.6444816589355469,-0.2953834533691406,0.08556842803955078
1698317175090951200,2.321951171875,0.6747665405273438,-0.20726823806762695,0.17001676559448242
1698317175100544300,2.331544189453125,0.46991920471191406,-0.2184286117553711,0.35036182403564453
1698317175110136600,2.341136474609375,0.2586355209350586,-0.23207712173461914,0.5305109024047852
1698317175119729700,2.350729736328125,0.20598411560058594,-0.12553787231445312,0.6040136814117432
1698317175129323500,2.360323486328125,0.40789127349853516,-0.03769683837890625,0.5056116580963135
1698317175138916600,2.36991650390625,0.7619514465332031,0.08664798736572266,0.271836519241333
1698317175148509000,2.379509033203125,1.2668704986572266,0.45706892013549805,-0.3719761371612549
1698317175158102000,2.38910205078125,1.7880115509033203,0.8667011260986328,-1.075116515159607
1698317175167696100,2.398696044921875,1.8970890045166016,1.1603121757507324,-1.811195731163025
1698317175177289000,2.4082890625,1.3266716003417969,0.81341552734375,-1.4644267559051514
1698317175186881500,2.417881591796875,0.7325067520141602,0.3774547576904297,-0.7803182601928711
1698317175196474600,2.427474609375,0.4631776809692383,0.16341686248779297,-0.4281923770904541
1698317175206068500,2.437068359375,0.4132833480834961,0.07514286041259766,-0.4557759761810303
1698317175215661600,2.44666162109375,0.5178899765014648,0.19043302536010742,-0.9630260467529297
1698317175225254000,2.45625390625,0.9985322952270508,0.2885627746582031,-1.8064191341400146
1698317175234847000,2.465846923828125,1.9728631973266602,0.47447776794433594,-2.6939823627471924
1698317175244440800,2.47544091796875,2.3681869506835938,1.935910701751709,-4.687689781188965
1698317175254034000,2.485033935546875,2.436675548553467,0.38248109817504883,-4.482718467712402
1698317175263626200,2.494626220703125,1.7077865600585938,-1.6194472312927246,-2.9301178455352783
1698317175273219300,2.50421923828125,1.1234650611877441,-3.0270872116088867,-1.7325389385223389
1698317175282813400,2.5138134765625,1.5486559867858887,-3.933103322982788,-1.8374814987182617
1698317175292406500,2.523406494140625,2.159858226776123,-3.089961051940918,-1.5113701820373535
1698317175301998800,2.532998779296875,3.1605143547058105,-2.411707878112793,-2.2685132026672363
1698317175311592000,2.542592041015625,3.3282470703125,-2.773271083831787,-3.165832996368408
1698317175321185800,2.552185791015625,1.6245875358581543,-4.887558937072754,-2.7122092247009277
1698317175330779000,2.56177880859375,2.1472840309143066,-3.400670051574707,-3.52018404006958
1698317175340371200,2.57137109375,1.1112947463989258,-2.454108476638794,-4.007270812988281
1698317175349964300,2.58096435546875,0.9423484802246094,-2.8858389854431152,-3.653319835662842
1698317175359558100,2.59055810546875,0.8519988059997559,-3.6305477619171143,-3.614184617996216
1698317175369151200,2.600151123046875,0.27097177505493164,-4.167415618896484,-3.5863564014434814
1698317175378743600,2.60974365234375,0.07973384857177734,-4.355386734008789,-3.395296335220337
1698317175388337000,2.6193369140625,0.1342926025390625,-4.751209259033203,-3.15779972076416
1698317175397930800,2.6289306640625,0.3487358093261719,-5.444927215576172,-2.771371841430664
1698317175407523800,2.63852392578125,0.33001136779785156,-6.167520523071289,-2.722681999206543
1698317175417116200,2.6481162109375,-0.8604755401611328,-6.8384270668029785,-2.670105457305908
1698317175426709200,2.657709228515625,-2.0523526668548584,-6.815343856811523,-2.6503944396972656
1698317175436303000,2.66730322265625,-2.2472171783447266,-5.948521137237549,-2.6762776374816895
1698317175445896200,2.676896240234375,-0.5870788097381592,-4.590602874755859,-3.272679328918457
1698317175455488500,2.686488525390625,0.7670390605926514,-3.633157730102539,-3.2663965225219727
1698317175465081600,2.69608154296875,0.7321324348449707,-3.7966833114624023,-3.6636338233947754
1698317175474675500,2.705675537109375,0.5538527965545654,-4.694387435913086,-4.918156623840332
1698317175484268500,2.7152685546875,-0.11547279357910156,-5.554383277893066,-5.172821998596191
1698317175493860900,2.72486083984375,-0.12818026542663574,-5.695444583892822,-4.742250919342041
1698317175503454000,2.734453857421875,0.08067607879638672,-6.276119709014893,-4.032745838165283
1698317175513047800,2.7440478515625,-0.9859093427658081,-7.660358905792236,-3.137716770172119
1698317175522641200,2.75364111328125,-3.408600330352783,-8.623291969299316,-2.6269936561584473
1698317175532232700,2.763232666015625,-4.971177101135254,-8.451995849609375,-1.1821327209472656
1698317175541826000,2.772825927734375,-5.565711498260498,-8.63637924194336,0.5831632614135742
1698317175551420000,2.782419921875,-7.286321640014648,-9.485649108886719,1.911050796508789
1698317175561013000,2.792012939453125,-8.142990112304688,-9.655646324157715,3.134585380554199
1698317175570605300,2.801605224609375,-8.391767501831055,-8.932872772216797,3.782369613647461
1698317175580198400,2.811198486328125,-10.19456672668457,-8.206830978393555,3.7897682189941406
1698317175589792300,2.820792236328125,-11.639698028564453,-7.5364227294921875,3.3697614669799805
1698317175599385300,2.83038525390625,-12.035421371459961,-6.878288745880127,2.9890880584716797
1698317175608977700,2.839977783203125,-11.976561546325684,-6.004356384277344,3.297758102416992
1698317175618570800,2.84957080078125,-11.109003067016602,-4.829919338226318,5.227419853210449
1698317175628164900,2.859164794921875,-10.960365295410156,-4.085376262664795,7.219557762145996
1698317175637757700,2.8687578125,-11.021806716918945,-2.975916862487793,9.187024116516113
1698317175647350000,2.87835009765625,-10.942713737487793,-1.9382658004760742,11.358630180358887
1698317175656943000,2.887943115234375,-9.842738151550293,-2.9756131172180176,12.750229835510254
1698317175666537200,2.897537109375,-8.443793296813965,-3.2462430000305176,10.830641746520996
1698317175676130000,2.907130126953125,-6.9751057624816895,-3.670776844024658,7.756468772888184
1698317175685722600,2.91672265625,-3.8998632431030273,-3.761289119720459,4.967041969299316
1698317175695315700,2.926315673828125,-0.19113564491271973,-2.6141419410705566,4.460567474365234
1698317175704909600,2.93590966796875,-0.08609867095947266,-2.144008159637451,5.6322479248046875
1698317175714502700,2.945502685546875,-1.703723430633545,-2.1185879707336426,5.97274112701416
1698317175724095000,2.955094970703125,-3.4205408096313477,-1.8685994148254395,5.081413269042969
1698317175733688000,2.96468798828125,-3.099797487258911,-1.6809372901916504,2.468317985534668
1698317175743282000,2.974281982421875,-2.253621816635132,-1.8947114944458008,-0.7378902435302734
1698317175752875000,2.983875,-0.14241176843643188,-2.642043113708496,-2.937960624694824
1698317175762467300,2.99346728515625,3.213878631591797,-1.5663280487060547,-1.5506362915039062
1698317175772060400,3.003060302734375,5.725803852081299,-1.8567314147949219,1.237501621246338
1698317175781654300,3.012654296875,7.625397205352783,-2.868651866912842,4.747502326965332
1698317175791247400,3.022247314453125,9.049246788024902,-2.6898088455200195,6.7220354080200195
1698317175800839700,3.031839599609375,9.680580139160156,-2.3233470916748047,7.20771598815918
1698317175810432800,3.041432861328125,9.405826568603516,-2.254383087158203,6.97803258895874
1698317175820026600,3.051026611328125,8.593605041503906,-1.7397375106811523,6.070064067840576
1698317175829620000,3.060619873046875,0.9397015571594238,0.5423345565795898,7.190224647521973
1698317175839212000,3.0702119140625,-10.69886589050293,5.0102691650390625,8.097368240356445
1698317175848805400,3.079805419921875,-10.252952575683594,6.365776062011719,9.83248233795166
1698317175858399200,3.089399169921875,-1.4497872591018677,3.8827009201049805,8.431489944458008
1698317175867992300,3.098992431640625,0.6918400526046753,2.7472801208496094,6.1708807945251465
1698317175877584400,3.10858447265625,-5.35692024230957,5.065361022949219,2.740838050842285
1698317175887177700,3.118177734375,-3.6593527793884277,5.574021339416504,2.222456455230713
1698317175896771600,3.127771484375,-0.5281204581260681,4.22960090637207,3.3682003021240234
1698317175906364400,3.137364501953125,-0.49593955278396606,2.6635093688964844,3.752216339111328
1698317175915957000,3.14695703125,2.971771717071533,2.3406758308410645,3.319727897644043
1698317175925550000,3.156550048828125,2.0727381706237793,2.766937732696533,4.524341106414795
1698317175935144000,3.16614404296875,0.08393716812133789,4.053247451782227,3.6147193908691406
1698317175944737000,3.175737060546875,-0.2510811686515808,4.967171669006348,2.486579418182373
1698317175954329300,3.185329345703125,0.5603583455085754,4.090296268463135,3.5176749229431152
1698317175963922400,3.19492236328125,0.42897772789001465,3.692410469055176,2.197404384613037
1698317175973516300,3.204516357421875,1.359138011932373,2.6513986587524414,1.9428191184997559
1698317175983109400,3.214109375,2.338773727416992,2.55824613571167,0.7970829010009766
1698317175992701700,3.22370166015625,1.7013444900512695,3.049229621887207,-6.895007610321045
1698317176002294800,3.233294677734375,7.406102180480957,1.0943212509155273,-16.89068603515625
1698317176011888600,3.242888671875,-0.36168551445007324,2.9444427490234375,-4.08074951171875
1698317176021481700,3.252481689453125,-5.2750749588012695,4.965424060821533,-2.557371139526367
1698317176031074000,3.262073974609375,-4.086797714233398,4.492946624755859,-2.896038770675659
1698317176040667100,3.271667236328125,-2.603213310241699,4.074810981750488,-2.8689043521881104
1698317176050261000,3.281260986328125,-2.5219969749450684,3.77364444732666,-1.8272676467895508
1698317176059854000,3.29085400390625,-1.9016928672790527,2.527134895324707,-0.3439292907714844
1698317176069446400,3.3004462890625,-0.4102241098880768,0.7591581344604492,0.059093475341796875
1698317176079039500,3.31003955078125,0.2004913091659546,-0.2036733627319336,0.21638870239257812
1698317176088633300,3.31963330078125,0.22028470039367676,-0.49775028228759766,0.3287487030029297
1698317176098226400,3.329226318359375,0.12577471137046814,-0.7548661231994629,0.14579248428344727
1698317176107818800,3.33881884765625,-0.2963182330131531,-0.7502737045288086,-0.40762853622436523
1698317176117411800,3.348411865234375,-0.17420947551727295,-0.8755478858947754,0.006436347961425781
1698317176127005700,3.358005615234375,-0.25158780813217163,-0.7575020790100098,0.22745752334594727
1698317176136598800,3.367598876953125,-0.8551035523414612,-0.6680641174316406,0.6124382019042969
1698317176146191000,3.377191162109375,-0.42228221893310547,-1.0341863632202148,0.6884922981262207
1698317176155784200,3.3867841796875,-0.04031252861022949,-1.1587777137756348,0.9662208557128906
1698317176165378000,3.3963779296875,0.6827199459075928,-1.3404994010925293,0.615044116973877
1698317176174971100,3.40597119140625,0.9403331279754639,-1.7147340774536133,0.9241538047790527
1698317176184563500,3.4155634765625,2.9259262084960938,-2.657191276550293,1.7250776290893555
1698317176194156500,3.425156494140625,2.284616470336914,-2.6568808555603027,4.642927169799805
1698317176203750400,3.43475048828125,-1.049073338508606,-1.4535913467407227,7.434751987457275
1698317176213343500,3.444343505859375,0.47445929050445557,-1.4995579719543457,1.80488920211792
1698317176222935800,3.453935791015625,2.1362533569335938,-1.797457218170166,-0.6244797706604004
1698317176232529000,3.46352880859375,-0.510915994644165,-0.5228276252746582,-3.0826358795166016
1698317176242122800,3.473122802734375,0.4293789863586426,0.30094146728515625,-3.6569015979766846
1698317176251715800,3.4827158203125,-0.5962356925010681,1.0817832946777344,-3.447523355484009
1698317176261308200,3.49230810546875,-0.5722776651382446,1.4512410163879395,-2.863323211669922
1698317176270901200,3.5019013671875,-0.07051002979278564,2.002084255218506,-2.4148969650268555
1698317176280495000,3.5114951171875,-0.05761843919754028,1.1629772186279297,-0.7253718376159668
1698317176290088200,3.521088134765625,-0.21364492177963257,1.0605964660644531,-0.27709341049194336
1698317176299680500,3.530680419921875,-0.36284708976745605,0.9767546653747559,0.2792234420776367
1698317176309273600,3.540273681640625,-0.4094662666320801,1.2840051651000977,0.9984493255615234
1698317176318867500,3.549867431640625,0.11731529235839844,1.1900262832641602,0.2293086051940918
1698317176328460500,3.55946044921875,-0.26972657442092896,1.4969425201416016,-1.0073318481445312
1698317176338052900,3.569052978515625,-1.2540061473846436,2.077104091644287,-2.262584686279297
1698317176347646000,3.57864599609375,-2.161477565765381,2.7337379455566406,-2.7153377532958984
1698317176357239800,3.58823974609375,-1.3309299945831299,2.385406970977783,-2.544224739074707
1698317176366833000,3.5978330078125,0.1566944122314453,1.0623812675476074,-2.7471537590026855
1698317176376425200,3.60742529296875,-1.1187503337860107,1.5244369506835938,-1.7522940635681152
1698317176386018300,3.617018310546875,-0.3414228558540344,1.0328125953674316,0.12172746658325195
1698317176395612200,3.626612060546875,0.7213523387908936,0.8085942268371582,0.41229248046875
1698317176405205200,3.636205322265625,0.29593831300735474,0.4784560203552246,-0.5523185729980469
1698317176414797600,3.645797607421875,-0.5691124796867371,0.25951242446899414,-1.42561674118042
1698317176424390700,3.655390625,-0.9952569007873535,0.23393964767456055,-2.3557562828063965
1698317176433984500,3.664984619140625,-0.42567211389541626,0.3082613945007324,-2.899867534637451
1698317176443577600,3.67457763671875,-1.7389442920684814,-0.530097484588623,-3.1512317657470703
1698317176453169700,3.684169677734375,-0.8532705307006836,-0.7688460350036621,-2.85097074508667
1698317176462763000,3.693762939453125,-0.08100658655166626,-1.6868844032287598,-1.625892162322998
1698317176472356900,3.70335693359375,-0.5633171200752258,-1.1853842735290527,-1.64005708694458
1698317176481949700,3.71294970703125,-1.5731968879699707,-0.6110095977783203,-1.12687349319458
1698317176491542000,3.7225419921875,-1.3149003982543945,-0.16982460021972656,-1.417633056640625
1698317176501135400,3.73213525390625,-1.239542841911316,0.10531044006347656,-1.907884120941162
1698317176510729200,3.741729248046875,-1.013877272605896,1.0835614204406738,-3.5239815711975098
1698317176520322000,3.751322021484375,-1.8553522825241089,2.0172126293182373,-5.555957317352295
1698317176529914400,3.760914306640625,-1.9309921264648438,1.3157703876495361,-6.378849506378174
1698317176539507500,3.770507568359375,-0.9804208278656006,-0.1532282829284668,1.822127342224121
1698317176549101300,3.780101318359375,1.501965880393982,2.168560266494751,-14.799396514892578
1698317176558694400,3.7896943359375,7.5623345375061035,2.2643492221832275,-7.399745464324951
1698317176568286700,3.79928662109375,3.292119264602661,-5.0286126136779785,19.528396606445312
1698317176577879800,3.8088798828125,-0.5167174339294434,-0.07582616806030273,12.857828140258789
1698317176587473700,3.8184736328125,-1.904345154762268,5.653529167175293,-1.454498291015625
1698317176597066800,3.828066650390625,-0.541201114654541,7.142364978790283,-7.796825408935547
1698317176606659000,3.8376591796875,1.5617940425872803,4.9022216796875,-9.463406562805176
1698317176616252200,3.847252197265625,1.3862532377243042,1.6583356857299805,-2.9784369468688965
1698317176625846000,3.856845947265625,1.6237568855285645,0.6065292358398438,2.6549124717712402
1698317176635439000,3.866439208984375,1.1578489542007446,-3.3968324661254883,15.689821243286133
1698317176645031400,3.876031494140625,0.5449907779693604,-1.7284588813781738,16.445472717285156
1698317176654624500,3.88562451171875,-0.3211907744407654,8.093450546264648,-0.443727970123291
1698317176664218400,3.89521826171875,-0.011099934577941895,9.287086486816406,-3.520252227783203
1698317176673811500,3.9048115234375,0.12746381759643555,4.231056213378906,0.5214347839355469
1698317176683403500,3.914403564453125,-2.4069666862487793,-0.061431884765625,2.3781652450561523
1698317176692996900,3.923996826171875,-0.49904584884643555,-6.731472969055176,-5.656576156616211
1698317176702590700,3.9335908203125,-0.7897162437438965,-10.478759765625,-6.370760917663574
1698317176712183600,3.94318359375,0.7333710193634033,-7.851298809051514,0.7307209968566895
1698317176721775900,3.95277587890625,2.2675375938415527,-5.549625873565674,9.158796310424805
1698317176731369200,3.962369140625,3.2017171382904053,-6.25335168838501,7.95914363861084
1698317176740963000,3.971963134765625,3.0814156532287598,-7.9797468185424805,3.1593189239501953
1698317176750556000,3.981555908203125,0.9172764420509338,-7.484663963317871,-0.44572973251342773
1698317176760148200,3.991148193359375,-1.372625708580017,-6.634683609008789,-1.3017244338989258
1698317176769741300,4.0007412109375,-2.1523025035858154,-5.473384380340576,-0.022466182708740234
1698317176779335200,4.010335205078125,-3.4776954650878906,-6.094249248504639,0.1727452278137207
1698317176788928300,4.01992822265625,-2.6256959438323975,0.16367244720458984,-0.5564837455749512
1698317176798520600,4.0295205078125,0.4142305254936218,2.912421226501465,-1.7457318305969238
1698317176808113700,4.03911376953125,-0.21652263402938843,3.9168343544006348,-2.3724730014801025
1698317176817707500,4.04870751953125,1.463538408279419,3.4839115142822266,-3.167726993560791
1698317176827300600,4.058300537109375,1.3749498128890991,2.6067681312561035,-1.5762853622436523
1698317176836893000,4.067892822265625,0.7316874265670776,1.0150365829467773,-0.022600173950195312
1698317176846486000,4.077486083984375,1.221470832824707,-1.1736235618591309,0.5258979797363281
1698317176856080000,4.087079833984375,-0.6762616038322449,-0.8455524444580078,0.9725556373596191
1698317176865673000,4.0966728515625,-1.3432667255401611,0.17369937896728516,0.8732395172119141
1698317176875265300,4.106265380859375,-1.4441442489624023,0.973052978515625,0.8907895088195801
1698317176884858400,4.1158583984375,-0.6307252645492554,1.1284847259521484,0.4267568588256836
1698317176894452200,4.1254521484375,-0.07174001634120941,0.8884334564208984,-0.3386082649230957
1698317176904045000,4.135045166015625,-0.49158352613449097,0.700531005859375,-0.6726810932159424
1698317176913637400,4.144637451171875,-2.501047372817993,0.7584705352783203,0.2326817512512207
1698317176923230500,4.15423046875,-2.992231607437134,0.7840757369995117,0.527763843536377
1698317176932824300,4.16382421875,-1.2213997840881348,0.6309051513671875,0.0355072021484375
1698317176942417400,4.17341748046875,-0.12840567529201508,0.47122859954833984,-0.09969210624694824
1698317176952009700,4.183009765625,1.5415468215942383,0.5109272003173828,0.04957270622253418
1698317176961602800,4.192602783203125,1.8850021362304688,0.18377399444580078,-0.8323104381561279
1698317176971196700,4.20219677734375,3.691972017288208,-8.041182518005371,1.7441296577453613
1698317176980789800,4.211789794921875,-1.5470417737960815,-4.449039459228516,0.24724721908569336
1698317176990382000,4.221382080078125,-14.226195335388184,11.925670623779297,-1.8627853393554688
1698317176999975200,4.23097509765625,-0.3568105101585388,11.443586349487305,-1.2366961240768433
1698317177009569000,4.240569091796875,3.131519317626953,10.425619125366211,0.08243870735168457
1698317177019162000,4.250162109375,0.814926266670227,7.685116291046143,-1.9727027416229248
1698317177028754400,4.25975439453125,0.27875298261642456,1.7507777214050293,-1.050940990447998
1698317177038347500,4.269347412109375,-3.54036808013916,-12.529915809631348,-2.433779001235962
1698317177047941400,4.27894140625,-4.680709362030029,-24.360580444335938,0.3334629535675049
1698317177057534200,4.2885341796875,-0.13285601139068604,-14.015800476074219,2.7013533115386963
1698317177067126500,4.29812646484375,4.015885353088379,-1.6769914627075195,1.5753395557403564
1698317177076719600,4.3077197265625,1.6659106016159058,-0.6732492446899414,1.3569614887237549
1698317177086313500,4.3173134765625,0.21253180503845215,0.17231464385986328,0.7429847717285156
1698317177095906600,4.326906494140625,-0.3801385164260864,-0.02719593048095703,0.748647928237915
1698317177105499000,4.336498779296875,0.11478650569915771,0.0719757080078125,1.7380266189575195
1698317177115092000,4.346092041015625,0.20727777481079102,0.8269538879394531,-0.7754950523376465
1698317177124685800,4.355685791015625,-0.8735394477844238,-2.1131420135498047,0.5580966472625732
1698317177134279000,4.36527880859375,-1.3193960189819336,-1.7571210861206055,-1.1655339002609253
1698317177143871200,4.374871337890625,-1.3496911525726318,-1.0860624313354492,0.9106245040893555
1698317177153464300,4.38446435546875,-0.9453082084655762,-0.5025901794433594,0.9934659004211426
1698317177163058200,4.39405810546875,-0.5352233648300171,0.528782844543457,-0.32266783714294434
1698317177172651300,4.4036513671875,-0.6063904762268066,1.0830020904541016,-0.8726251125335693
1698317177182243600,4.41324365234375,0.5061085224151611,1.533207893371582,-0.37056422233581543
1698317177191836700,4.422836669921875,1.5886412858963013,2.0719223022460938,-0.6183710098266602
1698317177201430500,4.432430419921875,-0.40720975399017334,-0.6458778381347656,-0.6790372133255005
1698317177211023400,4.4420234375,-0.31938767433166504,-0.9621610641479492,-0.3093452453613281
1698317177220615700,4.45161572265625,-0.08781266212463379,-0.5222949981689453,-0.16411781311035156
1698317177230209000,4.461208984375,-0.16458368301391602,-0.36397552490234375,-0.28828001022338867
1698317177239803000,4.470802978515625,-0.025007963180541992,-0.0035734176635742188,-0.17675328254699707
1698317177249395700,4.480395751953125,0.019393444061279297,0.14764404296875,0.04737448692321777
1698317177258988000,4.489988037109375,0.29428017139434814,0.1382122039794922,0.5263354778289795
1698317177268581000,4.4995810546875,-0.03327751159667969,-0.28426551818847656,0.4858424663543701
1698317177278175000,4.509175048828125,-0.08463144302368164,-0.1908102035522461,0.25786471366882324
1698317177287768000,4.51876806640625,-0.8793389797210693,-0.11095523834228516,0.4903721809387207
1698317177297360400,4.5283603515625,-0.4540102481842041,0.7293148040771484,0.2714855670928955
1698317177306953500,4.537953369140625,-0.7629661560058594,0.7846183776855469,0.21709847450256348
1698317177316547300,4.54754736328125,-0.6930677890777588,0.8015861511230469,0.4902219772338867
1698317177326140400,4.557140380859375,-0.7610714435577393,0.9597434997558594,0.32936811447143555
1698317177335732700,4.566732666015625,0.14821207523345947,1.435183048248291,-0.30329859256744385
1698317177345325800,4.576325927734375,2.3107216358184814,1.8732891082763672,-0.2721661329269409
1698317177354919700,4.585919677734375,3.15230655670166,1.2033319473266602,-0.8598498106002808
1698317177364512800,4.5955126953125,1.1822149753570557,-0.013939857482910156,-0.3003460168838501
1698317177374104800,4.605104736328125,-1.2966032028198242,-0.23701000213623047,0.4560312032699585
1698317177383698200,4.6146982421875,-2.0912866592407227,-0.23968124389648438,0.29917192459106445
1698317177393292000,4.6242919921875,-1.8034229278564453,-0.18846607208251953,0.03653919696807861
1698317177402884900,4.633884765625,-1.1253513097763062,-0.03502082824707031,0.10482072830200195
1698317177412477200,4.643477294921875,0.33447372913360596,0.7315120697021484,-0.8950133323669434
1698317177422070300,4.6530703125,-0.0025173425674438477,0.6406612396240234,-0.7688531875610352
1698317177431664000,4.6626640625,-0.7530561685562134,0.5390491485595703,-0.23262643814086914
1698317177441257200,4.67225732421875,-1.0899122953414917,0.39246177673339844,0.4335770606994629
1698317177450849500,4.681849609375,-1.2494654655456543,0.5515880584716797,0.5905866622924805
1698317177460442600,4.691442626953125,-1.3354182243347168,0.5935478210449219,0.8588697910308838
1698317177470036500,4.701036376953125,-0.818047046661377,1.1406259536743164,1.1272737979888916
1698317177479629600,4.710629638671875,-0.3384366035461426,1.8796210289001465,0.3591644763946533
1698317177489222000,4.720221923828125,1.048738956451416,2.1662440299987793,-0.6424616575241089
1698317177498815000,4.72981494140625,-0.312890887260437,0.048127174377441406,2.7219786643981934
1698317177508408800,4.739408935546875,-1.2078028917312622,1.2489509582519531,5.046648025512695
1698317177518002000,4.749001953125,-0.9682998657226562,2.653336524963379,0.8750643730163574
1698317177527594000,4.758593994140625,-0.7266769409179688,2.549673080444336,-0.9079610109329224
1698317177537187300,4.768187255859375,-0.4228411912918091,2.490382671356201,-0.06309366226196289
1698317177546781200,4.77778125,0.03910815715789795,2.635639190673828,1.0160398483276367
1698317177556374000,4.7873740234375,1.6734025478363037,5.124011516571045,-1.2471730709075928
1698317177565966300,4.79696630859375,0.4804302453994751,3.5424423217773438,-2.3836774826049805
1698317177575559400,4.806559326171875,-3.269834041595459,3.4759645462036133,-0.664400577545166
1698317177585153300,4.8161533203125,-3.093777656555176,2.8440098762512207,-0.07637262344360352
1698317177594746400,4.825746337890625,-0.638877272605896,1.3073844909667969,-0.2707826495170593
1698317177604338700,4.835338623046875,2.4994239807128906,-1.0518646240234375,-1.925042748451233
1698317177613931800,4.844931884765625,0.37151503562927246,-3.4059085845947266,-0.34899526834487915
1698317177623525600,4.854525634765625,2.92393159866333,-4.671475410461426,-2.8923003673553467
1698317177633118700,4.86411865234375,0.9753534197807312,-4.842083930969238,-0.44618576765060425
1698317177642711000,4.8737109375,-2.6520814895629883,-3.6639633178710938,-1.414271354675293
1698317177652304100,4.88330419921875,-4.129589080810547,-3.746537208557129,-1.1722216606140137
1698317177661898000,4.89289794921875,-4.739078044891357,-4.536537170410156,-2.0758981704711914
1698317177671491000,4.902490966796875,-1.3093507289886475,-3.5984020233154297,-2.3465709686279297
1698317177681083400,4.91208349609375,0.47658491134643555,-3.016777992248535,-0.9410325288772583
1698317177690676500,4.921676513671875,1.6439152956008911,-2.3481998443603516,1.6103942394256592
1698317177700270300,4.931270263671875,1.5122207403182983,-0.6579685211181641,0.8345113396644592
1698317177709863400,4.940863525390625,1.2222914695739746,0.8648958206176758,-0.3867533206939697
1698317177719455700,4.950455810546875,1.4446412324905396,1.5459556579589844,-1.0096782445907593
1698317177729048800,4.960048828125,2.7089574337005615,1.2582244873046875,-0.44368934631347656
1698317177738642700,4.969642578125,2.8602919578552246,1.1443510055541992,0.7668097615242004
1698317177748235500,4.979235595703125,4.077040195465088,2.9223241806030273,0.06751251220703125
1698317177757827800,4.988827880859375,6.077576637268066,3.169605255126953,-0.7559438943862915
1698317177767421000,4.9984208984375,4.26947021484375,2.8807578086853027,1.540964961051941
1698317177777014800,5.008014892578125,-1.5608716011047363,4.048717498779297,4.081615447998047
1698317177786607900,5.01760791015625,-3.819699287414551,1.6485471725463867,-5.201993942260742
1698317177796200200,5.0272001953125,0.6121268272399902,-7.819311141967773,-7.25450325012207
1698317177805793300,5.036793212890625,-0.6848222017288208,-6.730201721191406,3.393775463104248
1698317177815387100,5.04638720703125,-2.7934467792510986,-3.995516777038574,2.2481935024261475
1698317177824980200,5.055980224609375,-0.0215226411819458,-1.6056079864501953,-0.37342047691345215
1698317177834572500,5.065572509765625,1.6889564990997314,-0.42682552337646484,-0.7312579154968262
1698317177844165600,5.07516552734375,1.1974468231201172,-0.5160856246948242,-0.23768270015716553
1698317177853759500,5.084759521484375,0.05197468400001526,-1.6001129150390625,0.3126906752586365
1698317177863352600,5.0943525390625,0.4724366068840027,-1.6911811828613281,-0.13577282428741455
1698317177872945000,5.10394482421875,0.3321757912635803,-0.7101984024047852,-0.8421425819396973
1698317177882538000,5.1135380859375,0.18629032373428345,0.9675455093383789,-1.363066554069519
1698317177892131800,5.1231318359375,0.29466989636421204,1.6446466445922852,-1.9252057075500488
1698317177901725000,5.132724853515625,0.21570342779159546,1.4200201034545898,-1.3612908124923706
1698317177911317200,5.142317138671875,-0.46713346242904663,1.7132463455200195,0.7255842685699463
1698317177920910300,5.151910400390625,2.5269112586975098,-0.575078010559082,-3.058441400527954
1698317177930504200,5.161504150390625,1.3275747299194336,-0.5397272109985352,-0.3255263566970825
1698317177940097000,5.171096923828125,1.082768440246582,0.33952999114990234,-0.13347089290618896
1698317177949689300,5.180689453125,1.3259084224700928,1.0835914611816406,-0.23046648502349854
1698317177959282400,5.190282470703125,0.7762051224708557,0.9093704223632812,0.11849343776702881
1698317177968876500,5.19987646484375,0.07695478200912476,0.7621164321899414,0.42834216356277466
1698317177978469400,5.209469482421875,-0.7340584993362427,0.9660911560058594,0.7400686144828796
1698317177988061700,5.219061767578125,0.8239756226539612,-1.1114530563354492,-0.27435529232025146
1698317177997654800,5.22865478515625,0.3150006830692291,-1.2447900772094727,0.9598979949951172
1698317178007248600,5.23824853515625,0.327081561088562,-0.7408790588378906,0.47694575786590576
1698317178016841700,5.247841796875,0.5462580919265747,-0.9487934112548828,-0.34576237201690674
1698317178026434000,5.25743408203125,-0.0851556658744812,0.2562274932861328,0.09512805938720703
1698317178036027100,5.267027099609375,0.4771798253059387,0.7074394226074219,-0.4141979217529297
1698317178045621000,5.27662109375,-0.14090922474861145,0.66485595703125,0.30940693616867065
1698317178055214000,5.286214111328125,0.9033377170562744,-1.4321699142456055,-1.116351842880249
1698317178064806400,5.295806396484375,-0.41333210468292236,-0.08522510528564453,-0.22603332996368408
1698317178074399500,5.3053994140625,0.4997354745864868,-0.5262689590454102,-0.872856616973877
1698317178083993300,5.314993408203125,-0.5893027782440186,-0.6922435760498047,-0.08973264694213867
1698317178093586400,5.32458642578125,-0.9486749172210693,-0.3088836669921875,0.1726369857788086
1698317178103178800,5.3341787109375,-0.4037694036960602,-0.607365608215332,0.16614651679992676
1698317178112771800,5.343771728515625,-0.2417629361152649,-0.4872589111328125,0.5138043761253357
1698317178122365700,5.35336572265625,-0.1550474762916565,-1.0450668334960938,1.0719516277313232
1698317178131958800,5.362958740234375,-0.41345450282096863,-0.9772014617919922,1.4980995655059814
1698317178141551000,5.372551025390625,-0.6945064067840576,-0.5828008651733398,2.0134854316711426
1698317178151144200,5.382144287109375,-0.7403919696807861,-0.3296775817871094,2.2179019451141357
1698317178160738000,5.391738037109375,-0.7101032137870789,-0.9813499450683594,1.7399173974990845
1698317178170331100,5.4013310546875,-0.863194465637207,-0.5416955947875977,2.138932943344116
1698317178179923500,5.41092333984375,-0.3310982584953308,0.5637893676757812,-0.8193709850311279
1698317178189516500,5.4205166015625,0.7377773523330688,0.4942197799682617,-1.6706498861312866
1698317178199110400,5.4301103515625,0.9928035140037537,-0.12390422821044922,-0.7037279605865479
1698317178208703200,5.439703125,0.37809041142463684,-0.12248802185058594,0.34904295206069946
1698317178218295600,5.449295654296875,-0.33585071563720703,-0.06394481658935547,-0.5334330797195435
1698317178227888600,5.458888671875,-0.18077975511550903,-0.28104305267333984,-0.9201762676239014
1698317178237482500,5.468482421875,0.47986263036727905,-0.2110309600830078,0.6668457388877869
1698317178247075800,5.478075927734375,0.849744439125061,0.0818490982055664,3.155749797821045
1698317178256668000,5.48766796875,0.6343914270401001,0.6159830093383789,3.5678038597106934
1698317178266261000,5.497260986328125,0.16742080450057983,1.6625423431396484,3.0661709308624268
1698317178275854800,5.506854736328125,-0.36433959007263184,3.2001099586486816,0.8834438323974609
1698317178285448000,5.516447998046875,-0.21662282943725586,4.811159610748291,-3.407085418701172
1698317178295040300,5.526040283203125,-0.6751929521560669,5.2327775955200195,-5.533143997192383
1698317178304633300,5.53563330078125,-0.031455397605895996,4.487737655639648,-1.0955371856689453
1698317178314227200,5.545227294921875,0.11934971809387207,4.551578044891357,0.7174237370491028
1698317178323820300,5.5548203125,1.8010969161987305,5.585305213928223,1.7122994661331177
1698317178333412600,5.56441259765625,2.4813058376312256,5.587663650512695,-0.6497613191604614
1698317178343005700,5.574005615234375,0.5165305137634277,4.337528705596924,1.0088231563568115
1698317178352599600,5.583599609375,0.15328705310821533,1.6691951751708984,1.213750958442688
1698317178362192600,5.593192626953125,0.16410160064697266,-0.7312259674072266,1.8078138828277588
1698317178371785000,5.602784912109375,0.20445632934570312,-2.64420223236084,2.843903064727783
1698317178381378000,5.6123779296875,1.675901174545288,-5.2486419677734375,7.356133937835693
1698317178390972000,5.621971923828125,1.6597819328308105,-4.263315200805664,4.099544048309326
1698317178400565000,5.63156494140625,-1.6694355010986328,-0.7169437408447266,0.5010249614715576
1698317178410157300,5.6411572265625,-2.022724151611328,2.7864723205566406,1.1493523120880127
1698317178419750400,5.65075048828125,-0.04179871082305908,2.9681787490844727,2.9091031551361084
1698317178429344300,5.66034423828125,1.629087209701538,2.2637157440185547,2.839489698410034
1698317178438937300,5.669937255859375,3.1002581119537354,2.779987335205078,1.2199242115020752
1698317178448529400,5.679529296875,2.883552074432373,1.9738693237304688,-0.12034988403320312
1698317178458122800,5.689122802734375,1.119215488433838,0.32701778411865234,0.20770502090454102
1698317178467716600,5.698716552734375,-0.6052051782608032,-1.884176254272461,0.07893967628479004
1698317178477309700,5.708309814453125,0.525772213935852,-4.466094017028809,-0.18351590633392334
1698317178486901800,5.71790185546875,-1.9757025241851807,-5.673559188842773,-0.022081613540649414
1698317178496495000,5.7274951171875,-3.586458683013916,-2.277682304382324,-0.8115266561508179
1698317178506089000,5.7370888671875,0.9303956627845764,2.8231592178344727,-0.3925720453262329
1698317178515681800,5.746681884765625,2.253321886062622,4.425785541534424,-0.49037909507751465
1698317178525274000,5.756274169921875,-0.8223819732666016,3.2394962310791016,1.6813262701034546
1698317178534867500,5.765867431640625,-1.6798533201217651,6.085701942443848,4.174777030944824
1698317178544461300,5.77546142578125,-1.9554625749588013,7.674522876739502,3.3574376106262207
1698317178554054100,5.78505419921875,-2.247537136077881,4.99652099609375,2.2667722702026367
1698317178563646500,5.794646484375,-0.7946676015853882,0.7063732147216797,-0.49244189262390137
1698317178573239600,5.804239501953125,0.5516746044158936,-2.159409523010254,-3.4966015815734863
1698317178582833400,5.81383349609375,0.7728283405303955,-3.73331356048584,-4.5930023193359375
1698317178592426500,5.823426513671875,1.8489837646484375,-5.208713531494141,-5.911284923553467
1698317178602018800,5.833018798828125,1.9021910429000854,-6.6877946853637695,-5.918489456176758
1698317178611612000,5.84261181640625,1.0252149105072021,-6.675145149230957,-4.295512676239014
1698317178621205800,5.852205810546875,-0.06091606616973877,-6.381501197814941,-2.7383928298950195
1698317178630798800,5.861798828125,-1.2506887912750244,-6.73862361907959,-1.1193495988845825
1698317178640391200,5.87139111328125,-2.470304012298584,-6.493427276611328,-0.596946120262146
1698317178649984300,5.880984375,-3.2966134548187256,-6.448337554931641,-0.2230689525604248
1698317178659578000,5.890578125,-3.3938045501708984,-6.321846008300781,-0.09422516822814941
1698317178669171200,5.900171142578125,-2.6745736598968506,-6.601423263549805,1.1737571954727173
1698317178678763500,5.909763427734375,-0.9853382110595703,-6.2453718185424805,0.38342946767807007
1698317178688356600,5.919356689453125,0.2662942409515381,-4.857766151428223,-0.8422859907150269
1698317178697950500,5.928950439453125,0.4620387554168701,-3.1859912872314453,-1.2005051374435425
1698317178707543600,5.93854345703125,0.38656771183013916,-1.7444696426391602,-1.3636715412139893
1698317178717136000,5.948135986328125,0.09068655967712402,-0.9391489028930664,-1.1980960369110107
1698317178726729000,5.95772900390625,0.3948124647140503,-0.7135438919067383,-1.2082685232162476
1698317178736322800,5.96732275390625,1.4799644947052002,-0.7853164672851562,-1.493156909942627
1698317178745916000,5.976916015625,1.9276707172393799,-0.6984062194824219,-1.0935144424438477
1698317178755508000,5.986508056640625,1.4617047309875488,0.031795501708984375,-0.2731144428253174
1698317178765101300,5.996101318359375,0.6903349161148071,0.848846435546875,0.21354931592941284
1698317178774695200,6.005695068359375,-0.08789896965026855,1.5796051025390625,0.7626316547393799
1698317178784288000,6.0152880859375,-0.8889923095703125,2.3807578086853027,0.9719198942184448
1698317178793880300,6.02488037109375,-1.5754282474517822,3.158268928527832,0.8226519227027893
1698317178803473400,6.034473388671875,-2.28295636177063,3.613095760345459,0.7918235659599304
1698317178813067500,6.044067626953125,-2.808302640914917,3.9576611518859863,0.7412996888160706
1698317178822660400,6.053660400390625,-3.0311086177825928,4.518542766571045,0.6677068471908569
1698317178832252700,6.063252685546875,-2.8456437587738037,4.898429870605469,0.908867597579956
1698317178841845800,6.072845703125,-2.370999336242676,5.262301445007324,1.1939347982406616
1698317178851439600,6.082439697265625,-1.7319166660308838,5.66274356842041,1.3356491327285767
1698317178861032700,6.09203271484375,-1.030500054359436,5.885286331176758,1.66777765750885
1698317178870625000,6.101625,-0.36082279682159424,5.8814473152160645,2.2056310176849365
1698317178880218000,6.111218017578125,0.5351442098617554,5.743879318237305,2.405947685241699
1698317178889812000,6.12081201171875,1.3110750913619995,5.251947402954102,2.638087272644043
1698317178899405000,6.130405029296875,1.8944863080978394,4.614675045013428,2.2364768981933594
1698317178908997400,6.139997314453125,2.188141107559204,3.9850025177001953,1.4826135635375977
1698317178918590500,6.149590576171875,2.22788143157959,3.3506217002868652,1.0918132066726685
1698317178928184300,6.159184326171875,1.85628342628479,2.904453754425049,0.657791018486023
1698317178937777400,6.16877734375,1.3489081859588623,2.6573219299316406,0.025547146797180176
1698317178947369500,6.178369384765625,0.5554367303848267,2.209956645965576,-0.2245936393737793
1698317178956962800,6.187962890625,-0.33732831478118896,1.8185052871704102,-0.4850931167602539
1698317178966556700,6.197556640625,-1.0611677169799805,1.3181514739990234,-0.955211877822876
1698317178976149500,6.2071494140625,-0.9553359746932983,0.40415000915527344,-1.5703210830688477
1698317178985741800,6.216741943359375,-0.9988865852355957,-0.2731142044067383,-2.4446263313293457
1698317178995335000,6.2263349609375,-1.4760751724243164,-0.19506072998046875,-3.7725601196289062
1698317179004928800,6.2359287109375,-2.274089813232422,0.36317920684814453,-4.142150402069092
1698317179014521900,6.24552197265625,-2.6280722618103027,1.2078380584716797,-2.927558183670044
1698317179024114200,6.2551142578125,-3.109534740447998,1.5307435989379883,-0.9119114875793457
1698317179033707300,6.264707275390625,-3.36152982711792,1.105459213256836,0.0031818151473999023
1698317179043301000,6.274301025390625,-2.1282618045806885,-0.03793144226074219,-1.6273260116577148
1698317179052894200,6.283894287109375,1.4099528789520264,-1.670384407043457,-3.7573251724243164
1698317179062486500,6.293486572265625,2.9469687938690186,-4.117508888244629,-4.294826984405518
1698317179072079600,6.30307958984375,4.371842384338379,-5.724618911743164,-5.284157752990723
1698317179081673500,6.312673583984375,4.190621376037598,-6.834921836853027,-5.662599086761475
1698317179091266600,6.3222666015625,1.3296051025390625,-7.933515548706055,-2.8856875896453857
1698317179100858600,6.331858642578125,-1.892943024635315,-7.213834762573242,1.0848326683044434
1698317179110452000,6.341451904296875,-4.256110191345215,-5.101465225219727,2.87113881111145
1698317179120045800,6.3510458984375,-0.4636354446411133,-5.108458518981934,1.523742914199829
1698317179129638700,6.360638671875,6.0946245193481445,-6.643411636352539,0.14512324333190918
1698317179139231000,6.37023095703125,7.7219557762146,-6.820107460021973,1.313678503036499
1698317179148824000,6.379823974609375,5.295568943023682,-6.389763832092285,3.312513828277588
1698317179158418000,6.38941796875,0.17522025108337402,-4.858603477478027,4.663017272949219
1698317179168011000,6.399010986328125,-2.6285643577575684,-3.260409355163574,3.8370819091796875
1698317179177603300,6.408603271484375,-2.4262137413024902,-2.4254150390625,1.094244122505188
1698317179187196400,6.418196533203125,-1.3168067932128906,-1.7273683547973633,-0.8564341068267822
1698317179196790300,6.427790283203125,-0.6210650205612183,-0.8414306640625,-1.6173453330993652
1698317179206383400,6.43738330078125,-0.3504389524459839,-0.35038185119628906,-1.5649619102478027
1698317179215975700,6.4469755859375,-0.7050443887710571,-0.34229373931884766,-1.11002516746521
1698317179225568800,6.45656884765625,-0.8332287073135376,0.04212760925292969,-1.248528003692627
1698317179235162600,6.46616259765625,0.7587552070617676,0.5885505676269531,-1.7503297328948975
1698317179244755500,6.47575537109375,2.9296154975891113,0.9838962554931641,-1.0185824632644653
1698317179254347800,6.48534765625,4.457556247711182,1.1309165954589844,-0.20365309715270996
1698317179263940900,6.49494091796875,4.487465858459473,1.31903076171875,0.8481897115707397
1698317179273534700,6.50453466796875,3.2998719215393066,1.6047778129577637,1.9808120727539062
1698317179283127800,6.5141279296875,1.604866623878479,2.1679582595825195,2.4505481719970703
1698317179292720000,6.52372021484375,0.14103567600250244,2.731384754180908,2.0427162647247314
1698317179302313200,6.533313232421875,-0.8215917348861694,3.212822914123535,1.2052081823349
1698317179311907000,6.542906982421875,-1.2836195230484009,3.5021839141845703,0.31973421573638916
1698317179321500200,6.552500244140625,-1.0053958892822266,3.5526747703552246,-0.1563664674758911
1698317179331092500,6.562092529296875,-0.10542798042297363,3.3758578300476074,0.008308172225952148
1698317179340685300,6.571685302734375,1.029815435409546,3.2721309661865234,0.11201620101928711
1698317179350279400,6.581279541015625,1.7107330560684204,3.313469409942627,-0.10167872905731201
1698317179359872300,6.590872314453125,1.5899044275283813,3.2257847785949707,-0.008310317993164062
1698317179369464600,6.600464599609375,0.9026272892951965,3.1232471466064453,0.38515007495880127
1698317179379057700,6.6100576171875,-0.0063495635986328125,3.28110408782959,0.8353303670883179
1698317179388651500,6.619651611328125,-1.133160948753357,3.4714231491088867,1.1457886695861816
1698317179398244600,6.62924462890625,-2.1358256340026855,3.2611312866210938,1.4645103216171265
1698317179407837000,6.6388369140625,-2.3111977577209473,2.8229217529296875,1.6896474361419678
1698317179417430000,6.648429931640625,-1.1228444576263428,2.4206137657165527,2.0344221591949463
1698317179427024000,6.65802392578125,0.4449729919433594,2.241270065307617,2.7353153228759766
1698317179436617000,6.667616943359375,1.7625154256820679,2.222947120666504,3.649599552154541
1698317179446209000,6.677208984375,2.4217793941497803,2.1860551834106445,4.529099464416504
1698317179455802000,6.686802001953125,2.276531934738159,2.186622142791748,4.831778526306152
1698317179465396000,6.69639599609375,1.4535244703292847,2.23697566986084,4.707935333251953
1698317179474989000,6.705989013671875,0.5398584604263306,2.3948516845703125,4.2865800857543945
1698317179484581400,6.715581298828125,0.372452974319458,2.3182334899902344,3.7895727157592773
1698317179494174500,6.725174560546875,0.8264801502227783,1.7851653099060059,2.9949846267700195
1698317179503768300,6.734768310546875,0.14330077171325684,0.7403221130371094,1.5114057064056396
1698317179513361400,6.744361328125,-0.8991156816482544,-0.6912651062011719,0.14328694343566895
1698317179522953700,6.75395361328125,-1.240329384803772,-2.421807289123535,-0.9365416765213013
1698317179532546600,6.763546630859375,-0.8211237192153931,-4.970816612243652,-1.7700128555297852
1698317179542140700,6.773140625,0.1264101266860962,-7.597866058349609,-3.366992473602295
1698317179551733500,6.7827333984375,1.278325080871582,-8.820145606994629,-5.223202228546143
1698317179561325800,6.792325927734375,1.5174400806427002,-8.306781768798828,-5.670292854309082
1698317179570919000,6.8019189453125,0.40593063831329346,-6.574213981628418,-4.535393714904785
1698317179580512800,6.8115126953125,-1.0864551067352295,-5.035517692565918,-3.2615222930908203
1698317179590105900,6.82110595703125,-1.888563632965088,-5.240118026733398,-2.379178047180176
1698317179599698200,6.8306982421875,-2.4535982608795166,-6.163463592529297,-2.2683770656585693
1698317179609291300,6.840291259765625,-2.484694719314575,-6.756593704223633,-1.4856206178665161
1698317179618885000,6.849885009765625,-2.059229612350464,-6.7117414474487305,-0.2723679542541504
1698317179628478000,6.85947802734375,-1.3393173217773438,-6.051458358764648,-0.23059237003326416
1698317179638070300,6.8690703125,-0.7866466045379639,-5.161066055297852,-0.9328354001045227
1698317179647663400,6.878663330078125,-0.7469482421875,-4.297826766967773,-1.1337430477142334
1698317179657257200,6.88825732421875,-0.6512174606323242,-3.455998420715332,-0.8264548778533936
1698317179666850300,6.897850341796875,-0.5060939788818359,-2.541775703430176,-0.44672322273254395
1698317179676442600,6.907442626953125,-0.14070749282836914,-1.9418888092041016,-0.1996963620185852
1698317179686035700,6.91703564453125,0.0688319206237793,-0.33808422088623047,-0.6476962566375732
1698317179695629600,6.926629638671875,0.49140143394470215,1.0142059326171875,-1.058333396911621
1698317179705222400,6.936222412109375,0.6453700065612793,1.5221023559570312,-0.8485910296440125
1698317179714814700,6.945814697265625,0.5910360813140869,2.0358972549438477,-0.5658820867538452
1698317179724407800,6.95540771484375,0.6359144449234009,2.7485690116882324,-0.4680105447769165
1698317179734001700,6.965001708984375,0.683922529220581,3.408815383911133,-0.3211097717285156
1698317179743594800,6.9745947265625,0.5459355115890503,3.73771333694458,0.12045079469680786
1698317179753187000,6.98418701171875,0.1636587381362915,4.130202293395996,0.3646727204322815
1698317179762780200,6.9937802734375,-0.3541978597640991,4.437681198120117,0.395124614238739
1698317179772374000,7.0033740234375,-0.8487774133682251,4.710132598876953,0.5686209797859192
1698317179781966800,7.012966796875,-1.1818305253982544,4.964013576507568,0.3598063588142395
1698317179791559200,7.02255908203125,-0.9575344324111938,5.270934104919434,-0.11156165599822998
1698317179801152300,7.03215234375,-0.5537316799163818,5.2322611808776855,-0.445975661277771
1698317179810746000,7.04174609375,-0.2745535373687744,4.827581882476807,-0.4106419086456299
1698317179820339200,7.051339111328125,-0.10300874710083008,4.289379119873047,-0.29207944869995117
1698317179829931500,7.060931640625,-0.1334444284439087,3.753978729248047,-0.26236581802368164
1698317179839524600,7.070524658203125,-0.24605000019073486,3.2883944511413574,-0.30765724182128906
1698317179849118200,7.0801181640625,-0.22985482215881348,2.973733425140381,-0.7151492834091187
1698317179858711300,7.089711181640625,-0.15456032752990723,2.9030747413635254,-0.5282199382781982
1698317179868303600,7.0993037109375,-0.002965092658996582,3.049630641937256,-0.3969308137893677
1698317179877896700,7.108896728515625,0.021787047386169434,3.2625722885131836,-0.15530383586883545
1698317179887490600,7.118490478515625,0.06634461879730225,3.479959487915039,0.08395636081695557
1698317179897083600,7.128083740234375,0.22150909900665283,3.587831974029541,0.38150954246520996
1698317179906675700,7.13767578125,0.39912164211273193,3.615607261657715,0.7034653425216675
1698317179916268800,7.147268798828125,0.17171835899353027,3.6233668327331543,0.9685584902763367
1698317179925862700,7.156862548828125,-0.18826401233673096,3.5777902603149414,1.0207138061523438
1698317179935455700,7.166455810546875,-0.1783963441848755,3.450375556945801,0.8930416703224182
1698317179945048000,7.176048095703125,0.11727166175842285,3.3848657608032227,0.843319833278656
1698317179954641200,7.18564111328125,0.33210504055023193,3.2790846824645996,0.6824606657028198
1698317179964235000,7.195235107421875,0.5457139015197754,3.06840181350708,-0.13197708129882812
1698317179973827800,7.204827880859375,0.09948790073394775,2.9032955169677734,-1.7593201398849487
1698317179983420200,7.214420166015625,-1.7915668487548828,1.481175422668457,-3.1696298122406006
1698317179993013200,7.22401318359375,-4.844297409057617,-2.6712427139282227,-5.090254783630371
1698317180002607000,7.233607177734375,1.5035998821258545,-4.695921897888184,-10.109539985656738
1698317180012200200,7.2432001953125,7.550644874572754,-7.281658172607422,-8.434004783630371
1698317180021792500,7.25279248046875,6.063140869140625,-11.12480640411377,-2.8320841789245605
1698317180031385600,7.262385498046875,0.15324407815933228,-12.728026390075684,1.424685001373291
1698317180040979200,7.271979248046875,-4.754776954650879,-11.154661178588867,1.7475775480270386
1698317180050572300,7.281572265625,-2.769394874572754,-9.837225914001465,-0.7792186737060547
1698317180060164600,7.29116455078125,3.3129026889801025,-9.601730346679688,-0.32540154457092285
1698317180069757700,7.3007578125,4.667743682861328,-9.3098783493042,2.809701919555664
1698317180079351600,7.3103515625,0.08296918869018555,-7.681098937988281,4.022905349731445
1698317180088944400,7.3199443359375,-3.184015989303589,-5.771407127380371,3.184274196624756
1698317180098536700,7.32953662109375,-3.3711812496185303,-4.183638572692871,0.396417498588562
1698317180108129800,7.3391298828125,-2.3985071182250977,-2.6869869232177734,-1.6526012420654297
1698317180117723600,7.3487236328125,-0.8150988817214966,-1.5267105102539062,-2.5197155475616455
1698317180127316700,7.358316650390625,0.15906476974487305,-0.8410501480102539,-2.3791096210479736
1698317180136909000,7.367908935546875,0.03507375717163086,-0.48592376708984375,-1.1115128993988037
1698317180146502000,7.377501953125,-0.27737629413604736,-0.17832469940185547,-0.12127327919006348
1698317180156095700,7.387095703125,0.23086440563201904,0.25536537170410156,-0.1400604248046875
1698317180165688800,7.396688720703125,1.368842363357544,0.6302118301391602,-0.06606626510620117
1698317180175281200,7.40628125,2.5117034912109375,0.9338779449462891,0.2786616086959839
1698317180184874200,7.415874267578125,3.289125919342041,1.106175422668457,0.5924545526504517
1698317180194468000,7.425468017578125,3.1692519187927246,1.3539085388183594,0.8441451787948608
1698317180204061000,7.43506103515625,2.2605276107788086,1.7140746116638184,1.3489153385162354
1698317180213653200,7.4446533203125,1.1098010540008545,2.1405138969421387,1.7666714191436768
1698317180223246300,7.454246337890625,0.16294968128204346,2.469834327697754,1.3798320293426514
1698317180232840200,7.463840087890625,-0.5758074522018433,2.4606070518493652,0.7697131633758545
1698317180242433300,7.473433349609375,-0.8281291723251343,2.362525463104248,0.6187530755996704
1698317180252025300,7.483025390625,-0.6096992492675781,2.2936739921569824,0.7046595811843872
1698317180261618400,7.492618408203125,-0.30446505546569824,2.350186347961426,0.7537862062454224
1698317180271212300,7.50221240234375,0.03932762145996094,2.405803680419922,0.7965301275253296
1698317180280805400,7.511805419921875,0.38969695568084717,2.5473318099975586,0.8843450546264648
1698317180290397700,7.521397705078125,0.4770011305809021,2.7992429733276367,1.1950581073760986
1698317180299990800,7.53099072265625,0.14990270137786865,3.168942451477051,1.4617688655853271
1698317180309584600,7.540584716796875,-0.6990596055984497,3.462918758392334,1.6853852272033691
1698317180319177500,7.550177490234375,-1.7213572263717651,3.6952710151672363,1.7321841716766357
1698317180328769800,7.559769775390625,-2.2248752117156982,3.7533841133117676,1.6205494403839111
1698317180338363000,7.56936279296875,-1.7397840023040771,3.448702812194824,1.7114311456680298
1698317180347956700,7.578956787109375,-0.51444411277771,3.0569071769714355,1.958994746208191
1698317180357549600,7.588549560546875,0.802707850933075,2.803241729736328,2.411262035369873
1698317180367142000,7.598141845703125,1.6366167068481445,2.7808427810668945,2.812110424041748
1698317180376735000,7.60773486328125,1.8224784135818481,2.8813986778259277,3.155170440673828
1698317180386328800,7.617328857421875,1.5537431240081787,3.070164203643799,3.4718194007873535
1698317180395922000,7.626921875,1.048356056213379,3.147559642791748,3.5186405181884766
1698317180405514000,7.636513916015625,0.5185495615005493,3.0844244956970215,3.4167280197143555
1698317180415107000,7.646107177734375,0.17620503902435303,2.8902721405029297,2.983264923095703
1698317180424701000,7.655700927734375,0.35468971729278564,2.403470516204834,2.32234525680542
1698317180434294000,7.6652939453125,0.6176981329917908,1.846956729888916,1.2693309783935547
1698317180443886000,7.674885986328125,0.48108911514282227,1.2103605270385742,-0.11307644844055176
1698317180453479400,7.6844794921875,-0.07749903202056885,0.4759492874145508,-1.3358404636383057
1698317180463073000,7.694072998046875,-0.20343661308288574,-0.8905544281005859,-2.138186454772949
1698317180472666000,7.703666015625,0.035869717597961426,-2.503948211669922,-2.967275857925415
1698317180482258400,7.713258544921875,0.6205503940582275,-4.453889846801758,-4.000405311584473
1698317180491851500,7.7228515625,1.0925556421279907,-6.210505485534668,-4.785569190979004
1698317180501445400,7.7324453125,0.7785074710845947,-7.618437767028809,-4.413697242736816
1698317180511038200,7.7420380859375,-0.14428865909576416,-8.755284309387207,-3.318629026412964
1698317180520630500,7.751630615234375,-1.7330565452575684,-8.662420272827148,-2.8625290393829346
1698317180530223600,7.7612236328125,-2.8657469749450684,-8.014059066772461,-3.0130867958068848
1698317180539817500,7.7708173828125,-2.576418399810791,-7.419507026672363,-2.6052937507629395
1698317180549410300,7.780410400390625,-1.481813669204712,-6.727617263793945,-2.348728656768799
1698317180559002600,7.790002685546875,-0.8773775100708008,-6.288149833679199,-2.409938335418701
1698317180568595700,7.799595703125,-0.6007318496704102,-6.2824554443359375,-1.2142698764801025
1698317180578189600,7.809189453125,-1.5183041095733643,-4.617781639099121,-2.145137310028076
1698317180587782400,7.818782470703125,-1.9411296844482422,-2.3596458435058594,-1.6061489582061768
1698317180597374700,7.828374755859375,-1.2922346591949463,-1.4710521697998047,0.5484229326248169
1698317180606967800,7.8379677734375,-0.38394927978515625,-1.2959070205688477,1.6581674814224243
1698317180616561700,7.847561767578125,0.10325217247009277,-1.332991600036621,1.731048345565796
1698317180626154800,7.85715478515625,0.2922079563140869,-1.1180849075317383,1.4242478609085083
1698317180635746800,7.866746826171875,0.5226738452911377,-0.632014274597168,1.003124475479126
1698317180645340000,7.87633984375,0.8879005908966064,0.0299530029296875,0.4593150019645691
1698317180654933800,7.885933837890625,1.0776028633117676,0.7517213821411133,0.1681501865386963
1698317180664526800,7.89552685546875,1.0500208139419556,1.3288145065307617,0.024117112159729004
1698317180674119000,7.905118896484375,1.0555188655853271,1.6449804306030273,-0.11090648174285889
1698317180683712000,7.9147119140625,0.9856611490249634,1.827317237854004,-0.29269564151763916
1698317180693305900,7.924305908203125,0.6479003429412842,1.9423856735229492,-0.37537479400634766
1698317180702899000,7.93389892578125,0.06521773338317871,2.0873231887817383,-0.3489105701446533
1698317180712491300,7.9434912109375,-0.49926233291625977,2.40419340133667,-0.19868648052215576
1698317180722084000,7.953083984375,-0.8110872507095337,2.948619842529297,-0.08855807781219482
1698317180731678000,7.962677978515625,-0.9337615966796875,3.764380931854248,-0.20246315002441406
1698317180741271000,7.97227099609375,-0.7866742610931396,4.630763530731201,-0.06467330455780029
1698317180750863000,7.981863037109375,-0.3569154739379883,5.475848197937012,-0.41565918922424316
1698317180760456200,7.991456298828125,0.38068723678588867,6.104362964630127,-0.5803825855255127
1698317180770050000,8.001050048828125,0.7252686023712158,6.331266403198242,-0.043351054191589355
1698317180779643100,8.01064306640625,0.8769492506980896,6.360847473144531,0.254336953163147
1698317180789235500,8.0202353515625,1.0862290859222412,6.546634674072266,-0.17715048789978027
1698317180798828300,8.029828369140626,1.1690428256988525,6.499020576477051,-0.33063745498657227
1698317180808422100,8.039422119140625,1.3512372970581055,6.32851505279541,-0.6314268112182617
1698317180818015200,8.04901513671875,1.3170111179351807,5.92775821685791,-1.178553581237793
1698317180827607600,8.058607666015625,1.3938759565353394,5.440155029296875,-1.7544182538986206
1698317180837200400,8.068200439453125,1.0825285911560059,4.8537187576293945,-1.9457008838653564
1698317180846794200,8.077794189453124,0.7030877470970154,4.118844985961914,-1.6841262578964233
1698317180856387300,8.08738720703125,0.29884111881256104,2.9407973289489746,-1.2072724103927612
1698317180865979600,8.096979736328125,-0.17710065841674805,1.5822534561157227,-0.6815400123596191
1698317180875572500,8.106572509765625,-1.105204463005066,0.6511373519897461,-0.18632185459136963
1698317180885166300,8.116166259765626,-1.5232512950897217,0.0659780502319336,0.3687525987625122
1698317180894759400,8.125759521484374,-1.7494752407073975,0.18972396850585938,0.8429663181304932
1698317180904351700,8.135351806640625,-2.3010411262512207,0.6613531112670898,1.5745346546173096
1698317180913944600,8.144944580078125,-2.9299349784851074,1.0090084075927734,1.7660599946975708
1698317180923538400,8.154538330078125,-3.678239107131958,1.3169422149658203,-0.5019814968109131
1698317180933131500,8.164131591796876,-2.5152876377105713,0.045281410217285156,-3.090022325515747
1698317180942723800,8.173723876953124,0.3692428469657898,-1.499974250793457,-4.25016450881958
1698317180952316700,8.183316650390625,3.899829864501953,-3.170741081237793,-8.282362937927246
1698317180961910500,8.19291064453125,6.543308258056641,-6.563312530517578,-10.254852294921875
1698317180971503600,8.202503662109375,5.795271873474121,-9.622302055358887,-5.395028114318848
1698317180981096000,8.212095947265626,3.1984970569610596,-9.850142478942871,2.3211147785186768
1698317180990688800,8.221688720703124,0.38221442699432373,-7.74169921875,7.513583183288574
1698317181000282600,8.23128271484375,-2.5141983032226562,-5.676943778991699,3.0658154487609863
1698317181009875700,8.240875732421875,-2.3875732421875,-6.236400604248047,-0.21963095664978027
1698317181019468000,8.250468017578125,0.25684690475463867,-9.11766529083252,-0.5850610733032227
1698317181029060900,8.260060791015626,0.1531357765197754,-10.160262107849121,2.562992811203003
1698317181038654700,8.26965478515625,-2.001667022705078,-7.863869667053223,4.377429962158203
1698317181048247800,8.279247802734375,-2.4918313026428223,-4.957324028015137,2.2126224040985107
1698317181057839900,8.28883984375,-0.7453595399856567,-3.0001039505004883,-0.07316207885742188
1698317181067433000,8.298432861328125,1.1635174751281738,-2.091867446899414,-1.3040337562561035
1698317181077026800,8.30802685546875,1.3585093021392822,-1.6415433883666992,-1.1039564609527588
1698317181086620000,8.317619873046874,-0.006992340087890625,-1.0745611190795898,-1.074864387512207
1698317181096212000,8.3272119140625,-0.6974774599075317,-0.3029327392578125,-1.3814241886138916
1698317181105805000,8.33680517578125,-0.2498537302017212,0.4084329605102539,-1.5027880668640137
1698317181115399000,8.34639892578125,0.770155668258667,0.8133411407470703,-0.8034501075744629
1698317181124992000,8.355991943359374,1.7810885906219482,1.0418787002563477,0.4904496669769287
1698317181134584000,8.365583984375,2.441154956817627,1.3373994827270508,1.5837252140045166
1698317181144177200,8.37517724609375,2.6812453269958496,1.9192395210266113,2.1556875705718994
1698317181153771000,8.38477099609375,2.7500662803649902,2.830162525177002,2.1639022827148438
1698317181163363800,8.39436376953125,2.4729089736938477,3.789518356323242,1.6261649131774902
1698317181172956200,8.4039560546875,1.8511912822723389,4.5723137855529785,0.808678150177002
1698317181182549200,8.41354931640625,0.976935625076294,4.922255039215088,0.5205438137054443
1698317181192143000,8.42314306640625,0.08341038227081299,4.94757604598999,0.4418487548828125
1698317181201736000,8.43273583984375,-0.9405555725097656,4.4383463859558105,0.09736347198486328
1698317181211328300,8.442328369140625,-1.6123675107955933,2.8134851455688477,0.037750244140625
1698317181220921300,8.45192138671875,-1.5899373292922974,0.8346929550170898,0.36351561546325684
1698317181230515200,8.46151513671875,-0.8447068929672241,-0.19047260284423828,0.9369409084320068
1698317181240108000,8.47110791015625,0.0538942813873291,-0.19363784790039062,1.2122366428375244
1698317181249700400,8.480700439453125,0.39787906408309937,0.3997211456298828,1.299004077911377
1698317181259293400,8.49029345703125,0.16066163778305054,1.2150096893310547,1.6403017044067383
1698317181268887000,8.499886962890624,-0.22702789306640625,1.9266014099121094,2.185426712036133
1698317181278480100,8.509480224609375,-0.590051531791687,2.443906784057617,2.7664928436279297
1698317181288072400,8.519072509765625,-0.8979294300079346,2.9008803367614746,2.992586851119995
1698317181297665300,8.528665283203125,-0.6600046157836914,3.3761754035949707,3.0321121215820312
1698317181307259100,8.538259033203126,0.09190893173217773,3.7503552436828613,3.003793716430664
1698317181316852200,8.547852294921874,0.9798233509063721,3.8907809257507324,3.374018669128418
1698317181326444300,8.5574443359375,1.3846323490142822,4.0515055656433105,3.4283218383789062
1698317181336037400,8.567037353515625,1.3696393966674805,4.210562229156494,3.112464427947998
1698317181345631200,8.57663134765625,1.0087980031967163,4.183765411376953,3.0132107734680176
1698317181355224300,8.586224365234376,0.5406734943389893,3.6056065559387207,2.483222007751465
1698317181364816400,8.59581640625,-0.07717597484588623,2.6053647994995117,1.7100753784179688
1698317181374409500,8.605409423828124,-0.4699345827102661,1.1280755996704102,0.8675268292427063
1698317181384003300,8.61500341796875,-0.396975040435791,-0.5487442016601562,0.32413554191589355
1698317181393596200,8.62459619140625,-0.5270566940307617,-2.473097801208496,-0.3532075881958008
1698317181403188500,8.6341884765625,-0.01689767837524414,-4.357942581176758,-1.3396382331848145
1698317181412781600,8.643781494140624,1.0258114337921143,-5.978851318359375,-1.6119780540466309
1698317181422375400,8.65337548828125,1.7370545864105225,-7.247281074523926,-2.400383472442627
1698317181431968300,8.66296826171875,1.548819661140442,-7.860002517700195,-4.347320556640625
1698317181441560600,8.672560546875,0.4896227717399597,-7.4885149002075195,-5.7611260414123535
1698317181451153400,8.6821533203125,-0.6154657602310181,-6.209532737731934,-5.484735012054443
1698317181460747300,8.691747314453124,-1.6374074220657349,-5.277102470397949,-5.06925106048584
1698317181470340400,8.70134033203125,-2.360698699951172,-4.365152359008789,-5.172794342041016
1698317181479932700,8.7109326171875,-2.3724870681762695,-4.502464294433594,-4.531566143035889
1698317181489525500,8.720525390625,-2.4484810829162598,-5.246026992797852,-3.494049072265625
1698317181499119400,8.730119384765626,-2.320660352706909,-5.871393203735352,-1.9730660915374756
1698317181508712400,8.73971240234375,-2.141386032104492,-5.996476173400879,-1.254854679107666
1698317181518304500,8.749304443359375,-1.9795942306518555,-6.08836555480957,-0.2648770809173584
1698317181527897600,8.758897705078125,-1.3700449466705322,-5.968857765197754,0.8084606528282166
1698317181537491500,8.768491455078125,-1.2810107469558716,-4.516353607177734,0.1667701005935669
1698317181547084300,8.778084228515626,-0.8967669010162354,-2.792965888977051,-1.6818569898605347
1698317181556676600,8.787676513671874,-0.4933290481567383,-2.3913135528564453,-0.09816467761993408
1698317181566269700,8.797269775390625,-0.3194791078567505,-1.6688051223754883,0.1757270097732544
1698317181575863600,8.806863525390625,-0.2375035285949707,-0.4703378677368164,0.04833173751831055
1698317181585456400,8.816456298828125,0.03555417060852051,0.7803134918212891,-0.21778559684753418
1698317181595048700,8.826048583984376,0.5005755424499512,1.825357437133789,-0.5576677322387695
1698317181604641500,8.8356416015625,0.972787082195282,2.520066261291504,-0.6078909635543823
1698317181614235400,8.8452353515625,1.2205147743225098,2.968104839324951,-0.47810256481170654
1698317181623828500,8.854828369140625,1.1127490997314453,3.1699929237365723,-0.22191286087036133
1698317181633420500,8.864420654296875,0.6559659242630005,3.276339054107666,0.03680419921875
1698317181643013600,8.874013671875,-0.009292960166931152,3.549569606781006,0.08169281482696533
1698317181652607500,8.883607421875,-0.7626029253005981,4.100956439971924,0.3457721471786499
1698317181662200300,8.893200439453125,-1.5380854606628418,4.793003082275391,0.5144565105438232
1698317181671792600,8.902792724609375,-2.0269646644592285,5.563113212585449,0.5034365653991699
1698317181681385700,8.9123857421875,-1.6997395753860474,6.303886890411377,0.19499003887176514
1698317181690979300,8.921979248046876,-0.9094957113265991,6.713133811950684,0.4125082492828369
1698317181700572400,8.931572509765624,-0.12074363231658936,6.864485263824463,0.5316158533096313
1698317181710164700,8.941164794921875,0.3224353790283203,6.506357669830322,0.7575868368148804
1698317181719757600,8.950757568359375,0.4308716058731079,6.016369819641113,-0.10651075839996338
1698317181729351400,8.960351318359375,0.3486470580101013,5.527905464172363,-0.35838639736175537
1698317181738944300,8.9699443359375,0.2785847783088684,5.360476493835449,-0.35414183139801025
1698317181748536600,8.97953662109375,0.2845967411994934,5.464770317077637,-0.55604088306427
1698317181758129700,8.989129638671875,0.39447855949401855,5.505244731903076,-1.0084694623947144
1698317181767723500,8.9987236328125,0.220086932182312,5.4748992919921875,-1.052786946296692
1698317181777316400,9.00831640625,-0.11593091487884521,5.173449516296387,-0.9286723136901855
1698317181786908700,9.01790869140625,-0.7835135459899902,4.663670063018799,-1.0302109718322754
1698317181796501500,9.02750146484375,-1.309387445449829,3.6097145080566406,-1.2087173461914062
1698317181806095400,9.037095458984375,-1.147153377532959,2.0762624740600586,-0.7683377265930176
1698317181815688400,9.0466884765625,-0.6713727712631226,0.9492092132568359,-0.10689997673034668
1698317181825280500,9.056280517578125,-0.19338583946228027,0.3666563034057617,0.14186763763427734
1698317181834873600,9.06587353515625,-0.4831327199935913,-0.0885477066040039,-0.16614079475402832
1698317181844467500,9.075467529296875,-1.4807624816894531,-0.49366092681884766,-0.4540259838104248
1698317181854060300,9.085060302734375,-2.699159622192383,-0.37408447265625,-0.6619846820831299
1698317181863652600,9.094652587890625,-3.3266820907592773,0.04889488220214844,-0.9830276966094971
1698317181873245700,9.10424560546875,-2.9035115242004395,-0.2031087875366211,-2.245535373687744
1698317181882839600,9.113839599609374,-2.0654804706573486,-1.683333396911621,-3.4533004760742188
1698317181892432400,9.123432373046874,-2.156583309173584,-4.08310604095459,-4.031293869018555
1698317181902024700,9.133024658203125,-0.3890925645828247,-5.794939994812012,-5.078727722167969
1698317181911617500,9.142617431640625,3.0106916427612305,-6.392383575439453,-6.64608097076416
1698317181921211400,9.15221142578125,4.230925559997559,-6.550745010375977,-6.335859298706055
1698317181930804200,9.16180419921875,2.973710060119629,-6.052792549133301,-3.652803659439087
1698317181940396500,9.171396484375,1.237550139427185,-4.472180366516113,-1.5823874473571777
1698317181949989600,9.18098974609375,1.1676876544952393,-2.753009796142578,-1.3276402950286865
1698317181959583500,9.19058349609375,1.8761749267578125,-1.7700281143188477,-2.495753288269043
1698317181969176300,9.20017626953125,3.510542392730713,-2.0638551712036133,-3.5434257984161377
1698317181978768600,9.2097685546875,3.69878888130188,-3.8768081665039062,-2.722261428833008
1698317181988361500,9.219361572265624,1.0804487466812134,-5.168700218200684,-0.2288496494293213
1698317181997955300,9.228955322265625,-1.3911190032958984,-5.316038131713867,1.6624460220336914
1698317182007548200,9.238548095703125,-1.3342957496643066,-4.407257080078125,1.620420217514038
1698317182017140500,9.248140380859375,0.02063465118408203,-2.8830575942993164,0.17523527145385742
1698317182026733600,9.257733642578126,0.8540143370628357,-1.6407585144042969,-0.4463016986846924
1698317182036327200,9.2673271484375,0.9116078019142151,-1.0245885848999023,-0.028713464736938477
1698317182045920300,9.276920166015625,0.6525126695632935,-0.7641525268554688,0.14094042778015137
1698317182055512300,9.28651220703125,0.34820687770843506,-0.40871524810791016,-0.03297019004821777
1698317182065105400,9.29610546875,0.24189043045043945,0.25641822814941406,-0.17585277557373047
1698317182074699300,9.30569921875,0.14641380310058594,0.9811334609985352,-0.49162888526916504
1698317182084292000,9.3152919921875,0.5214547514915466,1.4274959564208984,-0.5931053161621094
1698317182093884400,9.324884521484375,1.0913901329040527,1.6270809173583984,-0.4034990072250366
1698317182103477500,9.3344775390625,1.4441272020339966,1.9388718605041504,-0.05435335636138916
1698317182113071000,9.344071044921876,1.544151782989502,2.3313283920288086,-0.010046601295471191
1698317182122664200,9.353664306640624,1.4767584800720215,2.742232322692871,0.2215937376022339
1698317182132256300,9.36325634765625,1.219854712486267,3.085677146911621,0.6918842792510986
1698317182141849300,9.372849365234375,1.2926338911056519,2.960296154022217,0.7304326295852661
1698317182151443200,9.382443115234375,1.333590030670166,2.4195337295532227,0.42798149585723877
1698317182161036000,9.3920361328125,1.1169772148132324,1.925581455230713,0.6767013072967529
1698317182170628400,9.40162841796875,0.35480016469955444,1.5356311798095703,1.120305061340332
1698317182180221200,9.41122119140625,-0.4455597400665283,1.1658220291137695,1.649888277053833
1698317182189815000,9.42081494140625,-0.8679966926574707,0.9785242080688477,2.102602243423462
1698317182199408000,9.430408203125,-1.0876573324203491,0.9468450546264648,2.331392526626587
1698317182209000200,9.440000244140625,-1.2622172832489014,0.8340549468994141,2.631223201751709
1698317182218593300,9.44959326171875,-1.2050403356552124,0.7910423278808594,3.0412802696228027
1698317182228187100,9.459187255859375,-1.1223968267440796,0.8250017166137695,3.2406485080718994
1698317182237780000,9.468780029296875,-1.1795848608016968,0.9904489517211914,3.0987472534179688
1698317182247372300,9.478372314453125,-1.498557448387146,1.0574331283569336,2.901341676712036
1698317182256965000,9.487965087890625,-1.3868753910064697,1.2288780212402344,3.0384626388549805
1698317182266559000,9.49755908203125,-0.9590063095092773,1.296365737915039,3.26457142829895
1698317182276151800,9.50715185546875,-0.6857338547706604,1.2457304000854492,3.4064183235168457
1698317182285744000,9.516744140625,-0.752123236656189,1.2895946502685547,3.487657070159912
1698317182295337200,9.526337158203125,-0.7846090197563171,1.3678350448608398,3.4868526458740234
1698317182304930800,9.535930908203126,-0.9773272275924683,1.0889272689819336,3.9015724658966064
1698317182314524000,9.54552392578125,-0.9085786938667297,0.6189250946044922,4.457374572753906
1698317182324116000,9.555115966796874,-0.7787420749664307,0.14759063720703125,4.806170463562012
1698317182333709000,9.564708984375,-0.692434549331665,-0.21228313446044922,4.949808120727539
1698317182343303000,9.574302978515625,-0.6651599407196045,-0.3892393112182617,4.881616592407227
1698317182352895700,9.583895751953126,-0.4734879732131958,-0.23842811584472656,4.531827449798584
1698317182362488000,9.593488037109376,0.018892943859100342,-0.10028934478759766,3.53090238571167
1698317182372081000,9.603080810546874,-0.15617352724075317,-0.41284656524658203,1.852059245109558
1698317182381674800,9.6126748046875,-1.7396562099456787,-1.0672483444213867,-0.6692112684249878
1698317182391267800,9.622267822265625,-2.71282696723938,-1.6143379211425781,-3.018052339553833
1698317182400860000,9.63185986328125,-2.0221543312072754,-2.209465980529785,-4.673162460327148
1698317182410453000,9.641452880859376,-0.02142244577407837,-3.68228816986084,-6.737302780151367
1698317182420046600,9.651046630859375,1.8579212427139282,-5.753164291381836,-9.874112129211426
1698317182429639700,9.6606396484375,3.0283281803131104,-7.141732215881348,-12.53569221496582
1698317182439232000,9.67023193359375,2.4424450397491455,-7.540783882141113,-13.646480560302734
1698317182448824800,9.679824951171875,-1.037327766418457,-6.912501335144043,-12.870721817016602
1698317182458418700,9.689418701171874,-3.8229048252105713,-6.083120346069336,-12.29494571685791
1698317182468011500,9.699011474609375,-4.4436540603637695,-5.39279842376709,-9.946514129638672
1698317182477603800,9.708603759765625,-3.70973539352417,-5.047196388244629,-6.475555419921875
1698317182487196700,9.71819677734375,-3.268878936767578,-4.848712921142578,-3.2924435138702393
1698317182496790500,9.72779052734375,-2.330111026763916,-5.045024871826172,-0.5555078983306885
1698317182506383400,9.73738330078125,-0.6923452615737915,-5.651601791381836,2.299006462097168
1698317182515975700,9.7469755859375,0.6924392580986023,-5.492952346801758,3.1442084312438965
1698317182525568800,9.75656884765625,-0.560082197189331,-3.118009567260742,-0.21871519088745117
1698317182535162600,9.76616259765625,-0.8216358423233032,-1.022512435913086,-1.0983407497406006
1698317182544755500,9.77575537109375,0.4004533886909485,0.11116981506347656,-1.3380029201507568
1698317182554347500,9.785347412109376,2.1069302558898926,0.6579933166503906,-1.3760617971420288
1698317182563940600,9.794940673828124,3.4711992740631104,0.9859504699707031,-2.248525619506836
1698317182573534500,9.804534423828125,3.463940143585205,1.4431142807006836,-3.4492080211639404
1698317182583127300,9.814127197265625,2.4589853286743164,1.8789973258972168,-4.059444427490234
1698317182592719600,9.8237197265625,1.050671100616455,2.7066211700439453,-4.107421875
1698317182602312400,9.8333125,-0.34888553619384766,3.2349443435668945,-3.2336838245391846
1698317182611906300,9.84290625,-1.144854187965393,3.4050087928771973,-2.3137049674987793
1698317182621499100,9.8524990234375,-1.109381914138794,3.3851304054260254,-1.4414968490600586
1698317182631091500,9.862091552734375,-0.22233068943023682,3.1953225135803223,-0.4459090232849121
1698317182640684500,9.8716845703125,1.0255348682403564,3.0657076835632324,0.2698373794555664
1698317182650278100,9.881278076171874,1.8281276226043701,2.8584046363830566,0.9055532217025757
1698317182659871200,9.890871337890625,1.9972738027572632,2.951305389404297,1.2119265794754028
1698317182669463300,9.90046337890625,1.5312460660934448,3.0985732078552246,1.935092568397522
1698317182679056400,9.910056396484375,0.6336421370506287,3.3309268951416016,2.268791437149048
1698317182688650000,9.91964990234375,0.013377904891967773,3.503847122192383,2.0788426399230957
1698317182698243000,9.9292431640625,-0.18115651607513428,3.7340831756591797,2.153540849685669
1698317182707835100,9.938835205078124,0.00832068920135498,3.653430938720703,1.718825101852417
1698317182717428200,9.94842822265625,0.33393216133117676,3.2676148414611816,1.608367681503296
1698317182727022000,9.95802197265625,0.7259154915809631,2.816707134246826,1.4856126308441162
1698317182736615000,9.967614990234376,0.9476229548454285,2.4356393814086914,1.6096947193145752
1698317182746207200,9.977207275390626,0.8340843319892883,1.972334861755371,1.8227369785308838
1698317182755800000,9.986800048828124,0.46914142370224,1.7300424575805664,1.9081060886383057
1698317182765394000,9.996393798828125,-0.14653384685516357,1.4756231307983398,1.8917429447174072
1698317182774986800,10.00598681640625,-0.7563420534133911,0.7358798980712891,1.8426125049591064
1698317182784579000,10.0155791015625,-1.3649046421051025,-0.33773326873779297,2.0560073852539062
1698317182794172000,10.025171875,-2.1517491340637207,-1.108994483947754,2.4519290924072266
1698317182803765800,10.034765869140625,-2.733522415161133,-1.654923439025879,3.0469448566436768
1698317182813358600,10.044358642578125,-2.693592071533203,-2.052414894104004,3.1073999404907227
1698317182822951000,10.053950927734375,-2.532351016998291,-2.5025558471679688,3.2748236656188965
1698317182832543700,10.063543701171875,-3.234593629837036,-3.0176429748535156,3.4286794662475586
1698317182842137600,10.0731376953125,-4.301855087280273,-3.233621597290039,3.1594796180725098
1698317182851730700,10.082730712890625,-4.410576343536377,-3.128774642944336,2.849743366241455
1698317182861322800,10.09232275390625,-3.543337106704712,-2.4803714752197266,1.410611629486084
1698317182870915800,10.101915771484375,-2.559791088104248,-1.4725961685180664,0.2956840991973877
1698317182880509400,10.111509521484376,-2.2602944374084473,-0.767364501953125,-0.6089434623718262
1698317182890102500,10.1211025390625,-2.5720715522766113,-0.7463827133178711,-1.5893423557281494
1698317182899694600,10.130694580078124,-2.9004623889923096,-1.2552556991577148,-2.290071725845337
1698317182909287700,10.14028759765625,-3.2121176719665527,-1.9251899719238281,-2.7602641582489014
1698317182918881300,10.14988134765625,-4.043929576873779,-2.4532394409179688,-3.56432843208313
1698317182928474400,10.159474365234376,-4.475017070770264,-3.1792192459106445,-4.639789581298828
1698317182938066400,10.16906640625,-2.160001754760742,-3.8901443481445312,-5.720294952392578
1698317182947659500,10.178659423828124,1.675345540046692,-4.330099105834961,-5.516840934753418
1698317182957253400,10.18825341796875,3.370579242706299,-2.865340232849121,-5.032526016235352
1698317182966846200,10.19784619140625,3.4065256118774414,-0.2496814727783203,-3.966179609298706
1698317182976438300,10.207438232421875,3.5682265758514404,1.662550926208496,-3.4147305488586426
1698317182986031400,10.21703125,3.6968841552734375,3.022550106048584,-3.0917978286743164
1698317182995625200,10.226625244140624,3.476661443710327,3.731912136077881,-2.9956583976745605
1698317183005218000,10.236218017578125,2.7467377185821533,3.895524501800537,-3.05106782913208
1698317183014810400,10.245810302734375,2.3521299362182617,3.7091493606567383,-3.5152902603149414
1698317183024403200,10.2554033203125,1.9717044830322266,3.3233766555786133,-3.931162118911743
1698317183033997000,10.2649970703125,1.6272330284118652,2.674619197845459,-3.74918270111084
1698317183043590000,10.27458984375,1.4666212797164917,1.7596187591552734,-3.5255188941955566
1698317183053182200,10.28418212890625,1.7577190399169922,0.9359102249145508,-3.0307328701019287
1698317183062775000,10.293775146484375,2.0110344886779785,0.4642009735107422,-2.5190417766571045
1698317183072369000,10.303368896484375,1.6775873899459839,0.24358558654785156,-2.4265782833099365
1698317183081961700,10.312961669921876,1.0996569395065308,-0.005839347839355469,-2.5860555171966553
1698317183091554000,10.322553955078124,0.9355358481407166,-0.3910226821899414,-2.6138880252838135
1698317183101147000,10.33214697265625,1.7060046195983887,-0.9768037796020508,-1.7160472869873047
1698317183110740700,10.34174072265625,2.706998109817505,-1.3643970489501953,-0.8275966644287109
1698317183120333600,10.35133349609375,3.092522382736206,-1.528578758239746,0.15934205055236816
1698317183129926000,10.36092578125,2.8774003982543945,-1.1513710021972656,0.8557894229888916
1698317183139518700,10.370518798828124,2.8541531562805176,-0.8467578887939453,1.6440322399139404
1698317183149112600,10.380112548828125,2.918395757675171,-0.45896148681640625,1.2744061946868896
1698317183158705400,10.389705322265625,2.5185718536376953,0.07780838012695312,0.5980269908905029
1698317183168297700,10.399297607421875,1.727341890335083,0.7844629287719727,0.13120532035827637
1698317183177890600,10.408890625,1.082606554031372,1.5534887313842773,-0.16376471519470215
1698317183187484400,10.418484375,0.9519901871681213,2.1612353324890137,-0.5469057559967041
1698317183197077200,10.4280771484375,1.014913558959961,2.4092235565185547,-0.6040036678314209
1698317183206669600,10.437669677734375,1.2940112352371216,2.0954341888427734,-0.24003171920776367
1698317183216262400,10.447262451171875,1.139540672302246,1.2742786407470703,0.3222541809082031
1698317183225856300,10.456856201171876,0.6615945100784302,0.19610309600830078,0.9117605686187744
1698317183235449000,10.466448974609374,0.15978914499282837,-0.8817892074584961,1.5714612007141113
1698317183245041400,10.47604150390625,-0.07379621267318726,-1.6977310180664062,2.3797919750213623
1698317183254634200,10.48563427734375,-0.2798652648925781,-2.2080039978027344,3.3171370029449463
1698317183264228000,10.49522802734375,-0.7135164737701416,-2.309901237487793,3.838306188583374
1698317183273821000,10.504821044921876,-1.1322779655456543,-2.1283063888549805,4.038856029510498
1698317183283413200,10.514413330078124,-1.6614102125167847,-1.5758256912231445,3.939601421356201
1698317183293006000,10.524006103515624,-2.2368431091308594,-0.9044513702392578,3.6162686347961426
1698317183302600000,10.533599853515625,-2.4333105087280273,-0.27736949920654297,3.0735716819763184
1698317183312192800,10.54319287109375,-2.0964503288269043,0.3096637725830078,2.3887484073638916
1698317183321785000,10.55278515625,-1.4249216318130493,0.7607326507568359,1.8917598724365234
1698317183331378000,10.5623779296875,-0.6675849556922913,1.0949745178222656,1.4909462928771973
1698317183340971800,10.5719716796875,-0.17831021547317505,1.2838878631591797,1.2969094514846802
1698317183350564600,10.581564697265625,-0.23092681169509888,1.4949073791503906,1.1541101932525635
1698317183360157000,10.591156982421875,-0.38304299116134644,1.1865949630737305,1.5418506860733032
1698317183369749800,10.600749755859376,-0.6417158842086792,0.9648065567016602,1.752522587776184
1698317183379343600,10.610343505859374,-0.7917977571487427,0.5887899398803711,2.232854127883911
1698317183388936400,10.6199365234375,-0.6207541823387146,0.21515274047851562,2.8571367263793945
1698317183398528800,10.62952880859375,-0.4581100344657898,-0.24103164672851562,3.4740002155303955
1698317183408121600,10.63912158203125,-0.5382893085479736,-0.6736860275268555,3.816054344177246
1698317183417715500,10.648715576171876,-0.7431223392486572,-0.9747858047485352,4.077751159667969
1698317183427308300,10.658308349609374,-1.0108299255371094,-0.9874706268310547,4.026190280914307
1698317183436900600,10.667900634765624,-1.2137517929077148,-0.7636890411376953,3.679638385772705
1698317183446493400,10.677493408203125,-1.3107819557189941,-0.5652961730957031,3.442878484725952
1698317183456087300,10.68708740234375,-1.5437579154968262,-0.4646320343017578,3.410731554031372
1698317183465680100,10.69668017578125,-1.652430534362793,-0.347503662109375,3.1336021423339844
1698317183475272400,10.7062724609375,-1.8361201286315918,-0.4509153366088867,2.807516574859619
1698317183484865300,10.715865234375,-2.376584053039551,-0.9110927581787109,2.0092804431915283
1698317183494459100,10.725459228515625,-2.632948637008667,-1.5152416229248047,1.1620272397994995
1698317183504052000,10.735052001953125,-2.4029743671417236,-1.72412109375,0.30224180221557617
1698317183513644300,10.744644287109375,-1.3668092489242554,-1.4744529724121094,-0.32233309745788574
1698317183523237000,10.754237060546876,-0.006581246852874756,-1.547316551208496,-0.3896207809448242
1698317183532831000,10.7638310546875,0.9677537679672241,-1.9361200332641602,-0.6824085712432861
1698317183542423800,10.773423828125,1.4168298244476318,-2.74554443359375,-0.6543536186218262
1698317183552016000,10.783015869140625,1.5089576244354248,-3.404642105102539,-0.49515795707702637
1698317183561609000,10.79260888671875,1.307119607925415,-3.381776809692383,-0.3344147205352783
1698317183571202800,10.802202880859374,0.33015620708465576,-2.6837263107299805,-1.2518069744110107
1698317183580795600,10.811795654296875,-0.8101587295532227,-2.047848701477051,-2.899989604949951
1698317183590387700,10.8213876953125,-1.5704076290130615,-1.5858383178710938,-4.211661338806152
1698317183599980800,10.830980712890625,-2.193142890930176,-0.9345064163208008,-4.508935928344727
1698317183609574700,10.84057470703125,-2.5755622386932373,-0.0630645751953125,-4.286864757537842
1698317183619167500,10.85016748046875,-2.5663886070251465,1.0584068298339844,-4.259134292602539
1698317183628759600,10.859759521484374,-2.2019901275634766,1.9936132431030273,-4.457158088684082
1698317183638352600,10.8693525390625,-1.575245976448059,2.429265022277832,-4.582733154296875
1698317183647946200,10.8789462890625,-0.4987647533416748,2.323885917663574,-4.081735610961914
1698317183657539300,10.888539306640626,0.5159847736358643,1.689408302307129,-2.857515335083008
1698317183667131400,10.89813134765625,1.4450387954711914,0.5353183746337891,-1.8563367128372192
1698317183676724200,10.90772412109375,2.2123305797576904,-0.6394243240356445,-0.8810054063796997
1698317183686318000,10.917318115234375,2.597815752029419,-1.407334327697754,-0.23789501190185547
1698317183695911000,10.926910888671875,1.892582654953003,-2.0140676498413086,0.33616602420806885
1698317183705503200,10.936503173828125,0.6733523607254028,-2.2727041244506836,0.17698705196380615
1698317183715096000,10.946095947265626,-0.15926969051361084,-2.1485977172851562,0.23694193363189697
1698317183724690000,10.95568994140625,-0.4976677894592285,-1.5393905639648438,0.133092999458313
1698317183734282800,10.96528271484375,-0.5191652774810791,-0.3716564178466797,-0.44673800468444824
1698317183743875000,10.974875,-0.09709954261779785,0.766850471496582,-0.8825744390487671
1698317183753468000,10.984468017578125,0.6659278869628906,1.6790728569030762,-1.1428695917129517
1698317183763061800,10.994061767578126,0.9980570077896118,2.241471290588379,-1.3665679693222046
1698317183772654600,11.003654541015624,1.1795940399169922,2.533511161804199,-1.310665488243103
1698317183782246700,11.01324658203125,1.1349012851715088,2.515382766723633,-0.8523025512695312
1698317183791839700,11.02283984375,1.0103298425674438,2.42940616607666,-0.40013182163238525
1698317183801433600,11.03243359375,0.8538249731063843,2.3430848121643066,0.1009371280670166
1698317183811026400,11.0420263671875,0.7323468923568726,2.373718738555908,0.20280373096466064
1698317183820618500,11.051618408203124,0.6320626735687256,2.3518447875976562,0.7539348602294922
1698317183830211600,11.061211669921875,0.4445381164550781,2.4302706718444824,1.028641939163208
1698317183839805200,11.07080517578125,0.1290726661682129,2.6752114295959473,1.1847776174545288
1698317183849398300,11.080398193359375,-0.32948505878448486,3.0092854499816895,1.4958536624908447
1698317183858990300,11.089990234375,-0.7133368253707886,3.2096481323242188,1.6221330165863037
1698317183868583200,11.099583251953124,-0.7312473058700562,3.271289825439453,1.3447155952453613
1698317183878177000,11.109177001953125,-0.5086747407913208,3.272536277770996,0.9703705906867981
1698317183887769900,11.118769775390625,-0.15555953979492188,3.2462158203125,0.6249402761459351
1698317183897362200,11.128362060546875,0.23692917823791504,3.2469701766967773,0.4015352725982666
1698317183906955000,11.137955078125,0.6526155471801758,3.389200210571289,-0.13390111923217773
1698317183916548900,11.147548828125,1.0609500408172607,3.5077872276306152,-0.4720768928527832
1698317183926141700,11.1571416015625,1.4072062969207764,3.7079224586486816,-0.8980023860931396
1698317183935734000,11.166734130859375,1.6497505903244019,3.726888656616211,-0.9818823337554932
1698317183945326800,11.176326904296875,1.8799501657485962,3.551124095916748,-0.9854915142059326
1698317183954920700,11.185920654296876,1.9110139608383179,3.1767048835754395,-0.5655124187469482
1698317183964513500,11.195513427734374,1.423283576965332,2.8122329711914062,-0.12463295459747314
1698317183974105600,11.205105712890624,0.7216922044754028,2.4748268127441406,0.34852755069732666
1698317183983698700,11.21469873046875,0.00013577938079833984,2.1671500205993652,0.8024721145629883
1698317183993292300,11.224292236328125,-0.7411545515060425,1.8296666145324707,1.1699836254119873
1698317184002885400,11.233885498046876,-1.1182483434677124,1.3533620834350586,1.4971904754638672
1698317184012477400,11.2434775390625,-0.8918784856796265,0.9424629211425781,1.5452284812927246
1698317184022070500,11.253070556640624,-0.40569746494293213,0.7430410385131836,1.1405651569366455
1698317184031664000,11.2626640625,0.11453568935394287,0.5853281021118164,0.6218132972717285
1698317184041257000,11.272257080078125,0.5014758110046387,0.6074028015136719,-0.012642383575439453
1698317184050849300,11.281849365234375,0.3879128694534302,0.9487514495849609,-0.5533320903778076
1698317184060442000,11.291442138671876,-0.08352482318878174,1.4710683822631836,-1.2160084247589111
1698317184070036000,11.301035888671874,-0.6913176774978638,1.9817814826965332,-1.5723471641540527
1698317184079628800,11.31062890625,-1.347833514213562,2.3654212951660156,-1.8573849201202393
1698317184089220900,11.320220947265625,-1.9990442991256714,2.6548166275024414,-2.0614073276519775
1698317184098814000,11.32981396484375,-2.319143295288086,2.6495585441589355,-1.9528075456619263
1698317184108407800,11.33940771484375,-2.119558811187744,2.287177085876465,-0.9473035335540771
1698317184118000600,11.349000732421874,-1.5979033708572388,1.947373390197754,0.1857079267501831
1698317184127592700,11.3585927734375,-1.0655186176300049,1.8914380073547363,0.9551292657852173
1698317184137185800,11.368185791015625,-0.4822816848754883,1.971200942993164,1.2194855213165283
1698317184146779400,11.377779296875,-0.23693430423736572,2.0251898765563965,0.23267030715942383
1698317184156372200,11.387372314453126,-0.5478079319000244,1.8499970436096191,-1.371284008026123
1698317184165964500,11.396964599609374,-1.157293677330017,0.6011257171630859,-2.6866610050201416
1698317184175557400,11.406557373046875,-0.5061514377593994,-1.3609237670898438,-4.278964042663574
1698317184185151200,11.416151123046875,2.1527810096740723,-2.2558650970458984,-6.991021156311035
1698317184194744000,11.425744140625,5.643514633178711,-3.4907045364379883,-7.602334976196289
1698317184204336000,11.435336181640626,6.42352294921875,-6.120307922363281,-4.012218952178955
1698317184213929200,11.44492919921875,3.259721279144287,-8.019351959228516,1.0332865715026855
1698317184223523000,11.454523193359375,-0.7163937091827393,-7.722046852111816,4.826757907867432
1698317184233116000,11.464115966796875,-3.122053623199463,-6.508095741271973,4.081727027893066
1698317184242708000,11.4737080078125,-1.87069571018219,-7.611067771911621,0.5402684211730957
1698317184252301000,11.483301025390626,3.1123132705688477,-11.129422187805176,-1.1080615520477295
1698317184261894700,11.492894775390624,2.840052366256714,-12.759428977966309,2.262809991836548
1698317184271487500,11.502487548828125,-3.3878235816955566,-11.703071594238281,6.581341743469238
1698317184281079800,11.512079833984375,-5.867805480957031,-7.648017883300781,6.473728179931641
1698317184290672600,11.521672607421875,-2.851370096206665,-3.053990364074707,1.6681718826293945
1698317184300266500,11.5312666015625,0.6857955455780029,-0.49708080291748047,-0.6076171398162842
1698317184309859300,11.540859375,3.151122570037842,0.6748886108398438,-1.3057129383087158
1698317184319451400,11.550451416015624,3.5883677005767822,1.0281734466552734,-0.41651487350463867
1698317184329044500,11.56004443359375,2.307399272918701,1.1875324249267578,0.3403029441833496
1698317184338638300,11.569638427734375,0.643602192401886,1.3825044631958008,0.6146893501281738
1698317184348231200,11.579231201171876,-0.056513190269470215,1.814462661743164,0.053424835205078125
1698317184357823200,11.5888232421875,0.4619266986846924,2.2308502197265625,-0.4311850070953369
1698317184367416300,11.598416259765624,1.3993134498596191,2.881296157836914,-0.3079872131347656
1698317184377010000,11.608010009765625,2.1650004386901855,3.647404670715332,0.3793141841888428
1698317184386602800,11.617602783203125,2.6099677085876465,4.397011756896973,0.8309483528137207
1698317184396195000,11.627195068359375,2.6906514167785645,4.912309646606445,1.0302903652191162
1698317184405788000,11.636787841796876,2.394054889678955,4.980558395385742,1.080586314201355
1698317184415381800,11.6463818359375,1.534388780593872,4.547849655151367,1.2681233882904053
1698317184424974600,11.655974609375,0.462931752204895,3.783090114593506,1.5189695358276367
1698317184434566700,11.665566650390625,-0.6811114549636841,3.0125555992126465,1.5994970798492432
1698317184444159700,11.67515966796875,-1.8442429304122925,2.384517192840576,1.5502967834472656
1698317184453753300,11.68475341796875,-2.183427333831787,1.8719844818115234,1.2274378538131714
1698317184463346400,11.694346435546874,-1.2628300189971924,1.5176811218261719,0.8906445503234863
1698317184472938500,11.7039384765625,0.5079339146614075,1.6082515716552734,0.5510799884796143
1698317184482531300,11.71353125,1.6934335231781006,2.0878329277038574,0.20506048202514648
1698317184492125200,11.723125244140626,1.9015599489212036,2.750053882598877,0.1693711280822754
1698317184501718000,11.732718017578126,1.4342684745788574,3.351132869720459,0.5134595632553101
1698317184511310000,11.74231005859375,0.42808544635772705,3.8452234268188477,0.70942223072052
1698317184520903200,11.751903076171875,-0.9155409336090088,3.776003837585449,0.8703144788742065
1698317184530497000,11.7614970703125,-2.1710801124572754,3.6448183059692383,2.184689998626709
1698317184540089900,11.77108984375,-1.403069257736206,4.405185699462891,3.778757095336914
1698317184549682000,11.780681884765626,3.22379732131958,4.1205153465271,5.117198944091797
1698317184559275000,11.79027490234375,0.7286198139190674,-1.7885866165161133,0.6412333250045776
1698317184568868600,11.79986865234375,-2.9671292304992676,-1.2558364868164062,-0.3117673397064209
1698317184578461400,11.80946142578125,-3.571953296661377,-2.1298179626464844,-5.285909652709961
1698317184588053800,11.8190537109375,-1.8229913711547852,-2.428248405456543,0.21433067321777344
1698317184597646600,11.828646484375,5.12796688079834,-2.150153160095215,4.036938667297363
1698317184607240400,11.838240478515624,14.728265762329102,5.756368160247803,8.35515308380127
1698317184616833300,11.847833251953125,7.257527828216553,7.782418251037598,-1.7096747159957886
1698317184626425300,11.85742529296875,-0.8468645811080933,-2.2717885971069336,-9.872234344482422
1698317184636018400,11.867018310546875,-4.042087554931641,-10.906071662902832,-10.432100296020508
1698317184645612000,11.876612060546876,-5.633940696716309,-12.397244453430176,-4.592465400695801
1698317184655204900,11.886204833984374,-5.099426746368408,-9.955411911010742,-1.7218568325042725
1698317184664797200,11.895797119140624,-2.4449527263641357,-9.186270713806152,-0.7607954740524292
1698317184674390000,11.90539013671875,-1.4190092086791992,-7.820594787597656,-2.1782150268554688
1698317184683984000,11.91498388671875,-1.5177850723266602,-7.033418655395508,-2.4252302646636963
1698317184693576700,11.92457666015625,-1.2642185688018799,-6.8291730880737305,-1.5622340440750122
1698317184703168800,11.934168701171876,-1.1790719032287598,-6.771327018737793,-0.2296839952468872
1698317184712761900,11.943761962890624,-0.6249053478240967,-6.7431182861328125,0.7427603602409363
1698317184722355500,11.95335546875,0.18003082275390625,-6.138979911804199,1.2215576171875
1698317184731948300,11.9629482421875,-0.01870274543762207,-4.71832275390625,0.5537380576133728
1698317184741542000,11.9725419921875,-0.4887104034423828,-3.1210012435913086,0.3943329453468323
1698317184751134700,11.982134765625,-0.4828379154205322,-1.6550769805908203,0.46819621324539185
1698317184760728600,11.991728515625,-0.2867298126220703,-0.21875572204589844,0.5994135737419128
1698317184770321400,12.0013212890625,-0.2821164131164551,1.2086687088012695,0.11569666862487793
1698317184779913500,12.01091357421875,-0.4393930435180664,1.9218950271606445,-0.1936420202255249
1698317184789506600,12.020506591796876,-0.38193368911743164,2.7087979316711426,-0.15998733043670654
1698317184799100200,12.03010009765625,-0.18450117111206055,3.7207541465759277,-0.19675207138061523
1698317184808693000,12.03969287109375,-0.17693710327148438,4.766435623168945,-0.022353529930114746
1698317184818285300,12.049285400390625,-0.3946561813354492,5.394228458404541,0.27603042125701904
1698317184827878100,12.058878173828125,-0.3982253074645996,5.64012336730957,0.21147608757019043
1698317184837472000,12.068471923828126,-0.7228488922119141,5.701733589172363,0.44175606966018677
1698317184847064800,12.07806494140625,-0.946850061416626,5.848494529724121,0.6303965449333191
1698317184856657000,12.087656982421874,-0.7347316741943359,6.027716636657715,0.6917678713798523
1698317184866249700,12.097249755859375,-0.3481459617614746,6.196871757507324,0.6087475419044495
1698317184875843600,12.106843505859375,0.18981468677520752,6.211370468139648,0.7658829092979431
1698317184885436400,12.1164365234375,0.8489971160888672,5.695582389831543,0.8054232001304626
1698317184895028700,12.12602880859375,1.2395153045654297,4.674005508422852,1.015296220779419
1698317184904621600,12.13562158203125,1.3136975765228271,3.7272629737854004,1.3194059133529663
1698317184914215400,12.14521533203125,1.1489503383636475,3.1904077529907227,1.4030663967132568
1698317184923808300,12.154808349609375,0.5478178262710571,3.4321818351745605,1.2452912330627441
1698317184933400300,12.164400390625,0.21505296230316162,3.9574360847473145,0.4719783067703247
