time,seconds_elapsed,z,y,x
1697724230036364000,0.076364013671875,0.3900874853134155,-0.7638124823570251,-0.23980000615119934
1697724230045783000,0.085782958984375,0.45980000495910645,-0.34966251254081726,-0.028462499380111694
1697724230055201800,0.095201904296875,0.4096125066280365,-0.07356250286102295,0.12430000305175781
1697724230064620800,0.104620849609375,0.2032250016927719,-0.1541374921798706,0.15358750522136688
1697724230074039600,0.11403955078125,-0.08153750002384186,-0.5805249810218811,0.06558749824762344
1697724230083458600,0.12345849609375,-0.33563750982284546,-1.2500125169754028,-0.06627500057220459
1697724230092877300,0.132877197265625,-0.49197500944137573,-2.0355498790740967,-0.22151249647140503
1697724230102296000,0.142296142578125,-0.5517874956130981,-2.8065125942230225,-0.3913249969482422
1697724230111715000,0.151715087890625,-0.5335000157356262,-3.280474901199341,-0.5879499912261963
1697724230121134000,0.161134033203125,-0.42239999771118164,-3.2621874809265137,-0.7712374925613403
1697724230130552800,0.170552734375,-0.2451625019311905,-2.6929373741149902,-0.8775249719619751
1697724230139971600,0.1799716796875,-0.011824999935925007,-1.7033499479293823,-0.8225250244140625
1697724230149390300,0.189390380859375,0.2593249976634979,-0.8322874903678894,-0.6649500131607056
1697724230158809300,0.198809326171875,0.5684249997138977,-0.2055625021457672,-0.495137482881546
1697724230168228000,0.20822802734375,0.7052375078201294,0.10119999945163727,-0.4413749873638153
1697724230177647000,0.217647216796875,0.6136624813079834,-0.013749999925494194,-0.6221874952316284
1697724230187066000,0.227066162109375,0.48785001039505005,-0.34113749861717224,-0.8762875199317932
1697724230196484900,0.23648486328125,0.40232500433921814,-0.4094749987125397,-0.9972875118255615
1697724230205903600,0.245903564453125,0.34485000371932983,-0.18837499618530273,-1.0008624792099
1697724230215322600,0.255322509765625,0.35227498412132263,0.030249999836087227,-0.9593374729156494
1697724230224741400,0.264741455078125,0.4926624894142151,0.02419999986886978,-0.8640499711036682
1697724230234160400,0.274160400390625,0.7199500203132629,-0.19689999520778656,-0.6539499759674072
1697724230243579100,0.2835791015625,0.8421875238418579,-0.6342874765396118,-0.31308749318122864
1697724230252998000,0.292997802734375,0.7431874871253967,-1.0729124546051025,0.10106249898672104
1697724230262417000,0.3024169921875,0.5013250112533569,-1.2854875326156616,0.49939998984336853
1697724230271836000,0.3118359375,0.24227499961853027,-1.538349986076355,0.8035500049591064
1697724230281254700,0.321254638671875,-0.004537499975413084,-1.8046875,0.997837483882904
1697724230290673400,0.33067333984375,-0.21834999322891235,-2.171262502670288,0.9928874969482422
1697724230300092400,0.340092529296875,-0.2843500077724457,-2.5792250633239746,0.8353124856948853
1697724230309511200,0.34951123046875,-0.12430000305175781,-2.6684625148773193,0.6740249991416931
1697724230318930200,0.35893017578125,0.11893749982118607,-2.4595999717712402,0.4479750096797943
1697724230328349000,0.368348876953125,0.31927499175071716,-2.281125068664551,0.18177500367164612
1697724230337768000,0.377767822265625,0.47437500953674316,-2.049025058746338,0.0668250024318695
1697724230347186700,0.387186767578125,0.5451874732971191,-2.039262533187866,0.09501250088214874
1697724230356605400,0.39660546875,0.5489000082015991,-2.3153624534606934,0.17682500183582306
1697724230366024400,0.4060244140625,0.6173750162124634,-2.618412494659424,0.26358750462532043
1697724230375443200,0.415443115234375,0.7994250059127808,-2.98856258392334,0.29534998536109924
1697724230384862500,0.424862548828125,1.0045750141143799,-3.551762580871582,0.2513499855995178
1697724230394281200,0.43428125,1.1903375387191772,-3.9793875217437744,0.22082500159740448
1697724230403700000,0.443699951171875,1.4834874868392944,-4.143012523651123,0.3148750066757202
1697724230413118700,0.45311865234375,1.9588249921798706,-4.080725193023682,0.4334000051021576
1697724230422537500,0.462537353515625,2.3117876052856445,-3.880387544631958,0.39916250109672546
1697724230431956700,0.471956787109375,2.179924964904785,-3.6873373985290527,0.05224999785423279
1697724230441375200,0.481375244140625,1.8243499994277954,-3.3404250144958496,-0.5159000158309937
1697724230450794200,0.490794189453125,1.275862455368042,-2.2921249866485596,-0.8530499935150146
1697724230460213200,0.500213134765625,0.6124249696731567,-1.0044374465942383,-1.043624997138977
1697724230469632000,0.509632080078125,0.28380000591278076,0.15853749215602875,-1.2526249885559082
1697724230479050800,0.51905078125,0.23622499406337738,1.049262523651123,-1.467537522315979
1697724230488469800,0.5284697265625,0.3546124994754791,1.7785625457763672,-1.779112458229065
1697724230497888500,0.537888427734375,0.6624749898910522,2.2464749813079834,-2.111449956893921
1697724230507307300,0.547307373046875,1.1988625526428223,0.8476874828338623,-2.4987874031066895
1697724230516726300,0.556726318359375,2.3655500411987305,-1.6581125259399414,-2.688124895095825
1697724230526145000,0.56614501953125,3.793762445449829,-3.0667998790740967,-2.900700092315674
1697724230535564000,0.57556396484375,4.256862640380859,-3.6873373985290527,-3.0607500076293945
1697724230544983000,0.584983154296875,4.7821125984191895,-4.465587615966797,-2.8615124225616455
1697724230554401800,0.59440185546875,5.682600021362305,-5.333075046539307,-2.171262502670288
1697724230563820500,0.603820556640625,6.311662673950195,-6.113662242889404,-1.030287504196167
1697724230573239600,0.613239501953125,5.935462474822998,-6.357999801635742,0.23058749735355377
1697724230582658300,0.622658203125,4.008812427520752,-5.8400373458862305,1.4767500162124634
1697724230592077000,0.6320771484375,2.250737428665161,-6.818624973297119,2.217050075531006
1697724230601496000,0.64149609375,1.829300045967102,-8.609700202941895,2.9402999877929688
1697724230610914800,0.650914794921875,2.4132626056671143,-9.186237335205078,4.027649879455566
1697724230620333800,0.660333740234375,3.163325071334839,-8.5595121383667,4.910950183868408
1697724230629752600,0.669752685546875,3.7254250049591064,-7.43435001373291,5.062475204467773
1697724230639171600,0.679171630859375,4.229912281036377,-6.714812278747559,4.550562381744385
1697724230648590300,0.68859033203125,4.767537593841553,-6.230949878692627,3.7955498695373535
1697724230658009000,0.698009033203125,5.232975006103516,-5.926799774169922,3.3276374340057373
1697724230667428000,0.707427978515625,5.568887233734131,-5.591987609863281,3.377687454223633
1697724230676847000,0.71684716796875,5.746124744415283,-4.9249749183654785,3.773550033569336
1697724230686266000,0.72626611328125,5.604362487792969,-4.015962600708008,4.347750186920166
1697724230695684900,0.735684814453125,5.037449836730957,-2.691699981689453,4.557849884033203
1697724230705103600,0.745103515625,4.342387676239014,-1.8034499883651733,4.300037384033203
1697724230714522400,0.7545224609375,3.644712448120117,-1.8657374382019043,4.456512451171875
1697724230723941000,0.763941162109375,2.7993624210357666,-2.039262533187866,4.741137504577637
1697724230733360400,0.7733603515625,2.0369250774383545,-1.643399953842163,4.6690874099731445
1697724230742779000,0.78277880859375,1.5202000141143799,-0.6710000038146973,3.488924980163574
1697724230752198000,0.792197998046875,1.0938124656677246,0.5286874771118164,1.4266999959945679
1697724230761617000,0.801616943359375,0.7919999957084656,1.561037540435791,-0.5244249701499939
1697724230771035600,0.81103564453125,0.5134249925613403,2.256237506866455,-1.6227749586105347
1697724230780454400,0.820454345703125,-0.18535000085830688,2.197662591934204,-1.4492499828338623
1697724230789873200,0.829873046875,-1.2152249813079834,1.622225046157837,-0.908050000667572
1697724230799292200,0.839292236328125,-1.8761874437332153,0.48358750343322754,-0.7004249691963196
1697724230808711200,0.848711181640625,-2.0044748783111572,-0.546287477016449,-0.8127624988555908
1697724230818130000,0.8581298828125,-2.0374748706817627,-0.8750500082969666,-0.7699999809265137
1697724230827549000,0.867548828125,-2.182812452316284,-1.026437520980835,-0.5696625113487244
1697724230836967700,0.8769677734375,-2.4491500854492188,-1.2366750240325928,-0.304562509059906
1697724230846386400,0.886386474609375,-2.5811500549316406,-1.4870624542236328,-0.007699999958276749
1697724230855805200,0.89580517578125,-2.6629624366760254,-1.6763999462127686,-0.05403750017285347
1697724230865224400,0.905224365234375,-2.7362499237060547,-1.8011125326156616,-0.3606624901294708
1697724230874643500,0.9146435546875,-2.7325375080108643,-1.957450032234192,-0.7614749670028687
1697724230884062200,0.924062255859375,-2.5982000827789307,-1.9292625188827515,-0.8505749702453613
1697724230893481000,0.93348095703125,-2.2512874603271484,-1.4480124711990356,-0.2532750070095062
1697724230902899700,0.942899658203125,-1.6684249639511108,-1.214674949645996,0.41263750195503235
1697724230912318500,0.952318359375,-1.3019875288009644,-1.0411499738693237,0.6117374897003174
1697724230921737500,0.961737548828125,-0.7423624992370605,-0.6122875213623047,0.9660750031471252
1697724230931156200,0.97115625,-0.39063748717308044,-0.6465250253677368,1.3289375305175781
1697724230940575000,0.980574951171875,-0.19882500171661377,-0.9836750030517578,1.697849988937378
1697724230949994000,0.989993896484375,-0.19016249477863312,-1.1083874702453613,1.9299499988555908
1697724230959412700,0.999412841796875,-0.3209249973297119,-1.1632499694824219,1.9874249696731567
1697724230968831700,1.008831787109375,-0.5469750165939331,-1.226775050163269,1.8921375274658203
1697724230978250800,1.018250732421875,-0.7302625179290771,-1.2879624366760254,1.657562494277954
1697724230987669500,1.02766943359375,-0.8951249718666077,-1.1156749725341797,1.3520375490188599
1697724230997088300,1.037088134765625,-0.8486499786376953,-0.9800999760627747,1.1321749687194824
1697724231006507000,1.046507080078125,-0.692312479019165,-0.8970500230789185,1.0869375467300415
1697724231015926000,1.055926025390625,-0.4577375054359436,-0.7112874984741211,1.2897499799728394
1697724231025344800,1.0653447265625,-0.0705375000834465,-0.41923749446868896,1.4815624952316284
1697724231034763800,1.074763671875,0.35708749294281006,-0.09308750182390213,1.5463249683380127
1697724231044182500,1.0841826171875,0.36932501196861267,0.3161124885082245,1.6611374616622925
1697724231053601500,1.0936015625,-0.10958749800920486,1.0810250043869019,2.0667624473571777
1697724231063020300,1.103020263671875,-0.10958749800920486,2.3075249195098877,1.9996625185012817
1697724231072439000,1.11243896484375,0.21656249463558197,3.523162364959717,1.3094124794006348
1697724231081858000,1.121858154296875,0.6209499835968018,4.223175048828125,0.7375500202178955
1697724231091276800,1.13127685546875,0.9459999799728394,3.972787380218506,0.595924973487854
1697724231100695600,1.140695556640625,1.3076249361038208,3.337399959564209,0.6912124752998352
1697724231110114600,1.150114501953125,1.4273874759674072,2.649625062942505,0.8817874789237976
1697724231119533300,1.159533203125,1.4077249765396118,2.105949878692627,0.9477875232696533
1697724231128952000,1.1689521484375,1.2563375234603882,1.867799997329712,0.9673125147819519
1697724231138371000,1.17837109375,0.8542875051498413,1.985087513923645,0.897599995136261
1697724231147789800,1.187789794921875,0.27403751015663147,2.1768999099731445,0.7852625250816345
1697724231157208600,1.19720849609375,-0.21092499792575836,1.9764249324798584,0.5824499726295471
1697724231166627800,1.2066279296875,-0.47244998812675476,1.569700002670288,0.5311625003814697
1697724231176046600,1.216046630859375,-0.595787525177002,0.9820249676704407,0.7070249915122986
1697724231185465300,1.22546533203125,-0.5897374749183655,0.5446375012397766,0.8963624835014343
1697724231194884400,1.23488427734375,-0.5347374677658081,0.20982499420642853,1.0528374910354614
1697724231204302800,1.244302734375,-0.23416249454021454,0.2563000023365021,0.9635999798774719
1697724231213722000,1.25372216796875,-0.06435000151395798,0.44811248779296875,0.7229750156402588
1697724231223140900,1.263140869140625,-0.13887499272823334,0.682687520980835,0.5249750018119812
1697724231232559900,1.272559814453125,-0.39668750762939453,0.8207374811172485,0.4371125102043152
1697724231241978600,1.281978515625,-0.775362491607666,0.8597875237464905,0.3979249894618988
1697724231251397400,1.2913974609375,-1.204224944114685,0.9612625241279602,0.34540000557899475
1697724231260816100,1.300816162109375,-1.6598999500274658,1.0590250492095947,0.23430000245571136
1697724231270235000,1.31023486328125,-2.157099962234497,1.1433124542236328,0.0448249988257885
1697724231279654000,1.31965380859375,-2.5737249851226807,1.1578874588012695,-0.113987497985363
1697724231289072600,1.32907275390625,-2.5309624671936035,1.597749948501587,-0.46213749051094055
1697724231298491400,1.338491455078125,-2.614150047302246,2.0913748741149902,-0.9398124814033508
1697724231307910700,1.34791064453125,-2.725250005722046,2.693624973297119,-1.5225374698638916
1697724231317329400,1.357329345703125,-2.881587505340576,3.581737518310547,-2.4217875003814697
1697724231326748200,1.366748046875,-3.1284000873565674,4.369750022888184,-3.328325033187866
1697724231336167000,1.3761669921875,-3.0062999725341797,4.696037292480469,-4.146862506866455
1697724231345586000,1.3855859375,-2.603149890899658,4.213412284851074,-4.5487751960754395
1697724231355005000,1.3950048828125,-1.9311875104904175,2.7266249656677246,-4.355724811553955
1697724231364423400,1.40442333984375,-0.6385499835014343,0.7840250134468079,-3.89386248588562
1697724231373842400,1.413842529296875,0.903237521648407,-1.4712499380111694,-3.289137363433838
1697724231383261400,1.423261474609375,2.1517374515533447,-2.9690375328063965,-2.304500102996826
1697724231392680200,1.43268017578125,3.109562397003174,-3.6740000247955322,-1.7010124921798706
1697724231402099000,1.442098876953125,3.698474884033203,-3.2499499320983887,-1.613012433052063
1697724231411518000,1.45151806640625,3.961099863052368,-2.225024938583374,-2.1394999027252197
1697724231420936700,1.460936767578125,4.035624980926514,-1.1499124765396118,-3.2378499507904053
1697724231430355700,1.470355712890625,3.546949863433838,-0.5036625266075134,-3.696000099182129
1697724231439774200,1.479774169921875,2.530550003051758,-0.7467625141143799,-2.548837423324585
1697724231449193200,1.489193115234375,1.5617250204086304,-1.3612500429153442,-0.5086125135421753
1697724231458612000,1.498612060546875,1.0375750064849854,-1.4187250137329102,1.5133249759674072
1697724231468031000,1.508031005859375,0.828712522983551,-1.2402499914169312,2.0484750270843506
1697724231477450000,1.517449951171875,0.9092875123023987,-0.8200500011444092,1.685612440109253
1697724231486868700,1.52686865234375,1.2831499576568604,-0.5915250182151794,1.0491249561309814
1697724231496287700,1.536287841796875,1.9184000492095947,-0.2703250050544739,0.40287500619888306
1697724231505706500,1.54570654296875,2.299687385559082,0.2502500116825104,-0.006462499964982271
1697724231515125200,1.555125244140625,2.003925085067749,1.0015499591827393,-0.33137500286102295
1697724231524544300,1.564544189453125,1.9196374416351318,2.038712501525879,-0.9777625203132629
1697724231533963300,1.57396337890625,2.016162395477295,2.5701498985290527,-1.5103000402450562
1697724231543382000,1.583382080078125,0.6356624960899353,3.18711256980896,-1.0168124437332153
1697724231552800800,1.59280078125,-0.9781749844551086,3.4315874576568604,-0.7455250024795532
1697724231562219500,1.602219482421875,-1.5218499898910522,3.1382999420166016,-0.570900022983551
1697724231571638500,1.611638427734375,-1.6464250087738037,2.5383875370025635,-0.37290000915527344
1697724231581057300,1.621057373046875,-1.614662528038025,1.6955125331878662,-0.20432500541210175
1697724231590476000,1.63047607421875,-1.377750039100647,0.05953750014305115,-0.32532501220703125
1697724231599895000,1.63989501953125,-0.9684125185012817,-1.965975046157837,-0.6551874876022339
1697724231609314000,1.64931396484375,-0.13529999554157257,-3.372187376022339,-0.9373375177383423
1697724231618732800,1.65873291015625,0.9655249714851379,-3.89386248588562,-1.043624997138977
1697724231628151800,1.66815185546875,2.0784499645233154,-3.71304988861084,-0.9373375177383423
1697724231637570600,1.677570556640625,3.075462579727173,-3.40271258354187,-0.7992874979972839
1697724231646989300,1.6869892578125,3.708237409591675,-2.716175079345703,-0.6001874804496765
1697724231656408300,1.696408203125,3.8548123836517334,-1.0118625164031982,-0.04675000160932541
1697724231665827300,1.705827392578125,3.7204749584198,1.1261249780654907,0.5079249739646912
1697724231675246000,1.71524609375,3.740000009536743,2.154900074005127,0.2806375026702881
1697724231684665000,1.7246650390625,4.129812240600586,2.609337568283081,-0.40232500433921814
1697724231694083600,1.73408349609375,5.019162654876709,2.7949624061584473,-1.4872000217437744
1697724231703502600,1.743502685546875,5.753412246704102,2.6606249809265137,-2.5573625564575195
1697724231712921600,1.752921630859375,6.304375171661377,1.823799967765808,-2.9140374660491943
1697724231722340400,1.76234033203125,6.4596123695373535,-0.01251249946653843,-2.591599941253662
1697724231731759400,1.77175927734375,6.5047125816345215,-1.5542999505996704,-2.1212124824523926
1697724231741178000,1.78117822265625,6.702712535858154,-2.338599920272827,-1.7143499851226807
1697724231750596900,1.790596923828125,7.131437301635742,-2.47293758392334,-1.3967249393463135
1697724231760015600,1.800015625,7.298912525177002,-2.893275022506714,-1.0876250267028809
1697724231769434600,1.8094345703125,7.6617751121521,-4.275012493133545,-0.6649500131607056
1697724231778853600,1.818853515625,8.807700157165527,-6.004899978637695,-0.2788499891757965
1697724231788272400,1.8282724609375,9.501662254333496,-7.314587593078613,0.29163751006126404
1697724231797691400,1.83769140625,9.0337495803833,-8.053787231445312,0.7778375148773193
1697724231807110100,1.847110107421875,7.6115875244140625,-7.467350006103516,0.08524999767541885
1697724231816529000,1.85652880859375,5.499312400817871,-3.832812547683716,-2.4375998973846436
1697724231825948000,1.865947998046875,3.9098124504089355,-1.7448749542236328,-4.1431498527526855
1697724231835366700,1.87536669921875,2.986224889755249,-0.43271249532699585,-5.386837482452393
1697724231844785700,1.88478564453125,2.5660250186920166,0.6741625070571899,-6.079562664031982
1697724231854204200,1.8942041015625,2.284975051879883,1.614799976348877,-6.293375015258789
1697724231863623400,1.90362353515625,1.9893499612808228,2.099900007247925,-6.088087558746338
1697724231873042000,1.9130419921875,1.6802500486373901,2.61291241645813,-5.427124977111816
1697724231882461000,1.9224609375,1.1951500177383423,3.3948750495910645,-4.215199947357178
1697724231891880000,1.9318798828125,0.4866124987602234,3.576925039291382,-2.8627500534057617
1697724231901298700,1.941298583984375,-0.05211250111460686,2.9306750297546387,-1.6362500190734863
1697724231910717400,1.950717529296875,-0.3526875078678131,2.009424924850464,-0.495137482881546
1697724231920136200,1.96013623046875,-0.5432624816894531,1.2006499767303467,0.4358749985694885
1697724231929555200,1.96955517578125,-0.7082625031471252,0.516587495803833,0.9453125
1697724231938974000,1.978973876953125,-0.8596500158309937,0.20006249845027924,0.989312469959259
1697724231948393000,1.98839306640625,-0.9843624830245972,0.8817874789237976,0.4199250042438507
1697724231957812000,1.99781201171875,-0.9451749920845032,2.710675001144409,-0.6392375230789185
1697724231967230700,2.007230712890625,-0.775362491607666,4.263462543487549,-1.562962532043457
1697724231976649500,2.0166494140625,-0.4357374906539917,4.901187419891357,-2.236025094985962
1697724231986068200,2.026068115234375,-0.05953750014305115,4.004549980163574,-2.849412441253662
1697724231995487200,2.0354873046875,0.13598750531673431,2.0974249839782715,-3.314850091934204
1697724232004906200,2.04490625,0.20074999332427979,0.5605875253677368,-3.648287534713745
1697724232014325000,2.054324951171875,0.21656249463558197,0.11948750168085098,-3.955049991607666
1697724232023744000,2.063743896484375,0.368087500333786,0.22206249833106995,-4.2213873863220215
1697724232033162800,2.073162841796875,0.44632500410079956,0.7572125196456909,-4.211625099182129
1697724232042581500,2.08258154296875,0.3913249969482422,1.5305124521255493,-3.972100019454956
1697724232052000300,2.092000244140625,0.28132501244544983,2.0278499126434326,-3.6532375812530518
1697724232061419300,2.101419189453125,0.17503750324249268,1.9911375045776367,-3.4784750938415527
1697724232070838000,2.110838134765625,0.050462499260902405,1.3534125089645386,-3.7070000171661377
1697724232080257000,2.120257080078125,-0.06806249916553497,0.9783124923706055,-4.160200119018555
1697724232089675800,2.12967578125,-0.14506250619888306,0.6814500093460083,-4.697824954986572
1697724232099094500,2.139094482421875,-0.22439999878406525,0.5189250111579895,-5.126687526702881
1697724232108513500,2.148513427734375,-0.21216249465942383,0.7669749855995178,-5.230499744415283
1697724232117932300,2.157932373046875,-0.13529999554157257,0.9355499744415283,-5.116787433624268
1697724232127351300,2.167351318359375,-0.03258749842643738,0.791450023651123,-4.881112575531006
1697724232136770000,2.17677001953125,0.15798750519752502,0.5714499950408936,-4.508487701416016
1697724232146188800,2.186188720703125,0.3656125068664551,0.3283500075340271,-4.139437675476074
1697724232155607800,2.19560791015625,0.5159000158309937,0.16706250607967377,-3.7705249786376953
1697724232165026800,2.20502685546875,0.6148999929428101,0.18424999713897705,-3.325850009918213
1697724232174445600,2.214445556640625,0.6723750233650208,0.2843500077724457,-2.8799374103546143
1697724232183864300,2.2238642578125,0.7138999700546265,0.5043500065803528,-2.4473624229431152
1697724232193283300,2.233283447265625,0.6759499907493591,0.4713499844074249,-2.082162380218506
1697724232202702000,2.2427021484375,0.5721374750137329,0.4651624858379364,-1.742537498474121
1697724232212120800,2.252120849609375,0.4536125063896179,0.3137750029563904,-1.4895374774932861
1697724232221539800,2.261539794921875,0.34127500653266907,0.14272500574588776,-1.2831499576568604
1697724232230958600,2.27095849609375,0.26551249623298645,0.15248750150203705,-1.0583374500274658
1697724232240377600,2.280377685546875,0.19222499430179596,0.12196250259876251,-0.8567624688148499
1697724232249796400,2.28979638671875,0.14093749225139618,0.13296249508857727,-0.6514750123023987
1697724232259215000,2.299215087890625,0.09693749994039536,0.18906250596046448,-0.4218499958515167
1697724232268633900,2.3086337890625,0.0859375,0.2733500003814697,-0.18603749573230743
1697724232278052900,2.318052978515625,0.03698749840259552,0.19277499616146088,-0.02969999983906746
1697724232287471900,2.327471923828125,-0.018012499436736107,0.22948749363422394,0.1083500012755394
1697724232296890400,2.336890380859375,-0.06187500059604645,0.25753748416900635,0.22453749179840088
1697724232306309400,2.346309326171875,-0.09129999577999115,0.2648249864578247,0.31363749504089355
1697724232315728100,2.35572802734375,-0.13763749599456787,0.21230000257492065,0.3796375095844269
1697724232325147100,2.365147216796875,-0.19263750314712524,0.09501250088214874,0.4419249892234802
1697724232334566100,2.374566162109375,-0.2391124963760376,-0.06503749638795853,0.5176874995231628
1697724232343985000,2.38398486328125,-0.2525874972343445,-0.16513749957084656,0.5592125058174133
1697724232353404000,2.39340380859375,-0.24268749356269836,-0.16885000467300415,0.5384500026702881
1697724232362822700,2.40282275390625,-0.1999250054359436,-0.1223749965429306,0.504212498664856
1697724232372241400,2.412241455078125,-0.219587504863739,0.027912499383091927,0.46639999747276306
1697724232381660200,2.42166015625,-0.2733500003814697,0.13653749227523804,0.477400004863739
1697724232391079200,2.4310791015625,-0.2854500114917755,-0.45223748683929443,0.49939998984336853
1697724232400498000,2.440497802734375,-0.3404499888420105,-1.226775050163269,0.5531625151634216
1697724232409917000,2.4499169921875,-0.29768750071525574,-1.2561999559402466,0.7132124900817871
1697724232419335700,2.459335693359375,-0.33563750982284546,-0.9299125075340271,0.5677375197410583
1697724232428754700,2.468754638671875,-0.3148750066757202,-0.7455250024795532,0.346637487411499
1697724232438173400,2.47817333984375,-0.17682500183582306,-1.0753874778747559,0.2793999910354614
1697724232447592200,2.48759228515625,-0.009349999949336052,-1.5457749366760254,0.30016249418258667
1697724232457011200,2.49701123046875,-0.1498750001192093,-1.6153500080108643,0.5934500098228455
1697724232466430200,2.50643017578125,-0.4431625008583069,-1.3539625406265259,1.0674124956130981
1697724232475849000,2.515848876953125,-0.5444999933242798,-1.2830125093460083,1.5305124521255493
1697724232485267700,2.525267822265625,-0.512737512588501,-1.1914374828338623,1.9421875476837158
1697724232494686700,2.534686767578125,-0.4772624969482422,-1.0826749801635742,2.3490500450134277
1697724232504105500,2.54410546875,-0.48826250433921814,-0.9201499819755554,2.7607250213623047
1697724232513524500,2.5535244140625,-0.5115000009536743,-0.8017625212669373,3.056349992752075
1697724232522943000,2.56294287109375,-0.49802500009536743,-0.7515749931335449,3.228637456893921
1697724232532362000,2.572362060546875,-0.47244998812675476,-0.7980499863624573,3.4289748668670654
1697724232541780700,2.58178076171875,-0.46626248955726624,-0.7480000257492065,3.586549997329712
1697724232551199700,2.59119970703125,-0.4675000011920929,-0.7052375078201294,3.672075033187866
1697724232560618800,2.60061865234375,-0.46873748302459717,-0.6734749674797058,3.7417874336242676
1697724232570037500,2.61003759765625,-0.4492124915122986,-0.6392375230789185,3.8418874740600586
1697724232579456300,2.619456298828125,-0.40892499685287476,-0.5989499688148499,3.97017502784729
1697724232588875000,2.628875,-0.40039998292922974,-0.5475249886512756,4.136412620544434
1697724232598294000,2.6382939453125,-0.4479750096797943,-0.43271249532699585,4.352562427520752
1697724232607713000,2.647713134765625,-0.4296875,-0.3436124920845032,4.542037487030029
1697724232617131800,2.6571318359375,-0.36739999055862427,-0.28366249799728394,4.660562515258789
1697724232626550800,2.66655078125,-0.254925012588501,-0.20913749933242798,4.691087245941162
1697724232635969500,2.675969482421875,-0.1303499937057495,-0.10903749614953995,4.6263251304626465
1697724232645388300,2.68538818359375,-0.0057749999687075615,-0.06627500057220459,4.439324855804443
1697724232654807300,2.694807373046875,0.1592250019311905,-0.15056249499320984,4.125412464141846
1697724232664226000,2.70422607421875,0.3656125068664551,-0.06627500057220459,3.7563624382019043
1697724232673644800,2.713644775390625,0.47066250443458557,0.013199999928474426,3.245687484741211
1697724232683063600,2.7230634765625,0.4926624894142151,0.0742499977350235,2.6874375343322754
1697724232692482600,2.732482666015625,0.567187488079071,-0.10408750176429749,2.2280499935150146
1697724232701901600,2.741901611328125,0.6661875247955322,-0.4620000123977661,1.868899941444397
1697724232711320300,2.7513203125,0.636900007724762,-1.2402499914169312,1.207937479019165
1697724232720739000,2.760739013671875,0.767662525177002,-1.2171499729156494,1.0221749544143677
1697724232730158000,2.770157958984375,0.9594749808311462,-0.987387478351593,1.0808874368667603
1697724232739576800,2.779576904296875,0.9813374876976013,-0.8127624988555908,1.1126500368118286
1697724232748995600,2.78899560546875,0.9057124853134155,-0.7748125195503235,1.085837483406067
1697724232758414300,2.798414306640625,0.8237624764442444,-0.868862509727478,1.032075047492981
1697724232767833300,2.807833251953125,0.7786625027656555,-0.9495750069618225,1.0051250457763672
1697724232777252400,2.81725244140625,0.7089499831199646,-0.9641500115394592,0.953837513923645
1697724232786671000,2.826671142578125,0.633187472820282,-0.9629124999046326,0.8633624911308289
1697724232796089900,2.83608984375,0.570900022983551,-1.0106250047683716,0.7583125233650208
1697724232805508900,2.8455087890625,0.5256624817848206,-1.0876250267028809,0.6569749712944031
1697724232814928000,2.854927978515625,0.4731374979019165,-1.1609125137329102,0.5409250259399414
1697724232824346600,2.8643466796875,0.40603750944137573,-1.2280124425888062,0.4676375091075897
1697724232833765400,2.873765380859375,0.3583250045776367,-1.301437497138977,0.47616249322891235
1697724232843184400,2.883184326171875,0.31679999828338623,-1.3820124864578247,0.5299249887466431
1697724232852603100,2.89260302734375,0.2777499854564667,-1.4528249502182007,0.612975001335144
1697724232862022000,2.90202197265625,0.24227499961853027,-1.4700125455856323,0.7033125162124634
1697724232871441000,2.91144091796875,0.2032250016927719,-1.4895374774932861,0.7925499677658081
1697724232880859600,2.920859619140625,0.15070000290870667,-1.595824956893921,0.8597875237464905
1697724232890278700,2.930278564453125,0.03341250121593475,-1.6202999353408813,0.9171249866485596
1697724232899697400,2.939697509765625,-0.07906249910593033,-1.5787750482559204,0.9575499892234802
1697724232909116200,2.9491162109375,-0.14739999175071716,-1.4687750339508057,0.9770749807357788
1697724232918535200,2.95853515625,-0.20611250400543213,-1.2952499389648438,1.0100749731063843
1697724232927954000,2.967953857421875,-0.24639999866485596,-1.1743874549865723,1.0845999717712402
1697724232937372700,2.97737255859375,-0.2586374878883362,-1.1401499509811401,1.19941246509552
1697724232946791700,2.986791748046875,-0.2293500006198883,-1.1511499881744385,1.303225040435791
1697724232956210700,2.996210693359375,-0.2316875010728836,-1.1279125213623047,1.3667500019073486
1697724232965629400,3.00562939453125,-0.2964499890804291,-1.0289125442504883,1.369225025177002
1697724232975048200,3.015048095703125,-0.35997501015663147,-0.8713374733924866,1.3239874839782715
1697724232984467000,3.024467041015625,-0.38692501187324524,-0.706475019454956,1.2457499504089355
1697724232993886000,3.033885986328125,-0.35997501015663147,-0.589187502861023,1.1614625453948975
1697724233003305000,3.043304931640625,-0.3172124922275543,-0.5695250034332275,1.1126500368118286
1697724233012723700,3.0527236328125,-0.30621248483657837,-0.7027624845504761,1.085837483406067
1697724233022142700,3.062142822265625,-0.2891624867916107,-0.851812481880188,1.0711250305175781
1697724233031561500,3.0715615234375,-0.27211248874664307,-0.9398124814033508,1.032075047492981
1697724233040980200,3.080980224609375,-0.2733500003814697,-0.9788625240325928,0.9660750031471252
1697724233050399200,3.090399169921875,-0.28187498450279236,-0.9898625016212463,0.9160249829292297
1697724233059818000,3.09981787109375,-0.2671625018119812,-0.9581000208854675,0.9025499820709229
1697724233069236700,3.10923681640625,-0.2525874972343445,-0.8848124742507935,0.8988375067710876
1697724233078655500,3.118655517578125,-0.22439999878406525,-0.8225250244140625,0.8732625246047974
1697724233088074500,3.128074462890625,-0.19634999334812164,-0.7198125123977661,0.8548374772071838
1697724233097493200,3.1374931640625,-0.18658749759197235,-0.6208124756813049,0.8365499973297119
1697724233106912300,3.146912353515625,-0.219587504863739,-0.49623748660087585,0.81454998254776
1697724233116331000,3.1563310546875,-0.26963749527931213,-0.3606624901294708,0.7767375111579895
1697724233125749800,3.165749755859375,-0.3221625089645386,-0.21285000443458557,0.6825500130653381
1697724233135168800,3.175168701171875,-0.3172124922275543,-0.08703749626874924,0.5274500250816345
1697724233144587800,3.184587890625,-0.24034999310970306,-0.002749999985098839,0.2868250012397766
1697724233154006500,3.194006591796875,-0.05953750014305115,0.17572499811649323,0.01677500084042549
1697724233163425500,3.203425537109375,0.08951249718666077,0.4212999939918518,-0.256850004196167
1697724233172844300,3.21284423828125,0.1775124967098236,0.5714499950408936,-0.47066250443458557
1697724233182263000,3.222262939453125,0.2679874897003174,0.6741625070571899,-0.562375009059906
1697724233191681800,3.231681884765625,0.3852750062942505,0.7046874761581421,-0.6099500060081482
1697724233201100800,3.241100830078125,0.3815625011920929,0.6204000115394592,-0.7382375001907349
1697724233210519800,3.250519775390625,0.27527499198913574,0.5898749828338623,-0.9545249938964844
1697724233219938300,3.259938232421875,0.22522500157356262,0.7279250025749207,-1.184149980545044
1697724233229357600,3.269357666015625,0.23498749732971191,0.9209749698638916,-1.372249960899353
1697724233238776300,3.2787763671875,0.24956250190734863,1.0247875452041626,-1.5115374326705933
1697724233248195000,3.288195068359375,0.24956250190734863,0.9832624793052673,-1.6398249864578247
1697724233257613800,3.29761376953125,0.23127499222755432,0.8977375030517578,-1.80840003490448
1697724233267032600,3.307032470703125,0.20679999887943268,0.9954999685287476,-2.022212505340576
1697724233276451600,3.31645166015625,0.16279999911785126,1.3021249771118164,-2.265312433242798
1697724233285870300,3.325870361328125,0.07851249724626541,1.6967500448226929,-2.5035998821258545
1697724233295289300,3.335289306640625,0.02722499892115593,2.0803749561309814,-2.648937463760376
1697724233304708000,3.3447080078125,0.03341250121593475,2.4260499477386475,-2.7589375972747803
1697724233314126800,3.354126953125,0.12251249700784683,2.8048624992370605,-2.7064125537872314
1697724233323546000,3.363546142578125,0.27156248688697815,3.1798250675201416,-2.4253625869750977
1697724233332964900,3.37296484375,0.38032498955726624,3.5464000701904297,-1.9441125392913818
1697724233342383600,3.382383544921875,0.3535124957561493,3.771212577819824,-1.388200044631958
1697724233351802400,3.39180224609375,0.21656249463558197,3.691737413406372,-0.9275749921798706
1697724233361221000,3.40122119140625,0.010174999944865704,3.374112367630005,-0.6246625185012817
1697724233370640000,3.410639892578125,-0.19511249661445618,2.8817250728607178,-0.47561249136924744
1697724233380059000,3.420058837890625,-0.35887500643730164,2.3075249195098877,-0.4059000015258789
1697724233389477600,3.4294775390625,-0.4259749948978424,1.6673250198364258,-0.3656125068664551
1697724233398896400,3.438896484375,-0.40892499685287476,1.0088374614715576,-0.3656125068664551
1697724233408315100,3.448315185546875,-0.37716248631477356,0.42858749628067017,-0.37056249380111694
1697724233417734400,3.457734375,-0.36739999055862427,0.013199999928474426,-0.38032498955726624
1697724233427153400,3.4671533203125,-0.3404499888420105,-0.2531374990940094,-0.40837499499320984
1697724233436572200,3.476572265625,-0.32945001125335693,-0.18837499618530273,-0.41813749074935913
1697724233445991000,3.485990966796875,-0.4235000014305115,1.631987452507019,-0.777287483215332
1697724233455409700,3.49540966796875,-0.6630250215530396,4.328225135803223,-1.4687750339508057
1697724233464828700,3.50482861328125,-0.7741249799728394,4.873137474060059,-2.0002124309539795
1697724233474247400,3.514247314453125,-0.7180249691009521,3.375349998474121,-2.002687454223633
1697724233483666400,3.52366650390625,-0.6275500059127808,1.260599970817566,-1.779112458229065
1697724233493085200,3.533085205078125,-0.6165499687194824,-0.056512501090765,-1.7058249711990356
1697724233502504200,3.542504150390625,-0.6557375192642212,-0.32284998893737793,-1.7498250007629395
1697724233511923000,3.5519228515625,-0.6887375116348267,0.08277499675750732,-1.7888749837875366
1697724233521341700,3.561341796875,-0.6495500206947327,0.6264500021934509,-1.7925875186920166
1697724233530760700,3.5707607421875,-0.5750250220298767,1.0063624382019043,-1.779112458229065
1697724233540179200,3.58017919921875,-0.5164499878883362,0.984499990940094,-1.8280625343322754
1697724233549598200,3.58959814453125,-0.6055499911308289,0.6142125129699707,-1.9025875329971313
1697724233559017000,3.599016845703125,-0.5945500135421753,0.322299987077713,-1.9379249811172485
1697724233568436000,3.60843603515625,-0.5152124762535095,-0.002749999985098839,-1.9416375160217285
1697724233577855000,3.61785498046875,-0.4039750099182129,-0.281187504529953,-1.917162537574768
1697724233587273700,3.627273681640625,-0.27211248874664307,-0.40466248989105225,-1.8756375312805176
1697724233596692500,3.6366923828125,-0.1658249944448471,-0.49018749594688416,-1.8573499917984009
1697724233606111200,3.646111328125,-0.12787500023841858,-0.5207124948501587,-1.8243499994277954
1697724233615530200,3.6555302734375,-0.16706250607967377,-0.4657124876976013,-1.6618249416351318
1697724233624949200,3.66494921875,-0.2316875010728836,-0.46213749051094055,-1.371150016784668
1697724233634368300,3.6743681640625,-0.2623499929904938,-0.466949999332428,-0.9495750069618225
1697724233643787000,3.683787109375,-0.2536875009536743,-0.5634750127792358,-0.5366625189781189
1697724233653205800,3.693205810546875,-0.20487499237060547,-0.650237500667572,-0.18108749389648438
1697724233662624500,3.70262451171875,-0.14506250619888306,-0.7785249948501587,0.09501250088214874
1697724233672043500,3.71204345703125,-0.14135000109672546,-0.9006249904632568,0.3111625015735626
1697724233681462000,3.7214619140625,-0.16940000653266907,-0.991100013256073,0.49816250801086426
1697724233690881000,3.730881103515625,-0.17916250228881836,-1.0471999645233154,0.6837875247001648
1697724233700300000,3.740300048828125,-0.15839999914169312,-1.114437460899353,0.8830249905586243
1697724233709718800,3.74971875,-0.12540000677108765,-1.1486749649047852,1.0736000537872314
1697724233719137500,3.759137451171875,-0.14135000109672546,-1.0069124698638916,1.2494624853134155
1697724233728556500,3.768556640625,-0.12306249886751175,-0.7613375186920166,1.4205124378204346
1697724233737975600,3.7779755859375,0.018699999898672104,-0.6342874765396118,1.5328500270843506
1697724233747394300,3.787394287109375,0.23622499406337738,-0.7272375226020813,1.5085124969482422
1697724233756813000,3.79681298828125,0.3973749876022339,-0.7137625217437744,1.4265625476837158
1697724233766231800,3.806231689453125,0.37908750772476196,-0.7002875208854675,1.4462250471115112
1697724233775650600,3.815650634765625,0.13722500205039978,-0.7980499863624573,1.6293749809265137
1697724233785069800,3.82506982421875,-0.1755875051021576,-0.6184750199317932,1.8383749723434448
1697724233794488600,3.834488525390625,-0.2513499855995178,-0.4596624970436096,1.9397125244140625
1697724233803907300,3.8439072265625,-0.04977500066161156,-0.48399999737739563,1.9043749570846558
1697724233813326300,3.853326416015625,0.10546249896287918,-0.44123750925064087,1.7906625270843506
1697724233822745000,3.8627451171875,0.11151249706745148,-0.4217124879360199,1.6843750476837158
1697724233832163800,3.872163818359375,0.113987497985363,-0.7613375186920166,1.7626124620437622
1697724233841582600,3.88158251953125,0.15798750519752502,-1.0961500406265259,1.9837124347686768
1697724233851001600,3.891001708984375,0.2055625021457672,-1.1499124765396118,2.2035748958587646
1697724233860420400,3.90042041015625,0.2190375030040741,-1.0411499738693237,2.3490500450134277
1697724233869839000,3.909839111328125,0.20679999887943268,-0.8237624764442444,2.4015750885009766
1697724233879258000,3.919258056640625,0.17379999160766602,-0.44618749618530273,2.3282876014709473
1697724233888677000,3.928677001953125,0.1970375031232834,-0.043037500232458115,2.147475004196167
1697724233898095600,3.938095703125,0.27156248688697815,0.15729999542236328,1.9214249849319458
1697724233907515000,3.947514892578125,0.3583250045776367,0.09748750180006027,1.7088500261306763
1697724233916933600,3.95693359375,0.490325003862381,-0.24461250007152557,1.5377999544143677
1697724233926352400,3.966352294921875,0.5758500099182129,-0.7930999994277954,1.3582249879837036
1697724233935771100,3.975771240234375,0.6319500207901001,-1.1939125061035156,1.1566499471664429
1697724233945190000,3.98518994140625,0.645425021648407,-1.3942500352859497,0.9343125224113464
1697724233954609000,3.99460888671875,0.6197124719619751,-1.4907749891281128,0.7497875094413757
1697724233964027600,4.004027587890625,0.553849995136261,-1.5615874528884888,0.5970249772071838
1697724233973447000,4.013447021484375,0.4170374870300293,-1.642300009727478,0.47244998812675476
1697724233982865700,4.02286572265625,0.33880001306533813,-1.6923500299453735,0.42721250653266907
1697724233992284400,4.032284423828125,0.2997500002384186,-1.7155874967575073,0.4016374945640564
1697724234001703200,4.041703125,0.2825624942779541,-1.709399938583374,0.36134999990463257
1697724234011122000,4.051121826171875,0.28008750081062317,-1.6325374841690063,0.33563750982284546
1697724234020541000,4.060541015625,0.23732499778270721,-1.560349941253662,0.33316248655319214
1697724234029960000,4.0699599609375,0.15674999356269836,-1.5750625133514404,0.32711249589920044
1697724234039378700,4.079378662109375,0.06146249920129776,-1.733875036239624,0.30992498993873596
1697724234048797700,4.088797607421875,-0.03382499888539314,-1.9599249362945557,0.2574000060558319
1697724234058216400,4.098216552734375,-0.08635000139474869,-2.0527374744415283,0.23663750290870667
1697724234067635200,4.10763525390625,-0.11811249703168869,-2.0369250774383545,0.2793999910354614
1697724234077054000,4.117053955078125,-0.14739999175071716,-1.9306374788284302,0.36134999990463257
1697724234086473000,4.126472900390625,-0.1755875051021576,-1.7326375246047974,0.4883999824523926
1697724234095892000,4.13589208984375,-0.20487499237060547,-1.4810124635696411,0.6252124905586243
1697724234105310700,4.145310791015625,-0.2293500006198883,-1.2952499389648438,0.7204999923706055
1697724234114729700,4.154729736328125,-0.2488749921321869,-1.201200008392334,0.7645000219345093
1697724234124148500,4.1641484375,-0.2451625019311905,-1.126675009727478,0.770550012588501
1697724234133567200,4.173567138671875,-0.25011250376701355,-1.0496749877929688,0.7583125233650208
1697724234142986200,4.182986328125,-0.28187498450279236,-0.9886249899864197,0.7449749708175659
1697724234152405000,4.192405029296875,-0.31968748569488525,-0.9581000208854675,0.7302625179290771
1697724234161823700,4.20182373046875,-0.31363749504089355,-0.9300500154495239,0.7387874722480774
1697724234171242800,4.21124267578125,-0.27211248874664307,-0.9543874859809875,0.7522624731063843
1697724234180661500,4.22066162109375,-0.2293500006198883,-1.0326249599456787,0.7583125233650208
1697724234190080300,4.230080322265625,-0.2134000062942505,-1.118149995803833,0.7570750117301941
1697724234199499000,4.2394990234375,-0.16706250607967377,-1.1901999711990356,0.7240750193595886
1697724234208918000,4.24891796875,-0.0668250024318695,-1.1743874549865723,0.6520249843597412
1697724234218336800,4.258336669921875,-0.010587500408291817,-1.0253374576568604,0.551925003528595
1697724234227756000,4.267756103515625,0.011412499472498894,-0.7430499792098999,0.45787498354911804
1697724234237174500,4.277174560546875,0.04441250115633011,-0.4596624970436096,0.4016374945640564
1697724234246593300,4.28659326171875,0.09569999575614929,-0.34485000371932983,0.3343999981880188
1697724234256012500,4.296012451171875,0.12498749792575836,-0.23237499594688416,0.3111625015735626
1697724234265431300,4.305431396484375,0.13846249878406525,-0.09803749620914459,0.3148750066757202
1697724234274850000,4.31485009765625,0.1200374960899353,-0.018562499433755875,0.3198249936103821
1697724234284268800,4.324268798828125,0.043175000697374344,-0.014987500384449959,0.3526875078678131
1697724234293687800,4.333687744140625,-0.03506249934434891,-0.07727500051259995,0.4199250042438507
1697724234303106800,4.34310693359375,-0.0448249988257885,-0.12361250072717667,0.5029749870300293
1697724234312525600,4.352525634765625,0.0016499999910593033,-0.14685000479221344,0.5531625151634216
1697724234321944600,4.361944580078125,0.021175000816583633,-0.1518000066280365,0.5531625151634216
1697724234331363000,4.371363037109375,0.012649999931454659,-0.19580000638961792,0.49197500944137573
1697724234340782000,4.380781982421875,0.0004124999977648258,-0.28984999656677246,0.40287500619888306
1697724234350200800,4.390200927734375,0.0004124999977648258,-0.38871249556541443,0.3185875117778778
1697724234359619800,4.399619873046875,0.003987499978393316,-0.4852375090122223,0.22687499225139618
1697724234369038600,4.40903857421875,0.03451250120997429,-0.5182374715805054,0.10711249709129333
1697724234378457300,4.418457275390625,0.06393750011920929,-0.3741374909877777,-0.013749999925494194
1697724234387876400,4.42787646484375,0.04675000160932541,-0.028324998915195465,-0.18232500553131104
1697724234397294800,4.437294921875,0.030937500298023224,0.4298250079154968,-0.39861249923706055
1697724234406713900,4.4467138671875,0.07851249724626541,0.8855000138282776,-0.6026625037193298
1697724234416132900,4.4561328125,0.1652749925851822,1.282462477684021,-0.7260000109672546
1697724234425552000,4.4655517578125,0.1909874975681305,1.589224934577942,-0.763949990272522
1697724234434970400,4.474970458984375,0.1457500010728836,1.8468999862670898,-0.7174749970436096
1697724234444389400,4.484389404296875,0.082225002348423,2.0009000301361084,-0.6124249696731567
1697724234453808000,4.49380810546875,0.08346249908208847,1.9948500394821167,-0.4768500030040741
1697724234463227100,4.50322705078125,0.13103750348091125,1.8078500032424927,-0.368087500333786
1697724234472646000,4.51264599609375,0.15674999356269836,1.448699951171875,-0.3301374912261963
1697724234482064600,4.522064697265625,0.16169999539852142,1.0162625312805176,-0.368087500333786
1697724234491483600,4.531483642578125,0.16279999911785126,0.6019750237464905,-0.4694249927997589
1697724234500902700,4.540902587890625,0.1714625060558319,0.31130000948905945,-0.6319500207901001
1697724234510321400,4.5503212890625,0.16898749768733978,0.3993000090122223,-0.8933374881744385
1697724234519740200,4.559740234375,0.13722500205039978,1.2226500511169434,-1.318487524986267
1697724234529159000,4.569158935546875,0.07851249724626541,2.237950086593628,-1.8523999452590942
1697724234538578000,4.578577880859375,0.010174999944865704,3.2103500366210938,-2.427837371826172
1697724234547996700,4.58799658203125,-0.06311249732971191,4.036312580108643,-3.0057499408721924
1697724234557415400,4.59741552734375,-0.08153750002384186,4.146174907684326,-3.1975624561309814
1697724234566834700,4.606834716796875,-0.013062499463558197,3.937312364578247,-2.769937515258789
1697724234576253400,4.61625341796875,0.16403749585151672,4.080312252044678,-1.8646374940872192
1697724234585672200,4.625672119140625,0.24227499961853027,4.285462379455566,-0.7944750189781189
1697724234595091000,4.635091064453125,-0.0008249999955296516,4.179174900054932,0.11329999566078186
1697724234604510000,4.644510009765625,-0.4016374945640564,3.9751250743865967,0.81826251745224
1697724234613928700,4.6539287109375,-0.775362491607666,3.7919750213623047,1.303225040435791
1697724234623347700,4.66334765625,-1.0063624382019043,3.242112398147583,1.427799940109253
1697724234632766500,4.672766357421875,-1.103987455368042,2.3564748764038086,1.3202749490737915
1697724234642185200,4.682185302734375,-1.1272250413894653,1.435225009918213,1.0979374647140503
1697724234651604200,4.691604248046875,-1.0588874816894531,0.5373499989509583,0.6972625255584717
1697724234661023000,4.70102294921875,-0.8768374919891357,-0.20432500541210175,0.17806249856948853
1697724234670441700,4.710441650390625,-0.6715499758720398,-0.5574250221252441,-0.35089999437332153
1697724234679860700,4.71986083984375,-0.5432624816894531,-0.4314749836921692,-0.9250999689102173
1697724234689279500,4.729279541015625,-0.49445000290870667,1.7296124696731567,-2.0112125873565674
1697724234698698200,4.7386982421875,-0.5262125134468079,4.242700099945068,-3.180375099182129
1697724234708117000,4.748116943359375,-0.5542625188827515,4.307462692260742,-3.8743374347686768
1697724234717536000,4.757535888671875,-0.4992625117301941,1.701562523841858,-3.8620998859405518
1697724234726955000,4.766955078125,-0.4394499957561493,-0.46447500586509705,-3.4541375637054443
1697724234736373800,4.776373779296875,-0.45045000314712524,-1.126675009727478,-3.014275074005127
1697724234745792800,4.785792724609375,-0.42473748326301575,-0.7503374814987183,-2.559837579727173
1697724234755211500,4.79521142578125,-0.38940000534057617,-0.052799999713897705,-2.0845000743865967
1697724234764630300,4.80463037109375,-0.357637494802475,0.5043500065803528,-1.6923500299453735
1697724234774049000,4.814049072265625,-0.36739999055862427,0.6582124829292297,-1.4614875316619873
1697724234783468000,4.823468017578125,-0.3722124993801117,0.533637523651123,-1.4346749782562256
1697724234792886800,4.83288671875,-0.3392125070095062,0.3161124885082245,-1.5750625133514404
1697724234802305800,4.842305908203125,-0.3051125109195709,0.13296249508857727,-1.8096375465393066
1697724234811724500,4.851724609375,-0.2623499929904938,-0.17008750140666962,-2.0356874465942383
1697724234821143600,4.8611435546875,-0.2611125111579895,-0.6257625222206116,-2.225024938583374
1697724234830562300,4.870562255859375,-0.12911249697208405,-0.8860499858856201,-2.238499879837036
1697724234839981000,4.87998095703125,-0.004537499975413084,-0.9226250052452087,-2.0674500465393066
1697724234849399800,4.88939990234375,-0.01677500084042549,-0.855525016784668,-1.725350022315979
1697724234858818600,4.898818603515625,-0.06929999589920044,-0.8225250244140625,-1.309962511062622
1697724234868237600,4.908237548828125,-0.11329999566078186,-0.8285750150680542,-0.903237521648407
1697724234877656600,4.917656494140625,-0.16706250607967377,-0.7552874684333801,-0.5219500064849854
1697724234887075600,4.92707568359375,-0.16940000653266907,-0.6245250105857849,-0.17627499997615814
1697724234896494300,4.936494384765625,-0.12540000677108765,-0.5244249701499939,0.12553749978542328
1697724234905913000,4.9459130859375,-0.08387500047683716,-0.5647125244140625,0.3746874928474426
1697724234915332000,4.95533203125,-0.05458749830722809,-0.7052375078201294,0.5774999856948853
1697724234924750800,4.964750732421875,-0.03506249934434891,-0.807812511920929,0.7375500202178955
1697724234934169900,4.974169921875,-0.0032999999821186066,-0.7723374962806702,0.8853625059127808
1697724234943588600,4.983588623046875,0.10546249896287918,-0.35337498784065247,1.0136499404907227
1697724234953007600,4.993007568359375,0.32161250710487366,-0.06751249730587006,1.1236499547958374
1697724234962426400,5.00242626953125,0.6014249920845032,-0.8322874903678894,1.303225040435791
1697724234971845000,5.01184521484375,0.8189499974250793,-1.5615874528884888,1.4889874458312988
1697724234981264000,5.021263916015625,0.6209499835968018,-1.5995374917984009,1.6245625019073486
1697724234990682600,5.0306826171875,0.16169999539852142,-1.5090625286102295,1.8836125135421753
1697724235000101600,5.0401015625,-0.3051125109195709,-0.8665249943733215,2.2757625579833984
1697724235009520400,5.049520263671875,-0.3086875081062317,-0.1798499971628189,2.5921499729156494
1697724235018939100,5.058939208984375,-0.030112499371170998,0.03396249935030937,2.7449123859405518
1697724235028358100,5.068358154296875,0.12251249700784683,0.2733500003814697,2.7546749114990234
1697724235037777000,5.07777685546875,0.11646249890327454,0.5152124762535095,2.666675090789795
1697724235047196000,5.08719580078125,0.13846249878406525,0.3003000020980835,2.5909125804901123
1697724235056614700,5.09661474609375,0.19456249475479126,-0.28366249799728394,2.5641000270843506
1697724235066033400,5.106033447265625,0.2410375028848648,-0.658762514591217,2.5078625679016113
1697724235075452400,5.115452392578125,0.28751251101493835,-0.4339500069618225,2.3208625316619873
1697724235084871200,5.12487109375,0.3057999908924103,0.010724999941885471,2.086287498474121
1697724235094290000,5.1342900390625,0.3863750100135803,0.07906249910593033,1.9336625337600708
1697724235103709000,5.143708984375,0.5501375198364258,-0.27761250734329224,1.872612476348877
1697724235113127700,5.153127685546875,0.6624749898910522,-0.5427125096321106,1.789425015449524
1697724235122546700,5.162546630859375,0.7358999848365784,-0.6575250029563904,1.5805624723434448
1697724235131965700,5.171965576171875,0.7504749894142151,-0.7625749707221985,1.3129874467849731
1697724235141384200,5.18138427734375,0.7774249911308289,-0.9849125146865845,1.033174991607666
1697724235150803200,5.19080322265625,0.8177124857902527,-1.1914374828338623,0.7547374963760376
1697724235160222000,5.200221923828125,0.8604750037193298,-1.3539625406265259,0.4969249963760376
1697724235169641000,5.209640869140625,0.8727124929428101,-1.5078250169754028,0.25616249442100525
1697724235179059700,5.219059814453125,0.8237624764442444,-1.642300009727478,0.03753750026226044
1697724235188478700,5.228478759765625,0.7431874871253967,-1.7595875263214111,-0.1615625023841858
1697724235197897700,5.237897705078125,0.6699000000953674,-1.874400019645691,-0.2983750104904175
1697724235207316200,5.247316162109375,0.5561875104904175,-2.014925003051758,-0.3656125068664551
1697724235216735200,5.2567353515625,0.43656250834465027,-2.2177374362945557,-0.4230875074863434
1697724235226154000,5.266154052734375,0.3632749915122986,-2.309312582015991,-0.39489999413490295
1697724235235573000,5.275572998046875,0.28751251101493835,-2.3410749435424805,-0.3240875005722046
1697724235244991700,5.28499169921875,0.20074999332427979,-2.3667874336242676,-0.2642749845981598
1697724235254410500,5.294410400390625,0.11893749982118607,-2.385075092315674,-0.1775124967098236
1697724235263829500,5.30382958984375,-0.010587500408291817,-2.3838374614715576,-0.06751249730587006
1697724235273248500,5.31324853515625,-0.16335000097751617,-2.2335500717163086,0.05829999968409538
1697724235282667300,5.322667236328125,-0.31363749504089355,-1.9562125205993652,0.20858749747276306
1697724235292086000,5.3320859375,-0.44068750739097595,-1.730162501335144,0.39063748717308044
1697724235301504800,5.3415048828125,-0.4894999861717224,-1.6202999353408813,0.5689749717712402
1697724235310923800,5.350923828125,-0.5152124762535095,-1.5445375442504883,0.7290250062942505
1697724235320342500,5.360342529296875,-0.5444999933242798,-1.4577749967575073,0.8633624911308289
1697724235329761300,5.36976123046875,-0.5847874879837036,-1.388200044631958,0.9366499781608582
1697724235339180000,5.379179931640625,-0.6202625036239624,-1.314774990081787,0.9696499705314636
1697724235348599000,5.38859912109375,-0.639787495136261,-1.2293875217437744,0.9758374691009521
1697724235358018000,5.39801806640625,-0.6422625184059143,-1.1241999864578247,0.9660750031471252
1697724235367436800,5.407436767578125,-0.6434999704360962,-1.0058125257492065,0.94159996509552
1697724235376855800,5.416855712890625,-0.6520249843597412,-0.8615750074386597,0.9158874750137329
1697724235386274300,5.4262744140625,-0.6520249843597412,-0.7174749970436096,0.892787516117096
1697724235395693300,5.435693359375,-0.5945500135421753,-0.6257625222206116,0.8610249757766724
1697724235405112000,5.445112060546875,-0.5237374901771545,-0.5904250144958496,0.8157874941825867
1697724235414531300,5.45453125,-0.40273749828338623,-0.5378999710083008,0.7767375111579895
1697724235423950000,5.4639501953125,-0.29411250352859497,-0.4926624894142151,0.7167875170707703
1697724235433368800,5.473368896484375,-0.2073500007390976,-0.4571875035762787,0.6545000076293945
1697724235442787600,5.48278759765625,-0.12182500213384628,-0.42666250467300415,0.6166874766349792
1697724235452206600,5.49220654296875,-0.0411125011742115,-0.45471251010894775,0.5836874842643738
1697724235461625300,5.501625244140625,0.06627500057220459,-0.5549499988555908,0.5384500026702881
1697724235471044000,5.511044189453125,0.2153249979019165,-0.641712486743927,0.4907374978065491
1697724235480463000,5.520463134765625,0.23622499406337738,-0.7785249948501587,0.39544999599456787
1697724235489881900,5.5298818359375,0.24956250190734863,-0.8175749778747559,0.3123999834060669
1697724235499300900,5.53930078125,0.27527499198913574,-0.8175749778747559,0.23663750290870667
1697724235508719600,5.5487197265625,0.28132501244544983,-0.8065750002861023,0.15234999358654022
1697724235518138400,5.558138427734375,0.28984999656677246,-0.7125250101089478,0.08030000329017639
1697724235527557400,5.567557373046875,0.3020874857902527,-0.5464249849319458,0.029012499377131462
1697724235536976100,5.57697607421875,0.28984999656677246,-0.3521375060081482,-0.005224999971687794
1697724235546395000,5.586394775390625,0.23856249451637268,-0.17256249487400055,-0.002749999985098839
1697724235555813600,5.595813720703125,0.15674999356269836,-0.016224998980760574,0.04358749836683273
1697724235565232400,5.605232421875,0.06270000338554382,0.1377750039100647,0.11577499657869339
1697724235574651400,5.6146513671875,-0.026537500321865082,0.258774995803833,0.17806249856948853
1697724235584070400,5.6240703125,-0.09982500225305557,0.3100624978542328,0.1915374994277954
1697724235593489400,5.633489501953125,-0.1340624988079071,0.29782500863075256,0.14135000109672546
1697724235602908000,5.642907958984375,-0.11453749984502792,0.2623499929904938,0.030249999836087227
1697724235612327000,5.652326904296875,-0.04729999974370003,0.24529999494552612,-0.13103750348091125
1697724235621745700,5.66174560546875,0.047987498342990875,0.2965874969959259,-0.3180375099182129
1697724235631164700,5.67116455078125,0.10051249712705612,0.42239999771118164,-0.49761250615119934
1697724235640583200,5.680583251953125,0.10903749614953995,0.5702124834060669,-0.6527125239372253
1697724235650002200,5.690002197265625,0.11646249890327454,0.6899750232696533,-0.7895249724388123
1697724235659421200,5.699421142578125,0.1396999955177307,0.7486875057220459,-0.9227625131607056
1697724235668840000,5.70883984375,0.17022499442100525,0.7547374963760376,-1.0705749988555908
1697724235678259000,5.718259033203125,0.20803749561309814,0.806024968624115,-1.2648625373840332
1697724235687677700,5.727677734375,0.2287999987602234,0.9050250053405762,-1.5005375146865845
1697724235697096400,5.737096435546875,0.22151249647140503,0.9758374691009521,-1.7228749990463257
1697724235706515200,5.74651513671875,0.23003749549388885,0.9660750031471252,-1.9256874322891235
1697724235715934200,5.755934326171875,0.23003749549388885,0.989312469959259,-2.1492624282836914
1697724235725353000,5.76535302734375,0.18975000083446503,1.2641749382019043,-2.4450249671936035
1697724235734772000,5.77477197265625,0.15070000290870667,1.7260375022888184,-2.786987543106079
1697724235744190700,5.784190673828125,0.13103750348091125,2.231762409210205,-2.9337000846862793
1697724235753609700,5.793609619140625,0.16279999911785126,2.7693874835968018,-2.7051749229431152
1697724235763028500,5.803028564453125,0.2287999987602234,3.2506375312805176,-2.159024953842163
1697724235772447200,5.812447265625,0.3302749991416931,3.5854499340057373,-1.424912452697754
1697724235781866000,5.821865966796875,0.3400374948978424,3.743025064468384,-0.7089499831199646
1697724235791285000,5.831284912109375,0.21051250398159027,3.7894999980926514,-0.06627500057220459
1697724235800703700,5.840703857421875,-0.015537500381469727,3.631924867630005,0.46639999747276306
1697724235810122500,5.85012255859375,-0.3636874854564667,3.4511125087738037,0.8610249757766724
1697724235819541200,5.859541259765625,-0.7583125233650208,3.272637367248535,1.1749374866485596
1697724235828960500,5.86896044921875,-0.9659374952316284,2.9721999168395996,1.3789875507354736
1697724235838379000,5.87837890625,-1.1064624786376953,2.465100049972534,1.4387999773025513
1697724235847797800,5.8877978515625,-1.102887511253357,1.7296124696731567,1.2384624481201172
1697724235857216800,5.897216796875,-1.0796500444412231,1.744325041770935,0.6727874875068665
1697724235866635800,5.9066357421875,-1.0601249933242798,3.389925003051758,-0.636900007724762
1697724235876054500,5.916054443359375,-0.9574124813079834,4.405224800109863,-1.917162537574768
1697724235885473300,5.925473388671875,-0.7815499901771545,3.302062511444092,-2.716175079345703
1697724235894892300,5.934892333984375,-0.5872625112533569,0.9807875156402588,-2.978800058364868
1697724235904311000,5.94431103515625,-0.4870249927043915,-0.37290000915527344,-2.8749876022338867
1697724235913730000,5.95372998046875,-0.5457375049591064,-0.39489999413490295,-2.618412494659424
1697724235923148800,5.963148681640625,-0.5627874732017517,0.08772499859333038,-2.399787425994873
1697724235932567600,5.972567626953125,-0.45416250824928284,0.4553999900817871,-2.346024990081787
1697724235941986600,5.981986572265625,-0.3979249894618988,0.7302625179290771,-2.273974895477295
1697724235951405300,5.9914052734375,-0.357637494802475,0.9318374991416931,-2.1872124671936035
1697724235960824000,6.000823974609375,-0.28187498450279236,0.8342124819755554,-2.2140250205993652
1697724235970243000,6.0102431640625,-0.23058749735355377,0.7204999923706055,-2.232450008392334
1697724235979661800,6.019661865234375,-0.21216249465942383,0.5983999967575073,-2.1920249462127686
1697724235989080800,6.029080810546875,-0.20982499420642853,0.46392500400543213,-2.1614999771118164
1697724235998499600,6.03849951171875,-0.11811249703168869,0.4651624858379364,-2.1456875801086426
1697724236007918300,6.04791845703125,-0.0668250024318695,0.3283500075340271,-2.166450023651123
1697724236017337300,6.05733740234375,0.03946249932050705,0.14877499639987946,-2.255549907684326
1697724236026756400,6.06675634765625,0.1555124968290329,-0.07603749632835388,-2.343549966812134
1697724236036175000,6.076175048828125,0.22027499973773956,-0.20184999704360962,-2.304500102996826
1697724236045594000,6.085593994140625,0.24227499961853027,-0.26413750648498535,-2.166450023651123
1697724236055012900,6.095012939453125,0.23856249451637268,-0.32161250710487366,-1.9599249362945557
1697724236064431600,6.104431640625,0.18246249854564667,-0.25189998745918274,-1.6863000392913818
1697724236073850400,6.113850341796875,0.15303750336170197,-0.1993750035762787,-1.4040124416351318
1697724236083269400,6.123269287109375,0.15303750336170197,-0.1896124929189682,-1.092574954032898
1697724236092688100,6.132688232421875,0.16651250422000885,-0.1652749925851822,-0.7382375001907349
1697724236102107000,6.14210693359375,0.18851250410079956,-0.17008750140666962,-0.3546124994754791
1697724236111526000,6.15152587890625,0.21422499418258667,-0.27761250734329224,0.01677500084042549
1697724236120944600,6.160944580078125,0.24351249635219574,-0.4791874885559082,0.3636874854564667
1697724236130363600,6.17036376953125,0.22756250202655792,-0.6759499907493591,0.6850249767303467
1697724236139782400,6.179782470703125,0.18603749573230743,-0.807812511920929,0.9635999798774719
1697724236149201200,6.189201171875,0.15798750519752502,-0.8920999765396118,1.207937479019165
1697724236158620200,6.1986201171875,0.1652749925851822,-0.8322874903678894,1.4889874458312988
1697724236168039000,6.208038818359375,0.23127499222755432,-0.8260999917984009,1.8419499397277832
1697724236177457700,6.217457763671875,0.28132501244544983,-1.2513874769210815,2.188999891281128
1697724236186876400,6.22687646484375,0.24598750472068787,-1.542062520980835,2.516387462615967
1697724236196295400,6.23629541015625,0.11769999563694,-0.9935749769210815,2.815725088119507
1697724236205714400,6.24571435546875,0.02969999983906746,-0.23003749549388885,2.9892499446868896
1697724236215133200,6.25513330078125,-0.07177499681711197,-0.07356250286102295,3.0991125106811523
1697724236224552200,6.26455224609375,-0.16458749771118164,-0.18479999899864197,3.449737548828125
1697724236233971000,6.273970947265625,-0.29768750071525574,-0.5341874957084656,3.8260750770568848
1697724236243389700,6.2833896484375,-0.3209249973297119,-0.724762499332428,3.696549892425537
1697724236252808400,6.292808349609375,-0.5297874808311462,0.22811250388622284,3.2103500366210938
1697724236262227200,6.302227294921875,-0.7033125162124634,1.5672249794006348,2.434575080871582
1697724236271646200,6.311646240234375,-0.7045499682426453,0.1658249944448471,2.0899999141693115
1697724236281065000,6.32106494140625,-0.5262125134468079,-1.1901999711990356,2.1412875652313232
1697724236290483700,6.330483642578125,-0.3026374876499176,-1.1559624671936035,2.0741875171661377
1697724236299902700,6.33990283203125,-0.09129999577999115,-0.6844750046730042,1.9141374826431274
1697724236309321700,6.34932177734375,0.1200374960899353,-0.36918750405311584,1.7906625270843506
1697724236318740500,6.358740478515625,0.37427499890327454,-0.455949991941452,1.7246625423431396
1697724236328159200,6.3681591796875,0.5721374750137329,-0.7137625217437744,1.6685625314712524
1697724236337578000,6.377577880859375,0.636900007724762,-0.8237624764442444,1.552512526512146
1697724236346997000,6.3869970703125,0.6406124830245972,-0.772475004196167,1.3838000297546387
1697724236356416000,6.396416015625,0.6466624736785889,-0.7382375001907349,1.2457499504089355
1697724236365834800,6.405834716796875,0.6832374930381775,-0.807812511920929,1.207937479019165
1697724236375253500,6.41525341796875,0.7346624732017517,-0.8787624835968018,1.2434124946594238
1697724236384672500,6.424672607421875,0.763949990272522,-0.8725749850273132,1.294700026512146
1697724236394091300,6.43409130859375,0.7602375149726868,-0.7822374701499939,1.3410375118255615
1697724236403510000,6.443510009765625,0.6784250140190125,-0.6759499907493591,1.3765125274658203
1697724236412928800,6.4529287109375,0.5978500247001648,-0.5769500136375427,1.4387999773025513
1697724236422347800,6.46234765625,0.5366625189781189,-0.5304750204086304,1.5268000364303589
1697724236431766800,6.471766845703125,0.4988499879837036,-0.4511374831199646,1.6037999391555786
1697724236441185500,6.481185546875,0.490325003862381,-0.35337498784065247,1.6416125297546387
1697724236450604300,6.490604248046875,0.38032498955726624,-0.3656125068664551,1.5878499746322632
1697724236460023300,6.500023193359375,0.22632500529289246,-0.49623748660087585,1.5010875463485718
1697724236469442000,6.509442138671875,0.06751249730587006,-0.6355249881744385,1.4583250284194946
1697724236478861000,6.518861083984375,-0.08511249721050262,-0.6930000185966492,1.448562502861023
1697724236488279800,6.52827978515625,-0.18782499432563782,-0.6527125239372253,1.4498000144958496
1697724236497698600,6.537698486328125,-0.23292499780654907,-0.5707625150680542,1.4473249912261963
1697724236507117600,6.54711767578125,-0.24268749356269836,-0.495137482881546,1.4595625400543213
1697724236516536300,6.556536376953125,-0.24763749539852142,-0.4657124876976013,1.4730374813079834
1697724236525955300,6.565955322265625,-0.2293500006198883,-0.4914250075817108,1.4669874906539917
1697724236535374000,6.5753740234375,-0.21092499792575836,-0.5427125096321106,1.4290374517440796
1697724236544792800,6.584792724609375,-0.21092499792575836,-0.5842375159263611,1.3422750234603882
1697724236554211600,6.594211669921875,-0.22687499225139618,-0.6172375082969666,1.1957000494003296
1697724236563630600,6.603630615234375,-0.24392500519752502,-0.6355249881744385,1.0003124475479126
1697724236573049300,6.61304931640625,-0.2586374878883362,-0.668524980545044,0.8035500049591064
1697724236582468400,6.62246826171875,-0.27445000410079956,-0.7710999846458435,0.6092625260353088
1697724236591887000,6.63188720703125,-0.23058749735355377,-0.8578624725341797,0.4651624858379364
1697724236601306000,6.64130615234375,-0.1023000031709671,-0.8383374810218811,0.4296875
1697724236610724900,6.650724853515625,-0.08153750002384186,-0.6795250177383423,0.49939998984336853
1697724236620143600,6.6601435546875,-0.2256374955177307,-0.4351874887943268,0.6765000224113464
1697724236629562600,6.669562744140625,-0.3917374908924103,-0.01732499897480011,1.0136499404907227
1697724236638981400,6.6789814453125,-0.4992625117301941,0.09019999951124191,1.2556500434875488
1697724236648400100,6.688400146484375,-0.5066875219345093,0.05348749831318855,1.3924624919891357
1697724236657819000,6.69781884765625,-0.45649999380111694,0.1060125008225441,1.4877499341964722
1697724236667237600,6.707237548828125,-0.4259749948978424,0.147537499666214,1.5329874753952026
1697724236676656600,6.71665673828125,-0.28792500495910645,0.04124999791383743,1.47427499294281
1697724236686075400,6.726075439453125,-0.18039999902248383,-0.06627500057220459,1.3435125350952148
1697724236695494400,6.735494384765625,-0.17806249856948853,-0.01732499897480011,1.1529375314712524
1697724236704913200,6.7449130859375,-0.15716250240802765,0.15729999542236328,0.9648374915122986
1697724236714332200,6.754332275390625,-0.11082500219345093,0.3796375095844269,0.8560749888420105
1697724236723751000,6.7637509765625,-0.04853750020265579,0.5739250183105469,0.8047875165939331
1697724236733169700,6.773169677734375,-0.05458749830722809,0.7364500164985657,0.7815499901771545
1697724236742588400,6.78258837890625,-0.06077500060200691,0.7840250134468079,0.7607874870300293
1697724236752007200,6.792007080078125,-0.009349999949336052,0.7242124676704407,0.7522624731063843
1697724236761426200,6.80142626953125,0.030937500298023224,0.5886374711990356,0.7497875094413757
1697724236770845200,6.81084521484375,0.040699999779462814,0.4651624858379364,0.7204999923706055
1697724236780264000,6.820263916015625,0.045512501150369644,0.44206249713897705,0.6654999852180481
1697724236789683000,6.829682861328125,0.055412501096725464,0.44811248779296875,0.6056874990463257
1697724236799101700,6.839101806640625,0.06393750011920929,0.39434999227523804,0.56045001745224
1697724236808520400,6.8485205078125,0.06751249730587006,0.26606249809265137,0.5176874995231628
1697724236817939200,6.857939208984375,0.06751249730587006,0.21848750114440918,0.49816250801086426
1697724236827358200,6.867358154296875,0.047987498342990875,0.3185875117778778,0.48963749408721924
1697724236836777000,6.87677685546875,-0.014299999922513962,0.5788750052452087,0.4871625006198883
1697724236846196000,6.886196044921875,-0.11329999566078186,0.9294999837875366,0.5029749870300293
1697724236855615000,6.895614990234375,-0.1999250054359436,1.1896499395370483,0.5469750165939331
1697724236865033700,6.90503369140625,-0.19882500171661377,1.3424124717712402,0.6166874766349792
1697724236874452500,6.914452392578125,-0.12911249697208405,1.4304125308990479,0.6667374968528748
1697724236883871200,6.923871337890625,-0.05582499876618385,1.4682250022888184,0.6459749937057495
1697724236893290200,6.933290283203125,0.047987498342990875,1.5415124893188477,0.521399974822998
1697724236902709200,6.942709228515625,0.09817499667406082,1.6955125331878662,0.2843500077724457
1697724236912128000,6.9521279296875,0.07851249724626541,1.910562515258789,-0.018699999898672104
1697724236921547000,6.961547119140625,-0.022824998944997787,2.1096625328063965,-0.24956250190734863
1697724236930965500,6.970965576171875,-0.05087500065565109,2.090137481689453,-0.26785001158714294
1697724236940384500,6.980384521484375,0.10051249712705612,1.7870874404907227,-0.09075000137090683
1697724236949803300,6.98980322265625,0.27527499198913574,1.2421749830245972,0.14877499639987946
1697724236959222300,6.99922216796875,0.3180375099182129,0.6899750232696533,0.3221625089645386
1697724236968640800,7.008640869140625,0.2447499930858612,0.3918749988079071,0.32958748936653137
1697724236978059500,7.0180595703125,0.12870000302791595,0.39311251044273376,0.1438249945640564
1697724236987478800,7.027478759765625,-0.010587500408291817,0.7950249910354614,-0.28380000591278076
1697724236996897500,7.0368974609375,-0.15839999914169312,1.5244624614715576,-0.847000002861023
1697724237006316300,7.04631640625,-0.20982499420642853,2.1768999099731445,-1.3209625482559204
1697724237015735300,7.0557353515625,-0.171875,2.5946249961853027,-1.6044875383377075
1697724237025154000,7.065154052734375,-0.1046374961733818,2.8927249908447266,-1.7058249711990356
1697724237034572800,7.07457275390625,-0.06077500060200691,3.0662500858306885,-1.6838250160217285
1697724237043991800,7.08399169921875,-0.030112499371170998,3.2287750244140625,-1.5542999505996704
1697724237053410600,7.09341064453125,-0.029012499377131462,3.3973500728607178,-1.3381500244140625
1697724237062829300,7.102829345703125,-0.05335000157356262,3.5377373695373535,-1.0961500406265259
1697724237072248300,7.112248291015625,-0.07782500237226486,4.024075031280518,-0.890999972820282
1697724237081667000,7.1216669921875,-0.1046374961733818,4.8841376304626465,-0.9250999689102173
1697724237091085800,7.1310859375,-0.04358749836683273,5.234762668609619,-1.1158125400543213
1697724237100504600,7.140504638671875,-0.07177499681711197,4.61175012588501,-1.0155750513076782
1697724237109923600,7.149923583984375,-0.1340624988079071,3.8994998931884766,-0.5721374750137329
1697724237119342600,7.159342529296875,-0.09129999577999115,3.336162567138672,-0.13956250250339508
1697724237128761300,7.16876123046875,-0.004537499975413084,2.942775011062622,0.20611250400543213
1697724237138180000,7.17818017578125,0.02722499892115593,2.6435749530792236,0.4651624858379364
1697724237147598800,7.187598876953125,-0.0411125011742115,2.3857624530792236,0.6092625260353088
1697724237157017600,7.197017578125,-0.0728750005364418,2.0669000148773193,0.551925003528595
1697724237166436600,7.2064365234375,-0.04235000163316727,1.7480374574661255,0.34168750047683716
1697724237175855600,7.215855712890625,-0.0057749999687075615,1.8458000421524048,-0.21779999136924744
1697724237185274000,7.225274169921875,0.02474999986588955,3.0710625648498535,-1.3919124603271484
1697724237194693400,7.234693359375,0.08717499673366547,3.487687587738037,-1.9013500213623047
1697724237204112100,7.244112060546875,0.20074999332427979,2.8219125270843506,-1.6863000392913818
1697724237213531000,7.25353076171875,0.34485000371932983,1.9483749866485596,-1.2073874473571777
1697724237222949600,7.26294970703125,0.40603750944137573,1.548799991607666,-0.7431874871253967
1697724237232368600,7.27236865234375,0.44756248593330383,1.697849988937378,-0.4328500032424927
1697724237241787100,7.281787109375,0.5428500175476074,1.868899941444397,-0.40466248989105225
1697724237251206400,7.291206298828125,0.506137490272522,1.6673250198364258,-0.4828999936580658
1697724237260625200,7.300625244140625,0.44385001063346863,1.4377000331878662,-0.641712486743927
1697724237270044200,7.310044189453125,0.415800005197525,1.435225009918213,-0.9117624759674072
1697724237279462700,7.319462646484375,0.4866124987602234,1.6343250274658203,-1.1108624935150146
1697724237288881700,7.328881591796875,0.5428500175476074,1.6112250089645386,-1.1376750469207764
1697724237298300400,7.338300537109375,0.5550875067710876,1.3424124717712402,-0.9875249862670898
1697724237307719200,7.34771923828125,0.5330874919891357,0.9990749955177307,-0.7552874684333801
1697724237317138200,7.35713818359375,0.5256624817848206,0.7657374739646912,-0.5171374678611755
1697724237326557200,7.36655712890625,0.5159000158309937,0.6239749789237976,-0.30703750252723694
1697724237335976000,7.375975830078125,0.5183749794960022,0.5373499989509583,-0.13474999368190765
1697724237345394700,7.385394775390625,0.5354250073432922,0.4016374945640564,-0.02969999983906746
1697724237354813700,7.394813720703125,0.5733749866485596,0.2563000023365021,0.022824998944997787
1697724237364232400,7.404232421875,0.6234250068664551,0.14630000293254852,0.06201250106096268
1697724237373651200,7.413651123046875,0.6734749674797058,-0.002749999985098839,0.1377750039100647
1697724237383070000,7.423070068359375,0.6931374669075012,-0.17613749206066132,0.33316248655319214
1697724237392489000,7.432489013671875,0.6784250140190125,-0.5244249701499939,0.6410250067710876
1697724237401907700,7.44190771484375,0.6527125239372253,-0.9495750069618225,1.0515999794006348
1697724237411326700,7.45132666015625,0.6258999705314636,-1.4112999439239502,1.545087456703186
1697724237420745500,7.460745361328125,0.5636125206947327,-2.0062625408172607,2.0301876068115234
1697724237430164500,7.47016455078125,0.45237499475479126,-2.5376999378204346,2.49438738822937
1697724237439583000,7.4795830078125,0.2605625092983246,-2.6807000637054443,2.9049625396728516
1697724237449002000,7.489001953125,0.003987499978393316,-1.9184000492095947,3.116299867630005
1697724237458420700,7.498420654296875,-0.21216249465942383,0.3320625126361847,2.968487501144409
1697724237467839700,7.50783984375,-0.2733500003814697,2.5458123683929443,2.533437490463257
1697724237477258200,7.51725830078125,-0.25616249442100525,2.847487449645996,2.087524890899658
1697724237486677200,7.52667724609375,-0.33563750982284546,1.8371374607086182,1.6208499670028687
1697724237496096300,7.53609619140625,-0.4772624969482422,0.4395875036716461,1.2348874807357788
1697724237505515000,7.545514892578125,-0.5995000004768372,-0.550000011920929,0.9305999875068665
1697724237514934000,7.55493408203125,-0.6275500059127808,-0.9018625020980835,0.7045499682426453
1697724237524352800,7.564352783203125,-0.4809750020503998,-0.8298124670982361,0.49321249127388
1697724237533771500,7.573771484375,-0.24763749539852142,-0.6159999966621399,0.22687499225139618
1697724237543190500,7.5831904296875,0.057750001549720764,-0.23237499594688416,-0.02474999986588955
1697724237552609000,7.592609130859375,0.3375625014305115,0.2550624907016754,-0.3057999908924103
1697724237562028000,7.602028076171875,0.4683249890804291,0.6411625146865845,-0.6148999929428101
1697724237571446800,7.61144677734375,0.47932499647140503,0.9197375178337097,-1.035099983215332
1697724237580865500,7.620865478515625,0.3008500039577484,0.6643999814987183,-1.280674934387207
1697724237590284500,7.630284423828125,0.03341250121593475,-0.043037500232458115,-0.8677625060081482
1697724237599703600,7.63970361328125,0.057750001549720764,-0.7870500087738037,0.07782500237226486
1697724237609122300,7.649122314453125,0.21656249463558197,-0.8456249833106995,1.0344125032424927
1697724237618541000,7.658541015625,0.33508750796318054,-0.09184999763965607,1.6868499517440796
1697724237627960000,7.6679599609375,0.28380000591278076,1.0185999870300293,2.0729498863220215
1697724237637378800,7.67737890625,0.15070000290870667,1.9226624965667725,2.3588125705718994
1697724237646797600,7.686797607421875,0.09817499667406082,2.256237506866455,2.6581499576568604
1697724237656216600,7.696216552734375,0.11646249890327454,2.0448999404907227,2.889012575149536
1697724237665635600,7.705635498046875,0.2055625021457672,1.5928000211715698,3.0002501010894775
1697724237675054300,7.715054443359375,0.3632749915122986,1.1444125175476074,2.9745373725891113
1697724237684473000,7.72447314453125,0.41813749074935913,0.9612625241279602,2.8413000106811523
1697724237693891800,7.733891845703125,0.35227498412132263,1.0223125219345093,2.6764373779296875
1697724237703310800,7.743310791015625,0.2227499932050705,1.1566499471664429,2.5139124393463135
1697724237712729600,7.7527294921875,0.10670000314712524,1.1530749797821045,2.3758625984191895
1697724237722148400,7.7621484375,0.047987498342990875,0.853737473487854,2.28552508354187
1697724237731567000,7.771567138671875,0.005224999971687794,0.29906249046325684,2.2268126010894775
1697724237740986000,7.780986083984375,-0.03629999980330467,-0.13708749413490295,2.1742875576019287
1697724237750404900,7.79040478515625,-0.05087500065565109,-0.16637499630451202,2.092474937438965
1697724237759824000,7.799823974609375,-0.07177499681711197,0.12306249886751175,1.9507124423980713
1697724237769242600,7.80924267578125,-0.09858749806880951,0.5556374788284302,1.7723749876022339
1697724237778661600,7.81866162109375,-0.12182500213384628,0.9294999837875366,1.6380374431610107
1697724237788080000,7.828080078125,-0.13887499272823334,1.0993125438690186,1.6013250350952148
1697724237797499100,7.8374990234375,-0.15606249868869781,1.1530749797821045,1.6660875082015991
1697724237806918000,7.84691796875,-0.17806249856948853,1.1835999488830566,1.789425015449524
1697724237816336600,7.856336669921875,-0.1999250054359436,1.2458875179290771,1.9397125244140625
1697724237825755600,7.865755615234375,-0.2073500007390976,1.382699966430664,2.0839500427246094
1697724237835174400,7.87517431640625,-0.19634999334812164,1.5928000211715698,2.175524950027466
1697724237844593400,7.884593505859375,-0.1120624989271164,1.7675625085830688,2.192574977874756
1697724237854012200,7.89401220703125,-0.09982500225305557,1.8823750019073486,2.094949960708618
1697724237863431200,7.90343115234375,-0.09611249715089798,1.8383749723434448,1.9849499464035034
1697724237872850000,7.912849853515625,-0.021587500348687172,1.6209875345230103,1.8957124948501587
1697724237882268700,7.9222685546875,0.025987500324845314,1.2434124946594238,1.8004249334335327
1697724237891687400,7.9316875,0.11646249890327454,0.8047875165939331,1.697849988937378
1697724237901106400,7.9411064453125,0.2092749923467636,0.39063748717308044,1.614799976348877
1697724237910525400,7.950525390625,0.2679874897003174,0.06201250106096268,1.5292749404907227
1697724237919944200,7.959944091796875,0.27527499198913574,-0.17132499814033508,1.4474624395370483
1697724237929363000,7.969363037109375,0.3180375099182129,-0.3068999946117401,1.3862749338150024
1697724237938781700,7.97878173828125,0.3778499960899353,-0.3656125068664551,1.3289375305175781
1697724237948200400,7.988200439453125,0.44385001063346863,-0.3326124846935272,1.282462477684021
1697724237957619500,7.997619384765625,0.46584999561309814,-0.2531374990940094,1.2629375457763672
1697724237967038500,8.00703857421875,0.4731374979019165,-0.07356250286102295,1.2531750202178955
1697724237976457200,8.016457275390625,0.45608749985694885,0.20982499420642853,1.224987506866455
1697724237985876200,8.025876220703125,0.41813749074935913,0.5556374788284302,1.1749374866485596
1697724237995295000,8.035294921875,0.35103750228881836,0.8842625021934509,1.1187000274658203
1697724238004713700,8.044713623046874,0.27403751015663147,1.1566499471664429,1.0674124956130981
1697724238014132500,8.054132568359375,0.21051250398159027,1.331412434577942,1.024649977684021
1697724238023551500,8.063551513671875,0.15427500009536743,1.3814624547958374,1.0051250457763672
1697724238032970200,8.07297021484375,0.09075000137090683,1.2984124422073364,1.0100749731063843
1697724238042389000,8.082388916015624,0.011412499472498894,1.082124948501587,1.0111750364303589
1697724238051808000,8.09180810546875,-0.0826374962925911,0.8353124856948853,0.9916499853134155
1697724238061226800,8.101226806640625,-0.14506250619888306,0.7107374668121338,0.9563124775886536
1697724238070645500,8.1106455078125,-0.14506250619888306,0.7572125196456909,0.9135500192642212
1697724238080064500,8.120064453125,-0.1046374961733818,0.9758374691009521,0.8646000027656555
1697724238089483300,8.129483154296874,-0.10587500035762787,1.3008874654769897,0.7975000143051147
1697724238098902000,8.138902099609375,-0.13887499272823334,1.6722749471664429,0.6984999775886536
1697724238108321000,8.148321044921875,-0.14011250436306,1.967900037765503,0.5922124981880188
1697724238117739800,8.15773974609375,-0.10958749800920486,2.0009000301361084,0.5201625227928162
1697724238127158500,8.167158447265624,-0.11329999566078186,1.7162749767303467,0.47616249322891235
1697724238136577500,8.17657763671875,-0.14258749783039093,1.3374625444412231,0.4199250042438507
1697724238145996500,8.18599658203125,-0.14506250619888306,1.033312439918518,0.3405874967575073
1697724238155415300,8.195415283203126,-0.15963749587535858,1.045549988746643,0.18411250412464142
1697724238164834000,8.204833984375,-0.2073500007390976,1.403462529182434,-0.016224998980760574
1697724238174252800,8.214252685546874,-0.34540000557899475,1.8958499431610107,-0.22384999692440033
1697724238183671800,8.223671875,-0.5787374973297119,2.476099967956543,-0.4218499958515167
1697724238193090300,8.23309033203125,-0.8608874678611755,3.1273000240325928,-0.6234250068664551
1697724238202509300,8.24250927734375,-1.0564124584197998,3.690500020980835,-0.7980499863624573
1697724238211928300,8.25192822265625,-1.0564124584197998,4.03383731842041,-0.903237521648407
1697724238221347300,8.261347412109375,-0.8743624687194824,4.319699764251709,-0.982574999332428
1697724238230766000,8.27076611328125,-0.6080250144004822,4.7350873947143555,-1.0901000499725342
1697724238240184800,8.280184814453126,-0.42844998836517334,5.393575191497803,-1.2123374938964844
1697724238249603600,8.289603515625,-0.3306874930858612,5.903012275695801,-1.3087249994277954
1697724238259022600,8.299022705078125,-0.30140000581741333,5.735674858093262,-1.4957250356674194
1697724238268441000,8.308441162109375,-0.2256374955177307,5.2298126220703125,-1.6777750253677368
1697724238277859800,8.31785986328125,-0.08153750002384186,4.63251256942749,-1.7193000316619873
1697724238287278800,8.32727880859375,0.142037495970726,3.8187875747680664,-1.7193000316619873
1697724238296697600,8.336697509765624,0.32284998893737793,3.008774995803833,-1.6753000020980835
1697724238306116600,8.34611669921875,0.40603750944137573,2.460287570953369,-1.637487530708313
1697724238315535600,8.35553564453125,0.46584999561309814,2.416287422180176,-1.4944875240325928
1697724238324954400,8.364954345703126,0.4218499958515167,2.692387580871582,-1.2561999559402466
1697724238334373000,8.374373046875,0.39861249923706055,3.099250078201294,-1.02162504196167
1697724238343792000,8.383792236328125,0.4646124839782715,3.4009249210357666,-0.9020000100135803
1697724238353211000,8.3932109375,0.5501375198364258,3.52563738822937,-1.055862545967102
1697724238362629600,8.402629638671876,0.6186124682426453,3.5072124004364014,-1.5274875164031982
1697724238372048600,8.412048583984374,0.6136624813079834,3.280062437057495,-2.189687490463257
1697724238381467400,8.42146728515625,0.5978500247001648,2.7289624214172363,-2.782175064086914
1697724238390886400,8.430886474609375,0.42061248421669006,1.943424940109253,-3.2048499584198
1697724238400305200,8.44030517578125,0.2727999985218048,1.3142249584197998,-3.4076623916625977
1697724238409724000,8.449723876953126,0.15798750519752502,0.8744999766349792,-3.36861252784729
1697724238419142700,8.459142578125,0.15798750519752502,0.6875,-3.1145124435424805
1697724238428561700,8.468561767578125,0.22756250202655792,0.740024983882904,-2.7772250175476074
1697724238437980200,8.477980224609375,0.3082749843597412,0.809737503528595,-2.56107497215271
1697724238447399200,8.487399169921876,0.31679999828338623,0.7889750003814697,-2.5585999488830566
1697724238456818000,8.49681787109375,0.35337498784065247,0.7364500164985657,-2.625837564468384
1697724238466237000,8.50623681640625,0.40232500433921814,0.7596874833106995,-2.6636500358581543
1697724238475656000,8.515656005859375,0.46213749051094055,0.6252124905586243,-2.642887592315674
1697724238485074700,8.52507470703125,0.5171374678611755,0.40039998292922974,-2.5525500774383545
1697724238494493400,8.534493408203126,0.5318499803543091,0.2513499855995178,-2.3264999389648438
1697724238503912200,8.543912109375,0.4988499879837036,0.18548749387264252,-1.9844000339508057
1697724238513331200,8.553331298828125,0.4499000012874603,0.11453749984502792,-1.5652999877929688
1697724238522749700,8.562749755859375,0.41456249356269836,-0.06627500057220459,-1.113337516784668
1697724238532168700,8.572168701171876,0.3718000054359436,-0.256850004196167,-0.7077124714851379
1697724238541587500,8.58158740234375,0.3460874855518341,-0.34732499718666077,-0.3778499960899353
1697724238551006500,8.59100634765625,0.3082749843597412,-0.33137500286102295,-0.1200374960899353
1697724238560425200,8.60042529296875,0.22522500157356262,-0.23608750104904175,0.1303499937057495
1697724238569844200,8.60984423828125,0.12127500027418137,-0.2287999987602234,0.3698749840259552
1697724238579263000,8.619262939453124,0.03341250121593475,-0.3606624901294708,0.5554999709129333
1697724238588681700,8.628681640625,-0.05211250111460686,-0.506137490272522,0.6495500206947327
1697724238598100700,8.638100830078125,-0.15234999358654022,-0.6197124719619751,0.7155500054359436
1697724238607519200,8.647519287109375,-0.23416249454021454,-0.6747124791145325,0.7986000180244446
1697724238616938200,8.656938232421876,-0.26468750834465027,-0.6599999666213989,0.9220749735832214
1697724238626357000,8.66635693359375,-0.24392500519752502,-0.5414749979972839,1.0698875188827515
1697724238635776000,8.67577587890625,-0.18411250412464142,-0.29356250166893005,1.1969374418258667
1697724238645195000,8.685195068359375,-0.09735000133514404,0.06077500060200691,1.2555124759674072
1697724238654613800,8.69461376953125,0.040699999779462814,0.2391124963760376,1.2665125131607056
1697724238664032500,8.704032470703124,0.22632500529289246,-0.18232500553131104,1.3374625444412231
1697724238673451300,8.713451171875,0.3643749952316284,-0.8408125042915344,1.5207500457763672
1697724238682870300,8.722870361328125,0.296037495136261,-1.1646250486373901,1.669800043106079
1697724238692289000,8.7322890625,-0.05087500065565109,-1.455299973487854,1.8101874589920044
1697724238701707800,8.741707763671876,-0.3686375021934509,-1.5042500495910645,2.1192874908447266
1697724238711126500,8.75112646484375,-0.5725499987602234,-0.9470999836921692,2.5126750469207764
1697724238720545500,8.760545654296875,-0.4016374945640564,-0.2311374992132187,2.9464874267578125
1697724238729964300,8.76996435546875,-0.14739999175071716,0.22453749179840088,3.349637508392334
1697724238739383300,8.77938330078125,-0.11935000121593475,0.4248749911785126,3.659837484359741
1697724238748802000,8.788802001953124,-0.22687499225139618,0.6264500021934509,3.9078874588012695
1697724238758220800,8.798220703125,-0.29534998536109924,0.6802124977111816,4.168174743652344
1697724238767639600,8.8076396484375,-0.3306874930858612,0.6386874914169312,4.355037689208984
1697724238777058600,8.81705859375,-0.2854500114917755,0.7559750080108643,4.428325176239014
1697724238786477300,8.826477294921874,-0.14011250436306,1.1041250228881836,4.424749851226807
1697724238795896300,8.835896240234375,0.07369999587535858,1.4792250394821167,4.30127477645874
1697724238805315000,8.845315185546875,0.3180375099182129,1.4975124597549438,4.055699825286865
1697724238814734000,8.854734130859375,0.5196124911308289,1.2348874807357788,3.6928374767303467
1697724238824152800,8.86415283203125,0.7358999848365784,0.7425000071525574,3.2359249591827393
1697724238833571600,8.873571533203124,0.8299499750137329,0.25753748416900635,2.809537410736084
1697724238842990300,8.882990234375,0.8384749889373779,-0.10779999941587448,2.435812473297119
1697724238852409000,8.8924091796875,0.8127624988555908,-0.2470874935388565,2.146237373352051
1697724238861828000,8.901828125,0.820187509059906,-0.2971374988555908,1.9274749755859375
1697724238871246800,8.911246826171874,0.8617125153541565,-0.2763749957084656,1.768662452697754
1697724238880665900,8.920665771484375,0.9215250015258789,-0.28132501244544983,1.6013250350952148
1697724238890084600,8.930084716796875,0.9570000171661377,-0.35942500829696655,1.4205124378204346
1697724238899503400,8.93950341796875,0.9154750108718872,-0.46818751096725464,1.2506999969482422
1697724238908922400,8.94892236328125,0.8104249835014343,-0.5806624889373779,1.090649962425232
1697724238918341000,8.958341064453125,0.6784250140190125,-0.716237485408783,0.9293624758720398
1697724238927760000,8.967759765625,0.514662504196167,-0.916575014591217,0.8010749816894531
1697724238937178600,8.9771787109375,0.3485625088214874,-1.1461999416351318,0.7253124713897705
1697724238946597600,8.98659765625,0.21779999136924744,-1.388200044631958,0.7107374668121338
1697724238956016600,8.9960166015625,0.19827499985694885,-1.5408250093460083,0.7534999847412109
1697724238965435400,9.005435302734375,0.1970375031232834,-1.6447750329971313,0.823074996471405
1697724238974854400,9.0148544921875,0.1494625061750412,-1.7351125478744507,0.8841249942779541
1697724238984273000,9.02427294921875,0.056512501090765,-1.6985374689102173,0.9660750031471252
1697724238993692000,9.03369189453125,-0.04729999974370003,-1.5457749366760254,1.045412540435791
1697724239003110700,9.043110595703125,-0.10587500035762787,-1.3784375190734863,1.0698875188827515
1697724239012529400,9.052529296875,-0.13158750534057617,-1.2244374752044678,1.036887526512146
1697724239021948400,9.061948486328125,-0.11935000121593475,-1.0741499662399292,0.9904124736785889
1697724239031367200,9.0713671875,-0.09363749623298645,-0.9410499930381775,0.9318374991416931
1697724239040786000,9.080785888671874,-0.09363749623298645,-0.926337480545044,0.8548374772071838
1697724239050204700,9.09020458984375,-0.11082500219345093,-0.9838125109672546,0.8108375072479248
1697724239059623700,9.099623779296875,-0.12911249697208405,-1.0643874406814575,0.8035500049591064
1697724239069042400,9.10904248046875,-0.15111249685287476,-1.0656249523162842,0.8597875237464905
1697724239078461400,9.11846142578125,-0.19016249477863312,-1.035099983215332,0.9171249866485596
1697724239087880200,9.127880126953125,-0.19263750314712524,-0.934862494468689,0.9586499929428101
1697724239097299000,9.137298828125,-0.16087499260902405,-0.6930000185966492,1.0014125108718872
1697724239106717700,9.1467177734375,-0.10711249709129333,-0.4609000086784363,0.9733625054359436
1697724239116136400,9.156136474609376,-0.03506249934434891,-0.22632500529289246,0.906125009059906
1697724239125555500,9.165555419921875,0.03451250120997429,0.03753750026226044,0.8267874717712402
1697724239134974200,9.17497412109375,0.08470000326633453,0.3051125109195709,0.7510250210762024
1697724239144393000,9.18439306640625,0.10546249896287918,0.4725874960422516,0.6802124977111816
1697724239153812000,9.19381201171875,0.10546249896287918,0.521399974822998,0.6276875138282776
1697724239163231000,9.20323095703125,0.09446249902248383,0.4273499846458435,0.6069250106811523
1697724239172649700,9.212649658203125,0.055412501096725464,0.21601249277591705,0.6287875175476074
1697724239182068200,9.222068115234375,0.04441250115633011,0.01924999989569187,0.6715499758720398
1697724239191487200,9.2314873046875,0.008937500417232513,-0.035750001668930054,0.6814500093460083
1697724239200906200,9.24090625,-0.025299999862909317,0.08277499675750732,0.6239749789237976
1697724239210325000,9.250324951171875,0.0016499999910593033,0.3955875039100647,0.5152124762535095
1697724239219743700,9.25974365234375,0.04922499880194664,0.7717875242233276,0.4064500033855438
1697724239229162500,9.26916259765625,0.08717499673366547,1.0491249561309814,0.346637487411499
1697724239238581200,9.278581298828126,0.12251249700784683,1.1884125471115112,0.32958748936653137
1697724239248000000,9.288,0.1555124968290329,1.289887547492981,0.31363749504089355
1697724239257419000,9.2974189453125,0.1970375031232834,1.4339874982833862,0.29534998536109924
1697724239266838000,9.306838134765625,0.17256249487400055,1.5928000211715698,0.24763749539852142
1697724239276256800,9.3162568359375,0.12622499465942383,1.744325041770935,0.1755875051021576
1697724239285675500,9.325675537109374,0.07975000143051147,1.8298499584197998,0.08030000329017639
1697724239295094500,9.335094482421875,0.06627500057220459,1.806612491607666,-0.021037500351667404
1697724239304513300,9.34451318359375,0.082225002348423,1.6392749547958374,-0.14698749780654907
1697724239313932000,9.35393212890625,0.113987497985363,1.4449875354766846,-0.23980000615119934
1697724239323351300,9.363351318359374,0.13474999368190765,1.299649953842163,-0.2666124999523163
1697724239332769800,9.372769775390625,0.1237500011920929,1.1383625268936157,-0.2545124888420105
1697724239342188800,9.382188720703125,0.12127500027418137,0.9074999690055847,-0.22756250202655792
1697724239351607600,9.391607666015625,0.14451250433921814,0.6216375231742859,-0.21175000071525574
1697724239361026300,9.4010263671875,0.17998750507831573,0.3198249936103821,-0.2227499932050705
1697724239370445300,9.4104453125,0.21051250398159027,0.010724999941885471,-0.2763749957084656
1697724239379863800,9.41986376953125,0.22151249647140503,-0.1518000066280365,-0.4328500032424927
1697724239389282800,9.42928271484375,0.19580000638961792,0.468874990940094,-0.9300500154495239
1697724239398701600,9.43870166015625,0.14822499454021454,1.5989874601364136,-1.5934875011444092
1697724239408120600,9.44812060546875,0.1200374960899353,2.2745249271392822,-2.0516374111175537
1697724239417539300,9.457539306640625,0.057750001549720764,2.459049940109253,-2.291024923324585
1697724239426958300,9.466958251953125,0.03341250121593475,2.6533374786376953,-2.4462625980377197
1697724239436377000,9.476377197265625,-0.013062499463558197,3.142012596130371,-2.3887875080108643
1697724239445795800,9.4857958984375,-0.09982500225305557,3.768737554550171,-2.04544997215271
1697724239455214600,9.495214599609374,-0.19634999334812164,4.419937610626221,-1.4064874649047852
1697724239464633600,9.504633544921875,-0.30140000581741333,5.0637125968933105,-0.5537124872207642
1697724239474052400,9.51405224609375,-0.4039750099182129,5.378862380981445,0.29411250352859497
1697724239483471400,9.523471435546876,-0.6080250144004822,5.203000068664551,0.8866000175476074
1697724239492889900,9.532889892578124,-0.8193625211715698,4.731374740600586,1.2544125318527222
1697724239502308900,9.542308837890625,-0.9231749773025513,3.937312364578247,1.3179374933242798
1697724239511727900,9.551727783203125,-0.902412474155426,2.9452500343322754,1.111412525177002
1697724239521146600,9.561146728515626,-0.8621249794960022,2.0961875915527344,0.83160001039505
1697724239530565400,9.5705654296875,-0.8255500197410583,1.3814624547958374,0.4516874849796295
1697724239539984100,9.579984130859375,-0.766837477684021,0.8634999990463257,-0.13474999368190765
1697724239549403100,9.589403076171875,-0.7436000108718872,0.9245499968528748,-1.0583374500274658
1697724239558822000,9.59882177734375,-0.6910749673843384,1.7382749319076538,-2.206737518310547
1697724239568240600,9.60824072265625,-0.6360750198364258,2.1437625885009766,-3.05222487449646
1697724239577659400,9.617659423828124,-0.6092625260353088,1.4425125122070312,-3.465137481689453
1697724239587078400,9.627078369140625,-0.6569749712944031,0.3686375021934509,-3.5408999919891357
1697724239596497400,9.636497314453125,-0.6972625255584717,-0.19580000638961792,-3.434612512588501
1697724239605916200,9.645916259765626,-0.6777374744415283,-0.3106124997138977,-3.236612558364868
1697724239615335000,9.6553349609375,-0.6263124942779541,-0.1676124930381775,-2.960512399673462
1697724239624753700,9.664753662109375,-0.6032124757766724,0.0742499977350235,-2.6807000637054443
1697724239634172400,9.67417236328125,-0.6117374897003174,0.31363749504089355,-2.415600061416626
1697724239643591400,9.68359130859375,-0.5824499726295471,0.49939998984336853,-2.194499969482422
1697724239653010200,9.69301025390625,-0.5286874771118164,0.5361124873161316,-2.0724000930786133
1697724239662429000,9.702428955078124,-0.49445000290870667,0.39916250109672546,-2.04544997215271
1697724239671847700,9.71184765625,-0.4749250113964081,0.11948750168085098,-2.140737533569336
1697724239681266700,9.7212666015625,-0.4199250042438507,-0.2605625092983246,-2.304500102996826
1697724239690685400,9.730685546875,-0.33563750982284546,-0.523187518119812,-2.495074987411499
1697724239700104200,9.740104248046874,-0.19016249477863312,-0.6342874765396118,-2.6233625411987305
1697724239709523200,9.749523193359375,-0.08882500231266022,-0.6367624998092651,-2.614837408065796
1697724239718942000,9.75894189453125,0.03451250120997429,-0.6232874989509583,-2.3935999870300293
1697724239728360700,9.768360595703125,0.12251249700784683,-0.6380000114440918,-1.9991124868392944
1697724239737779500,9.777779541015626,0.14698749780654907,-0.6539499759674072,-1.5225374698638916
1697724239747198500,9.787198486328125,0.11151249706745148,-0.6392375230789185,-1.0851500034332275
1697724239756617200,9.7966171875,0.0859375,-0.5720000267028809,-0.7492374777793884
1697724239766036200,9.8060361328125,0.035750001668930054,-0.5219500064849854,-0.495137482881546
1697724239775455000,9.815455078125,0.006462499964982271,-0.5609999895095825,-0.26785001158714294
1697724239784874000,9.8248740234375,-0.022824998944997787,-0.7039999961853027,-0.060224998742341995
1697724239794292700,9.834292724609375,-0.03382499888539314,-0.943387508392334,0.12306249886751175
1697724239803711500,9.84371142578125,-0.05706249922513962,-1.1596750020980835,0.2989250123500824
1697724239813130200,9.853130126953126,-0.09735000133514404,-1.3257750272750854,0.49197500944137573
1697724239822549000,9.862549072265624,-0.1303499937057495,-1.389299988746643,0.7302625179290771
1697724239831968000,9.871968017578125,-0.11935000121593475,-1.3026750087738037,1.024649977684021
1697724239841386800,9.88138671875,-0.04358749836683273,-1.3074874877929688,1.339937448501587
1697724239850805500,9.890805419921875,0.16279999911785126,-1.5518250465393066,1.6037999391555786
1697724239860224500,9.900224609375,0.3460874855518341,-1.4064874649047852,1.6746125221252441
1697724239869643500,9.9096435546875,0.3338499963283539,-0.860337495803833,1.6563249826431274
1697724239879062300,9.919062255859375,0.14451250433921814,-0.633187472820282,1.8969500064849854
1697724239888480800,9.928480712890625,-0.0728750005364418,-0.6599999666213989,2.3722875118255615
1697724239897899800,9.937899658203126,-0.2293500006198883,-0.5317124724388123,2.6764373779296875
1697724239907318500,9.947318603515624,-0.26468750834465027,-0.48042500019073486,2.8010125160217285
1697724239916737500,9.956737548828125,-0.36739999055862427,-0.36918750405311584,2.763200044631958
1697724239926156300,9.96615625,-0.5115000009536743,0.33687499165534973,2.531100034713745
1697724239935575000,9.975574951171875,-0.5017374753952026,0.8830249905586243,2.2415249347686768
1697724239944994000,9.984994140625,-0.3844499886035919,-0.3436124920845032,2.3172874450683594
1697724239954412800,9.994412841796875,-0.17682500183582306,-0.995912492275238,2.4833874702453613
1697724239963831800,10.003831787109375,-0.008112499490380287,-0.6990500092506409,2.4785749912261963
1697724239973250600,10.01325048828125,0.025987500324845314,-0.16279999911785126,2.384387493133545
1697724239982669300,10.02266943359375,0.15303750336170197,0.29906249046325684,2.231762409210205
1697724239992088000,10.032088134765624,0.3375625014305115,0.18301250040531158,2.1742875576019287
1697724240001506800,10.0415068359375,0.45980000495910645,-0.1260875016450882,2.192574977874756
1697724240010925800,10.05092578125,0.5561875104904175,-0.20432500541210175,2.195050001144409
1697724240020344600,10.060344482421876,0.636900007724762,-0.21779999136924744,2.1180500984191895
1697724240029763600,10.069763671875,0.7114250063896179,-0.27390000224113464,1.9702374935150146
1697724240039182300,10.079182373046875,0.8140000104904175,-0.4791874885559082,1.7723749876022339
1697724240048601000,10.08860107421875,0.9007624983787537,-0.7320500016212463,1.5475624799728394
1697724240058019800,10.098019775390625,0.9459999799728394,-0.9361000061035156,1.3179374933242798
1697724240067438600,10.1074384765625,0.947237491607666,-1.121862530708313,1.0698875188827515
1697724240076857600,10.116857666015624,0.8934749960899353,-1.2904374599456787,0.8402624726295471
1697724240086276400,10.1262763671875,0.8054749965667725,-1.51277494430542,0.6545000076293945
1697724240095695400,10.1356953125,0.6954749822616577,-1.7058249711990356,0.5176874995231628
1697724240105113900,10.14511376953125,0.6099500060081482,-1.8364499807357788,0.40892499685287476
1697724240114533000,10.154533203125,0.5341874957084656,-1.8781124353408813,0.31968748569488525
1697724240123951900,10.163951904296875,0.4609000086784363,-1.887874960899353,0.2513499855995178
1697724240133370600,10.17337060546875,0.3961375057697296,-1.8841625452041626,0.23182499408721924
1697724240142789400,10.182789306640625,0.3008500039577484,-1.8364499807357788,0.2611125111579895
1697724240152208100,10.1922080078125,0.1812250018119812,-1.8121124505996704,0.30387499928474426
1697724240161627000,10.201626953125,0.04193750023841858,-1.7718249559402466,0.3746874928474426
1697724240171046000,10.2110458984375,-0.08758749812841415,-1.7008750438690186,0.4651624858379364
1697724240180465000,10.22046484375,-0.17916250228881836,-1.612874984741211,0.5750250220298767
1697724240189883400,10.22988330078125,-0.25616249442100525,-1.5433000326156616,0.6727874875068665
1697724240199302400,10.239302490234374,-0.3123999834060669,-1.4882999658584595,0.7790749669075012
1697724240208721400,10.248721435546875,-0.3404499888420105,-1.4920125007629395,0.8670749664306641
1697724240218140200,10.25814013671875,-0.3686375021934509,-1.5408250093460083,0.9110749959945679
1697724240227559000,10.267558837890626,-0.3881624937057495,-1.5811125040054321,0.8951249718666077
1697724240236977700,10.276977783203124,-0.3746874928474426,-1.538349986076355,0.83160001039505
1697724240246396400,10.286396484375,-0.36121249198913574,-1.358775019645691,0.7375500202178955
1697724240255815200,10.295815185546875,-0.37345001101493835,-1.0668624639511108,0.6264500021934509
1697724240265234200,10.305234130859375,-0.3759250044822693,-0.7723374962806702,0.49939998984336853
1697724240274653200,10.314653076171876,-0.36616250872612,-0.6037625074386597,0.3746874928474426
1697724240284072000,10.324072021484374,-0.3783999979496002,-0.585474967956543,0.29534998536109924
1697724240293490700,10.33349072265625,-0.38692501187324524,-0.6649500131607056,0.28792500495910645
1697724240302909700,10.34290966796875,-0.3796375095844269,-0.7625749707221985,0.38087499141693115
1697724240312328400,10.352328369140626,-0.37097498774528503,-0.9813374876976013,0.5164499878883362
1697724240321747200,10.361747314453124,-0.3478749990463257,-1.1877249479293823,0.7022125124931335
1697724240331166000,10.371166015625,-0.3392125070095062,-1.2293875217437744,0.9048874974250793
1697724240340584700,10.380584716796875,-0.254925012588501,-1.1596750020980835,0.9758374691009521
1697724240350003700,10.390003662109375,-0.14863750338554382,-0.9618124961853027,0.94159996509552
1697724240359422500,10.39942236328125,-0.04606249928474426,-0.4449499845504761,0.806024968624115
1697724240368841200,10.40884130859375,0.021175000816583633,0.0742499977350235,0.6667374968528748
1697724240378260200,10.41826025390625,0.10051249712705612,0.39434999227523804,0.6190249919891357
1697724240387679000,10.427678955078125,0.17998750507831573,0.5189250111579895,0.6202625036239624
1697724240397097700,10.43709765625,0.24227499961853027,0.548212468624115,0.622737467288971
1697724240406516500,10.4465166015625,0.2690874934196472,0.5506874918937683,0.5909749865531921
1697724240415935500,10.455935546875,0.2569875121116638,0.5556374788284302,0.5347374677658081
1697724240425354500,10.4653544921875,0.23980000615119934,0.5689749717712402,0.4846875071525574
1697724240434773200,10.474773193359376,0.2227499932050705,0.5799750089645386,0.44068750739097595
1697724240444192000,10.48419189453125,0.20679999887943268,0.6215000152587891,0.40521249175071716
1697724240453611000,10.493611083984375,0.17379999160766602,0.7339749932289124,0.37716248631477356
1697724240463029800,10.50302978515625,0.11646249890327454,0.8597875237464905,0.3221625089645386
1697724240472448500,10.512448486328125,0.08098749816417694,0.9917874932289124,0.2391124963760376
1697724240481867300,10.5218671875,0.10175000131130219,1.0808874368667603,0.13282500207424164
1697724240491286000,10.5312861328125,0.22632500529289246,1.0773124694824219,0.024062499403953552
1697724240500704800,10.540704833984375,0.3656125068664551,0.9990749955177307,-0.07727500051259995
1697724240510123800,10.550123779296875,0.43408748507499695,0.9220749735832214,-0.1615625023841858
1697724240519542500,10.55954248046875,0.4353249967098236,0.862262487411499,-0.28380000591278076
1697724240528961500,10.56896142578125,0.38032498955726624,0.9440749883651733,-0.4156624972820282
1697724240538380300,10.57838037109375,0.28503748774528503,1.0760749578475952,-0.5366625189781189
1697724240547799000,10.587799072265625,0.22632500529289246,1.1896499395370483,-0.6258999705314636
1697724240557217800,10.5972177734375,0.1835625022649765,1.2396999597549438,-0.6917625069618225
1697724240566636800,10.60663671875,0.14451250433921814,1.2373625040054321,-0.7504749894142151
1697724240576055600,10.6160556640625,0.11151249706745148,1.22017502784729,-0.8067125082015991
1697724240585474300,10.625474365234375,0.07246249914169312,1.3802249431610107,-0.9288125038146973
1697724240594893000,10.63489306640625,0.016224998980760574,1.8358999490737915,-1.2354375123977661
1697724240604311800,10.644311767578126,-0.05458749830722809,2.340524911880493,-1.6240124702453613
1697724240613730800,10.653730712890624,-0.1046374961733818,2.7302000522613525,-1.8683500289916992
1697724240623149600,10.663149658203125,-0.26468750834465027,2.992962598800659,-1.8500624895095825
1697724240632568600,10.672568603515625,-0.6007375121116638,3.3264000415802,-1.6838250160217285
1697724240641987300,10.6819873046875,-0.7900750041007996,3.7674999237060547,-1.3039125204086304
1697724240651406000,10.691406005859376,-0.7106000185012817,4.295225143432617,-0.6869499683380127
1697724240660824800,10.700824951171874,-0.6177874803543091,4.725325107574463,0.008249999955296516
1697724240670243600,10.71024365234375,-0.7680749893188477,4.699612617492676,0.5494499802589417
1697724240679662600,10.71966259765625,-1.0894124507904053,4.3990373611450195,0.9758374691009521
1697724240689081300,10.729081298828126,-1.3582249879837036,3.595212459564209,1.1261249780654907
1697724240698500000,10.7385,-1.448562502861023,2.572624921798706,1.0003124475479126
1697724240707919000,10.747919189453125,-1.4265625476837158,1.7076125144958496,0.6850249767303467
1697724240717337600,10.757337646484375,-1.2592250108718872,0.7645000219345093,0.09129999577999115
1697724240726756600,10.766756591796875,-1.0063624382019043,-0.018562499433755875,-0.6429499983787537
1697724240736175400,10.77617529296875,-0.7253124713897705,-0.22632500529289246,-1.4566749334335327
1697724240745594000,10.785593994140624,-0.4479750096797943,0.2050125002861023,-2.3838374614715576
1697724240755013000,10.79501318359375,-0.24034999310970306,0.9428374767303467,-3.2671375274658203
1697724240764432100,10.80443212890625,-0.09735000133514404,1.7186124324798584,-3.913524866104126
1697724240773850600,10.8138505859375,-0.06929999589920044,1.889662504196167,-4.383774757385254
1697724240783269600,10.82326953125,-0.13158750534057617,0.8109750151634216,-4.441249847412109
1697724240792688400,10.8326884765625,-0.2611125111579895,-0.36313748359680176,-4.052812576293945
1697724240802107100,10.842107177734375,-0.35516250133514404,-0.8652874827384949,-3.439424991607666
1697724240811526100,10.851526123046876,-0.40039998292922974,-0.44618749618530273,-2.7467000484466553
1697724240820945000,10.86094482421875,-0.4712125062942505,0.3918749988079071,-2.1517374515533447
1697724240830364000,10.870364013671875,-0.5725499987602234,0.8463125228881836,-1.77058744430542
1697724240839782700,10.87978271484375,-0.6447374820709229,0.762024998664856,-1.5750625133514404
1697724240849201400,10.889201416015625,-0.6837875247001648,0.5226374864578247,-1.550724983215332
1697724240858620200,10.8986201171875,-0.6935499906539917,0.3503499925136566,-1.6605875492095947
1697724240868039000,10.908038818359374,-0.7033125162124634,0.19401249289512634,-1.865875005722046
1697724240877457700,10.917457763671875,-0.7106000185012817,-0.02227500081062317,-2.101687431335449
1697724240886876700,10.926876708984375,-0.6825500130653381,-0.3460874855518341,-2.3362624645233154
1697724240896295700,10.936295654296876,-0.5702124834060669,-0.6710000038146973,-2.5146000385284424
1697724240905714400,10.94571435546875,-0.4101625084877014,-0.8848124742507935,-2.5573625564575195
1697724240915133400,10.955133544921875,-0.30621248483657837,-1.0289125442504883,-2.4340250492095947
1697724240924552000,10.964552001953125,-0.28187498450279236,-1.0386749505996704,-2.148162603378296
1697724240933970700,10.973970703125,-0.37097498774528503,-1.0276750326156616,-1.704587459564209
1697724240943389700,10.9833896484375,-0.4969249963760376,-1.0253374576568604,-1.2196249961853027
1697724240952808400,10.992808349609374,-0.5359749794006348,-0.9886249899864197,-0.7699999809265137
1697724240962227200,11.002227294921875,-0.4516874849796295,-0.9470999836921692,-0.3863750100135803
1697724240971646000,11.01164599609375,-0.3441624939441681,-0.8775249719619751,-0.056512501090765
1697724240981065000,11.02106494140625,-0.25011250376701355,-0.8322874903678894,0.2428250014781952
1697724240990483700,11.030483642578124,-0.20116250216960907,-0.8359999656677246,0.5005000233650208
1697724240999902700,11.03990283203125,-0.17682500183582306,-0.8933374881744385,0.6935499906539917
1697724241009321500,11.049321533203125,-0.15234999358654022,-0.9861499667167664,0.841362476348877
1697724241018740200,11.058740234375,-0.1340624988079071,-0.9128624796867371,0.9831249713897705
1697724241028159200,11.0681591796875,-0.08635000139474869,-0.6599999666213989,1.1016499996185303
1697724241037577700,11.07757763671875,0.16898749768733978,-1.0461000204086304,1.3179374933242798
1697724241046996700,11.086996826171875,0.509850025177002,-2.129737377166748,1.4559874534606934
1697724241056415500,11.09641552734375,0.5574250221252441,-2.0404999256134033,1.448562502861023
1697724241065834200,11.105834228515626,0.16403749585151672,-1.1449625492095947,1.411987543106079
1697724241075253000,11.1152529296875,-0.24034999310970306,-0.31913748383522034,1.5866124629974365
1697724241084672000,11.124672119140625,-0.3502124845981598,0.1975875049829483,1.8566625118255615
1697724241094090800,11.1340908203125,-0.1120624989271164,-0.6269999742507935,2.135237455368042
1697724241103509800,11.143509765625,0.07975000143051147,-0.8237624764442444,2.152287483215332
1697724241112928500,11.152928466796874,0.057750001549720764,0.018012499436736107,1.840712547302246
1697724241122347300,11.16234716796875,0.01993750035762787,0.020487500354647636,1.6648499965667725
1697724241131766000,11.17176611328125,0.038224998861551285,-0.7405750155448914,1.889662504196167
1697724241141184800,11.181184814453125,0.12127500027418137,-0.7112874984741211,2.12176251411438
1697724241150603800,11.190603759765626,0.2055625021457672,-0.23361249268054962,2.1914749145507812
1697724241160022800,11.200022705078124,0.27527499198913574,0.2428250014781952,2.1682374477386475
1697724241169441500,11.209441650390625,0.42432498931884766,0.18782499432563782,2.1840500831604004
1697724241178860300,11.2188603515625,0.6014249920845032,-0.10051249712705612,2.2573375701904297
1697724241188279000,11.228279052734376,0.6991875171661377,-0.2116124927997589,2.3062875270843506
1697724241197698000,11.237697998046874,0.7138999700546265,-0.1676124930381775,2.242762565612793
1697724241207116800,11.24711669921875,0.6857125163078308,-0.07479999959468842,2.1010000705718994
1697724241216535600,11.25653564453125,0.6674249768257141,-0.10284999758005142,1.9189499616622925
1697724241225954300,11.265954345703125,0.6637125015258789,-0.3460874855518341,1.7210874557495117
1697724241235373000,11.275373046875,0.6539499759674072,-0.7797625064849854,1.5170375108718872
1697724241244792000,11.2847919921875,0.6271374821662903,-1.175624966621399,1.2812249660491943
1697724241254210600,11.29421044921875,0.6026625037193298,-1.4737249612808228,1.0185999870300293
1697724241263629600,11.303629638671875,0.562375009059906,-1.7203999757766724,0.7657374739646912
1697724241273048300,11.31304833984375,0.5293750166893005,-1.9404000043869019,0.5347374677658081
1697724241282467000,11.322467041015624,0.4926624894142151,-2.089449882507324,0.3161124885082245
1697724241291885800,11.3318857421875,0.43037500977516174,-2.1907875537872314,0.1377750039100647
1697724241301304800,11.341304931640625,0.37537500262260437,-2.2763125896453857,0.007012499962002039
1697724241310723800,11.350723876953126,0.24832500517368317,-2.391124963760376,-0.10656250268220901
1697724241320142300,11.360142333984374,0.1200374960899353,-2.4083125591278076,-0.12622499465942383
1697724241329561000,11.36956103515625,0.025987500324845314,-2.302025079727173,-0.0882750004529953
1697724241338980000,11.37897998046875,-0.05335000157356262,-2.1687874794006348,0.0057749999687075615
1697724241348398800,11.38839892578125,-0.1340624988079071,-2.058924913406372,0.15606249868869781
1697724241357817600,11.397817626953126,-0.22082500159740448,-2.0172624588012695,0.32711249589920044
1697724241367236400,11.407236328125,-0.29534998536109924,-2.044212579727173,0.4809750020503998
1697724241376655400,11.4166552734375,-0.3686375021934509,-2.074737548828125,0.595924973487854
1697724241386074000,11.42607421875,-0.4259749948978424,-2.0479249954223633,0.6802124977111816
1697724241395493000,11.4354931640625,-0.4651624858379364,-1.9489250183105469,0.7204999923706055
1697724241404911900,11.444911865234374,-0.4772624969482422,-1.7546374797821045,0.7253124713897705
1697724241414330600,11.45433056640625,-0.45526251196861267,-1.5005375146865845,0.6947875022888184
1697724241423749600,11.46374951171875,-0.42721250653266907,-1.27943754196167,0.6287875175476074
1697724241433168400,11.47316845703125,-0.3942124843597412,-1.1646250486373901,0.548212468624115
1697724241442587100,11.482587158203126,-0.38940000534057617,-1.1596750020980835,0.47244998812675476
1697724241452006000,11.492005859375,-0.36492499709129333,-1.1646250486373901,0.42721250653266907
1697724241461425000,11.5014248046875,-0.30992498993873596,-1.126675009727478,0.40411248803138733
1697724241470843400,11.510843505859375,-0.2574000060558319,-1.0240999460220337,0.40287500619888306
1697724241480262700,11.5202626953125,-0.22811250388622284,-0.9288125038146973,0.4064500033855438
1697724241489681400,11.529681396484374,-0.19511249661445618,-0.8982874751091003,0.4016374945640564
1697724241499100000,11.539099853515625,-0.12430000305175781,-0.8933374881744385,0.41263750195503235
1697724241508519000,11.548518798828125,-0.022824998944997787,-0.9605749845504761,0.3979249894618988
1697724241517937700,11.557937744140625,0.07727500051259995,-0.9886249899864197,0.3478749990463257
1697724241527356400,11.5673564453125,0.15303750336170197,-0.8652874827384949,0.2965874969959259
1697724241536775400,11.576775390625,0.21656249463558197,-0.6441875100135803,0.2391124963760376
1697724241546194000,11.58619384765625,0.2825624942779541,-0.43271249532699585,0.15606249868869781
1697724241555612700,11.59561279296875,0.31927499175071716,-0.25808748602867126,0.06324999779462814
1697724241565032000,11.605031982421876,0.3180375099182129,-0.13832500576972961,-0.013749999925494194
1697724241574450700,11.61445068359375,0.2545124888420105,-0.09308750182390213,-0.056512501090765
1697724241583869400,11.623869384765625,0.1909874975681305,-0.07727500051259995,-0.033275000751018524
1697724241593288200,11.6332880859375,0.1518000066280365,-0.09308750182390213,0.026537500321865082
1697724241602707200,11.642707275390626,0.13227500021457672,-0.13832500576972961,0.09253749996423721
1697724241612126000,11.6521259765625,0.12127500027418137,-0.14079999923706055,0.13887499272823334
1697724241621544700,11.661544677734375,0.10298749804496765,-0.05403750017285347,0.15729999542236328
1697724241630963700,11.670963623046875,0.082225002348423,0.09006249904632568,0.16335000097751617
1697724241640382500,11.680382568359375,0.055412501096725464,0.2586374878883362,0.17434999346733093
1697724241649801000,11.689801025390626,0.014987500384449959,0.45663750171661377,0.20487499237060547
1697724241659220000,11.699219970703124,-0.04977500066161156,0.6814500093460083,0.2611125111579895
1697724241668638700,11.708638671875,-0.11687500029802322,0.8817874789237976,0.3404499888420105
1697724241678057700,11.7180576171875,-0.16458749771118164,1.0466500520706177,0.44440001249313354
1697724241687476500,11.7274765625,-0.13158750534057617,1.1834625005722046,0.5640249848365784
1697724241696895200,11.736895263671874,-0.0728750005364418,1.2506999969482422,0.6324999928474426
1697724241706314000,11.74631396484375,0.002749999985098839,1.2372249364852905,0.612975001335144
1697724241715733000,11.75573291015625,0.07727500051259995,1.1726000308990479,0.5017374753952026
1697724241725151700,11.76515185546875,0.13722500205039978,1.0296000242233276,0.30140000581741333
1697724241734570800,11.77457080078125,0.1457500010728836,0.81826251745224,0.05101250112056732
1697724241743989500,11.783989501953124,0.11275000125169754,0.6239749789237976,-0.1872749924659729
1697724241753408300,11.793408203125,0.14079999923706055,0.4419249892234802,-0.3436124920845032
1697724241762827000,11.802826904296875,0.20432500541210175,0.2330625057220459,-0.4450874924659729
1697724241772245800,11.812245849609376,0.22632500529289246,-0.01979999989271164,-0.5329499840736389
1697724241781664500,11.82166455078125,0.20432500541210175,-0.328900009393692,-0.6344249844551086
1697724241791083300,11.831083251953125,0.17998750507831573,-0.5819000005722046,-0.8079500198364258
1697724241800502000,11.840501953125,0.15427500009536743,-0.2153249979019165,-1.313675045967102
1697724241809921000,11.849921142578125,0.12622499465942383,0.6532624959945679,-2.099212408065796
