time,seconds_elapsed,z,y,x
1697211262110546200,0.077546142578125,9.535950660705566,4.861050128936768,2.0689501762390137
1697211262129384200,0.09638427734375,10.966950416564941,4.873050212860107,2.134050130844116
1697211262148222000,0.115221923828125,12.189000129699707,4.357950210571289,1.9969501495361328
1697211262167060000,0.13406005859375,13.255950927734375,3.81000018119812,2.052000045776367
1697211262185897700,0.152897705078125,12.268050193786621,2.860950231552124,1.9350000619888306
1697211262204735700,0.17173583984375,11.145000457763672,2.6050500869750977,1.5780000686645508
1697211262223573500,0.190573486328125,10.093950271606445,2.7109501361846924,1.4830501079559326
1697211262242411500,0.20941162109375,9.10200023651123,2.659950017929077,1.8390001058578491
1697211262261249500,0.22824951171875,8.530050277709961,2.524050235748291,1.9759501218795776
1697211262280087600,0.247087646484375,8.410050392150879,2.233950138092041,2.3400001525878906
1697211262298925000,0.265925048828125,8.346000671386719,1.9969501495361328,2.8590002059936523
1697211262317763000,0.28476318359375,7.6900506019592285,1.755000114440918,2.6130001544952393
1697211262336601000,0.30360107421875,6.6190505027771,1.5229500532150269,1.53000009059906
1697211262355438800,0.32243896484375,8.334000587463379,3.261000156402588,2.139000177383423
1697211262374276900,0.34127685546875,8.476950645446777,2.5410001277923584,2.139000177383423
1697211262393114600,0.360114501953125,8.346000671386719,2.863950252532959,1.5040500164031982
1697211262411952600,0.37895263671875,7.788000583648682,2.6680500507354736,0.7570500373840332
1697211262430790700,0.397790771484375,7.954950332641602,2.746950149536133,0.4720500111579895
1697211262449628400,0.41662841796875,8.532000541687012,3.2089500427246094,0.15105000138282776
1697211262468466200,0.435466064453125,10.194000244140625,2.905050039291382,0.15600000321865082
1697211262487304200,0.45430419921875,9.271950721740723,2.8849501609802246,0.0010500000789761543
1697211262506142200,0.47314208984375,6.961950302124023,3.181950092315674,0.034050002694129944
1697211262524980000,0.49197998046875,6.03795051574707,3.2950501441955566,0.08400000631809235
1697211262543817700,0.510817626953125,5.857950210571289,3.561000108718872,-0.42195001244544983
1697211262562655700,0.52965576171875,6.943050384521484,3.573000192642212,-0.48900002241134644
1697211262581493800,0.54849365234375,10.2610502243042,3.637050151824951,-0.22605000436306
1697211262600331500,0.56733154296875,11.367000579833984,3.4770002365112305,0.7450500130653381
1697211262619169500,0.58616943359375,9.991050720214844,3.2850000858306885,0.47505003213882446
1697211262638007300,0.60500732421875,8.881950378417969,3.309000253677368,0.5560500025749207
1697211262656845000,0.623844970703125,8.86500072479248,3.2179501056671143,0.7330500483512878
1697211262675683000,0.64268310546875,8.88705062866211,2.524050235748291,1.4970000982284546
1697211262694520800,0.661520751953125,7.291950225830078,2.3590500354766846,1.8750001192092896
1697211262713358800,0.68035888671875,7.386000156402588,3.0460500717163086,1.9039500951766968
1697211262732196900,0.69919677734375,8.740950584411621,3.2970001697540283,2.155050039291382
1697211262751034600,0.71803466796875,10.270950317382812,3.9409501552581787,1.01295006275177
1697211262769873000,0.736872802734375,10.783050537109375,3.1030502319335938,2.731950044631958
1697211262788710700,0.755710693359375,11.880000114440918,3.079050064086914,3.100950241088867
1697211262807548400,0.77454833984375,10.903050422668457,3.0430500507354736,3.388050079345703
1697211262826386400,0.793386474609375,9.142950057983398,3.0649502277374268,2.9599502086639404
1697211262845224200,0.81222412109375,9.720000267028809,2.599950075149536,2.1670501232147217
1697211262864062200,0.831062255859375,11.868000984191895,2.124000072479248,3.0270001888275146
1697211262882900000,0.84989990234375,12.445050239562988,0.7450500130653381,3.478950262069702
1697211262901738000,0.868738037109375,11.620950698852539,1.852950096130371,0.9100500345230103
1697211262920576000,0.887575927734375,10.255950927734375,2.056950092315674,1.1380500793457031
1697211262939413800,0.906413818359375,10.608000755310059,1.9180500507354736,2.704050064086914
1697211262958251500,0.92525146484375,10.395000457763672,1.8850500583648682,2.0209500789642334
1697211262977089500,0.944089599609375,10.144050598144531,1.3819500207901,1.7749500274658203
1697211262995927300,0.96292724609375,9.640950202941895,0.9889500737190247,0.9150000214576721
1697211263014765600,0.981765625,8.52495002746582,1.2139500379562378,1.2499500513076782
1697211263033603300,1.000603271484375,7.243950366973877,1.5709500312805176,2.3680500984191895
1697211263052441000,1.019441162109375,7.651050567626953,1.3720500469207764,1.7440500259399414
1697211263071279000,1.038279052734375,8.82705020904541,0.8119500279426575,1.6429500579833984
1697211263090116900,1.057116943359375,8.604000091552734,0.9940500259399414,1.3699500560760498
1697211263108955000,1.075954833984375,7.2900004386901855,1.4299501180648804,0.8580000400543213
1697211263127792600,1.094792724609375,6.889950275421143,1.3480501174926758,1.5540000200271606
1697211263146630400,1.11363037109375,7.759050369262695,1.3150500059127808,2.1720001697540283
1697211263165468700,1.13246875,7.63200044631958,1.590000033378601,2.3110501766204834
1697211263184306400,1.151306396484375,7.077000141143799,1.6260000467300415,2.4210000038146973
1697211263203144200,1.170144287109375,8.644950866699219,1.0270500183105469,1.5859500169754028
1697211263221982500,1.188982421875,9.909000396728516,0.661050021648407,2.263050079345703
1697211263240820000,1.207820068359375,8.133000373840332,1.987950086593628,3.1560001373291016
1697211263259657700,1.22665771484375,6.615000247955322,3.1660501956939697,3.493950128555298
1697211263278496000,1.24549609375,6.667050361633301,3.5850002765655518,3.2659502029418945
1697211263297333800,1.264333740234375,10.44105052947998,1.5540000200271606,2.5860002040863037
1697211263316171800,1.283171875,14.917950630187988,0.5580000281333923,1.3990501165390015
1697211263335009500,1.302009521484375,14.772000312805176,1.4940000772476196,4.051949977874756
1697211263353847300,1.320847412109375,9.109050750732422,2.5000500679016113,8.493000030517578
1697211263372685300,1.339685302734375,-2.3010001182556152,-11.017050743103027,20.0310001373291
1697211263391523300,1.3585234375,-0.8380500674247742,-3.715050220489502,9.76395034790039
1697211263410361300,1.377361328125,6.0520501136779785,8.410950660705566,-4.195950031280518
1697211263429199000,1.39619921875,13.708950996398926,2.4810001850128174,-9.916050910949707
1697211263448036900,1.415036865234375,11.671051025390625,0.12495000660419464,-1.7179501056671143
1697211263466875000,1.433875,3.9979500770568848,-4.299000263214111,12.937050819396973
1697211263485712600,1.452712646484375,1.4620500802993774,-2.6110501289367676,6.538950443267822
1697211263504551000,1.471551025390625,4.033950328826904,-3.078000068664551,1.7080501317977905
1697211263523388700,1.490388671875,7.126950263977051,-6.469950199127197,8.443050384521484
1697211263542226400,1.509226318359375,8.947050094604492,-6.832050323486328,10.159950256347656
1697211263561064400,1.528064453125,16.041000366210938,-8.236949920654297,11.746950149536133
1697211263579902500,1.54690234375,17.57295036315918,-9.613950729370117,10.633950233459473
1697211263598740000,1.565739990234375,0.5809500217437744,-6.609000205993652,7.702950477600098
1697211263617578200,1.584578125,-10.786050796508789,-8.233050346374512,15.369000434875488
1697211263636416000,1.603416015625,-4.000950336456299,-6.481950283050537,19.91400146484375
1697211263655254000,1.62225390625,3.8560502529144287,-5.424000263214111,18.28095054626465
1697211263674091800,1.641091796875,5.914950370788574,-6.442050457000732,17.565000534057617
1697211263692929500,1.659929443359375,2.937000036239624,-5.860050201416016,11.614950180053711
1697211263711767300,1.678767333984375,0.5190000534057617,-6.430050373077393,7.540050506591797
1697211263730605300,1.697605224609375,1.371000051498413,-5.737950325012207,5.742000102996826
1697211263749443300,1.716443359375,-0.1360500007867813,-5.530050277709961,6.3259501457214355
1697211263768281000,1.735281005859375,1.9459501504898071,-6.609000205993652,5.629950046539307
1697211263787119000,1.754119140625,-1.9939501285552979,-5.332950115203857,7.819950580596924
1697211263805956900,1.772956787109375,-0.2370000183582306,-3.8989500999450684,9.871950149536133
1697211263824795000,1.791794921875,6.1810503005981445,-4.6650004386901855,10.131000518798828
1697211263843633000,1.8106328125,8.568000793457031,-5.16795015335083,13.477951049804688
1697211263862470700,1.829470703125,3.186000108718872,-2.5320000648498535,13.564050674438477
1697211263881308400,1.848308349609375,-11.374950408935547,-0.6690000295639038,9.160950660705566
1697211263900146700,1.867146728515625,-5.872950077056885,-2.580000162124634,9.112950325012207
1697211263918984400,1.885984375,1.6579500436782837,-4.219950199127197,8.383049964904785
1697211263937822200,1.904822265625,-3.1459500789642334,-3.5520002841949463,2.802000045776367
1697211263956660000,1.923659912109375,-0.9930000305175781,-3.7740001678466797,7.617000579833984
1697211263975498000,1.942498046875,4.72605037689209,-3.1210501194000244,10.705050468444824
1697211263994335700,1.961335693359375,3.2479500770568848,-4.477950096130371,1.6980000734329224
1697211264013173800,1.980173828125,-3.1150500774383545,-5.374050140380859,1.3990501165390015
1697211264032011800,1.99901171875,-6.4519500732421875,-3.595050096511841,6.661050319671631
1697211264050849500,2.017849609375,-4.9009504318237305,-2.3910000324249268,10.23900032043457
1697211264069687300,2.036687255859375,-5.784000396728516,-2.7330000400543213,11.887950897216797
1697211264088525300,2.055525390625,-5.320050239562988,-1.1340000629425049,9.372000694274902
1697211264107363000,2.074363037109375,4.342050075531006,-3.6280500888824463,11.560050964355469
1697211264126201300,2.093201416015625,8.88705062866211,-3.4579501152038574,14.26305103302002
1697211264145039000,2.1120390625,-1.0290000438690186,-3.9210002422332764,10.882950782775879
1697211264163876900,2.130876953125,1.3210500478744507,-3.784050226211548,11.176950454711914
1697211264182715000,2.14971484375,7.978950500488281,-5.568000316619873,13.083000183105469
1697211264201553000,2.168552978515625,8.968050003051758,-7.4160003662109375,9.541950225830078
1697211264220391000,2.187390869140625,6.801000118255615,-8.565000534057617,4.471050262451172
1697211264239228700,2.206228759765625,4.39995002746582,-10.167000770568848,5.221950054168701
1697211264258066700,2.225066650390625,-5.808000087738037,-9.022950172424316,12.112950325012207
1697211264276904400,2.243904541015625,-0.8020500540733337,-7.099950313568115,11.272950172424316
1697211264295742500,2.262742431640625,1.5580500364303589,-1.2079501152038574,4.558950424194336
1697211264314580200,2.281580322265625,-3.3610501289367676,-0.6139500141143799,2.7829501628875732
1697211264333418200,2.300418212890625,-5.653050422668457,-4.749000072479248,4.576050281524658
1697211264352256000,2.319256103515625,4.171950340270996,-5.10105037689209,3.8389501571655273
1697211264371094000,2.338093994140625,5.305050373077393,-3.9250502586364746,-0.492000013589859
1697211264389932000,2.35693212890625,1.1839500665664673,-4.383000373840332,0.597000002861023
1697211264408769800,2.375769775390625,1.5670500993728638,-4.7659502029418945,-1.0690500736236572
1697211264427607800,2.39460791015625,2.665950059890747,-6.9370503425598145,-0.527999997138977
1697211264446445800,2.41344580078125,3.7800002098083496,-8.282999992370605,1.5739500522613525
1697211264465283600,2.43228369140625,2.5470001697540283,-6.684000492095947,2.5669500827789307
1697211264484121300,2.451121337890625,1.2370500564575195,-6.856050491333008,2.5309500694274902
1697211264502959400,2.46995947265625,1.117050051689148,-13.086000442504883,4.423050403594971
1697211264521797400,2.48879736328125,2.8560001850128174,-28.09305191040039,5.050050258636475
1697211264540635100,2.50763525390625,-1.207050085067749,-24.13800048828125,7.4160003662109375
1697211264559473200,2.52647314453125,-2.823000192642212,-14.830950736999512,7.7440505027771
1697211264578311000,2.545310791015625,-2.061000108718872,-8.008049964904785,-1.2910500764846802
1697211264597149000,2.56414892578125,-3.0330002307891846,-9.157050132751465,-0.46800002455711365
1697211264615986700,2.582986572265625,-0.7609500288963318,-9.253050804138184,0.20400001108646393
1697211264634824700,2.60182470703125,1.7400001287460327,-9.195000648498535,2.155050039291382
1697211264653662700,2.620662841796875,2.3140501976013184,-10.774950981140137,3.352950096130371
1697211264672500500,2.63950048828125,0.8350500464439392,-12.243000984191895,2.811000108718872
1697211264691338500,2.65833837890625,-1.7929500341415405,-13.699050903320312,1.6930500268936157
1697211264710176500,2.677176513671875,-1.2160500288009644,-13.419000625610352,1.758000135421753
1697211264729014300,2.69601416015625,-0.08100000023841858,-13.230000495910645,2.184000015258789
1697211264747852000,2.71485205078125,0.6769500374794006,-12.664051055908203,3.6949501037597656
1697211264766690000,2.73368994140625,0.8059500455856323,-13.063950538635254,1.210050106048584
1697211264785527800,2.75252783203125,0.17400000989437103,-13.078950881958008,-0.015000000596046448
1697211264804365800,2.77136572265625,1.6939500570297241,-12.700050354003906,-1.2360000610351562
1697211264823203800,2.790203857421875,4.900050163269043,-12.7339506149292,-2.30400013923645
1697211264842041900,2.809041748046875,1.5360000133514404,-13.576951026916504,-1.9999500513076782
1697211264860879600,2.827879638671875,2.281050205230713,-13.990950584411621,-1.3780500888824463
1697211264879717400,2.84671728515625,4.048050403594971,-12.346050262451172,-1.894950032234192
1697211264898555400,2.865555419921875,2.6520001888275146,-11.40000057220459,-1.576050043106079
1697211264917393400,2.884393310546875,-1.5130500793457031,-10.821000099182129,-1.8709501028060913
1697211264936231200,2.903231201171875,-1.0489500761032104,-9.456000328063965,0.5149500370025635
1697211264955069200,2.922069091796875,2.707050085067749,-9.098999977111816,-1.8160500526428223
1697211264973907000,2.940906982421875,0.10005000233650208,-8.956050872802734,-2.7660000324249268
1697211264992745000,2.959744873046875,1.4959501028060913,-7.380000114440918,-5.187000274658203
1697211265011583000,2.9785830078125,-1.7670000791549683,-5.254050254821777,-4.471050262451172
1697211265030420700,2.997420654296875,-0.1360500007867813,-4.593000411987305,-3.4080002307891846
1697211265049258500,3.016258544921875,3.95205020904541,-4.81095027923584,-1.5280500650405884
1697211265068096500,3.035096435546875,0.46605002880096436,-5.620050430297852,-0.09195000678300858
1697211265086934300,3.053934326171875,0.4710000157356262,-6.420000076293945,0.9340500235557556
1697211265105772300,3.072772216796875,1.5390000343322754,-6.601950168609619,1.1040000915527344
1697211265124610300,3.0916103515625,2.974950075149536,-5.071950435638428,0.5389500260353088
1697211265143448300,3.1104482421875,1.2370500564575195,-4.009050369262695,0.5509500503540039
1697211265162286000,3.1292861328125,0.2530499994754791,-2.6989500522613525,-0.4249500334262848
1697211265181123800,3.148123779296875,0.2650500237941742,-3.8770501613616943,0.7500000596046448
1697211265199962000,3.166962158203125,-6.553050518035889,-8.422050476074219,3.0289502143859863
1697211265218799900,3.1857998046875,-28.063051223754883,-15.16200065612793,4.843950271606445
1697211265237638000,3.204637939453125,-22.516050338745117,-19.840051651000977,-0.6829500198364258
1697211265256475600,3.2234755859375,-2.5159502029418945,-19.474050521850586,2.6580002307891846
1697211265275313700,3.242313720703125,-8.926050186157227,-12.68595027923584,0.7930500507354736
1697211265294151700,3.261151611328125,-7.180050373077393,-7.929000377655029,-4.348950386047363
1697211265312989400,3.279989501953125,-4.73805046081543,-8.575050354003906,-9.268950462341309
1697211265331827500,3.298827392578125,1.9459501504898071,-6.925050258636475,-10.821000099182129
1697211265350665500,3.31766552734375,-1.3189500570297241,-7.390050411224365,-3.334050178527832
1697211265369503200,3.336503173828125,9.175950050354004,-7.489950180053711,-1.4040000438690186
1697211265388341000,3.355341064453125,1.8330000638961792,-9.862950325012207,-1.8229501247406006
1697211265407179000,3.374178955078125,2.9800500869750977,-11.716050148010254,-4.837050437927246
1697211265426017000,3.39301708984375,2.986950159072876,-12.652950286865234,-3.175950050354004
1697211265444855000,3.41185498046875,3.4489500522613525,-12.520950317382812,-0.7189500331878662
1697211265463692800,3.43069287109375,4.036050319671631,-12.054000854492188,-0.6190500259399414
1697211265482530600,3.449530517578125,2.9010000228881836,-11.589000701904297,0.7260000109672546
1697211265501368800,3.468368896484375,-1.7170500755310059,-11.182050704956055,2.1510000228881836
1697211265520206600,3.48720654296875,-2.5860002040863037,-10.462050437927246,2.8590002059936523
1697211265539044400,3.50604443359375,-0.7060500383377075,-9.535050392150879,0.7260000109672546
1697211265557882400,3.52488232421875,-0.06000000238418579,-9.304950714111328,-0.31005001068115234
1697211265576720100,3.54372021484375,0.9589500427246094,-8.8410005569458,-0.12495000660419464
1697211265595558100,3.56255810546875,0.5470499992370605,-8.25195026397705,-1.689000129699707
1697211265614396200,3.581396240234375,-0.26100000739097595,-7.881000518798828,-2.4979500770568848
1697211265633234200,3.600234130859375,-2.01104998588562,-7.768050193786621,-1.6549500226974487
1697211265652072000,3.619072021484375,-2.9539501667022705,-7.91895055770874,-1.300950050354004
1697211265670909700,3.63790966796875,-1.7310000658035278,-8.170050621032715,-0.2740500271320343
1697211265689747500,3.65674755859375,-0.31800001859664917,-8.211000442504883,0.07695000618696213
1697211265708585700,3.675585693359375,1.0770000219345093,-8.067000389099121,-0.3460500240325928
1697211265727423500,3.694423583984375,1.6750500202178955,-7.861950397491455,-0.520050048828125
1697211265746261500,3.713261474609375,0.9139500260353088,-7.681950569152832,-1.0090500116348267
1697211265765099300,3.732099365234375,-0.16305001080036163,-8.664000511169434,-0.35295000672340393
1697211265783937000,3.75093701171875,0.7960500121116638,-10.356000900268555,0.5800500512123108
1697211265802775300,3.769775390625,0.8590500354766846,-11.134950637817383,1.5709500312805176
1697211265821613000,3.788613037109375,-2.434950113296509,-10.543050765991211,1.2000000476837158
1697211265840451000,3.807451171875,-5.361000061035156,-9.796050071716309,1.6980000734329224
1697211265859288800,3.826288818359375,-2.947050094604492,-8.07194995880127,0.5539500117301941
1697211265878126800,3.845126953125,1.0720500946044922,-8.343000411987305,0.2850000262260437
1697211265896964900,3.86396484375,2.578050136566162,-11.167950630187988,-0.25005000829696655
1697211265915802600,3.882802734375,-0.814050018787384,-12.178050994873047,-1.1790000200271606
1697211265934640600,3.901640625,-4.776000022888184,-13.063950538635254,-0.6469500064849854
1697211265953478400,3.920478515625,-1.645050048828125,-14.5420503616333,0.21105000376701355
1697211265972316400,3.93931640625,3.1879501342773438,-15.135001182556152,-0.11295000463724136
1697211265991154400,3.958154541015625,3.8080501556396484,-15.229050636291504,0.21105000376701355
1697211266009992400,3.976992431640625,4.836000442504883,-12.244950294494629,-2.4310500621795654
1697211266028830200,3.995830322265625,2.5660500526428223,-11.737950325012207,-3.1060502529144287
1697211266047668000,4.01466796875,1.6900501251220703,-13.672050476074219,-3.235950231552124
1697211271199837700,9.166837646484375,-0.25095000863075256,-7.675050258636475,-2.9820001125335693
1697211271218675500,9.185675537109375,4.285050392150879,-8.272950172424316,-1.606950044631958
1697211271237513500,9.204513427734375,4.383000373840332,-8.521950721740723,-0.4410000145435333
1697211271256351200,9.223351318359375,-0.7969500422477722,-8.163000106811523,0.11805000901222229
1697211271275189200,9.242189208984374,0.7410000562667847,-6.39900016784668,-1.0950000286102295
1697211271294027000,9.261027099609375,1.1340000629425049,-4.849950313568115,-1.998000144958496
1697211271312865300,9.279865234375,1.596000075340271,-4.663050174713135,-1.0969500541687012
1697211271331703000,9.298703125,2.6070001125335693,-4.465950012207031,-0.9799500703811646
1697211271350541000,9.317541015625,2.857950210571289,-2.8909502029418945,-1.3900500535964966
1697211271369378800,9.33637890625,2.041949987411499,-1.5910500288009644,-1.4640001058578491
1697211271388216800,9.355216796875,0.9589500427246094,-1.4040000438690186,-1.380000114440918
1697211271407054800,9.374054931640625,0.853950023651123,-2.6299500465393066,-0.4510500133037567
1697211271425892600,9.392892578125,-3.109950065612793,-7.395000457763672,0.9850500226020813
1697211271444730400,9.41173046875,-29.122051239013672,-16.63905143737793,7.0159502029418945
1697211271463568400,9.430568359375,-23.73900032043457,-24.45600128173828,-0.973050057888031
1697211271482406400,9.449406494140625,-4.056000232696533,-24.814950942993164,-3.327000141143799
1697211271501244400,9.468244384765624,1.0380001068115234,-12.229050636291504,2.9190001487731934
1697211271520082200,9.487082275390625,-8.125950813293457,-0.3169500231742859,1.300950050354004
1697211271830907600,9.79790771484375,-0.3829500079154968,-7.669950485229492,-0.8269500136375427
1697211271849745400,9.816745361328126,0.1879500150680542,-6.601950168609619,-2.1319501399993896
1697211271868583200,9.835583251953125,1.3399500846862793,-6.6910505294799805,-3.42900013923645
1697211271887421200,9.854421142578126,-0.3850500285625458,-7.174050331115723,-3.492000102996826
1697211271906259000,9.873259033203125,-1.8030000925064087,-7.024050235748291,-3.598950147628784
1697211271925097200,9.89209716796875,-2.539950132369995,-6.978000164031982,-3.700050115585327
1697211271943935000,9.91093505859375,-1.2139500379562378,-7.183950424194336,-2.7300000190734863
1697211271962772700,9.929772705078125,0.41805002093315125,-8.209050178527832,-1.662000060081482
1697211271981610800,9.94861083984375,1.6579500436782837,-9.480000495910645,-0.9919500350952148
1697211272000448800,9.96744873046875,1.651050090789795,-9.985050201416016,-0.5869500041007996
1697211272019286300,9.986286376953124,1.0380001068115234,-9.550050735473633,-0.0010500000789761543
1697211272038124500,10.00512451171875,-0.16995000839233398,-10.155000686645508,0.520050048828125
1697211272056962300,10.02396240234375,-1.432050108909607,-10.912050247192383,-0.7240500450134277
1697211272075800300,10.04280029296875,-5.658000469207764,-9.946950912475586,-2.0620501041412354
1697211272094638000,10.06163818359375,-5.728950500488281,-8.617950439453125,-1.801050066947937
1697211272113476000,10.08047607421875,1.3300501108169556,-8.913000106811523,-1.270050048828125
1697211272132313900,10.09931396484375,5.259000301361084,-10.066950798034668,-0.5370000004768372
1697211272151151900,10.11815185546875,4.192049980163574,-11.788050651550293,-0.4510500133037567
1697211272169990000,10.136989990234374,-1.7280000448226929,-13.677000999450684,0.7429500222206116
1697211272188827600,10.15582763671875,-3.8209502696990967,-14.029050827026367,0.6589500308036804
1697211272207665400,10.17466552734375,-2.2360501289367676,-15.246000289916992,-1.284000039100647
1697211272226503400,10.19350341796875,2.098950147628784,-15.934950828552246,-0.9799500703811646
1697211272245341400,10.212341552734374,2.080049991607666,-13.668000221252441,-2.587050199508667
1697211272264179200,10.23117919921875,1.4359500408172607,-12.298050880432129,-3.5659501552581787
1697211272283017200,10.250017333984376,2.9110500812530518,-11.848050117492676,-4.312950134277344
1697211272301855200,10.268855224609375,3.4780502319335938,-12.331950187683105,-6.32895040512085
1697211272320693000,10.28769287109375,4.342050075531006,-13.243950843811035,-6.250050067901611
1697211272339531000,10.306531005859375,3.157050132751465,-13.174050331115723,-6.781050205230713
1697211272358368800,10.32536865234375,1.227000117301941,-12.295950889587402,-5.422050476074219
1697211272377206500,10.34420654296875,0.27000001072883606,-11.3860502243042,-5.706000328063965
1697211272396044500,10.36304443359375,-1.2019500732421875,-9.316950798034668,-4.768050193786621
1697211272414882300,10.38188232421875,-0.11700000613927841,-7.890000343322754,-4.581000328063965
1697211272433720600,10.400720458984376,0.6820500493049622,-7.7059502601623535,-2.455050230026245
1697211272452558300,10.419558349609375,4.06695032119751,-6.933000564575195,-1.957050085067749
1697211272471396400,10.438396240234376,3.00600004196167,-6.625950336456299,-1.5640500783920288
1697211272490234400,10.457234375,1.2990000247955322,-6.2910003662109375,0.42195001244544983
1697211272509072000,10.47607177734375,0.8179500102996826,-7.4160003662109375,0.5080500245094299
1697211272527910000,10.494909912109375,0.5089499950408936,-7.432950496673584,0.2950500249862671
1697211272546748000,10.513747802734375,0.23895001411437988,-6.925050258636475,-0.6400500535964966
1697211272565585700,10.532585693359374,1.117050051689148,-5.857950210571289,-1.6030501127243042
1697211272584423700,10.551423583984375,1.6849501132965088,-4.938000202178955,-1.7920501232147217
1697211272603261400,10.570261474609374,2.1439499855041504,-3.8340001106262207,-1.9830000400543213
1697211272622099500,10.589099365234375,1.9650001525878906,-2.8650002479553223,-1.7940000295639038
1697211272640937500,10.6079375,0.5790000557899475,-2.68500018119812,-1.6980000734329224
1697211272659775200,10.626775146484375,-1.1749500036239624,-3.82200026512146,-0.6379500031471252
1697211272678613200,10.64561328125,-5.779950141906738,-6.7669501304626465,0.5269500017166138
1697211272697451000,10.664450927734375,-17.176050186157227,-12.142951011657715,2.7280502319335938
1697211272716289000,10.6832890625,-18.994050979614258,-16.831050872802734,-0.9970500469207764
1697211272735126800,10.702126708984375,-21.68505096435547,-20.43600082397461,1.5400500297546387
1697211272753964800,10.72096484375,1.002000093460083,-15.811050415039062,0.21405000984668732
1697211272772802600,10.739802490234375,-3.8929502964019775,-8.059950828552246,1.8390001058578491
1697211272791640600,10.758640625,-11.272050857543945,-2.098050117492676,-0.7669500112533569
1697211272810478300,10.777478271484375,-9.196050643920898,-5.014950275421143,-4.44195032119751
1697211272829316400,10.79631640625,7.576950550079346,-9.007950782775879,-10.414050102233887
1697211282577903000,20.544903076171874,1.0290000438690186,-8.427000045776367,0.9630000591278076
1697211282596740900,20.563740966796875,2.0629501342773438,-7.821000576019287,1.5570000410079956
1697211282615578600,20.58257861328125,1.3180500268936157,-6.379050254821777,-1.1430000066757202
1697211282634416400,20.60141650390625,0.934950053691864,-5.071950435638428,-2.098050117492676
1697211282653254100,20.620254150390625,1.7130000591278076,-4.3060503005981445,-2.6010000705718994
1697211282672092000,20.639091796875,2.212050199508667,-2.8000500202178955,-3.5470502376556396
1697211282690929700,20.6579296875,2.001000165939331,-1.6360501050949097,-2.2420501708984375
1697211282709767700,20.676767578125,1.3420500755310059,-0.7339500188827515,-1.609950065612793
1697211282728605700,20.695605712890625,0.12600000202655792,-1.4089500904083252,-1.13100004196167
1697211282747443200,20.714443115234374,-4.8670501708984375,-4.564949989318848,0.5370000004768372
1697211282766281000,20.733281005859375,-23.320051193237305,-10.909050941467285,0.8700000643730164
1697211282785118700,20.75211865234375,-14.599950790405273,-15.046950340270996,-8.527050018310547
1697211282803956700,20.770956787109377,-22.354951858520508,-20.566051483154297,-7.404000282287598
1697211282822794500,20.78979443359375,-6.69195032119751,-16.536001205444336,-4.7820000648498535
1697211282841632300,20.80863232421875,-5.398950099945068,-9.982950210571289,-0.6160500049591064
1697211282860470000,20.827469970703124,-11.998050689697266,-3.0829501152038574,-3.802950143814087
1697211282879307500,20.8463076171875,-16.252050399780273,-9.025050163269043,-7.006950378417969
1697211282898145500,20.8651455078125,13.411951065063477,-12.870000839233398,-13.945050239562988
1697211282916983300,20.8839833984375,3.753000259399414,-6.696000099182129,-3.2910001277923584
1697211282935821000,20.902821044921875,8.128050804138184,-0.922950029373169,-3.015000104904175
1697211282954658800,20.921658935546876,-2.1949501037597656,-4.486050128936768,-7.857000350952148
1697211282973496800,20.940496826171874,10.76400089263916,-10.51200008392334,-6.991950511932373
1697211282992334600,20.95933447265625,5.91795015335083,-12.052050590515137,-5.173050403594971
1697211283011172400,20.97817236328125,-0.0070500001311302185,-12.664051055908203,-2.874000072479248
1697211283030010000,20.997010009765624,-1.527000069618225,-14.338050842285156,-2.224950075149536
1697211283048848000,21.015847900390625,-0.032999999821186066,-14.611050605773926,-2.2710001468658447
1697211283067685400,21.034685302734374,-0.41895002126693726,-13.27695083618164,-0.8100000619888306
1697211283086523100,21.053523193359375,-1.3690500259399414,-11.503050804138184,0.11295000463724136
1697211283105361200,21.072361083984376,-1.5109500885009766,-10.141050338745117,-0.26205000281333923
1697211283124199000,21.091198974609377,-0.9930000305175781,-9.38895034790039,-1.6459500789642334
1697211283143036700,21.11003662109375,-1.0720500946044922,-8.248950004577637,-2.605950117111206
1697211283161874400,21.12887451171875,-0.6679500341415405,-7.23900032043457,-2.1889500617980957
1697211283180712400,21.14771240234375,0.24105000495910645,-6.810000419616699,-2.5099501609802246
1697211283199550000,21.166550048828125,0.4210500121116638,-6.688050270080566,-3.433950185775757
1697211283218388000,21.185387939453125,-0.21300001442432404,-6.892050266265869,-3.259050130844116
1697211283237225700,21.204225830078126,-1.6090500354766846,-7.234050273895264,-3.733950138092041
1697211290244854500,28.2118544921875,0.6169500350952148,-1.5670500993728638,-2.0929501056671143
1697211290263692300,28.2306923828125,-2.883000135421753,-3.633000135421753,-1.0110000371932983
1697211290282529800,28.24952978515625,-14.932950973510742,-6.420000076293945,-0.7069500088691711
1697211290301367800,28.268367919921875,-21.867000579833984,-11.290050506591797,-3.1279501914978027
1697211290320205300,28.287205322265624,-20.44500160217285,-17.902950286865234,-6.472950458526611
1697211290339042800,28.306042724609377,-12.280050277709961,-22.768051147460938,-2.5219500064849854
1697211290357880600,28.324880615234374,-1.360050082206726,-12.576000213623047,2.0429999828338623
1697211290376718000,28.343718017578126,-9.164999961853027,-1.0069500207901,1.746000051498413
1697211290395556000,28.36255615234375,-12.31095027923584,1.2169500589370728,-4.5329999923706055
1697211290414393600,28.3813935546875,2.7739500999450684,-7.7989501953125,-11.320950508117676
1697211290433231400,28.4002314453125,-2.8129501342773438,-16.761001586914062,-14.422050476074219
1697211290452069000,28.419069091796874,3.175950050354004,-13.807050704956055,-3.592050075531006
1697211290470906600,28.43790673828125,8.781000137329102,-2.725950241088867,-2.319000005722046
1697211290489744400,28.456744384765624,-2.760000228881836,-3.733950138092041,-7.420950412750244
1697211290508582000,28.475581787109373,7.659000396728516,-8.85300064086914,-7.8349504470825195
1697211290527419600,28.494419677734374,7.0219502449035645,-11.569950103759766,-4.560000419616699
1697211290546257400,28.51325732421875,4.824000358581543,-12.844050407409668,-3.1249501705169678
1697211290565095000,28.532094970703124,1.7449500560760498,-15.789000511169434,-2.5480501651763916
1697211290583932700,28.5509326171875,1.1440500020980835,-16.834951400756836,-1.5619500875473022
1697211290602770200,28.569770263671874,1.3810501098632812,-14.59695053100586,1.7050501108169556
1697211290621608200,28.588608154296875,1.2439500093460083,-10.588950157165527,1.8300000429153442
1697211290640445700,28.60744580078125,-3.201000213623047,-9.267000198364258,1.1910001039505005
1697211290659283200,28.626283203125,-3.369000196456909,-9.841950416564941,0.8119500279426575
1697211290678121000,28.645120849609373,-1.5679501295089722,-8.36400032043457,-1.8919501304626465
1697211290696958500,28.66395849609375,-0.0880500078201294,-7.006950378417969,-2.0500500202178955
1697211290715796200,28.682796142578123,0.6049500107765198,-6.004050254821777,-3.103950262069702
1697211290734634000,28.701634033203124,-0.021000001579523087,-5.74500036239624,-5.344950199127197
1697211290753471500,28.720471435546877,-0.8620500564575195,-6.408000469207764,-3.922950267791748
1697211290772309200,28.739309326171874,-1.2739500999450684,-6.493950366973877,-4.078050136566162
1697211290791146800,28.758146728515626,-1.2660000324249268,-6.370050430297852,-3.5970001220703125
1697211290809984500,28.776984619140624,-0.703950047492981,-6.712050437927246,-2.428950071334839
1697211290828822300,28.795822265625,0.5119500160217285,-7.846950531005859,-1.3420500755310059
1697211290847659800,28.81465966796875,-0.2779500186443329,-9.022950172424316,-0.5659500360488892
1697211290866497500,28.83349755859375,-1.0600500106811523,-9.901050567626953,0.1489500105381012
1697211290885335000,28.8523349609375,-0.5620500445365906,-10.96500015258789,0.31905001401901245
1697211290904172500,28.871172607421876,0.4900500178337097,-12.183000564575195,-0.6780000329017639
1697211290923010300,28.89001025390625,-3.3949501514434814,-11.071950912475586,-2.353950023651123
1697211290941848000,28.90884814453125,-5.827950477600098,-9.532950401306152,-1.9639500379562378
1697211290960685800,28.927685791015627,-1.1230500936508179,-8.770950317382812,-2.055000066757202
1697211290979523300,28.9465234375,2.620950222015381,-10.455000877380371,-0.9919500350952148
1697211290998360800,28.96536083984375,4.282950401306152,-12.505950927734375,-0.8100000619888306
1697211291017198600,28.984198486328125,3.046950101852417,-13.85205078125,-0.14205001294612885
1697211291036036400,29.003036376953126,-0.9310500621795654,-14.580000877380371,-2.7090001106262207
1697211291054873900,29.021873779296875,-6.141000270843506,-14.464950561523438,-5.850000381469727
1697211291073711600,29.040711669921876,-4.434000015258789,-13.062000274658203,-4.150050163269043
1697211291092549000,29.059549072265625,-1.4719500541687012,-12.47295093536377,-2.4409501552581787
1697211291111387000,29.078386962890626,-1.0630500316619873,-12.877950668334961,-1.9429501295089722
1697211291130224400,29.097224365234375,1.6030501127243042,-13.552950859069824,-3.730950117111206
1697211291149062000,29.116061767578124,3.7200002670288086,-14.221050262451172,-5.104950428009033
1697211291167899600,29.134899658203125,6.472950458526611,-13.725000381469727,-6.384000301361084
1697211291186737400,29.1537373046875,6.994950294494629,-13.62195110321045,-9.1399507522583
1697211291205575000,29.172574951171875,4.720950126647949,-14.044050216674805,-9.244950294494629
1697211291224412700,29.19141259765625,2.242950201034546,-12.20205020904541,-7.750950336456299
1697211291243250200,29.210250244140624,-1.4790000915527344,-8.29995059967041,-4.689000129699707
1697211291262088000,29.229087890625,-4.113000392913818,-6.5590500831604,-2.9239501953125
1697211291280925700,29.24792578125,-2.8729500770568848,-6.484950542449951,-5.014050006866455
1697211291299763200,29.26676318359375,1.2060000896453857,-7.681950569152832,-5.16795015335083
1697211291318601000,29.28560107421875,5.323950290679932,-7.870950222015381,-3.6979501247406006
1697211291337438500,29.3044384765625,1.290000081062317,-7.383000373840332,0.11100000888109207
1697211291356276200,29.323276123046874,2.0850000381469727,-6.442050457000732,0.6780000329017639
1697211291375114000,29.342114013671875,1.9890000820159912,-5.7210001945495605,0.13695000112056732
1697211291393951700,29.36095166015625,1.4170501232147217,-6.063000202178955,0.453000009059906
1697211291412789200,29.379789306640625,2.578050136566162,-5.332950115203857,-0.4320000112056732
1697211291431627000,29.398626953125,2.745000123977661,-3.8800501823425293,-1.3300501108169556
1697211291450464500,29.417464599609374,2.820000171661377,-1.7730001211166382,-2.4810001850128174
1697211291469302000,29.436302001953123,2.6539502143859863,-0.4339500069618225,-1.311000108718872
1697211291488139800,29.455139892578124,1.749000072479248,-0.6400500535964966,0.00795000046491623
1697211291506977500,29.4739775390625,-1.8889501094818115,-3.7669501304626465,0.45795002579689026
1697211291525815000,29.49281494140625,-28.36695098876953,-10.207950592041016,0.5490000247955322
1697211291544652800,29.51165283203125,-20.803951263427734,-17.391000747680664,-11.356950759887695
1697211291563490300,29.530490234375,-23.66295051574707,-24.97395133972168,-14.362051010131836
1697211291582327800,29.549327880859376,-4.70205020904541,-17.00295066833496,0.16095000505447388
1697211291601165800,29.568165771484374,-6.349050521850586,-4.147950172424316,2.983950138092041
1697211291620003300,29.58700341796875,-6.4519500732421875,3.201000213623047,-1.7149500846862793
1697211291638840800,29.6058408203125,4.972050189971924,-0.23100000619888306,-5.746950149536133
1697211291657678600,29.6246787109375,5.985000133514404,-6.29295015335083,-11.230050086975098
1697211291676516400,29.643516357421873,-18.421051025390625,-15.363000869750977,-19.19805145263672
1697211291695353900,29.662353759765626,6.061950206756592,-14.779050827026367,-2.617950201034546
1697211291714191600,29.681191650390623,4.885950088500977,-6.175950527191162,-0.7720500230789185
1697211291733029000,29.700029052734376,-2.5450501441955566,-5.248950481414795,-2.851950168609619
1697211291751867100,29.7188671875,4.072050094604492,-8.079000473022461,-5.218050479888916
1697211291770704400,29.737704345703126,5.053950309753418,-11.190000534057617,-3.9270002841949463
1697211291789542100,29.756542236328126,3.0900001525878906,-13.974000930786133,-2.7970502376556396
1697211291808379600,29.775379638671875,1.9410001039505005,-15.856050491333008,-2.388000011444092
1697211291827217400,29.794217529296876,1.5220500230789185,-14.557950973510742,-1.0690500736236572
1697211291846055200,29.81305517578125,1.5340501070022583,-11.170050621032715,-0.10395000129938126
1697211291864893000,29.831892822265626,1.1220000982284546,-8.85300064086914,-1.7100000381469727
1697211291883730200,29.850730224609375,-3.4740002155303955,-9.95205020904541,-0.3169500231742859
1697211291902568000,29.86956787109375,-3.756000280380249,-9.253050804138184,-1.801050066947937
1697211291921405700,29.88840576171875,-1.7640000581741333,-7.6050004959106445,-1.9470001459121704
1697211291940243200,29.9072431640625,0.15000000596046448,-6.865950107574463,-2.413950204849243
1697211291959080700,29.926080810546875,-0.14595000445842743,-6.3409504890441895,-3.44100022315979
1697211291977918200,29.944918212890624,-1.1350500583648682,-6.565950393676758,-3.5080502033233643
1697211291996756000,29.963755859375,-1.7050501108169556,-7.267950534820557,-3.3070502281188965
1697211292015593700,29.98259375,-1.9420500993728638,-7.359000205993652,-3.183000087738037
1697211292034431200,30.00143115234375,-1.5700501203536987,-7.3660502433776855,-2.5219500064849854
1697211292053269000,30.02026904296875,-0.1870500147342682,-7.5859503746032715,-1.7730001211166382
1697211292072106800,30.039106689453124,1.5100500583648682,-7.534050464630127,-1.609950065612793
1697211292090944300,30.0579443359375,1.215000033378601,-8.893050193786621,-2.026050090789795
1697211292109782000,30.076781982421874,-0.5550000071525574,-10.270050048828125,-1.7749500274658203
1697211292128619500,30.09561962890625,-1.360050082206726,-11.191950798034668,-1.2360000610351562
1697211292147457000,30.11445703125,-2.1040501594543457,-11.10300064086914,-1.215000033378601
1697211292166294800,30.133294677734376,-4.759950160980225,-10.153050422668457,-1.339050054550171
1697211292185132500,30.152132568359374,-3.490950107574463,-9.042000770568848,-1.609950065612793
1697211292203970300,30.17097021484375,0.781950056552887,-9.817950248718262,-1.6840500831604004
1697211292222807800,30.189807861328124,5.085000038146973,-11.343000411987305,-1.4640001058578491
1697211292241645600,30.2086455078125,4.402050018310547,-13.110000610351562,-1.3300501108169556
1697211292260483000,30.227483154296873,1.0500000715255737,-14.644950866699219,0.5820000171661377
1697211292279320600,30.246320556640626,-7.07295036315918,-13.23900032043457,-4.105050086975098
1697211292298158300,30.265158447265627,-9.31095027923584,-13.878000259399414,-2.625000238418579
1697211292316995800,30.283995849609376,-2.7340500354766846,-15.310050964355469,-1.6600500345230103
1697211292335833300,30.302833251953125,1.4209500551223755,-15.1399507522583,-1.3300501108169556
1697211292354671000,30.321671142578126,4.599000453948975,-13.315950393676758,-2.826000213623047
1697211292373508600,30.340508544921875,4.024050235748291,-12.396000862121582,-3.8389501571655273
1697211292392346400,30.359346435546875,6.330000400543213,-11.635050773620605,-8.287050247192383
1697211292411183900,30.378183837890624,5.911050319671631,-13.56705093383789,-8.812050819396973
1697211292430021600,30.397021728515625,6.20805025100708,-12.607050895690918,-8.805000305175781
1697211292448859100,30.415859130859374,3.4729502201080322,-11.295000076293945,-6.633000373840332
1697211292467696600,30.434696533203127,-4.374000072479248,-10.030950546264648,-5.806950092315674
1697211292486534400,30.453534423828124,-4.879050254821777,-7.399050235748291,-5.424000263214111
1697211292505372200,30.4723720703125,-2.1690001487731934,-6.456000328063965,-4.44195032119751
1697211292524210000,30.4912099609375,1.7929500341415405,-8.35004997253418,-2.3020501136779785
1697211292543047400,30.51004736328125,3.6700501441955566,-8.28795051574707,-2.6509501934051514
1697211292561885200,30.52888525390625,3.4489500522613525,-9.10200023651123,1.8780001401901245
1697211292580723000,30.547722900390625,1.4070000648498535,-8.227950096130371,0.1660500019788742
1697211292599560400,30.566560546875,1.5079500675201416,-6.423000335693359,-0.42195001244544983
1697211292618398000,30.58539794921875,2.7049500942230225,-5.850000381469727,-0.697950005531311
1697211292637235500,30.6042353515625,1.9860000610351562,-5.5849504470825195,-1.7340000867843628
1697211292656073200,30.6230732421875,2.748000144958496,-4.8349504470825195,-2.3419501781463623
1697211292674911000,30.641910888671877,2.326050043106079,-3.5350501537323,-2.2900500297546387
1697211292693748500,30.66074853515625,1.821000099182129,-1.7470500469207764,-1.9810501337051392
1697211292712586000,30.6795859375,1.3450500965118408,-0.8130000233650208,-1.5139501094818115
1697211292731424000,30.698424072265624,-0.598050057888031,-1.9399501085281372,-1.3560000658035278
1697211292750261500,30.717261474609376,-10.492050170898438,-5.1660003662109375,-0.5370000004768372
1697211292769099000,30.73609912109375,-23.344051361083984,-10.564950942993164,-1.1069999933242798
1697211292787936800,30.754936767578126,-13.269001007080078,-14.767050743103027,-7.23900032043457
1697211292806774300,30.773774169921875,-20.48295021057129,-19.821001052856445,-6.670950412750244
1697211292825612000,30.792612060546876,-3.6919500827789307,-16.237051010131836,-4.82295036315918
1697211292844449500,30.811449462890625,-7.927050590515137,-7.135950565338135,-0.12105000764131546
1697211292863287300,30.830287353515626,-13.710000991821289,-0.7860000133514404,-1.8610501289367676
1697211292882124800,30.849124755859375,4.864050388336182,-2.5440001487731934,-8.97195053100586
1697211292900962300,30.86796240234375,8.166000366210938,-7.768050193786621,-11.548050880432129
1697211292919800000,30.886800048828125,-8.443950653076172,-18.360000610351562,-11.185050964355469
1697211292938637800,30.905637939453126,7.438050270080566,-12.391950607299805,-2.31600022315979
1697211292957475300,30.924475341796875,2.4460501670837402,-6.3409504890441895,0.1969500035047531
1697211292976312800,30.943312744140623,4.1770501136779785,-6.523050308227539,-4.179000377655029
1697211292995150600,30.962150634765624,4.263000011444092,-9.157050132751465,-5.505000114440918
1697211293013988400,30.98098828125,3.828000068664551,-11.833950996398926,-4.14300012588501
1697211293032826000,30.999826171875,3.0040502548217773,-15.090001106262207,-2.1409502029418945
1697211293051663600,31.01866357421875,2.9920501708984375,-15.720001220703125,-0.31200000643730164
1697211293070501000,31.037501220703124,1.4910000562667847,-13.624950408935547,0.9460500478744507
1697211293089338600,31.056338623046877,0.25095000863075256,-10.255950927734375,0.2689500153064728
1697211293108176100,31.075176025390626,-0.27000001072883606,-8.581950187683105,-1.9860000610351562
1697211293127013600,31.094013671875,-4.708950042724609,-8.944050788879395,-0.5080500245094299
1697211293145851400,31.112851318359375,-3.9409501552581787,-8.712000846862793,-2.307000160217285
1697211293164689200,31.131689208984376,-1.50600004196167,-7.773000240325928,-2.319000005722046
1697211293183526700,31.150526611328125,-0.1960500031709671,-7.2270002365112305,-2.8210501670837402
1697211293202364400,31.169364501953126,0.15195000171661377,-6.79395055770874,-3.0510001182556152
1697211293221202200,31.1882021484375,-0.286950021982193,-6.696000099182129,-2.5360500812530518
1697211293240039700,31.207039794921876,-0.742050051689148,-7.1700005531311035,-2.2609500885009766
1697211293258877200,31.225877197265625,-0.9259500503540039,-7.083000183105469,-2.4049501419067383
1697211293277714700,31.244714599609374,-1.5229500532150269,-7.045050144195557,-2.086050033569336
1697211293296552400,31.263552490234375,-0.6030000448226929,-7.0000505447387695,-1.495050072669983
1697211293315390200,31.28239013671875,0.9280500411987305,-7.360950469970703,-1.4329500198364258
1697211293334228000,31.30122802734375,0.8130000233650208,-8.508000373840332,-1.0830000638961792
1697211293353065200,31.320065185546873,0.35100001096725464,-10.987950325012207,-1.6770000457763672
1697211293371903000,31.338903076171874,1.8829500675201416,-11.830950736999512,-2.323050022125244
1697211293390740500,31.357740478515623,0.5190000534057617,-11.31195068359375,-1.918950080871582
1697211293409578500,31.37657861328125,-3.598050117492676,-9.858000755310059,-1.76295006275177
1697211293428416000,31.395416015625,-5.248050212860107,-8.926950454711914,-2.164950132369995
1697211293447253500,31.41425341796875,-2.509050130844116,-10.062000274658203,-1.3459500074386597
1697211293466091000,31.433091064453127,2.9389500617980957,-12.946950912475586,-1.1020500659942627
1697211293484928500,31.451928466796875,2.8720500469207764,-15.772050857543945,0.06495000422000885
1697211293503766300,31.470766357421876,1.215000033378601,-15.571050643920898,1.9399501085281372
1697211293522603800,31.489603759765625,-5.265000343322754,-15.222001075744629,-1.8349500894546509
1697211293541441800,31.50844189453125,-4.969950199127197,-14.659050941467285,-3.00600004196167
1697211293560279300,31.527279296875,-0.895050048828125,-13.789950370788574,-3.724050283432007
1697211293579116800,31.54611669921875,0.12105000764131546,-13.480950355529785,-3.349950075149536
1697211293597954300,31.564954345703125,5.110950469970703,-13.462050437927246,-3.331050157546997
1697211293616792000,31.5837919921875,4.6780500411987305,-12.502050399780273,-6.7099504470825195
1697211293635629600,31.602629638671875,6.79395055770874,-12.39900016784668,-7.528050422668457
1697211293654467300,31.62146728515625,6.535950183868408,-12.793951034545898,-7.678950309753418
1697211293673304800,31.640304931640625,4.3279500007629395,-12.384000778198242,-8.854949951171875
1697211293692142300,31.659142333984374,1.527000069618225,-10.066950798034668,-6.951000213623047
1697211293710979800,31.677979736328126,-7.350000381469727,-8.235000610351562,-4.1449503898620605
1697211293729817900,31.69681787109375,-2.6890501976013184,-7.291950225830078,-4.222050189971924
1697211293748655400,31.7156552734375,2.158950090408325,-7.866000175476074,-2.3140501976013184
1697211293767492900,31.734492919921873,2.2829999923706055,-8.9170503616333,0.17505000531673431
1697211293786330400,31.753330322265626,2.0820000171661377,-9.784050941467285,0.5179499983787537
1697211293805167900,31.77216796875,2.0250000953674316,-8.592000007629395,0.36195001006126404
1697211293824005600,31.791005615234376,1.8690000772476196,-6.541950225830078,0.41505002975463867
1697211293842843400,31.809843505859376,2.3460001945495605,-5.922000408172607,-0.6450000405311584
1697211293861681200,31.82868115234375,2.202000141143799,-4.954950332641602,-2.104950189590454
1697211293880518700,31.8475185546875,3.9430501461029053,-4.150050163269043,-1.3780500888824463
1697211293899356200,31.866356201171875,3.0040502548217773,-1.8850500583648682,-1.6740000247955322
1697211293918193700,31.885193603515624,2.8939502239227295,-0.32895001769065857,-1.26705002784729
1697211293937031200,31.90403125,1.7130000591278076,-0.16200000047683716,-1.1069999933242798
1697211293955869000,31.922868896484374,-1.3020000457763672,-2.1010501384735107,-0.19200000166893005
1697211293974706700,31.941706787109375,-15.144001007080078,-6.2410502433776855,1.015950083732605
1697211293993544200,31.960544189453124,-31.75800132751465,-12.796051025390625,-3.6570000648498535
1697211294012381700,31.979381591796876,-21.510000228881836,-21.346050262451172,-11.041050910949707
1697211294031219500,31.998219482421874,-10.246950149536133,-24.502050399780273,-7.4659504890441895
1697211294050057200,32.01705712890625,-4.53000020980835,-12.16200065612793,1.7050501108169556
1697211294068894700,32.035894775390624,-11.275050163269043,0.2950500249862671,-0.1469999998807907
1697211294087732200,32.05473217773437,-4.396049976348877,2.842050075531006,-5.082000255584717
1697211294106569700,32.07356982421875,16.113000869750977,-5.713950157165527,-7.91895055770874
1697211294125407500,32.09240747070312,-17.718000411987305,-13.347001075744629,-13.696050643920898
1697211294144245000,32.11124487304688,7.824000358581543,-14.221050262451172,-4.725000381469727
1697211294163082800,32.13008276367187,4.929000377655029,-7.452000141143799,-1.801050066947937
1697211294181920500,32.14892041015625,1.3300501108169556,-8.166000366210938,-4.095000267028809
1697211294200757800,32.1677578125,4.0219502449035645,-10.996050834655762,-3.5059502124786377
1697211294219595500,32.18659545898438,5.677950382232666,-12.475050926208496,-2.6680500507354736
1697211294238433300,32.20543334960937,4.849950313568115,-14.649001121520996,-2.2710001468658447
1697211294257270800,32.22427075195313,2.9029500484466553,-15.553950309753418,-1.1910001039505005
1697211294276108500,32.24310864257812,0.8110500574111938,-13.85400104522705,0.4650000333786011
1697211294294946000,32.26194604492188,-1.0870500802993774,-10.627050399780273,0.5899500250816345
1697211294313783600,32.28078344726563,-1.2499500513076782,-8.850000381469727,-1.054050087928772
1697211294332621000,32.29962109375,-3.0019500255584717,-9.882000923156738,-0.24000000953674316
1697211294351459000,32.318458984375,-2.2290000915527344,-8.565000534057617,-1.6770000457763672
1697211294370296600,32.33729663085938,-0.703950047492981,-6.837000370025635,-3.283050060272217
1697211294389134000,32.356134033203126,0.6070500016212463,-6.526050090789795,-2.5819501876831055
1697211294407971600,32.3749716796875,0.5140500068664551,-6.418050289154053,-3.829050064086914
1697211294426809300,32.393809326171876,-0.4909500181674957,-6.454050540924072,-3.870000123977661
1697211294445646800,32.412646728515625,-1.1850000619888306,-6.279000282287598,-4.033050060272217
1697211298203746000,36.17074609375,0.40605002641677856,-12.11400032043457,0.8190000653266907
1697211298222583600,36.18958349609375,0.9709500670433044,-12.19005012512207,-0.2070000171661377
1697211298241421600,36.20842163085938,-1.3170000314712524,-11.740050315856934,-0.5110500454902649
1697211298260259000,36.227259033203126,-7.293000221252441,-9.550050735473633,-1.117050051689148
1697211298279096600,36.2460966796875,-6.055050373077393,-8.806950569152832,-2.284950017929077
1697211298297934000,36.26493408203125,1.7950501441955566,-11.034000396728516,-1.9549500942230225
1697211298316771600,36.283771484375,6.330000400543213,-13.098000526428223,-1.3900500535964966
1697211298335609000,36.30260913085937,2.7360000610351562,-13.86600112915039,-2.158050060272217
1697211298354446800,36.32144677734375,-1.7929500341415405,-12.970951080322266,0.2689500153064728
1697211298373284400,36.34028442382812,-6.960000514984131,-12.523050308227539,-3.681000232696533
1697211298392122000,36.3591220703125,-4.9609503746032715,-14.637001037597656,-0.8320500254631042
1697211298410959600,36.37795971679687,-1.3260000944137573,-15.823050498962402,0.07200000435113907
1697211298429797000,36.39679711914062,0.4249500334262848,-13.519050598144531,-1.1910001039505005
1697211298448634600,36.41563452148438,2.857950210571289,-12.69795036315918,-1.9930500984191895
1697211298467472100,36.43447216796875,4.090950012207031,-12.343950271606445,-3.8389501571655273
1697211298486310100,36.45331005859375,5.94195032119751,-12.178050994873047,-7.734000205993652
1697211298505147600,36.47214770507812,5.938950061798096,-12.559050559997559,-7.897050380706787
1697211298599335400,36.56633544921875,-2.056950092315674,-7.122000217437744,-4.642950057983398
1697211298618173000,36.5851728515625,1.38795006275177,-8.463000297546387,-4.39394998550415
1697211298637010400,36.604010498046875,5.619000434875488,-9.289050102233887,-2.485950231552124
1697211298655848200,36.62284814453125,1.3230000734329224,-9.145050048828125,2.1600000858306885
1697211298674685700,36.641685791015625,0.9930000305175781,-8.455050468444824,2.5380001068115234
1697211298693523500,36.6605234375,1.5529500246047974,-6.444000244140625,-0.25200000405311584
1697211298712361000,36.67936083984375,2.5660500526428223,-5.7109503746032715,-0.7810500264167786
1697211298731198700,36.69819873046875,3.4780502319335938,-5.307000160217285,-0.11295000463724136
1697211298750036200,36.7170361328125,3.6000001430511475,-3.5659501552581787,-1.4110500812530518
1697211298768873500,36.73587353515625,3.1429500579833984,-1.4590500593185425,-1.8660000562667847
1697211298787711200,36.75471118164062,3.2430002689361572,0.0070500001311302185,-1.3459500074386597
1697211298806549000,36.773549072265624,1.9309500455856323,0.024000000208616257,-0.8410500288009644
1697211298825386500,36.79238647460937,-1.3480501174926758,-2.5410001277923584,-0.2670000195503235
1697211298844224000,36.81122412109375,-20.434951782226562,-7.174050331115723,0.06000000238418579
1697211298863061500,36.8300615234375,-31.063051223754883,-14.106000900268555,-8.302050590515137
1697211298881899300,36.84889916992187,-20.988000869750977,-23.05095100402832,-14.72295093536377
1697211298900736800,36.86773681640625,-10.57800006866455,-23.424001693725586,-5.568000316619873
1697211298919574300,36.88657421875,-4.903050422668457,-9.259950637817383,3.6450002193450928
1697211298938411800,36.90541186523438,-13.803000450134277,0.7309500575065613,-0.3430500030517578
1697211298957249300,36.924249267578126,-2.3800501823425293,0.14595000445842743,-12.231000900268555
1697211298976086800,36.943086669921875,13.647000312805176,-8.138999938964844,-12.676050186157227
1697211298994924500,36.961924560546876,-6.763950347900391,-12.838950157165527,-8.42400074005127
1697211299013762300,36.98076220703125,9.307950019836426,-9.636000633239746,0.22305001318454742
1697211299032599800,36.999599853515626,-0.9460500478744507,-7.600950241088867,-4.291050434112549
1697211299051437300,37.018437255859375,5.134950160980225,-10.183950424194336,-4.987950325012207
1697211299070274800,37.03727490234375,3.715050220489502,-11.269050598144531,-5.254050254821777
1697211299089112600,37.056112548828125,3.1090500354766846,-11.628000259399414,-3.1210501194000244
1697211299107950000,37.0749501953125,2.307000160217285,-12.621000289916992,-3.3030002117156982
1697211299126787800,37.093787841796875,1.6060501337051392,-14.773950576782227,-1.9309500455856323
1697211299145625000,37.112625,3.0300002098083496,-15.316950798034668,0.8190000653266907
1697211299164462600,37.13146264648437,3.2290501594543457,-13.042950630187988,2.1510000228881836
1697211299183300400,37.15030029296875,-0.32295000553131104,-9.766950607299805,1.0440000295639038
1697211299202138000,37.16913818359375,-5.212050437927246,-9.169050216674805,0.1660500019788742
1697211299220975600,37.1879755859375,-3.7039501667022705,-9.018000602722168,0.2970000207424164
1697211299239813000,37.20681323242187,-1.4650501012802124,-7.858950138092041,-1.2199500799179077
1697211299258650600,37.22565063476563,-0.6319500207901001,-6.874950408935547,-2.9190001487731934
1697211299277488000,37.24448803710938,-0.6220500469207764,-6.588000297546387,-3.8340001106262207
1697211299296325600,37.26332568359375,-1.0770000219345093,-6.934950351715088,-3.2880001068115234
1697211299315163400,37.28216333007813,-0.6919500231742859,-6.367950439453125,-4.3560004234313965
1697211299334001200,37.30100122070313,-1.3789501190185547,-5.836050510406494,-3.4270501136779785
1697211299352838700,37.31983862304688,-0.8070000410079956,-6.19005012512207,-2.3299500942230225
1697211299371676400,37.33867651367188,0.5400000214576721,-7.119000434875488,-0.8149500489234924
1697211299390513700,37.357513671875,1.9459501504898071,-8.893050193786621,-0.8989500403404236
1697211299409351400,37.376351318359376,0.9810000658035278,-10.918950080871582,-0.4630500078201294
1697211299428189000,37.39518896484375,-0.5029500126838684,-11.320950508117676,-0.08895000070333481
1697211299447026400,37.4140263671875,-2.101950168609619,-11.866950988769531,-0.11295000463724136
1697211299465864000,37.432864013671875,-5.10705041885376,-10.588950157165527,-0.5730000138282776
1697211299484701400,37.451701416015624,-6.603000164031982,-9.09000015258789,-1.3510500192642212
1697211299503539000,37.4705390625,-2.5980000495910645,-10.942950248718262,-1.2750000953674316
1697211299522376700,37.48937670898437,3.828000068664551,-13.158000946044922,-0.9630000591278076
1697211299541214500,37.50821435546875,3.627000093460083,-13.581000328063965,-1.0780500173568726
1697211299560052000,37.52705200195312,2.7550501823425293,-13.60995101928711,-0.7120500206947327
1697211299578889500,37.54588940429687,-4.603950023651123,-13.387950897216797,-3.750000238418579
1697211299597727000,37.56472705078125,-7.093950271606445,-13.483050346374512,-4.617000102996826
1697211299616564500,37.583564453125,-2.49495005607605,-14.011950492858887,-2.184000015258789
1697211299635402000,37.60240209960938,1.2540000677108765,-13.986001014709473,-0.7189500331878662
1697211299654239700,37.62123974609375,2.0850000381469727,-14.194050788879395,-2.3830502033233643
1697211299673077500,37.64007739257813,3.7699501514434814,-14.068050384521484,-5.218050479888916
1697211299691915000,37.6589150390625,6.804000377655029,-13.375950813293457,-8.66295051574707
1697211299710752500,37.67775244140625,5.85105037689209,-13.476000785827637,-8.62695026397705
1697211299729590000,37.69659008789063,4.291950225830078,-12.688050270080566,-7.846950531005859
1697211299748427500,37.715427490234376,3.318000078201294,-10.84695053100586,-6.232950210571289
1697211299767265000,37.73426513671875,-2.221950054168701,-7.653000354766846,-4.030050277709961
1697211299786102800,37.753102783203126,-6.013950347900391,-7.300950527191162,-1.6819500923156738
1697211299804940300,37.771940185546875,-3.751950263977051,-8.05305004119873,-2.0310001373291016
1697211299823778000,37.790778076171875,1.0690500736236572,-9.348000526428223,-1.8400501012802124
1697211299842615600,37.809615478515624,2.7049500942230225,-9.56100082397461,-0.0990000069141388
1697211299861453000,37.828453125,3.6940500736236572,-8.551050186157227,0.9340500235557556
1697211299880290800,37.847290771484374,-0.286950021982193,-4.804050445556641,-3.097050189971924
1697211299899128300,37.86612841796875,4.623000144958496,-4.459050178527832,-0.34095001220703125
1697211299917965800,37.8849658203125,1.579050064086914,-6.207000255584717,-0.7189500331878662
1697211299936803300,37.90380322265625,3.217050075531006,-5.713950157165527,-1.665000081062317
1697211299955640800,37.92264086914062,2.299950122833252,-3.544950246810913,-2.745000123977661
1697211299974478300,37.94147827148438,2.77905011177063,-2.0029501914978027,-1.855950117111206
1697211299993316000,37.96031616210937,2.1660001277923584,-0.46800002455711365,-0.7410000562667847
1697211300012153900,37.97915380859375,1.2559500932693481,-0.21195000410079956,-0.42900002002716064
1697211300030991400,37.99799145507812,-1.7880001068115234,-2.6730000972747803,-0.15405000746250153
1697211300049828900,38.01682885742188,-19.954050064086914,-6.730950355529785,0.7140000462532043
1697211300068666400,38.03566625976563,-26.0710506439209,-12.664051055908203,-5.038050174713135
1697211300087504000,38.05450390625,-22.84800148010254,-21.468000411987305,-10.29900074005127
1697211300106341600,38.07334155273438,-8.892000198364258,-25.816051483154297,-7.33905029296875
1697211300125179100,38.09217919921875,-4.939050197601318,-11.677950859069824,3.1369502544403076
1697211300144017000,38.111016845703126,-18.499950408935547,0.22305001318454742,0.4339500069618225
1697211300162854400,38.1298544921875,13.825950622558594,3.5869500637054443,-8.653950691223145
1697211300181692000,38.14869189453125,9.69105052947998,-1.927950143814087,-13.360950469970703
1697211300200529400,38.167529296875,-13.342950820922852,-18.544950485229492,-18.729000091552734
1697211300219366700,38.18636669921875,12.385050773620605,-18.061050415039062,3.6850502490997314
1697211300238204400,38.20520434570312,-1.4269500970840454,-8.802000045776367,1.4680501222610474
1697211300257042000,38.2240419921875,3.0730502605438232,-8.414999961853027,-4.618950366973877
1697211300275879700,38.24287963867187,4.654050350189209,-9.930000305175781,-6.346050262451172
1697211300294717200,38.26171728515625,4.564949989318848,-12.130950927734375,-4.693950176239014
1697211300313555000,38.28055493164062,4.168050289154053,-13.404000282287598,-3.1660501956939697
1697211300332392400,38.29939233398437,2.7330000400543213,-14.272951126098633,-1.8370500802993774
1697211300351230000,38.31822998046875,1.6270500421524048,-14.266050338745117,0.3910500109195709
1697211300370067500,38.3370673828125,1.426050066947937,-12.340950965881348,1.8109500408172607
1697211300388905200,38.3559052734375,0.8869500160217285,-10.134000778198242,1.9300501346588135
1697211300407742700,38.37474267578125,0.7560000419616699,-6.901050090789795,-1.4710500240325928
1697211300426580200,38.39358032226563,-4.242000102996826,-7.960050582885742,-0.12105000764131546
1697211300445417700,38.41241772460938,-4.951050281524658,-7.660050392150879,-0.3840000033378601
1697211300464255200,38.431255126953126,-3.5190000534057617,-7.648050308227539,-1.492050051689148
1697211300483093000,38.450093017578126,-1.420050024986267,-7.335000514984131,-2.6899502277374268
1697211300501930500,38.468930419921875,-0.4159500300884247,-7.512000560760498,-3.063000202178955
1697211300520768300,38.487768310546876,-0.7639500498771667,-7.323000431060791,-2.7180001735687256
1697211300539605800,38.506605712890625,-1.128000020980835,-6.967950344085693,-2.30400013923645
1697211300558443000,38.525443115234374,-0.0070500001311302185,-6.928050518035889,-1.3369500637054443
1697211300577280800,38.54428076171875,1.7209501266479492,-7.540950298309326,-0.36000001430511475
1697211300596118300,38.5631181640625,1.9150501489639282,-8.551050186157227,-0.40995001792907715
1697211300614955800,38.58195581054687,0.7219500541687012,-10.23705005645752,-0.8100000619888306
1697211300633793500,38.60079345703125,1.0549499988555908,-10.383000373840332,-0.7330500483512878
1697211300652631000,38.61963110351562,-0.4909500181674957,-10.53795051574707,-0.6379500031471252
1697211300671468500,38.63846850585937,-3.478950262069702,-10.984050750732422,-1.2889500856399536
1697211300690306000,38.65730615234375,-6.354000091552734,-10.074000358581543,-1.1910001039505005
1697211300709143800,38.67614379882812,-3.9409501552581787,-9.391050338745117,-1.071000099182129
1697211300727981300,38.69498120117188,0.7560000419616699,-10.335000038146973,-0.31005001068115234
1697211300746819000,38.71381909179688,4.477050304412842,-13.447051048278809,1.1740500926971436
1697211300765656300,38.73265625,3.315000057220459,-14.917950630187988,1.5949500799179077
1697211300784493800,38.75149389648438,-2.0160000324249268,-14.178000450134277,0.26205000281333923
1697211300803331600,38.77033154296875,-4.975050449371338,-14.536951065063477,-1.6960500478744507
1697211300822169000,38.789169189453126,-3.0649502277374268,-15.211950302124023,-2.4619500637054443
1697211300841006600,38.808006591796875,0.23400001227855682,-14.295001029968262,-3.3100502490997314
1697211300859844400,38.82684423828125,2.070000171661377,-13.498050689697266,-2.602950096130371
1697211300878681900,38.845681884765625,2.3460001945495605,-12.853950500488281,-3.421950101852417
1697211300897519600,38.86451953125,3.217050075531006,-12.789000511169434,-4.999950408935547
1697211300916356900,38.88335693359375,5.322000026702881,-13.03800106048584,-7.039950370788574
1697211300935194600,38.902194580078124,6.259950160980225,-12.793951034545898,-7.3560004234313965
1697211300954032000,38.9210322265625,4.234950065612793,-13.243950843811035,-6.76200008392334
1697211300972870000,38.939869873046874,1.6900501251220703,-11.589000701904297,-5.946000099182129
1697211300991707400,38.95870727539062,-1.582050085067749,-8.692049980163574,-3.1879501342773438
1697211301010545000,38.977544921875,-3.1870501041412354,-7.285050392150879,-2.187000036239624
1697211301029382400,38.99638232421875,-2.482950210571289,-6.946950435638428,-2.584050178527832
1697211301048220000,39.01521997070312,1.7880001068115234,-9.037050247192383,-1.1260499954223633
1697211301067057400,39.03405737304688,1.8979500532150269,-9.18600082397461,0.13695000112056732
1697211301085895200,39.05289526367188,2.1760501861572266,-8.105999946594238,0.2179500162601471
1697211301104732400,39.071732421875,2.757000207901001,-6.600000381469727,-0.12105000764131546
1697211301123570400,39.0905703125,3.487950086593628,-6.841950416564941,2.5960500240325928
1697211301142408000,39.10940795898438,3.235950231552124,-6.166050434112549,0.00795000046491623
1697211301161245400,39.128245361328126,2.959050178527832,-5.611050128936768,-0.934950053691864
1697211301180083000,39.1470830078125,3.0450000762939453,-4.383000373840332,-2.545950174331665
1697211301198920400,39.16592041015625,1.9480501413345337,-2.716050148010254,-2.086050033569336
1697211301217758000,39.184758056640625,2.038950204849243,-1.2630000114440918,-1.0230000019073486
1697211301236595500,39.203595458984374,1.1100000143051147,-1.287000060081482,-0.9010500311851501
1697211301255433200,39.22243310546875,-2.5260000228881836,-3.4609501361846924,-0.453000009059906
1697211301274271000,39.24127099609375,-19.621051788330078,-8.05305004119873,-0.520050048828125
1697211301293108500,39.2601083984375,-22.489051818847656,-13.492950439453125,-7.579050540924072
1697211301311946000,39.278946044921874,-21.71805191040039,-20.518051147460938,-9.037050247192383
1697211301330783500,39.29778344726562,-10.233000755310059,-22.170001983642578,-3.5059502124786377
1697211301349620700,39.31662084960937,-3.2940001487731934,-11.452950477600098,3.324000120162964
1697211301368458500,39.33545849609375,-11.866050720214844,-0.4729500114917755,0.2179500162601471
1697211301387296300,39.35429614257812,0.625950038433075,1.8370500802993774,-4.099950313568115
1697211301406133800,39.3731337890625,13.869000434875488,-2.4460501670837402,-10.531050682067871
1697211301424971300,39.39197119140625,-26.05695152282715,-12.41100025177002,-19.9189510345459
1697211301443808800,39.41080883789063,6.198000431060791,-22.546051025390625,-7.318050384521484
1697211301462646500,39.429646484375,7.144050121307373,-8.551050186157227,1.0249500274658203
1697211301481484300,39.448484375,0.34905001521110535,-4.938000202178955,-1.0470000505447388
1697211301500321800,39.46732177734375,2.39805006980896,-7.219950199127197,-3.42900013923645
1697211301519159000,39.486158935546875,3.058950185775757,-11.616000175476074,-2.7970502376556396
1697211301537996800,39.504996826171876,2.997000217437744,-15.592950820922852,0.7860000133514404
1697211301556834000,39.523833984375,3.028050184249878,-17.034000396728516,1.054050087928772
1697211301575671800,39.542671875,1.8859500885009766,-15.130950927734375,0.4339500069618225
1697211301594509300,39.56150927734375,1.6180500984191895,-11.565000534057617,1.6549500226974487
1697211301613347000,39.58034716796875,-4.116000175476074,-9.496950149536133,0.39795002341270447
1697211301632184600,39.5991845703125,-6.294000148773193,-10.300950050354004,1.519050121307373
1697211301651022300,39.618022216796874,-3.778050184249878,-8.95305061340332,-0.7960500121116638
1697211301669859600,39.63685961914062,-1.2300000190734863,-7.629000186920166,-1.5240000486373901
1697211301688697300,39.655697265625,1.0260000228881836,-7.300950527191162,-1.5310500860214233
1697211301707534800,39.67453491210937,2.2210500240325928,-5.800050258636475,-5.350050449371338
1697211301726372400,39.69337231445313,2.329050064086914,-6.195000171661377,-4.870950222015381
1697211301745209900,39.7122099609375,1.2990000247955322,-7.207950115203857,-3.4729502201080322
1697211301764047600,39.73104760742188,0.037050001323223114,-7.222050189971924,-3.3379502296447754
1697211301782885000,39.74988500976563,-2.431950092315674,-6.265050411224365,-5.623050212860107
1697211301801722600,39.76872265625,-2.5189502239227295,-6.765000343322754,-4.126049995422363
1697211301820560400,39.78756030273438,0.07605000585317612,-7.3969502449035645,-2.745000123977661
1697211301839398000,39.80639794921875,0.6600000262260437,-8.82194995880127,-1.588050127029419
1697211301858235400,39.8252353515625,-0.5890500545501709,-10.315950393676758,-0.4819500148296356
1697211301877073000,39.844072998046876,-0.9480000734329224,-10.950000762939453,-0.23100000619888306
1697211301895910700,39.86291064453125,-0.29205000400543213,-10.857000350952148,-0.9630000591278076
1697211301914748000,39.881747802734374,-0.7950000166893005,-9.801000595092773,-1.6030501127243042
1697211301933585700,39.900585693359375,-1.9459501504898071,-8.422050476074219,-2.407050132751465
1697211301952423000,39.9194228515625,-1.0339500904083252,-9.355950355529785,-1.3819500207901
1697211301971260700,39.9382607421875,1.8619500398635864,-11.922000885009766,-0.8530500531196594
1697211301990098400,39.957098388671874,1.8000000715255737,-13.344000816345215,-0.7570500373840332
1697211302008936000,39.97593603515625,-2.6620500087738037,-14.476950645446777,-0.7909500598907471
1697211302027773400,39.9947734375,-5.277000427246094,-14.731050491333008,-0.7909500598907471
1697211302046611000,40.01361083984375,-4.422000408172607,-14.31705093383789,-1.2169500589370728
1697211302065448400,40.03244848632813,-1.9870500564575195,-14.628000259399414,-1.6939500570297241
1697211302084286000,40.05128588867188,2.647050142288208,-12.772050857543945,-3.267000198364258
1697211303402915300,41.36991528320313,4.479000091552734,-10.942950248718262,-5.4720001220703125
1697211303421752800,41.3887529296875,4.548000335693359,-12.304950714111328,-5.674950122833252
1697211303440590300,41.40759033203125,4.1010003089904785,-13.135951042175293,-5.778000354766846
1697211303459427800,41.426427734375,2.2829999923706055,-13.29900074005127,-7.071000099182129
1697211303478265300,41.445265380859375,-4.513050079345703,-12.26205062866211,-5.965050220489502
1697211303497103000,41.46410302734375,-4.084050178527832,-9.97095012664795,-3.889050245285034
1697211303515940600,41.482940673828125,-1.5610500574111938,-7.768050193786621,-2.826000213623047
1697211303534778000,41.501778076171874,0.9550500512123108,-7.051950454711914,-3.0889501571655273
1697211303553615600,41.52061572265625,3.117000102996826,-7.477950572967529,-1.2649500370025635
1697211303572453000,41.539453125,3.3510000705718994,-8.599050521850586,1.3270500898361206
1697211303591291000,41.55829077148437,1.527000069618225,-7.681950569152832,2.0119500160217285
1697211303610128600,41.577128662109374,1.8480000495910645,-6.777000427246094,1.2190500497817993
1697211303628966100,41.59596606445312,3.037950038909912,-5.995950222015381,-0.10605000704526901
1697211303647803600,41.6148037109375,2.439000129699707,-5.4910502433776855,-1.818000078201294
1697211303666641200,41.63364111328125,1.057050108909607,-4.462050437927246,-2.296950101852417
1697211303685478700,41.65247875976563,0.5620500445365906,-3.346050262451172,-1.91100013256073
1697211303704316200,41.67131616210938,0.3630000054836273,-2.757000207901001,-1.4880000352859497
1697211303723153700,41.69015356445313,-0.9049500226974487,-2.3740501403808594,-1.818000078201294
1697211303741991200,41.7089912109375,-2.4060001373291016,-4.792050361633301,0.022050000727176666
1697211303760829000,41.727828857421876,-20.93505096435547,-8.896050453186035,-0.09405000507831573
1697211303779666400,41.74666650390625,-13.057950973510742,-12.526050567626953,-4.074000358581543
1697211303798504000,41.76550390625,-16.530000686645508,-15.25005054473877,-3.784050226211548
1697211303817341400,41.784341552734375,-11.713050842285156,-15.12600040435791,-2.239950180053711
1697211303836179000,41.803178955078124,-5.574000358581543,-12.700050354003906,0.20400001108646393
1697211303855016400,41.82201635742187,-8.42805004119873,-7.380000114440918,-0.9919500350952148
1697211303873854200,41.840854248046874,-7.462950229644775,-5.629950046539307,-2.7930002212524414
1697211303892691700,41.85969165039062,13.15095043182373,-7.0000505447387695,-4.378050327301025
1697211303911529500,41.878529541015624,-8.919000625610352,-7.617000579833984,-11.575050354003906
1697211303930367000,41.89736694335937,1.4209500551223755,-10.990950584411621,-11.083950996398926
1697211303949204500,41.91620458984375,6.378000259399414,-7.5360002517700195,-6.553950309753418
1697211303968042000,41.9350419921875,3.2410502433776855,-6.636000156402588,-5.092950344085693
1697211303986879500,41.95387939453125,3.8800501823425293,-10.600950241088867,-2.602950096130371
1697211304005717000,41.97271704101563,4.120050430297852,-14.524950981140137,-0.030000001192092896
1697211304024554800,41.9915546875,2.6020500659942627,-16.251001358032227,0.25005000829696655
1697211304043392300,42.01039233398438,-1.1710500717163086,-14.98905086517334,-0.8800500631332397
1697211325207256300,63.17425634765625,-0.09600000083446503,-7.273050308227539,-3.8959500789642334
1697211325226093800,63.19309375,-6.2989501953125,-8.163000106811523,-1.8679500818252563
1697211325244931000,63.21193115234375,-1.3690500259399414,-9.111000061035156,-1.5280500650405884
1697211325263768300,63.23076831054688,3.7200002670288086,-9.331950187683105,0.5749500393867493
1697211325282605600,63.24960546875,1.0290000438690186,-7.500000476837158,-0.6109500527381897
1697211325301443000,63.268443115234376,4.491000175476074,-8.25195026397705,3.8269500732421875
1697211325320280300,63.2872802734375,3.80400013923645,-6.700050354003906,3.610950231552124
1697211325339117600,63.30611767578125,2.868000030517578,-4.134000301361084,-0.9510000348091125
1697211325357954800,63.32495483398438,5.5159502029418945,-3.9970502853393555,-0.31005001068115234
1697211325376792300,63.34379223632813,4.084050178527832,-3.1470000743865967,-1.1119500398635864
1697211325395629600,63.362629638671876,3.5089502334594727,-1.8090001344680786,-1.9380000829696655
1697211325414467000,63.381467041015625,3.0810000896453857,-1.0069500207901,-1.324950098991394
1697211325433304300,63.40030419921875,1.1530500650405884,-0.9370500445365906,-1.2720000743865967
1697211325452141600,63.4191416015625,-4.045950412750244,-3.7860002517700195,-0.30000001192092896
1697211325470978800,63.43797875976563,-34.64805221557617,-9.645000457763672,-2.3209500312805176
1697211325489816300,63.45681640625,-9.691950798034668,-14.44800090789795,-13.011000633239746
1697211325508653600,63.475653564453125,-20.694000244140625,-20.025001525878906,-12.283950805664062
1697211325527490800,63.49449072265625,-9.52695083618164,-18.174001693725586,-2.3740501403808594
1697211325546328300,63.51332836914062,-8.518950462341309,-7.828050136566162,2.493000030517578
1697211325565165800,63.53216577148437,-12.555000305175781,-1.1380500793457031,-1.4089500904083252
1697211325584002800,63.5510029296875,-5.112000465393066,-5.556000232696533,-7.663050174713135
1697211325602840300,63.56984033203125,12.943050384521484,-11.410050392150879,-8.460000038146973
1697211325621677800,63.588677734375,-3.0739500522613525,-9.72705078125,-5.83305025100708
1697211325640514800,63.60751489257812,8.88705062866211,-5.758950233459473,-6.637950420379639
1697211325659352000,63.62635205078125,-3.418950080871582,-7.2460503578186035,-7.878000259399414
1697211325678189600,63.645189453125,5.2669501304626465,-11.43600082397461,-1.987950086593628
1697211325697027000,63.66402709960938,4.522050380706787,-10.987950325012207,-2.644050121307373
1697211325715864300,63.6828642578125,3.90405011177063,-11.443050384521484,-1.6000500917434692
1697211325734701600,63.70170166015625,3.454050064086914,-14.905950546264648,0.08895000070333481
1697211325753539000,63.7205390625,4.740000247955322,-17.886001586914062,1.815000057220459
1697211325772376300,63.73937622070312,2.700000047683716,-17.439001083374023,4.447050094604492
1697211325791213600,63.75821362304688,-2.92995023727417,-12.447000503540039,3.493950128555298
1697211325810051000,63.77705102539063,-4.585050106048584,-8.671050071716309,2.1510000228881836
1697211325828888300,63.795888427734376,-2.748000144958496,-9.175950050354004,2.761050224304199
1697211325847725600,63.8147255859375,-1.771950125694275,-8.008049964904785,-1.8160500526428223
1697211325866562800,63.83356274414062,-0.8760000467300415,-7.390050411224365,-1.6219500303268433
1697211325885400000,63.85240014648438,-0.07200000435113907,-6.013050079345703,-4.651050090789795
1697211325904237300,63.8712373046875,-0.43995001912117004,-6.244950294494629,-4.399050235748291
1697211325923074800,63.89007470703125,-1.1490000486373901,-6.787050247192383,-4.180950164794922
1697211325941912000,63.908912109375,-2.2579500675201416,-6.648000240325928,-4.074000358581543
1697211325960749600,63.92774951171875,-1.683000087738037,-6.166050434112549,-3.601950168609619
1697211325979586600,63.94658666992188,-0.7129500508308411,-6.198000431060791,-4.090050220489502
1697211325998424000,63.96542407226563,-0.5620500445365906,-6.487050533294678,-2.6800501346588135
1697211326017261300,63.98426123046875,-0.8520000576972961,-7.7989501953125,-1.6530001163482666
1697211326036098800,64.00309887695313,-0.9960000514984131,-9.199950218200684,-0.6880500316619873
1697211326054936000,64.02193603515624,-0.1789500117301941,-10.894950866699219,0.7810500264167786
1697211326073773600,64.04077368164063,1.162950038909912,-12.468000411987305,0.6660000085830688
1697211326092611000,64.05961108398438,2.359950065612793,-12.00105094909668,0.4630500078201294
1697211326111448300,64.0784482421875,-1.5780000686645508,-10.50195026397705,1.3560000658035278
1697211326130285600,64.09728564453125,-4.51800012588501,-11.73495101928711,-0.13005000352859497
1697211326149122800,64.11612280273438,-3.1030502319335938,-14.403000831604004,0.7720500230789185
1697211326167960300,64.13496020507813,-2.3560500144958496,-15.628951072692871,0.9610500335693359
1697211326186797600,64.15379760742188,-2.9740500450134277,-15.147000312805176,-1.5979501008987427
1697211326205634600,64.17263452148437,-3.2149500846862793,-13.897951126098633,-2.416950225830078
1697211326224472300,64.19147241210938,-1.3960500955581665,-14.59695053100586,-0.8029500246047974
1697211326243309300,64.21030932617188,2.0149500370025635,-13.32300090789795,-1.1809500455856323
1697211326262146800,64.22914672851563,1.7899501323699951,-12.57300090789795,-2.4979500770568848
1697211326280984300,64.247984375,1.1440500020980835,-13.21500015258789,-3.5899500846862793
1697211326299821600,64.26682153320313,2.845950126647949,-13.693950653076172,-4.933050155639648
1697211326318658800,64.28565893554688,6.600000381469727,-13.773000717163086,-6.157050132751465
1697211326337496300,64.30449633789063,6.472950458526611,-14.539051055908203,-8.584050178527832
1697211326356333300,64.32333325195313,4.129050254821777,-14.850000381469727,-7.974000453948975
1697211326375170600,64.34217065429688,2.31000018119812,-12.018000602722168,-5.938950061798096
1697211326394008000,64.36100805664063,-1.446000099182129,-8.617950439453125,-4.093050003051758
1697211326412845000,64.37984497070312,-4.321950435638428,-7.027950286865234,-3.421950101852417
1697211326431682800,64.39868286132813,-1.5420000553131104,-7.488000392913818,-3.0079500675201416
1697211326450520000,64.41752001953125,1.812000036239624,-8.532000541687012,-1.6030501127243042
1697211335417086200,73.38408618164063,3.507000207901001,-11.326050758361816,-1.8300000429153442
1697211335435923500,73.40292333984375,1.5649501085281372,-13.54995059967041,-1.0500000715255737
1697211335454760700,73.4217607421875,3.4609501361846924,-16.560001373291016,0.8860500454902649
1697211335473598000,73.44059790039063,2.677950143814087,-15.384000778198242,1.549950122833252
1697211335492435500,73.459435546875,0.6910500526428223,-11.950950622558594,1.9900500774383545
1697211335511272700,73.47827270507813,-0.016950000077486038,-9.247950553894043,1.6050000190734863
1697211335530110200,73.49711010742188,1.0069500207901,-7.252950191497803,-0.8149500489234924
1697211335548947200,73.515947265625,-3.1120500564575195,-9.106950759887695,0.5179499983787537
1697211335567784700,73.53478466796875,-5.0970001220703125,-9.432000160217285,0.18495000898838043
1697211335586622000,73.5536220703125,-3.4360501766204834,-7.950000286102295,-1.2940500974655151
1697211335605459200,73.57245922851563,-0.9769500494003296,-6.94005012512207,-2.836050033569336
1697211335624296400,73.59129638671875,-0.6370500326156616,-6.961050510406494,-2.9029500484466553
1697211335643133700,73.6101337890625,-1.0800000429153442,-6.802950382232666,-2.742000102996826
1697211335661971200,73.62897119140625,-2.502000093460083,-6.585000514984131,-2.0020501613616943
1697211335680808400,73.64780834960938,-1.7170500755310059,-6.208950519561768,-1.915950059890747
1697211335699645700,73.66664575195313,-0.22500000894069672,-7.201050281524658,-0.609000027179718
1697211335718483200,73.68548315429688,1.0909500122070312,-8.37405014038086,0.36000001430511475
1697211335737320400,73.70432055664062,1.287000060081482,-9.817950248718262,-0.0990000069141388
1697211335756157700,73.72315771484375,1.3380000591278076,-10.603050231933594,0.5490000247955322
1697211335774995200,73.7419951171875,1.579050064086914,-11.227950096130371,0.5680500268936157
1697211335793832400,73.76083251953125,-2.293950080871582,-11.428950309753418,0.0010500000789761543
1697211335812669700,73.77966967773438,-8.587950706481934,-11.044050216674805,0.019950000569224358
1697211335831507200,73.79850708007812,-7.687950134277344,-9.925050735473633,0.31200000643730164
1697211335850344400,73.81734448242187,1.6780500411987305,-12.280950546264648,-0.5010000467300415
1697211335869181700,73.836181640625,7.240050315856934,-14.997000694274902,-0.21195000410079956
1697211335888019000,73.85501904296875,4.326000213623047,-15.016050338745117,0.703950047492981
1697211335906856200,73.87385620117188,-2.1040501594543457,-13.705950736999512,-2.5890002250671387
1697211335925693700,73.89269360351562,-6.5460004806518555,-14.221050262451172,-3.223950147628784
1697211335944531000,73.91153100585937,-3.7710001468658447,-13.344000816345215,-2.2200000286102295
1697211335963368400,73.93036840820312,-0.6270000338554382,-13.01400089263916,-0.6330000162124634
1697211335982205700,73.94920581054687,-0.20295001566410065,-13.359000205993652,-0.18300001323223114
1697211336001043000,73.96804296875,1.7179501056671143,-14.187000274658203,1.2000000476837158
1697211336019880200,73.98688012695312,3.2119500637054443,-13.84005069732666,-1.5600000619888306
1697211336876978200,74.84397827148437,-1.2619500160217285,-5.938950061798096,-3.0460500717163086
1697211336895815700,74.86281567382812,-0.7950000166893005,-6.2719502449035645,-2.146050214767456
1697211336914653000,74.88165283203125,0.40905001759529114,-7.303950309753418,-1.3459500074386597
1697211336933490200,74.900490234375,0.8320500254631042,-9.664050102233887,-0.492000013589859
1697211336952327700,74.91932763671875,0.8230500221252441,-11.170050621032715,0.7500000596046448
1697211336971165000,74.9381650390625,-0.8449500203132629,-11.944050788879395,1.8870000839233398
1697211336990002200,74.95700219726562,-4.116000175476074,-11.367000579833984,2.3680500984191895
1697211337008839700,74.97583959960937,-5.964000225067139,-9.696000099182129,1.7989500761032104
1697211337027677000,74.99467700195312,-3.415950059890747,-9.56100082397461,0.970050036907196
1697211337046514200,75.01351416015625,2.700000047683716,-13.078950881958008,0.3960000276565552
1697211337065351400,75.03235131835937,3.733950138092041,-14.881950378417969,-1.339050054550171
1697211337084189000,75.05118896484375,1.7730001211166382,-15.183000564575195,0.08700000494718552
1697211337103026200,75.07002612304687,-2.140050172805786,-13.464000701904297,-3.195000171661377
1697211337121863700,75.08886376953124,-4.13700008392334,-13.948050498962402,-2.184000015258789
1697211337140700700,75.10770068359375,-2.1910500526428223,-13.72800064086914,-1.7730001211166382
1697211337159538000,75.12653784179687,-1.0920000076293945,-12.352951049804688,-2.5290000438690186
1697211337178375200,75.14537524414062,-0.1270500123500824,-13.050000190734863,-2.1630001068115234
1697211337197212700,75.16421264648437,0.9469500184059143,-13.962000846862793,-2.0650501251220703
1697211337216050000,75.1830498046875,4.680000305175781,-14.659050941467285,-2.68500018119812
1697211337234887400,75.20188745117187,5.63100004196167,-13.725000381469727,-5.82105016708374
1697211337253724400,75.22072436523437,5.449050426483154,-14.896050453186035,-6.324000358581543
1697211337272561700,75.23956176757812,3.6910502910614014,-14.035950660705566,-6.580050468444824
1697211337291399200,75.25839916992187,4.138950347900391,-10.741950035095215,-4.777050018310547
1697211337310236400,75.277236328125,3.057000160217285,-7.402050495147705,-3.3859500885009766
1697211337329073700,75.29607373046875,-2.6460001468658447,-6.763050556182861,-2.5819501876831055
1697211337347911000,75.31491088867188,-4.551000118255615,-8.494050025939941,-0.5749500393867493
1697211337366748400,75.33374853515625,-3.358950138092041,-9.6739501953125,0.9750000238418579
1697211337385585700,75.35258569335937,2.1090002059936523,-8.805000305175781,1.9489500522613525
1697211337404423000,75.3714228515625,3.8560502529144287,-7.648050308227539,2.890050172805786
1697211337423260400,75.39026049804687,1.807050108909607,-5.731050491333008,0.3720000088214874
1697211337442097700,75.40909765625,6.945000171661377,-5.850000381469727,2.946000099182129
1697211337460935000,75.42793481445312,4.231950283050537,-4.311000347137451,-0.7380000352859497
1697211337479772200,75.44677221679687,3.487950086593628,-2.6920502185821533,-1.831950068473816
1697211337498609400,75.465609375,3.258000135421753,-1.8139500617980957,-1.7920501232147217
1697211337517447000,75.48444702148437,2.8909502029418945,-0.7669500112533569,-1.059000015258789
1697211337536284200,75.5032841796875,1.5720000267028809,-1.1860500574111938,-0.3340500295162201
1697211337555121400,75.52212133789062,-1.615950107574463,-3.3550500869750977,1.0039499998092651
1697211337573958700,75.54095874023437,-25.297950744628906,-8.463000297546387,1.6189501285552979
1697211337592796200,75.55979614257812,-20.52105140686035,-16.371000289916992,-7.294050216674805
1697211337611633700,75.57863354492187,-17.497051239013672,-22.26300048828125,-11.569950103759766
1697211337630471000,75.59747094726562,-9.559950828552246,-20.851051330566406,-5.740050315856934
1697211337649308200,75.61630810546875,-7.0219502449035645,-7.419000148773193,-0.40095001459121704
1697211337668145400,75.6351455078125,-13.836000442504883,2.734950065612793,-2.7330000400543213
1697211337686982700,75.65398266601562,1.1080501079559326,1.3339500427246094,-8.296950340270996
1697211337705820000,75.67281982421875,14.391000747680664,-7.255950450897217,-6.808050155639648
1697211337724657400,75.69165747070312,-20.62200164794922,-15.705000877380371,-10.681950569152832
1697211337743494700,75.71049462890625,5.1060004234313965,-17.020050048828125,-1.9900500774383545
1697211337762332000,75.72933178710937,3.3030002117156982,-7.900050163269043,1.8130500316619873
1697211337781169400,75.74816943359374,4.234950065612793,-6.235950469970703,-2.893050193786621
1697211337800006700,75.76700659179687,3.835050106048584,-8.515049934387207,-6.046050071716309
1697211337818843600,75.78584375,2.9250001907348633,-11.415000915527344,-3.9079501628875732
1697211337837681200,75.80468115234375,3.355950117111206,-11.728050231933594,-1.725000023841858
1697211337856518700,75.8235185546875,3.412950277328491,-15.72900104522705,0.8959500193595886
1697211337875356000,75.84235595703124,3.6000001430511475,-17.221050262451172,2.1600000858306885
1697211337894193200,75.86119311523437,0.25995001196861267,-14.446050643920898,2.7280502319335938
1697211337913030700,75.88003076171876,-3.366000175476074,-9.753000259399414,2.107950210571289
1697211337931868000,75.89886791992187,-1.3240500688552856,-8.151000022888184,0.8509500622749329
1697211337950705200,75.917705078125,-1.7620500326156616,-10.066950798034668,2.754000186920166
1697211346851336000,84.8183359375,6.124050140380859,-14.503050804138184,-6.32895040512085
1697211346870173400,84.83717333984374,5.338050365447998,-15.553950309753418,-5.794950485229492
1697211346889010700,84.8560107421875,4.855050086975098,-13.984050750732422,-5.413950443267822
1697211346907848000,84.87484790039062,3.9979500770568848,-9.46095085144043,-4.069050312042236
1697211346926685200,84.89368530273437,2.7619500160217285,-5.974950313568115,-2.176950216293335
1697211346945522400,84.9125224609375,-9.30405044555664,-6.645000457763672,0.7639500498771667
1697211346964359700,84.93135961914062,-5.992950439453125,-8.797950744628906,-0.37005001306533813
1697211346983197200,84.950197265625,-1.1509500741958618,-10.111950874328613,0.5080500245094299
1697211347002034700,84.96903466796876,1.141050100326538,-8.197050094604492,-0.42000001668930054
1697211347020871700,84.98787158203125,4.816050052642822,-8.182050704956055,3.8050501346588135
1697211347039709000,85.006708984375,4.026000022888184,-7.407000541687012,4.056000232696533
1697211347058546400,85.02554638671874,3.4609501361846924,-4.444950103759766,0.05295000225305557
1697211347077383700,85.0443837890625,2.8720500469207764,-2.908050060272217,-2.146050214767456
1697211347096221000,85.06322094726562,2.7960002422332764,-2.427000045776367,-1.7989500761032104
1697211347115058200,85.08205810546875,3.4300501346588135,-1.7149500846862793,-1.339050054550171
1697211347133895700,85.10089575195312,2.817000150680542,-0.9040500521659851,-1.0039499998092651
1697211347152733000,85.11973291015624,1.5049500465393066,-0.42705002427101135,-0.006000000052154064
1697211347171570400,85.1385703125,-0.984000027179718,-1.3950001001358032,1.13100004196167
1697211347190407700,85.15740771484376,-12.880950927734375,-4.204950332641602,1.2529500722885132
1697211347209245000,85.17624487304687,-25.70505142211914,-9.846000671386719,-4.584000110626221
1697211347228082200,85.19508227539062,-14.928000450134277,-16.75200080871582,-11.527050971984863
1697211347246919400,85.21391943359374,-19.080001831054688,-25.123950958251953,-8.914950370788574
1697211347265756700,85.23275659179687,-9.169950485229492,-16.488000869750977,-4.1860504150390625
1697211347284594000,85.25159399414062,-10.37700080871582,-5.64900016784668,-3.160950183868408
1697211347303431700,85.270431640625,-5.313000202178955,-2.2680001258850098,-6.384000301361084
1697211347322268700,85.2892685546875,-2.9850001335144043,-6.106950283050537,-11.671051025390625
1697211347341106000,85.30810595703124,9.38700008392334,-13.86600112915039,-11.754000663757324
1697211347359943400,85.326943359375,0.22905001044273376,-6.157050132751465,-2.656050205230713
1697211347378780700,85.34578076171876,0.5520000457763672,-5.020050048828125,1.2480000257492065
1697211347397618000,85.36461791992187,2.2519500255584717,-9.834000587463379,-2.115000009536743
1697211347416455200,85.383455078125,4.654050350189209,-11.671051025390625,-1.8679500818252563
1697211347435292400,85.40229248046874,4.954950332641602,-11.248950958251953,-0.30705001950263977
1697211347454130000,85.4211298828125,4.2370500564575195,-11.982000350952148,-1.6390501260757446
1697211347472967000,85.439966796875,2.3479502201080322,-14.958001136779785,-0.6469500064849854
1697211357202421200,95.16942114257813,-1.3720500469207764,-6.585000514984131,-3.769050121307373
1697211357221258500,95.18825854492188,-1.0270500183105469,-6.7819504737854,-3.9970502853393555
1697211357240095700,95.207095703125,-1.3480501174926758,-6.568950176239014,-3.8010001182556152
1697211357258933000,95.22593310546876,-1.4719500541687012,-6.733950138092041,-1.8090001344680786
1697211357277770000,95.24477001953124,-0.38805001974105835,-5.731050491333008,-3.42900013923645
1697211357296607200,95.26360717773437,0.3750000298023224,-5.908050060272217,-2.9700000286102295
1697211357315444500,95.28244458007812,1.384950041770935,-8.008049964904785,-1.9260001182556152
1697211357334281700,95.30128173828125,1.1320500373840332,-11.058000564575195,-0.5659500360488892
1697211357353119200,95.320119140625,0.43995001912117004,-12.736050605773926,0.49605002999305725
1697211357371956200,95.33895629882812,-2.9260501861572266,-12.055950164794922,1.1230500936508179
1697211357390793700,95.35779370117187,-7.618050575256348,-10.51395034790039,1.7359501123428345
1697211357409631000,95.376630859375,-7.852950572967529,-10.062000274658203,0.7450500130653381
1697211357428468200,95.39546826171875,-1.2420001029968262,-12.757950782775879,0.47505003213882446
1697211357447305200,95.41430517578125,3.325050115585327,-14.260951042175293,0.534000039100647
1697211357466142200,95.43314208984376,3.3820502758026123,-14.070000648498535,1.015950083732605
1697211357484979700,95.45197973632813,1.0000500679016113,-13.435050964355469,1.308000087738037
1697211357503817000,95.47081689453125,-3.223050117492676,-14.098950386047363,1.6330500841140747
1697211357522654000,95.48965405273438,-3.955050230026245,-14.997000694274902,0.8620500564575195
1697211357541491500,95.50849145507813,-1.207050085067749,-13.696050643920898,-0.3910500109195709
1697211357560328700,95.52732861328126,-2.11395001411438,-12.562050819396973,-2.8429501056671143
1697211357579165700,95.54616577148437,-1.0270500183105469,-13.432950973510742,-2.4019501209259033
1697211357598003000,95.5650029296875,0.7560000419616699,-14.05095100402832,-3.037050247192383
1697211357616840200,95.58384008789062,8.427000045776367,-12.885000228881836,-1.5520501136779785
1697211357635677400,95.60267749023437,5.1660003662109375,-13.636950492858887,-4.215000152587891
1697211357654515000,95.62151489257812,3.864000082015991,-15.256950378417969,-5.962950229644775
1697211357673352000,95.64035205078125,3.1690502166748047,-13.54800033569336,-5.781000137329102
1697211357692189200,95.65918920898437,4.507950305938721,-9.70305061340332,-3.939000129699707
1697211357711026700,95.67802661132812,3.2149500846862793,-7.5960001945495605,-2.445000171661377
1697211357729864000,95.69686401367187,1.0360500812530518,-6.7699503898620605,-1.8799500465393066
1697211357748701200,95.715701171875,-3.687000274658203,-8.06505012512207,-0.40095001459121704
1697211357767538400,95.73453833007812,-1.5349500179290771,-8.496000289916992,-0.5590500235557556
1697211357786375700,95.75337573242187,3.3919501304626465,-9.600000381469727,4.717050075531006
1697211357805213000,95.772212890625,2.329050064086914,-8.158050537109375,3.9079501628875732
1697211357824050000,95.7910498046875,2.9320502281188965,-5.467050075531006,1.39395010471344
1697211357842887200,95.80988720703125,4.896000385284424,-3.8200502395629883,1.168950080871582
1697211357861724700,95.828724609375,3.8230502605438232,-2.7589502334594727,0.0990000069141388
1697211357880562000,95.84756201171875,2.1439499855041504,-2.311950206756592,-0.5320500135421753
1697211357899399000,95.86639892578125,1.4070000648498535,-2.53695011138916,0.06795000284910202
1697211357918236200,95.88523608398438,-1.7209501266479492,-3.733950138092041,1.284000039100647
1697211357937073400,95.90407348632813,-21.642000198364258,-6.892050266265869,0.9940500259399414
1697211357955910700,95.92291064453126,-11.551950454711914,-10.183950424194336,-5.5819501876831055
1697211357974748000,95.94174780273437,-4.052999973297119,-10.146000862121582,-5.6010003089904785
1697211357993585200,95.96058520507812,-14.017951011657715,-10.462050437927246,-6.097050189971924
1697211358012422400,95.97942236328124,-13.792950630187988,-11.719050407409668,-4.9710001945495605
1697211358031259600,95.998259765625,-7.972950458526611,-9.861000061035156,-5.91195011138916
1697211358050097000,96.01709692382812,-7.377000331878662,-6.447000503540039,-4.690950393676758
1697211358068934100,96.03593408203125,-10.246950149536133,-6.516000270843506,-6.810000419616699
1697211358087771400,96.054771484375,0.28905001282691956,-13.942950248718262,-7.36305046081543
1697211358106608600,96.07360864257812,-0.843000054359436,-12.850950241088867,-5.908050060272217
1697211358125446100,96.09244604492187,4.339950084686279,-8.212950706481934,-7.252950191497803
1697211358144283100,96.111283203125,5.176050186157227,-4.6870503425598145,-5.722950458526611
1697211358163120400,96.13012036132812,-4.183050155639648,-7.06695032119751,-4.414050102233887
1697211358181957600,96.14895751953125,1.6939500570297241,-10.909050941467285,-3.0679502487182617
1697211358200794600,96.16779467773438,4.1010003089904785,-10.996050834655762,0.34800001978874207
1697211358219631900,96.1866318359375,5.254950046539307,-11.404950141906738,-0.5659500360488892
1697211358238469000,96.20546923828125,5.319000244140625,-17.36894989013672,1.5400500297546387
1697211358257306400,96.22430639648438,5.044050216674805,-18.625951766967773,3.4270501136779785
1697211358276143600,96.2431435546875,2.1730501651763916,-15.16200065612793,3.8389501571655273
1697211358294980900,96.26198095703126,0.04500000178813934,-11.599050521850586,3.6090002059936523
1697211358313818000,96.28081811523438,1.3420500755310059,-7.990950584411621,1.5619500875473022
1697211358332655400,96.2996552734375,-1.0320000648498535,-8.40000057220459,1.1400001049041748
1697211358351492600,96.31849267578124,-5.004000186920166,-9.327000617980957,-0.527999997138977
1697211358370330000,96.337330078125,-6.433050155639648,-9.277050018310547,-0.3840000033378601
1697211358389167000,96.3561669921875,-3.9720001220703125,-8.494050025939941,-1.9069501161575317
1697211358408004400,96.37500439453125,-1.7190001010894775,-8.166000366210938,-2.2609500885009766
1697211358426841600,96.39384155273437,-0.7440000176429749,-7.609950542449951,-2.4409501552581787
1697211358445678600,96.4126787109375,-1.1230500936508179,-6.796050548553467,-2.4790501594543457
1697211358464515800,96.43151586914063,-2.0329501628875732,-6.199950218200684,-2.824050188064575
1697211358483353300,96.45035327148437,-2.6569502353668213,-6.358050346374512,-2.4529500007629395
1697211358502190300,96.4691904296875,-1.8079501390457153,-6.514050483703613,-2.6989500522613525
1697211358521027800,96.48802783203125,-0.38100001215934753,-7.276950359344482,-1.5979501008987427
1697211358539865000,96.50686499023438,1.0309500694274902,-8.284950256347656,-0.022050000727176666
1697211358558702300,96.52570239257813,1.7160000801086426,-9.850950241088867,1.111050009727478
1697211358577539600,96.54453955078125,0.2939999997615814,-10.938000679016113,1.1860500574111938
1697211358596376800,96.563376953125,-3.6610500812530518,-11.479050636291504,1.7440500259399414
1697211358615214000,96.58221411132813,-6.033000469207764,-10.255950927734375,1.7290500402450562
1697211358634051000,96.60105102539063,-4.005000114440918,-10.656000137329102,1.7509500980377197
1697211358652888600,96.619888671875,2.182950019836426,-13.2649507522583,-0.47505003213882446
1697211358671725800,96.63872583007813,1.6030501127243042,-15.111001014709473,-0.5590500235557556
1697211358690562800,96.65756274414062,-1.1730000972747803,-13.921051025390625,-2.557950019836426
1697211358709400000,96.67640014648437,-3.358950138092041,-12.870000839233398,-4.038000106811523
1697211358728237300,96.6952373046875,-6.103050231933594,-12.9660005569458,0.17805001139640808
1697211358747074600,96.71407446289062,-2.7199501991271973,-14.700000762939453,1.902000069618225
1697211358765911800,96.73291186523437,-1.3260000944137573,-14.488950729370117,1.4850000143051147
1697211358784749000,96.7517490234375,0.7339500188827515,-13.335000991821289,1.054050087928772
1697211358803586300,96.77058642578125,3.4639501571655273,-12.873000144958496,-0.934950053691864
1697211358822423600,96.78942358398437,4.419000148773193,-13.672050476074219,-2.7210001945495605
1697211358841260800,96.8082607421875,4.668000221252441,-13.62195110321045,-3.781050205230713
1697211358860098000,96.82709814453125,4.703999996185303,-14.587050437927246,-7.074000358581543
1697211358878935300,96.84593530273438,3.4710001945495605,-14.295001029968262,-6.0610504150390625
1697211358897772500,96.8647724609375,3.796950101852417,-11.398050308227539,-5.08905029296875
1697211359001377500,96.96837744140625,1.6300500631332397,-8.532000541687012,3.0289502143859863
1697211359020214800,96.98721484375,2.824050188064575,-6.95205020904541,3.5629501342773438
1697211359039051800,97.0060517578125,3.8610002994537354,-6.528000354766846,2.376000165939331
1697211359057889000,97.02488891601563,6.270000457763672,-6.916050434112549,1.6600500345230103
1697211359076726300,97.04372631835938,2.4679501056671143,-4.25100040435791,-1.9039500951766968
1697211359095563500,97.0625634765625,1.2250500917434692,-2.802000045776367,-2.4000000953674316
1697211359114400800,97.08140087890625,1.4359500408172607,-1.927950143814087,-0.5110500454902649
1697211359133238000,97.10023803710938,1.7059500217437744,-1.6770000457763672,0.11505000293254852
1697211359152075300,97.1190751953125,-0.5770500302314758,-2.3740501403808594,0.6469500064849854
1697211359170912500,97.13791259765625,-8.950050354003906,-5.734950065612793,1.5450000762939453
1697211359189749800,97.15674975585938,-29.802001953125,-11.860050201416016,-1.6740000247955322
1697211359208587000,97.1755869140625,-7.504050254821777,-16.177051544189453,-9.53700065612793
1697211359227424300,97.19442431640626,-17.11695098876953,-19.017000198364258,-7.924050331115723
1697211359246261200,97.21326123046875,-11.088000297546387,-13.486050605773926,-0.21195000410079956
1697211359265098800,97.2320986328125,-8.916000366210938,-4.252950191497803,0.07200000435113907
1697211359283936000,97.25093603515624,-7.278000354766846,-1.2460500001907349,-4.963950157165527
1697211359302773000,97.26977294921875,3.3100502490997314,-8.794950485229492,-3.3100502490997314
1697211359321610200,97.2886103515625,2.5489501953125,-12.343950271606445,-3.6499502658843994
1697211359340447500,97.30744750976562,-3.808950185775757,-12.705000877380371,-11.446050643920898
1697211359359284700,97.32628466796875,5.841000080108643,-9.676050186157227,-3.961050271987915
1697211359378122000,97.3451220703125,2.5849502086639404,-6.20205020904541,-3.610950231552124
1697211359396959200,97.36395922851563,3.069000244140625,-8.130000114440918,-3.973050117492676
1697211359415796500,97.38279638671875,3.106950044631958,-10.195950508117676,-2.25600004196167
1697211359434633700,97.4016337890625,3.2220001220703125,-11.029050827026367,-0.05595000088214874
1697211359453471000,97.42047094726563,3.3700501918792725,-14.898000717163086,1.7509500980377197
1697211359472308200,97.43930810546875,3.796950101852417,-17.326051712036133,4.030050277709961
1697211359491145700,97.45814575195313,2.130000114440918,-14.874000549316406,4.021049976348877
1697211359509983000,97.47698291015625,3.469050168991089,-10.390050888061523,3.3330001831054688
1697211359528820000,97.49582006835938,1.1269500255584717,-8.817000389099121,1.987950086593628
1697211359547657200,97.5146572265625,-3.9190502166748047,-10.258050918579102,1.4629501104354858
1697211359566494500,97.53349438476563,-5.54295015335083,-9.13800048828125,-0.906000018119812
1697211359585331500,97.55233154296874,-2.6670000553131104,-7.615050315856934,-1.662000060081482
1697211359604168700,97.57116870117187,-0.6199500560760498,-6.97605037689209,-2.8210501670837402
1697211359623006200,97.59000610351562,-0.9430500268936157,-7.584000587463379,-2.4690001010894775
1697211359641843500,97.60884350585937,-1.8820500373840332,-8.38800048828125,-2.5099501609802246
1697211359660680700,97.6276806640625,-2.3770501613616943,-7.806000232696533,-3.2190001010894775
1697211359679518000,97.64651806640624,-2.39205002784729,-6.739050388336182,-2.275050163269043
1697211359698355200,97.66535522460937,-1.6380001306533813,-6.679050445556641,-1.6960500478744507
1697211359717192400,97.6841923828125,-0.7399500608444214,-7.071000099182129,-0.5850000381469727
1697211359736029400,97.70302954101562,0.49500003457069397,-7.488000392913818,0.5869500041007996
1697211359754867000,97.72186694335937,1.311000108718872,-8.695050239562988,0.9970500469207764
1697211359773704200,97.7407041015625,-0.4740000367164612,-10.2610502243042,2.0119500160217285
1697211359792541400,97.75954150390625,-0.9790500402450562,-10.882950782775879,2.68500018119812
1697211359811378700,97.77837866210938,-2.638050079345703,-11.053050994873047,2.7400500774383545
1697211359830216000,97.7972158203125,-2.8750500679016113,-9.468000411987305,2.2510499954223633
1697211359849053200,97.81605322265625,-0.9889500737190247,-11.10105037689209,0.987000048160553
1697211359867890400,97.83489038085938,0.9979500770568848,-14.202000617980957,-0.10905000567436218
1697211359886727700,97.85372778320313,0.6460500359535217,-15.562050819396973,0.43905001878738403
1697211359905565000,97.87256494140625,-1.951050043106079,-14.0149507522583,-1.4130001068115234
1697211359924402000,97.89140185546874,-6.048000335693359,-13.653000831604004,-3.5590500831604004
1697211359943239200,97.9102392578125,-4.446000099182129,-15.40095043182373,-0.5590500235557556
1697211359962076400,97.92907641601562,-0.4549500346183777,-15.508951187133789,0.004950000438839197
1697211359980913700,97.94791357421875,0.40605002641677856,-13.902000427246094,-0.19500000774860382
1697211359999751000,97.9667509765625,2.7649500370025635,-13.636950492858887,-1.2910500764846802
1697211360018588200,97.98558813476562,3.5880000591278076,-14.182050704956055,-2.9029500484466553
1697211360037425400,98.00442529296875,4.88100004196167,-13.519050598144531,-4.537950038909912
1697211360056262700,98.0232626953125,4.749000072479248,-14.094000816345215,-5.851950168609619
1697211360075100000,98.04209985351562,3.627000093460083,-14.793001174926758,-6.69795036315918
1697211360093937200,98.06093725585937,3.2029502391815186,-12.331950187683105,-5.860050201416016
1697211360112774400,98.0797744140625,3.7009501457214355,-8.452950477600098,-3.255000114440918
1697211360131612000,98.09861181640625,2.218950033187866,-6.754950523376465,-2.4600000381469727
1697211360150449000,98.11744897460937,-3.009000062942505,-7.107000350952148,-2.146050214767456
1697211360169286100,98.1362861328125,-4.863000392913818,-8.122950553894043,-0.4650000333786011
1697211360188123100,98.155123046875,-3.0210001468658447,-9.065999984741211,1.8109500408172607
1697211360206960600,98.17396069335938,0.9070500135421753,-8.269050598144531,2.8780500888824463
1697211360225798000,98.1927978515625,4.8480000495910645,-7.500000476837158,4.777050018310547
1697211360244635100,98.21163525390625,5.47005033493042,-7.047000408172607,2.965050220489502
1697211360263472400,98.23047241210938,3.96405029296875,-5.1820502281188965,-0.22800001502037048
1697211360282309600,98.2493095703125,2.152050018310547,-4.522050380706787,-1.7320500612258911
1697211360301147000,98.26814697265625,1.7209501266479492,-3.255000114440918,-1.4970000982284546
1697211360319984000,98.28698413085938,1.891050100326538,-1.8139500617980957,-0.89205002784729
1697211360338821400,98.3058212890625,0.7320000529289246,-1.2030000686645508,0.22800001502037048
1697211360357658600,98.32465869140626,-1.8870000839233398,-2.218050003051758,0.47895002365112305
1697211360376495600,98.34349560546875,-12.096000671386719,-6.466050148010254,1.6909500360488892
1697211360395332900,98.36233276367187,-28.864952087402344,-12.913050651550293,-2.986950159072876
1697211360414170000,98.38117016601562,-9.522000312805176,-16.2580509185791,-11.565000534057617
1697211360433007600,98.40000756835937,-16.42005157470703,-17.841001510620117,-8.422050476074219
1697211360451844600,98.4188447265625,-11.746050834655762,-13.447051048278809,-1.758000135421753
1697211360470681900,98.43768188476562,-8.136000633239746,-6.186000347137451,-0.6139500141143799
1697211360489519000,98.45651904296875,-11.667000770568848,-4.014000415802002,-4.357950210571289
1697211360508356400,98.4753564453125,0.19305001199245453,-9.837000846862793,-6.9370503425598145
1697211360527193300,98.494193359375,10.366050720214844,-11.604000091552734,-5.247000217437744
1697211360546030800,98.51303076171875,-2.8470001220703125,-5.3359503746032715,-4.882950305938721
1697211360564867800,98.53186791992188,2.9389500617980957,-6.475050449371338,-3.364950180053711
1697211360583705300,98.55070532226563,1.1340000629425049,-9.468000411987305,-5.00700044631958
1697211360602542600,98.56954248046875,3.4800002574920654,-11.452950477600098,-1.9950001239776611
1697211360621379800,98.5883798828125,4.728000164031982,-11.439000129699707,-0.1969500035047531
1697211360640217000,98.60721704101563,4.855050086975098,-10.774950981140137,-0.039000000804662704
1697211360659054300,98.62605444335938,4.171950340270996,-12.70305061340332,0.17505000531673431
1697211360677891600,98.6448916015625,3.1690502166748047,-15.624000549316406,2.335050106048584
1697211360696728800,98.66372875976562,-0.1290000081062317,-14.392951011657715,3.9439501762390137
1697211360715565800,98.68256591796874,-1.2739500999450684,-11.058000564575195,3.3139500617980957
1697211360734403000,98.70140307617187,-1.4719500541687012,-10.240950584411621,2.6200501918792725
1697211360753240300,98.720240234375,-1.8460501432418823,-10.117050170898438,1.3339500427246094
1697211360772077600,98.73907763671875,-1.8270001411437988,-8.793000221252441,-0.283050000667572
1697211360790914800,98.75791479492187,-0.7920000553131104,-7.866000175476074,-0.4729500114917755
1697211360809752000,98.776751953125,-0.1270500123500824,-7.150050163269043,-1.7179501056671143
1697211360828589300,98.79558935546875,-0.1789500117301941,-7.237050533294678,-3.2119500637054443
1697211360847426600,98.81442651367188,-1.9890000820159912,-7.672050476074219,-2.632050037384033
1697211360866263800,98.83326391601562,-3.3640501499176025,-7.4760003089904785,-3.5710501670837402
1697211360885101000,98.85210107421875,-3.120000123977661,-7.216950416564941,-2.4019501209259033
1697211360903938300,98.87093823242188,-1.7329500913619995,-7.311000347137451,-1.1620500087738037
1697211360922775300,98.889775390625,-0.3060000240802765,-7.639050483703613,0.016950000077486038
1697211360941612800,98.90861279296875,0.3460500240325928,-7.924050331115723,0.20205001533031464
1697211360960450000,98.92744995117188,0.3750000298023224,-9.351000785827637,0.29295000433921814
1697211360979287300,98.94628735351563,-0.23895001411437988,-11.503050804138184,1.6500000953674316
1697211360998124500,98.96512451171876,-0.9529500603675842,-11.053050994873047,1.4280000925064087
1697211361016961800,98.9839619140625,-3.495000123977661,-10.111950874328613,1.2310500144958496
1697211384205518800,122.17251879882812,-2.1160500049591064,-7.5450005531311035,1.0800000429153442
1697211384224356000,122.19135620117187,4.929000377655029,-6.5370001792907715,4.474950313568115
1697211384243193300,122.210193359375,7.927050590515137,-7.018950462341309,6.151050090789795
1697211384262030300,122.2290302734375,5.110950469970703,-5.178000450134277,3.6090002059936523
1697211384280867600,122.24786767578125,3.157050132751465,-3.1300501823425293,-0.5179499983787537
1697211384299704600,122.26670458984376,2.9700000286102295,-2.2639501094818115,-1.4020500183105469
1697211384318541600,122.28554150390624,2.1850500106811523,-1.76295006275177,-0.37905001640319824
1697211384337378800,122.30437890625,-1.5109500885009766,-2.3359501361846924,0.15105000138282776
1697211384356216000,122.32321606445312,-7.0219502449035645,-5.45805025100708,0.32895001769065857
1697211384375053000,122.34205297851562,-30.309001922607422,-10.708050727844238,-4.897050380706787
1697211384393890000,122.36089013671875,-0.19905000925064087,-14.068050384521484,-14.481000900268555
1697211384412727000,122.37972705078126,-14.088000297546387,-16.969051361083984,-12.073050498962402
1697211384431564300,122.39856420898437,-15.862051010131836,-15.504000663757324,-2.6800501346588135
1697211384450401500,122.41740161132813,-9.643950462341309,-8.044050216674805,-2.0650501251220703
1697211384469238500,122.43623852539062,-9.850050926208496,-4.921050071716309,-5.25600004196167
1697211384488075500,122.45507543945313,-3.721050262451172,-9.813000679016113,-7.348950386047363
1697211384506912500,122.47391259765625,17.242950439453125,-11.046000480651855,-2.686950206756592
1697211384525749800,122.49274975585938,-6.904950141906738,-3.3289501667022705,-2.9629502296447754
1697211384544586800,122.51158666992187,3.2790000438690186,-6.625950336456299,-5.230050086975098
1697211384563424000,122.53042407226563,2.0029501914978027,-11.36400032043457,-6.652050495147705
1697211384582261200,122.54926123046874,0.700950026512146,-13.74000072479248,-3.592050075531006
1697211384601098200,122.56809814453125,4.630050182342529,-11.344950675964355,2.493000030517578
1697211384619935500,122.586935546875,4.548000335693359,-9.991950035095215,-0.325950026512146
1697211384638772500,122.6057724609375,4.1010003089904785,-12.39900016784668,2.433000087738037
1697211384657609500,122.624609375,4.8670501708984375,-17.491050720214844,4.14300012588501
1697211384676446500,122.64344653320312,1.7569501399993896,-16.909950256347656,4.272000312805176
1697211384695283700,122.66228369140624,0.6550500392913818,-12.72705078125,5.47605037689209
1697211384714120700,122.68112060546875,2.4679501056671143,-8.43600082397461,5.083950042724609
1697211384732957700,122.69995776367188,0.14295001327991486,-6.643050193786621,1.4299501180648804
1697211384751795200,122.71879516601562,-3.850050210952759,-7.501950263977051,2.3779501914978027
1697211384770632000,122.7376318359375,-4.587000370025635,-7.854000568389893,-0.3859500288963318
1697211384789469200,122.75646923828126,-3.229950189590454,-7.348950386047363,-2.565000057220459
1697211384808306200,122.77530615234375,-2.1280500888824463,-8.107950210571289,-2.686950206756592
1697211384827143400,122.79414331054687,-1.3020000457763672,-8.199000358581543,-3.112950086593628
1697211384845980400,122.81298046875,-0.32100000977516174,-6.829950332641602,-3.1489500999450684
1697211384864817400,122.8318173828125,-1.3140000104904175,-7.141050338745117,-0.4459500312805176
1697211384883654700,122.85065454101563,-0.8160000443458557,-4.9930500984191895,-4.921050071716309
1697211384902492000,122.86949194335938,-0.9739500284194946,-6.307950496673584,-4.288949966430664
1697211384921329000,122.88832885742187,-1.4599500894546509,-8.568000793457031,-2.2870500087738037
1697211384940166100,122.90716625976563,-0.6060000061988831,-11.248950958251953,-0.5440500378608704
1697211384959003100,122.92600317382812,-1.8220500946044922,-12.45405101776123,1.686000108718872
1697211384977839900,122.94483984375,-5.27400016784668,-12.094950675964355,2.221950054168701
1697211384996677000,122.96367700195313,-6.136050224304199,-11.094000816345215,1.4710500240325928
1697211385015514400,122.98251440429688,-3.007050037384033,-12.234000205993652,1.6360501050949097
1697211385034351000,123.00135107421875,2.259000062942505,-14.992051124572754,2.407050132751465
1697211385053188600,123.02018872070313,2.0340001583099365,-16.411951065063477,1.3510500192642212
1697211385072025300,123.039025390625,1.4790000915527344,-16.102951049804688,1.533000111579895
1697211385090862600,123.05786254882813,-0.4620000123977661,-15.379950523376465,0.62295001745224
1697211385109699800,123.07669995117188,-2.061000108718872,-12.909000396728516,-0.6330000162124634
1697211385128536800,123.09553686523438,-1.2930001020431519,-10.83495044708252,-2.3419501781463623
1697211385147374000,123.1143740234375,-1.675950050354004,-12.031950950622559,-2.2710001468658447
1697211385166211000,123.13321118164062,-0.6220500469207764,-14.737950325012207,-1.5139501094818115
1697211385185048000,123.15204809570312,1.0720500946044922,-15.382050514221191,-1.5979501008987427
1697211385203885000,123.17088500976563,3.1309502124786377,-14.623050689697266,-2.3020501136779785
1697211385222722300,123.18972241210938,7.084050178527832,-14.392951011657715,-3.063000202178955
1697211385241559600,123.2085595703125,4.22504997253418,-15.432001113891602,-5.91195011138916
1697211385260396500,123.227396484375,3.703050136566162,-12.664051055908203,-4.038000106811523
1697211385279233800,123.24623388671876,3.0139501094818115,-8.138999938964844,-3.20205020904541
1697211385298070800,123.26507080078125,1.2250500917434692,-5.746950149536133,-1.6789500713348389
1697211385316907800,123.28390771484375,-3.721050262451172,-6.327000141143799,-0.36195001006126404
1697211385335744800,123.30274487304688,2.7739500999450684,-8.920050621032715,4.188000202178955
1697211385354582000,123.32158203125,1.633950114250183,-10.320000648498535,7.425000190734863
1697211385373419300,123.34041918945313,-0.49800002574920654,-8.716050148010254,4.705049991607666
1697211385392256300,123.35925634765626,4.761000156402588,-5.956050395965576,3.123000144958496
1697211385411093500,123.37809350585937,5.887050151824951,-3.403050184249878,0.6250500082969666
1697211385429930800,123.3969306640625,5.884050369262695,-2.877000093460083,0.8479500412940979
1697211385448767500,123.415767578125,4.441050052642822,-1.5810000896453857,0.8509500622749329
1697211385467604700,123.43460473632813,3.2629501819610596,-1.327950119972229,1.2430500984191895
1697211385486442000,123.45344189453125,-0.39705002307891846,-1.215000033378601,1.453950047492981
1697211385505279000,123.47227905273438,-5.466000080108643,-3.2119500637054443,2.3010001182556152
1697211385524116000,123.49111596679687,-22.623001098632812,-7.003950119018555,0.14205001294612885
1697211385542953000,123.50995288085937,-17.562000274658203,-12.778950691223145,-12.81705093383789
1697211385561790000,123.5287900390625,-6.40500020980835,-17.542051315307617,-16.240951538085938
1697211385580627200,123.54762719726563,-22.30695152282715,-21.85395050048828,-7.342050552368164
1697211385599464200,123.56646411132813,-10.60200023651123,-12.45405101776123,-1.971000075340271
1697211385618301400,123.58530151367188,-7.413000583648682,-3.933000087738037,-6.043950080871582
1697211385637138400,123.60413842773437,-1.4029500484466553,-5.094000339508057,-8.713950157165527
1697211394547092200,132.51409228515624,0.034950003027915955,-12.67905044555664,-3.157050132751465
1697211394565929500,132.53292944335936,-6.1650004386901855,-12.384000778198242,-2.2080001831054688
1697211394584766700,132.5517666015625,-5.908950328826904,-12.4350004196167,1.6740000247955322
1697211394603603700,132.57060375976562,-2.7870001792907715,-15.097050666809082,4.135050296783447
1697211394622440700,132.58944067382814,-0.27300000190734863,-15.609001159667969,3.7360501289367676
1697211394641278000,132.60827783203126,3.1120500564575195,-13.753951072692871,3.81000018119812
1697211394660115000,132.62711499023436,4.315950393676758,-12.717000961303711,1.8079501390457153
1697211394678952200,132.6459521484375,2.628000020980835,-15.277050971984863,-0.11295000463724136
1697211394697789400,132.66478955078125,2.202000141143799,-18.018001556396484,-3.871950149536133
