time,seconds_elapsed,z,y,x
1698079804981245700,0.03924560546875,9.313050270080566,2.8090500831604004,2.7850501537323
1698079804990664400,0.04866455078125,10.963050842285156,3.2059502601623535,4.096950054168701
1698079805000083200,0.058083251953125,12.421051025390625,4.806000232696533,7.006050109863281
1698079805009502000,0.067501953125,10.651050567626953,4.657050132751465,5.095950126647949
1698079805018921000,0.0769208984375,7.255950450897217,4.111050128936768,3.4459502696990967
1698079805028339700,0.086339599609375,4.219950199127197,2.7270002365112305,2.5789501667022705
1698079805037758700,0.0957587890625,4.558050155639648,2.3830502033233643,3.2809500694274902
1698079805047177200,0.10517724609375,7.005000114440918,2.611950159072876,2.493000030517578
1698079805056596200,0.11459619140625,9.10200023651123,3.358950138092041,0.6660000085830688
1698079805066015000,0.124014892578125,10.873950958251953,3.5149502754211426,-0.3910500109195709
1698079805075433700,0.133433837890625,10.213050842285156,2.599950075149536,-1.4179500341415405
1698079805084852500,0.1428525390625,9.08595085144043,1.6330500841140747,-3.66195011138916
1698079805094271500,0.152271484375,7.327950477600098,1.7530500888824463,-5.602950096130371
1698079805103690200,0.161690185546875,5.044050216674805,2.686950206756592,-5.389950275421143
1698079805113108700,0.171108642578125,4.801950454711914,2.952000141143799,-2.9170501232147217
1698079805122527700,0.18052783203125,5.4370503425598145,2.823000192642212,-0.05100000277161598
1698079805131946500,0.189946533203125,9.210000038146973,2.995950222015381,2.814000129699707
1698079805141365200,0.199365234375,12.046950340270996,3.916950225830078,2.6130001544952393
1698079805150784000,0.208783935546875,14.679000854492188,3.7740001678466797,1.6789500713348389
1698079805160203000,0.218203125,13.105950355529785,1.758000135421753,2.6269500255584717
1698079805169621800,0.227621826171875,10.045950889587402,1.5540000200271606,2.385000228881836
1698079805179040500,0.23704052734375,9.253050804138184,3.1579501628875732,1.519050121307373
1698079805188459300,0.246459228515625,7.489050388336182,3.369000196456909,0.8550000190734863
1698079805197878300,0.255878173828125,4.9270501136779785,2.442000150680542,1.1980500221252441
1698079805207296800,0.265296875,3.5400002002716064,1.771950125694275,2.9410500526428223
1698079805216715500,0.274715576171875,3.813000202178955,1.4970000982284546,3.24495005607605
1698079805226134800,0.284134765625,1.5240000486373901,2.0119500160217285,2.296950101852417
1698079805235553300,0.29355322265625,3.555000066757202,3.42900013923645,1.5810000896453857
1698079805244972000,0.302971923828125,4.564949989318848,4.273950099945068,0.7020000219345093
1698079805254390800,0.312390869140625,7.018950462341309,3.0460500717163086,0.21405000984668732
1698079805263809500,0.3218095703125,9.579000473022461,1.9350000619888306,-2.2200000286102295
1698079805273228500,0.331228515625,10.579950332641602,-0.12300000339746475,3.043950080871582
1698079805282647300,0.340647216796875,11.166000366210938,-1.9480501413345337,5.383050441741943
1698079805292066000,0.350066162109375,12.475950241088867,-0.8130000233650208,3.6760501861572266
1698079805301485000,0.359485107421875,14.467950820922852,1.7940000295639038,1.2619500160217285
1698079805310903800,0.36890380859375,14.085000991821289,3.072000026702881,0.8479500412940979
1698079805320322600,0.378322509765625,10.833000183105469,2.4780001640319824,1.9210500717163086
1698079805329741300,0.3877412109375,8.245050430297852,3.132000207901001,1.966050148010254
1698079805339160000,0.39716015625,7.183950424194336,3.7159502506256104,5.4280500411987305
1698079805348578800,0.406578857421875,4.182000160217285,3.81000018119812,7.923000335693359
1698079805357997800,0.415997802734375,-0.4069500267505646,4.051050186157227,8.361000061035156
1698079805367416800,0.425416748046875,-2.2960500717163086,3.2250001430511475,5.938050270080566
1698079805376835300,0.43483544921875,2.419950008392334,1.8990000486373901,2.8980002403259277
1698079805386254300,0.44425439453125,9.07395076751709,0.43800002336502075,-1.0470000505447388
1698079805395672800,0.4536728515625,12.801000595092773,-1.0690500736236572,-0.9660000205039978
1698079805405091800,0.463091796875,12.303000450134277,-0.7120500206947327,3.3070502281188965
1698079805414510600,0.472510498046875,9.330000877380371,-0.08700000494718552,8.431050300598145
1698079805423929300,0.481929443359375,6.315000534057617,0.09795000404119492,9.127950668334961
1698079805433348000,0.49134814453125,3.4330501556396484,1.207050085067749,4.594950199127197
1698079805442766800,0.500766845703125,2.6419501304626465,1.4970000982284546,1.075950026512146
1698079805452185900,0.510185791015625,5.809950351715088,0.3360000252723694,1.1400001049041748
1698079805461604600,0.5196044921875,10.52400016784668,-0.7290000319480896,2.6200501918792725
1698079805471023400,0.5290234375,13.587000846862793,-1.0069500207901,4.044000148773193
1698079805480442000,0.538442138671875,13.018950462341309,-0.4540500342845917,4.629000186920166
1698079805489860900,0.54786083984375,9.303000450134277,0.37905001640319824,3.3379502296447754
1698079805499279600,0.557279541015625,9.544950485229492,1.6930500268936157,0.7020000219345093
1698079805508698600,0.56669873046875,5.20395040512085,-4.296000003814697,3.9970502853393555
1698079805518117400,0.576117431640625,3.1549501419067383,-8.407050132751465,2.7589502334594727
1698079805527536400,0.585536376953125,2.48895001411438,-6.442050457000732,3.0199501514434814
1698079805536955000,0.594954833984375,10.921950340270996,-3.274050235748291,5.875950336456299
1698079805546374100,0.6043740234375,9.547950744628906,-3.5490002632141113,3.5940001010894775
1698079805555792600,0.613792724609375,10.347000122070312,-5.509950160980225,4.617000102996826
1698079805565211400,0.62321142578125,13.338000297546387,-6.721950531005859,7.255050182342529
1698079805574630100,0.632630126953125,13.081950187683105,-7.477950572967529,5.910000324249268
1698079805584049200,0.642049072265625,11.628000259399414,-8.284950256347656,5.3110504150390625
1698079805593468000,0.651468017578125,8.455950736999512,-9.777000427246094,5.353950023651123
1698079805602886700,0.66088671875,6.97605037689209,-10.749000549316406,4.198050022125244
1698079805612305400,0.670305419921875,7.8070502281188965,-10.498050689697266,2.3209500312805176
1698079805621724200,0.67972412109375,8.995050430297852,-11.434050559997559,3.642000198364258
1698079805631143200,0.68914306640625,7.165050506591797,-14.179950714111328,6.159000396728516
1698079805640562000,0.69856201171875,3.318000078201294,-15.684000968933105,6.058050155639648
1698079805649981000,0.70798095703125,0.004050000105053186,-16.39695167541504,7.549950122833252
1698079805659399400,0.7173994140625,-2.559000015258789,-16.324951171875,10.693050384521484
1698079805668818200,0.726818115234375,-4.930050373077393,-15.621000289916992,17.362051010131836
1698079805678237200,0.7362373046875,-8.193000793457031,-13.519050598144531,22.071001052856445
1698079805687656000,0.745656005859375,-10.195050239562988,-10.900050163269043,25.41105079650879
1698079805697074700,0.75507470703125,-8.586000442504883,-7.8259501457214355,26.581951141357422
1698079805706493400,0.764493408203125,-12.85995101928711,-6.814950466156006,28.963951110839844
1698079805715912200,0.773912109375,-19.87995147705078,-4.621950149536133,28.926000595092773
1698079805725331200,0.783331298828125,-17.11695098876953,-1.4899500608444214,25.303050994873047
1698079805734750000,0.79275,-8.251049995422363,-2.9290502071380615,21.814950942993164
1698079805744169000,0.8021689453125,-3.586050271987915,-6.183000087738037,17.78805160522461
1698079805753587500,0.81158740234375,-3.0670502185821533,-6.508950233459473,10.61205005645752
1698079805763006500,0.82100634765625,-2.3010001182556152,-6.5590500831604,5.424000263214111
1698079805772425200,0.83042529296875,-0.8880000710487366,-6.20205020904541,4.557000160217285
1698079805781844000,0.839843994140625,0.4639500081539154,-4.567049980163574,5.340000152587891
1698079805791262700,0.8492626953125,0.04200000315904617,-2.6610000133514404,7.3750505447387695
1698079805800681500,0.858681396484375,-0.24900001287460327,-2.095950126647949,8.47605037689209
1698079805810100200,0.868100341796875,-0.364050030708313,-1.339050054550171,6.841050148010254
1698079805819519000,0.87751904296875,1.2199500799179077,-1.1620500087738037,6.901050090789795
1698079805828938000,0.88693798828125,2.77905011177063,-1.4329500198364258,7.993050575256348
1698079805838356700,0.896356689453125,2.76705002784729,-1.3680000305175781,7.729050159454346
1698079805847775700,0.905775634765625,4.990950107574463,-0.9760500192642212,7.5859503746032715
1698079805857194500,0.915194580078125,7.125000476837158,0.6250500082969666,11.053050994873047
1698079805866613200,0.92461328125,4.660950183868408,-1.3180500268936157,10.087950706481934
1698079805876032000,0.934031982421875,5.893950462341309,-1.1290500164031982,10.162050247192383
1698079805885450800,0.94345068359375,6.337050437927246,-3.3600001335144043,6.676050186157227
1698079805894869500,0.952869384765625,7.045950412750244,-5.842950344085693,1.9950001239776611
1698079805904288500,0.96228857421875,2.707050085067749,-6.703050136566162,-2.4430501461029053
1698079805913707000,0.97170703125,3.1600501537323,-4.492950439453125,0.5560500025749207
1698079805923126000,0.9811259765625,-3.7609500885009766,-7.663050174713135,-0.5010000467300415
1698079805932544800,0.990544677734375,-5.868000507354736,-7.288950443267822,2.3899500370025635
1698079805941963500,0.999963623046875,-2.5069501399993896,-8.05305004119873,4.885050296783447
1698079805951382300,1.00938232421875,0.6030000448226929,-11.500950813293457,8.433000564575195
1698079805960801300,1.01880126953125,5.044050216674805,-12.790950775146484,9.730950355529785
1698079805970219800,1.0282197265625,9.106950759887695,-12.363000869750977,11.596050262451172
1698079805979638800,1.037638671875,7.204050540924072,-10.857000350952148,14.338050842285156
1698079805989057500,1.0470576171875,3.487950086593628,-8.079000473022461,11.733000755310059
1698079805998476300,1.056476318359375,1.974000096321106,-6.802950382232666,12.637950897216797
1698079806007895300,1.065895263671875,-1.5319501161575317,-8.84595012664795,8.596050262451172
1698079806017314000,1.07531396484375,0.89205002784729,-5.527050495147705,15.706951141357422
1698079806026732800,1.08473291015625,2.7120001316070557,2.49495005607605,15.895950317382812
1698079806036151600,1.094151611328125,-0.7900500297546387,-3.853950262069702,10.702950477600098
1698079806045570300,1.1035703125,-2.4130501747131348,-5.380950450897217,10.842000961303711
1698079806054989000,1.112989013671875,-2.623950242996216,-2.5290000438690186,9.907950401306152
1698079806064407800,1.12240771484375,0.4039500057697296,-0.15405000746250153,5.653050422668457
1698079806073826600,1.13182666015625,4.126950263977051,-1.5649501085281372,7.653000354766846
1698079806083245600,1.14124560546875,9.076050758361816,-0.9280500411987305,5.922000408172607
1698079806092664300,1.150664306640625,6.624000549316406,-0.5470499992370605,8.833050727844238
1698079806102083300,1.160083251953125,8.805000305175781,2.0329501628875732,10.750950813293457
1698079806111502000,1.169502197265625,11.254950523376465,6.075000286102295,15.630001068115234
1698079806120920800,1.1789208984375,10.456950187683105,7.309950351715088,12.48900032043457
1698079806130339600,1.188339599609375,3.895050287246704,-1.01895010471344,10.164000511169434
1698079806139758300,1.19775830078125,3.6120002269744873,-0.019950000569224358,6.7759504318237305
1698079806149177000,1.207177001953125,-0.10305000841617584,-1.3609501123428345,2.2129499912261963
1698079806158595800,1.216595947265625,-0.7440000176429749,-1.9690500497817993,-1.26705002784729
1698079806168014800,1.226014892578125,0.9040500521659851,-3.573000192642212,-0.11100000888109207
1698079806177433600,1.23543359375,2.2210500240325928,-3.8179502487182617,2.0839500427246094
1698079806186852400,1.244852294921875,5.404950141906738,-0.8989500403404236,1.1470500230789185
1698079806196271400,1.254271240234375,9.688950538635254,1.9759501218795776,-2.5320000648498535
1698079806205690000,1.263690185546875,16.522050857543945,3.4429502487182617,-5.5320000648498535
1698079806215108900,1.27310888671875,2.556000232696533,0.7210500240325928,0.9769500494003296
1698079806224527600,1.282527587890625,-10.597050666809082,-1.927950143814087,7.7749505043029785
1698079806233946400,1.2919462890625,-16.49595069885254,-5.659050464630127,20.941051483154297
1698079806243365000,1.301365234375,-16.88895034790039,0.9889500737190247,9.268950462341309
1698079806252783900,1.310783935546875,-14.943000793457031,3.6780002117156982,2.2270500659942627
1698079806262203000,1.320202880859375,-4.348050117492676,0.07005000114440918,5.0809502601623535
1698079806271621600,1.32962158203125,-2.680950164794922,-1.927950143814087,17.62005043029785
1698079806281040400,1.339040283203125,3.5119502544403076,0.30900001525878906,5.36400032043457
1698079806290459400,1.34845947265625,2.461050033569336,-3.1020002365112305,7.132950305938721
1698079806299878100,1.357878173828125,-0.4429500102996826,-9.793950080871582,15.061050415039062
1698079806309297200,1.367297119140625,-1.294950008392334,-7.786950588226318,10.897050857543945
1698079806318715600,1.376715576171875,2.428950071334839,-11.338050842285156,22.159950256347656
1698079806328134400,1.386134521484375,-3.0049500465393066,-8.410050392150879,13.605000495910645
1698079806337553400,1.395553466796875,-6.676950454711914,-7.69605016708374,9.664050102233887
1698079806346972200,1.40497216796875,-10.711950302124023,-6.339000225067139,6.004950523376465
1698079806356391200,1.41439111328125,-11.281950950622559,-4.519050121307373,2.764050245285034
1698079806365809700,1.4238095703125,-10.06095027923584,-5.103000164031982,-0.2350500077009201
1698079806375228400,1.433228515625,-7.939050197601318,-6.549000263214111,-3.5659501552581787
1698079806384647400,1.4426474609375,-5.241000175476074,-9.933000564575195,-2.493000030517578
1698079806394066200,1.452066162109375,8.497050285339355,-15.099000930786133,7.987950325012207
1698079806403485200,1.461485107421875,5.752950191497803,-19.761001586914062,16.294050216674805
1698079806412904000,1.470904052734375,4.828050136566162,-13.801950454711914,20.910001754760742
1698079806422322700,1.48032275390625,7.302000522613525,-8.79104995727539,20.68695068359375
1698079806431741400,1.489741455078125,0.9469500184059143,-8.623050689697266,15.055951118469238
1698079806441160200,1.49916015625,-3.223050117492676,-7.426050186157227,6.693000316619873
1698079806450579000,1.508578857421875,-1.6609500646591187,-7.975950241088867,6.385950088500977
1698079806459997700,1.517997802734375,0.6240000128746033,-8.818950653076172,10.425000190734863
1698079806469416700,1.527416748046875,3.178950071334839,-9.098999977111816,12.244950294494629
1698079806478835500,1.53683544921875,-1.1749500036239624,-7.7440505027771,10.879950523376465
1698079806488254500,1.54625439453125,-2.623950242996216,-7.852050304412842,7.969050407409668
1698079806497673200,1.555673095703125,-2.811000108718872,-7.9069504737854,6.618000507354736
1698079806507092000,1.565092041015625,-2.641050100326538,-7.051950454711914,6.324000358581543
1698079806516511000,1.574510986328125,-2.782050132751465,-6.9559502601623535,8.163000106811523
1698079806525929500,1.583929443359375,-2.92995023727417,-6.408000469207764,9.681000709533691
1698079806535348200,1.59334814453125,-1.9099501371383667,-6.250050067901611,12.601950645446777
1698079806544767000,1.60276708984375,-1.8169500827789307,-4.9170002937316895,6.718950271606445
1698079806554186000,1.61218603515625,-0.8260500431060791,-4.564949989318848,7.578000545501709
1698079806563605000,1.62160498046875,2.170950174331665,-3.3199501037597656,4.972950458526611
1698079806573023700,1.631023681640625,-0.1770000010728836,-3.1300501823425293,2.605950117111206
1698079806582442500,1.6404423828125,-1.429050087928772,-3.1399500370025635,1.0350000858306885
1698079806591861200,1.649861328125,0.9880500435829163,-2.824050188064575,0.931950032711029
1698079806601280000,1.659280029296875,3.43500018119812,-2.8500001430511475,0.2350500077009201
1698079806610699000,1.668698974609375,2.511000156402588,-3.1519501209259033,-0.1399500072002411
1698079806620117800,1.67811767578125,0.40905001759529114,-4.231950283050537,-0.697950005531311
1698079806629536300,1.687536376953125,-0.07395000010728836,-5.047950267791748,0.9970500469207764
1698079806638955500,1.69695556640625,0.31995001435279846,-5.212950229644775,2.6200501918792725
1698079806648374000,1.7063740234375,0.9160500168800354,-5.635050296783447,2.7520501613616943
1698079806657793000,1.71579296875,0.10695000737905502,-5.07705020904541,2.4379501342773438
1698079806667211800,1.725211669921875,0.6360000371932983,-4.1579999923706055,2.064000129699707
1698079806676630800,1.734630859375,-0.32805001735687256,-3.991950273513794,1.8060001134872437
1698079806686049500,1.744049560546875,-0.07605000585317612,-2.8410000801086426,0.5700000524520874
1698079806695468300,1.75346826171875,-2.6070001125335693,-1.9450501203536987,-0.283050000667572
1698079806704887000,1.762886962890625,-7.534950256347656,-4.123950004577637,4.164000034332275
1698079806714305800,1.772305908203125,-9.496050834655762,-3.9180002212524414,3.289950132369995
1698079806723724500,1.781724609375,-10.285950660705566,-9.588000297546387,10.440000534057617
1698079806733143300,1.791143310546875,-9.181950569152832,-9.334050178527832,4.126049995422363
1698079806742562300,1.800562255859375,-4.912950038909912,-10.102950096130371,1.5540000200271606
1698079806751981000,1.80998095703125,-10.57800006866455,-14.926950454711914,10.35300064086914
1698079806761399800,1.81939990234375,-7.755000591278076,-12.382050514221191,13.192950248718262
1698079806770818600,1.828818603515625,-5.56695032119751,-11.761950492858887,9.096000671386719
1698079806780237300,1.8382373046875,-3.0670502185821533,-10.5600004196167,6.103950500488281
1698079806789656000,1.847656005859375,-2.7169501781463623,-8.88900089263916,4.621950149536133
1698079806799074800,1.85707470703125,0.2670000195503235,-5.57295036315918,3.976950168609619
1698079806808493800,1.866493896484375,-0.0690000057220459,-3.2719502449035645,1.5690001249313354
1698079806817912800,1.875912841796875,-0.032999999821186066,-3.324000120162964,4.116000175476074
1698079806827331600,1.88533154296875,-0.16695000231266022,-3.576000213623047,4.666950225830078
1698079806836750300,1.894750244140625,0.5670000314712524,-3.1879501342773438,6.337950229644775
1698079806846169000,1.904169189453125,1.366050124168396,-2.625000238418579,5.922000408172607
1698079806855588000,1.913588134765625,0.9859500527381897,-1.960050106048584,6.420000076293945
1698079806865006600,1.923006591796875,0.5020500421524048,-2.2609500885009766,5.589000225067139
1698079806874425300,1.93242529296875,0.9550500512123108,-2.4940500259399414,6.004950523376465
1698079806883844000,1.941843994140625,-3.088050127029419,12.103050231933594,-2.4190502166748047
1698079806893263000,1.95126318359375,-0.10305000841617584,-1.2370500564575195,-5.218050479888916
1698079806902682000,1.96068212890625,-3.891000270843506,-12.291000366210938,-1.4710500240325928
1698079806912100900,1.970100830078125,-6.2989501953125,-17.11305046081543,0.08205000311136246
1698079806921519600,1.97951953125,2.616000175476074,-16.98900032043457,1.927950143814087
1698079806930938400,1.9889384765625,4.929000377655029,-17.62995147705078,3.20205020904541
1698079806940357000,1.998357177734375,5.140050411224365,-15.427050590515137,4.765050411224365
1698079806949776100,2.007776123046875,5.677950382232666,-13.440000534057617,1.2360000610351562
1698079806959195000,2.01719482421875,7.768950462341309,-10.914000511169434,-3.999000072479248
1698079806968613600,2.026613525390625,6.0520501136779785,-15.087000846862793,-3.7980000972747803
1698079806978032400,2.036032470703125,0.25095000863075256,-16.740001678466797,-3.6190502643585205
1698079806987451400,2.045451416015625,-15.046051025390625,-18.724050521850586,-0.5110500454902649
1698079806996870000,2.054869873046875,-33.172950744628906,-17.242050170898438,2.5360500812530518
1698079807006289000,2.064288818359375,-23.107051849365234,-19.189050674438477,7.0489501953125
1698079807015707600,2.073707763671875,-3.378000259399414,-18.859050750732422,3.3480000495910645
1698079807025126700,2.083126708984375,3.43500018119812,-17.221050262451172,2.3899500370025635
1698079807034545400,2.09254541015625,3.0610501766204834,-15.846000671386719,3.2689502239227295
1698079807043964200,2.101964111328125,3.805950164794922,-14.61600112915039,3.0049500465393066
1698079807053383000,2.1113828125,1.4170501232147217,-11.842950820922852,0.21105000376701355
1698079807062801700,2.1208017578125,-6.856950283050537,-10.02405071258545,-0.7770000100135803
1698079807072220700,2.130220703125,-17.956951141357422,-8.472000122070312,-0.5010000467300415
1698079807081639400,2.139639404296875,-19.96605110168457,-8.046000480651855,-0.9420000314712524
1698079807091058000,2.149057861328125,-10.65000057220459,-8.85300064086914,-1.533000111579895
1698079807100477200,2.158477294921875,-9.190950393676758,-9.991950035095215,-1.9950001239776611
1698079807109896000,2.16789599609375,-11.758050918579102,-9.219000816345215,-1.902000069618225
1698079807119314400,2.177314453125,-12.271050453186035,-9.645000457763672,-2.104950189590454
1698079807128733700,2.186733642578125,-6.56505012512207,-10.507050514221191,-1.8520500659942627
1698079807138152400,2.19615234375,-1.4359500408172607,-11.02695083618164,-2.2200000286102295
1698079807147571200,2.2055712890625,1.4620500802993774,-11.31195068359375,-4.465950012207031
1698079807156990000,2.214989990234375,1.6819500923156738,-8.700000762939453,-2.067000150680542
1698079807166409000,2.224408935546875,4.7059502601623535,-7.237050533294678,-0.43695002794265747
1698079807175827500,2.233827392578125,7.246950149536133,-5.697000503540039,1.2019500732421875
1698079807185246500,2.24324658203125,7.672950267791748,-4.627050399780273,2.6610000133514404
1698079807194665500,2.25266552734375,5.3359503746032715,-3.0709500312805176,4.6810503005981445
1698079807204084200,2.262084228515625,2.1949501037597656,-1.4860501289367676,5.548050403594971
1698079807213503000,2.2715029296875,-0.2659500241279602,-0.7740000486373901,4.641000270843506
1698079807222921700,2.280921630859375,-1.6639500856399536,-1.5450000762939453,2.0500500202178955
1698079807232340500,2.290340576171875,-1.2859500646591187,-3.0109500885009766,0.3450000286102295
1698079807241759200,2.29975927734375,-0.23895001411437988,-5.050950050354004,-0.1680000126361847
1698079807251178200,2.30917822265625,0.8059500455856323,-7.512000560760498,-0.3840000033378601
1698079807260596700,2.3185966796875,1.062000036239624,-9.870000839233398,-0.2740500271320343
1698079807270016000,2.32801611328125,0.41805002093315125,-12.031950950622559,0.06000000238418579
1698079807279434800,2.337434814453125,-0.4330500066280365,-13.552950859069824,0.13005000352859497
1698079807288853500,2.346853515625,-1.0699501037597656,-14.57805061340332,-0.0580500029027462
1698079807298272300,2.356272216796875,-1.5540000200271606,-14.707050323486328,-1.339050054550171
1698079807307691000,2.36569091796875,-1.6849501132965088,-14.161050796508789,-2.874000072479248
1698079807317109800,2.37510986328125,-1.8790501356124878,-13.23900032043457,-3.4270501136779785
1698079807326528800,2.38452880859375,-2.2170000076293945,-12.271950721740723,-3.6229500770568848
1698079807335947500,2.393947509765625,-2.871000051498413,-11.197050094604492,-3.8149502277374268
1698079807345366300,2.4033662109375,-4.065000057220459,-9.556950569152832,-3.745950222015381
1698079807354785000,2.412784912109375,-5.6170501708984375,-8.532000541687012,-2.1319501399993896
1698079807364204000,2.4222041015625,-6.457050323486328,-7.912050247192383,-0.2740500271320343
1698079807373622800,2.431622802734375,-6.594000339508057,-7.477950572967529,1.1190000772476196
1698079807383041500,2.44104150390625,-6.390000343322754,-7.300950527191162,2.602950096130371
1698079807392460300,2.450460205078125,-7.0819501876831055,-7.194000244140625,4.462950229644775
1698079807401879000,2.459879150390625,-8.461050033569336,-6.631050109863281,6.288000106811523
1698079807411298000,2.469298095703125,-11.080950736999512,-5.914950370788574,7.276950359344482
1698079807420716800,2.478716796875,-14.808000564575195,-4.930950164794922,8.04104995727539
1698079807430135600,2.488135498046875,-20.418001174926758,-4.201050281524658,7.926000595092773
1698079807439554300,2.49755419921875,-24.055051803588867,-3.463050127029419,7.801050186157227
1698079807448973000,2.50697314453125,-21.00495147705078,-2.968050241470337,5.353950023651123
1698079807458392000,2.51639208984375,-1.53000009059906,-4.641000270843506,2.955000162124634
1698079807467810800,2.525810791015625,6.526050090789795,-6.135000228881836,1.915950059890747
1698079807477229600,2.5352294921875,7.5169501304626465,-6.097050189971924,1.0830000638961792
1698079807486648600,2.544648681640625,8.27595043182373,-6.9970502853393555,-0.7189500331878662
1698079807496067300,2.5540673828125,8.077950477600098,-8.455050468444824,-2.0650501251220703
1698079807505486300,2.563486328125,7.489050388336182,-10.21500015258789,-2.8600502014160156
1698079807514905000,2.572905029296875,7.053000450134277,-11.491050720214844,-4.176000118255615
1698079807524323800,2.58232373046875,6.784950256347656,-11.755050659179688,-6.091950416564941
1698079807533742600,2.59174267578125,6.3319501876831055,-12.130950927734375,-6.445950508117676
1698079807543161300,2.601161376953125,5.587050437927246,-11.733000755310059,-6.625950336456299
1698079807552580000,2.610580078125,5.475000381469727,-11.961000442504883,-5.115000247955322
1698079807561998800,2.619998779296875,-9.904950141906738,-11.155950546264648,-5.5219502449035645
1698079807571417900,2.62941796875,-49.969051361083984,-15.541951179504395,-1.828050136566162
1698079807580836600,2.638836669921875,-34.7170524597168,-19.594051361083984,9.360000610351562
1698079807590255400,2.64825537109375,-6.541050434112549,-22.3210506439209,6.505950450897217
1698079807599674000,2.657674072265625,4.492950439453125,-18.600000381469727,5.767950057983398
1698079807609093000,2.667093017578125,4.660950183868408,-15.970951080322266,5.797050476074219
1698079807618512000,2.676511962890625,-5.707950115203857,-14.391000747680664,5.863950252532959
1698079807627931000,2.685930908203125,-21.81195068359375,-11.34000015258789,3.1440000534057617
1698079807637349600,2.695349609375,-16.858051300048828,-11.197050094604492,1.537950038909912
1698079807646768400,2.704768310546875,-5.7370500564575195,-11.455050468444824,1.7359501123428345
1698079807656187400,2.7141875,-4.864950180053711,-11.07705020904541,1.6210501194000244
1698079807665606100,2.723606201171875,-9.151050567626953,-10.318050384521484,0.9439500570297241
1698079807675025000,2.73302490234375,-8.533050537109375,-9.817950248718262,0.32100000977516174
1698079807684443600,2.742443603515625,-5.574000358581543,-9.292950630187988,-0.8770500421524048
1698079807693862700,2.751862548828125,-2.5069501399993896,-8.395050048828125,-1.7299500703811646
1698079807703281400,2.761281494140625,1.371000051498413,-7.182000160217285,-2.524050235748291
1698079807712700200,2.7707001953125,5.227950096130371,-5.946000099182129,-3.214050054550171
1698079807722119000,2.780118896484375,7.560000419616699,-4.519050121307373,-2.7520501613616943
1698079807731537700,2.78953759765625,7.291950225830078,-3.0829501152038574,-1.4850000143051147
1698079807740956400,2.798956298828125,7.351950168609619,-1.735050082206726,0.7720500230789185
1698079807750375200,2.808375244140625,5.949000358581543,-0.3820500075817108,2.0929501056671143
1698079807759794200,2.817794189453125,2.889000177383423,0.3450000286102295,1.5660001039505005
1698079807769213200,2.827213134765625,-0.1870500147342682,-0.5329500436782837,-1.0849500894546509
1698079807778632000,2.8366318359375,-2.803950071334839,-2.3830502033233643,-2.8000500202178955
1698079807788050700,2.84605078125,-2.791950225830078,-4.900050163269043,-2.8189501762390137
1698079807797469700,2.8554697265625,-1.0699501037597656,-7.858950138092041,-2.617950201034546
1698079807806888400,2.864888427734375,1.1440500020980835,-11.515050888061523,-1.7730001211166382
1698079807816307200,2.87430712890625,0.8730000257492065,-15.004050254821777,-0.7810500264167786
1698079807825726000,2.883725830078125,-0.984000027179718,-17.96295166015625,0.2760000228881836
1698079807835144700,2.893144775390625,-4.069950103759766,-19.902000427246094,1.0849500894546509
1698079807844563700,2.902563720703125,-5.794050216674805,-19.675050735473633,1.5259500741958618
1698079807853982700,2.911982666015625,-5.4970502853393555,-17.854949951171875,0.6400500535964966
1698079807863401200,2.921401123046875,-5.193000316619873,-15.042000770568848,-1.1260499954223633
1698079807872820200,2.9308203125,-5.586000442504883,-12.207000732421875,-2.5960500240325928
1698079807882239000,2.940239013671875,-6.591000080108643,-9.849000930786133,-3.142050266265869
1698079807891657700,2.94965771484375,-7.174950122833252,-8.163000106811523,-2.587050199508667
1698079807901076500,2.959076416015625,-6.673050403594971,-6.922950267791748,-1.057050108909607
1698079807910495500,2.96849560546875,-5.635950088500977,-6.109050273895264,0.7210500240325928
1698079807919914000,2.9779140625,-4.353000164031982,-5.518050193786621,2.245950222015381
1698079807929333000,2.9873330078125,-3.7350001335144043,-5.041050434112549,3.7930502891540527
1698079807938752000,2.996751953125,-3.61995005607605,-4.336950302124023,4.504050254821777
1698079807948170500,3.00617041015625,-5.320050239562988,-3.463050127029419,5.212950229644775
1698079807957589500,3.015589599609375,-8.631000518798828,-2.1700501441955566,5.989050388336182
1698079807967008300,3.02500830078125,-13.063050270080566,-0.9880500435829163,7.219050407409668
1698079807976427300,3.03442724609375,-17.457000732421875,-1.2580500841140747,7.923000335693359
1698079807985846000,3.043845947265625,-26.7220516204834,-1.0330500602722168,8.337000846862793
1698079807995264800,3.0532646484375,-24.192001342773438,-1.3039500713348389,6.717000484466553
1698079808004683500,3.06268359375,-6.193950176239014,-3.933000087738037,3.709050178527832
1698079808014102500,3.0721025390625,5.893950462341309,-7.215000152587891,1.9399501085281372
1698079808023521300,3.081521240234375,9.12405014038086,-8.8410005569458,1.1860500574111938
1698079808032940000,3.09093994140625,9.62700080871582,-10.53600025177002,-0.42195001244544983
1698079808042359000,3.100359130859375,9.2989501953125,-13.294050216674805,-1.8160500526428223
1698079808051777800,3.10977783203125,7.881000518798828,-15.765000343322754,-3.922950267791748
1698079808061196500,3.119196533203125,7.278000354766846,-16.942951202392578,-7.813050270080566
1698079808070615300,3.128615234375,8.61405086517334,-17.731050491333008,-10.204950332641602
1698079808080034000,3.138033935546875,4.9960503578186035,-17.05605125427246,-8.94105052947998
1698079808089452800,3.147452880859375,-16.582950592041016,-15.696001052856445,-5.356950283050537
1698079808098871800,3.156871826171875,-25.281002044677734,-13.750950813293457,0.24000000953674316
1698079808108290600,3.16629052734375,-20.349000930786133,-14.086950302124023,5.083950042724609
1698079808117709600,3.17570947265625,-9.928950309753418,-14.829000473022461,5.950050354003906
1698079808127128000,3.185128173828125,-2.6650500297546387,-14.647050857543945,5.28000020980835
1698079808136547000,3.194547119140625,-3.5910000801086426,-14.119950294494629,5.5909504890441895
1698079808145965800,3.2039658203125,-11.3100004196167,-13.665000915527344,4.689000129699707
1698079808155384800,3.213384765625,-17.11695098876953,-12.856050491333008,3.211050033569336
1698079808164803600,3.222803466796875,-13.4010009765625,-12.418050765991211,1.8919501304626465
1698079808174222300,3.232222412109375,-6.766050338745117,-12.159000396728516,0.6300000548362732
1698079808183641000,3.24164111328125,-4.111050128936768,-11.053050994873047,-1.440000057220459
1698079808193059800,3.251059814453125,-3.1630501747131348,-9.870000839233398,-3.412950277328491
1698079808202478800,3.260478759765625,0.09495000541210175,-8.272950172424316,-4.222050189971924
1698079808211897600,3.269897705078125,2.7769501209259033,-6.9210004806518555,-3.922950267791748
1698079808221316400,3.27931640625,4.438050270080566,-4.89300012588501,-3.496950149536133
1698079808230735400,3.2887353515625,3.9210002422332764,-3.183000087738037,-3.4870500564575195
1698079808240153900,3.29815380859375,4.06695032119751,-2.1889500617980957,-2.517000198364258
1698079808249572900,3.30757275390625,4.531949996948242,-1.9840500354766846,-1.045050024986267
1698079808258991600,3.31699169921875,4.897950172424316,-1.2940500974655151,0.7620000243186951
1698079808268410600,3.32641064453125,5.475000381469727,-1.1430000066757202,0.6660000085830688
1698079808277829400,3.335829345703125,4.666050434112549,-1.1530500650405884,-1.7130000591278076
1698079808287248100,3.345248046875,3.4300501346588135,-2.826000213623047,-3.4609501361846924
1698079808296667100,3.354667236328125,1.6200001239776611,-4.255949974060059,-3.8800501823425293
1698079808306086000,3.3640859375,0.5260500311851501,-6.466050148010254,-3.4800002574920654
1698079808315504600,3.373504638671875,1.0309500694274902,-9.493950843811035,-2.9239501953125
1698079808324923600,3.382923583984375,1.9890000820159912,-13.969050407409668,-2.4120001792907715
1698079808334342400,3.39234228515625,1.752000093460083,-17.752050399780273,-0.9130500555038452
1698079808343761400,3.401761474609375,1.6849501132965088,-21.444000244140625,0.4650000333786011
1698079808353180200,3.41118017578125,0.7489500641822815,-23.455951690673828,2.6100001335144043
1698079808362599000,3.420598876953125,-1.420050024986267,-23.18505096435547,3.0319502353668213
1698079808372017700,3.430017578125,-4.477050304412842,-20.946001052856445,3.013050079345703
1698079808381436400,3.4394365234375,-9.769050598144531,-17.347949981689453,2.2270500659942627
1698079808390855200,3.448855224609375,-15.165000915527344,-14.233050346374512,2.111999988555908
1698079808400274200,3.458274169921875,-16.256999969482422,-11.695050239562988,1.9489500522613525
1698079808409693000,3.46769287109375,-13.374000549316406,-9.837000846862793,2.014050006866455
1698079808419111700,3.477111572265625,-9.83595085144043,-8.731050491333008,2.464050054550171
1698079808428530700,3.48653076171875,-7.996950149536133,-8.055000305175781,2.7180001735687256
1698079808437949400,3.495949462890625,-7.906050205230713,-6.961050510406494,2.49495005607605
1698079808447368200,3.5053681640625,-8.06100082397461,-5.7109503746032715,2.4310500621795654
1698079808456787200,3.514787109375,-8.334000587463379,-4.243950366973877,2.0089499950408936
1698079808466206000,3.5242060546875,-8.44694995880127,-2.379000186920166,1.759950041770935
1698079808475624700,3.533624755859375,-7.5319504737854,-0.9420000314712524,2.275050163269043
1698079808485043500,3.54304345703125,-6.916950225830078,-0.07095000147819519,3.211050033569336
1698079808494462200,3.552462158203125,-5.8060503005981445,-0.12600000202655792,3.4960501194000244
1698079808503881000,3.561880859375,-0.9690000414848328,-1.549950122833252,3.3979501724243164
1698079808513300000,3.571300048828125,3.4780502319335938,-3.2760002613067627,2.965050220489502
1698079808522718700,3.58071875,4.797000408172607,-4.303950309753418,3.321000099182129
1698079808532137700,3.5901376953125,5.2069501876831055,-5.380950450897217,2.9380500316619873
1698079808541556500,3.599556396484375,5.0370001792907715,-7.107000350952148,1.3699500560760498
1698079808550975200,3.608975341796875,5.074950218200684,-9.322050094604492,-0.7020000219345093
1698079808560394200,3.618394287109375,4.611000061035156,-11.107950210571289,-2.496000051498413
1698079808569813000,3.62781298828125,5.359950065612793,-13.85400104522705,-3.994950294494629
1698079808579231700,3.637231689453125,5.9509501457214355,-16.347000122070312,-5.8090500831604
1698079808588650500,3.646650390625,4.773000240325928,-18.894001007080078,-7.461000442504883
1698079808598069500,3.656069580078125,-13.92495059967041,-19.648950576782227,-8.107950210571289
1698079808607488300,3.66548828125,-30.106050491333008,-19.455001831054688,-4.641000270843506
1698079808616907300,3.6749072265625,-21.63705062866211,-20.395950317382812,-0.7600500583648682
1698079808626326000,3.684325927734375,-8.212050437927246,-19.85205078125,0.13500000536441803
1698079808635744800,3.693744873046875,-2.290950059890747,-16.759050369262695,1.1040000915527344
1698079808645163500,3.70316357421875,-6.756000518798828,-13.72800064086914,1.3320000171661377
1698079808654582300,3.712582275390625,-13.852951049804688,-11.029050827026367,1.6000500917434692
1698079808664001300,3.722001220703125,-18.238950729370117,-9.97605037689209,0.7999500632286072
1698079808673420000,3.731419921875,-11.707950592041016,-10.282050132751465,-0.7069500088691711
1698079808682838800,3.7408388671875,-1.6930500268936157,-10.452000617980957,-2.365950107574463
1698079808692257800,3.7502578125,2.896050214767456,-8.962950706481934,-4.641000270843506
1698079808701676500,3.759676513671875,5.269050121307373,-8.295000076293945,-3.7770001888275146
1698079808711095000,3.769094970703125,7.63200044631958,-7.402050495147705,-3.750000238418579
1698079808720514000,3.77851416015625,8.437050819396973,-5.758950233459473,-3.3580501079559326
1698079808729933000,3.78793310546875,7.1170501708984375,-4.071000099182129,-1.7650500535964966
1698079808739351800,3.797351806640625,5.817000389099121,-2.4720001220703125,-1.0969500541687012
1698079808748770600,3.8067705078125,4.873950004577637,-1.7130000591278076,0.9460500478744507
1698079808758189300,3.816189208984375,4.23900032043457,-1.0350000858306885,4.5329999923706055
1698079808767608000,3.825608154296875,1.9390500783920288,1.1380500793457031,3.183000087738037
1698079808777027000,3.835027099609375,0.7920000553131104,1.7119500637054443,1.8199501037597656
1698079808786445800,3.84444580078125,-0.14100000262260437,0.30000001192092896,-1.3540500402450562
1698079808795864800,3.85386474609375,-0.6679500341415405,-1.4740500450134277,-2.0380501747131348
1698079808805283600,3.86328369140625,-1.3980001211166382,-3.3630001544952393,-2.4310500621795654
1698079808814702600,3.87270263671875,-1.5319501161575317,-5.568000316619873,-1.6290000677108765
1698079808824121000,3.88212109375,-0.5029500126838684,-7.717950344085693,-0.9469500184059143
1698079808833539800,3.891539794921875,1.1869500875473022,-10.359000205993652,-0.08205000311136246
1698079808842958800,3.900958740234375,1.4790000915527344,-13.84005069732666,1.7509500980377197
1698079808852377600,3.910377685546875,-1.1590501070022583,-16.597949981689453,3.1080000400543213
1698079808861796600,3.919796630859375,-3.6130502223968506,-18.028051376342773,3.5779502391815186
1698079808871215400,3.92921533203125,-5.290950298309326,-18.12795066833496,1.5619500875473022
1698079808880634000,3.938634033203125,-6.523950099945068,-16.81905174255371,-1.2960000038146973
1698079808890052900,3.948052978515625,-7.417050361633301,-14.628000259399414,-3.8200502395629883
1698079808899472000,3.957471923828125,-8.7649507522583,-12.516000747680664,-5.356950283050537
1698079808908890600,3.966890625,-10.61400032043457,-10.627050399780273,-6.090000152587891
1698079808918309400,3.976309326171875,-10.96095085144043,-9.063000679016113,-5.998950481414795
1698079808927728000,3.98572802734375,-11.2339506149292,-8.307000160217285,-4.9519500732421875
1698079808937147100,3.995147216796875,-11.172000885009766,-8.259000778198242,-3.712050199508667
1698079808946566100,4.004566162109375,-11.344050407409668,-8.850000381469727,-2.4720001220703125
1698079808955984600,4.013984619140625,-10.97295093536377,-10.114950180053711,-2.086050033569336
1698079808965403600,4.023403564453125,-10.47195053100586,-11.500950813293457,-2.436000108718872
1698079808974822400,4.032822509765625,-10.053000450134277,-12.69795036315918,-2.7880501747131348
1698079808984241400,4.042241455078125,-10.087050437927246,-13.633950233459473,-2.575050115585327
1698079808993660200,4.05166015625,-11.370000839233398,-13.999950408935547,-1.915950059890747
1698079809003079000,4.061078857421875,-14.791950225830078,-13.183950424194336,-0.1879500150680542
1698079809012497700,4.07049755859375,-19.19700050354004,-12.406050682067871,1.4010000228881836
1698079809021916700,4.079916748046875,-21.8070011138916,-11.55405044555664,2.9239501953125
1698079809031335200,4.089335205078125,-20.428050994873047,-11.428950309753418,4.279050350189209
1698079809040754200,4.098754150390625,-9.175050735473633,-11.518050193786621,2.8570501804351807
1698079809050173200,4.108173095703125,4.096050262451172,-11.032050132751465,-0.21900001168251038
1698079809059592000,4.117592041015625,7.062000274658203,-10.392000198364258,-2.4570000171661377
1698079809069010700,4.1270107421875,4.696950435638428,-10.195950508117676,-3.5899500846862793
1698079809078429400,4.136429443359375,3.2310001850128174,-10.723050117492676,-3.994950294494629
1698079809087848400,4.145848388671875,3.0040502548217773,-12.055950164794922,-4.854000091552734
1698079809097267200,4.15526708984375,2.9230501651763916,-13.564950942993164,-6.124950408935547
1698079809106686000,4.16468603515625,2.800950050354004,-14.211000442504883,-6.628050327301025
1698079809116105000,4.17410498046875,3.1600501537323,-12.69795036315918,-6.951000213623047
1698079809125524000,4.18352392578125,3.913950204849243,-10.663050651550293,-7.615050315856934
1698079809134942700,4.192942626953125,3.9499502182006836,-9.645000457763672,-6.622950077056885
1698079809144361500,4.202361572265625,4.105050086975098,-10.158000946044922,-6.5400004386901855
1698079809153780200,4.2117802734375,4.315950393676758,-11.235000610351562,-6.046050071716309
1698079809163199000,4.221198974609375,4.13700008392334,-12.547050476074219,-5.460000038146973
1698079809172618000,4.230617919921875,3.973950147628784,-13.878000259399414,-5.151000022888184
1698079809182036700,4.24003662109375,4.455000400543213,-14.848051071166992,-5.091000080108643
1698079809191455500,4.24945556640625,4.680000305175781,-15.516000747680664,-5.350050449371338
1698079809200874200,4.258874267578125,5.449050426483154,-15.47805118560791,-5.050050258636475
1698079809210293200,4.268293212890625,5.640000343322754,-14.653950691223145,-4.567049980163574
1698079809219712300,4.277712158203125,4.960050106048584,-13.219950675964355,-3.3960001468658447
1698079809229130800,4.287130859375,4.261050224304199,-11.896050453186035,-2.2900500297546387
1698079809238549500,4.296549560546875,3.7579500675201416,-10.617000579833984,-1.5949500799179077
1698079809247968500,4.305968505859375,3.069000244140625,-9.528000831604004,-1.2049500942230225
1698079809257387300,4.31538720703125,3.0810000896453857,-8.752050399780273,-0.5710500478744507
1698079809266806000,4.324805908203125,3.409050226211548,-8.248950004577637,-0.19995000958442688
1698079809276225000,4.33422509765625,3.574050188064575,-8.05305004119873,0.11805000901222229
1698079809285643800,4.343643798828125,3.6070501804351807,-7.557000160217285,0.15405000746250153
1698079809295062800,4.353062744140625,3.6670501232147217,-7.086000442504883,0.32895001769065857
1698079809304481500,4.3624814453125,3.028050184249878,-6.994950294494629,0.6970500349998474
1698079809313900300,4.371900390625,2.6040000915527344,-6.772050380706787,1.6240500211715698
1698079809323319300,4.3813193359375,2.050950050354004,-6.547050476074219,2.376000165939331
1698079809332738000,4.390738037109375,1.5000001192092896,-6.886950492858887,2.8879501819610596
1698079809342156800,4.40015673828125,0.6169500350952148,-7.330050468444824,3.7480502128601074
1698079809351575600,4.409575439453125,0,-7.81095027923584,4.72005033493042
1698079809360994300,4.418994384765625,-0.7660500407218933,-8.134050369262695,5.658000469207764
1698079809370413000,4.4284130859375,-1.7190001010894775,-8.331000328063965,6.429000377655029
1698079809379831800,4.437831787109375,-2.5260000228881836,-8.452950477600098,7.114050388336182
1698079809389250800,4.447250732421875,-2.430000066757202,-8.689949989318848,7.53795051574707
1698079809398669600,4.456669677734375,-2.31000018119812,-9.135000228881836,7.588050365447998
1698079809408088600,4.466088623046875,-1.2570000886917114,-9.757950782775879,6.499050140380859
1698079809417507300,4.47550732421875,0.48795002698898315,-10.312950134277344,5.397000312805176
1698079809426926000,4.484926025390625,-0.4909500181674957,-10.774950981140137,4.237950325012207
1698079809436345000,4.494344970703125,-2.0880000591278076,-10.830000877380371,2.617950201034546
1698079809445763800,4.503763916015625,-3.5340001583099365,-10.80405044555664,1.689000129699707
1698079809455182600,4.5131826171875,-4.5199503898620605,-10.617000579833984,1.2580500841140747
1698079809464601600,4.5226015625,-4.957950115203857,-10.455000877380371,1.1380500793457031
1698079809474020400,4.532020263671875,-4.635000228881836,-10.315950393676758,1.3819500207901
1698079809483439000,4.541439208984375,-3.430950164794922,-10.162050247192383,1.4419500827789307
1698079809492858000,4.550858154296875,-2.0880000591278076,-10.093050003051758,1.059000015258789
1698079809502276900,4.56027685546875,-0.7110000252723694,-10.134000778198242,0.3910500109195709
1698079809511695600,4.569695556640625,0.24300001561641693,-10.363950729370117,-0.17805001139640808
1698079809521114400,4.5791142578125,0.33705002069473267,-10.687050819396973,-0.609000027179718
1698079809530533400,4.588533447265625,-0.33000001311302185,-11.086950302124023,-0.583050012588501
1698079809539952400,4.597952392578125,-1.429050087928772,-11.467050552368164,-0.14205001294612885
1698079809549371100,4.60737109375,-2.2770001888275146,-11.659050941467285,0.23295001685619354
1698079809558790000,4.616789794921875,-3.0330002307891846,-11.676000595092773,0.4819500148296356
1698079809568208600,4.626208740234375,-3.418950080871582,-11.97705078125,1.0849500894546509
1698079809577627600,4.635627685546875,-4.1419501304626465,-11.850000381469727,1.1470500230789185
1698079809587046400,4.64504638671875,-4.3720502853393555,-12.219000816345215,0.8790000677108765
1698079809596465200,4.654465087890625,-4.288050174713135,-12.652950286865234,0.3139500021934509
1698079809605884000,4.6638837890625,-3.9619503021240234,-13.383000373840332,0.17100000381469727
1698079809615303000,4.673302978515625,-3.3540000915527344,-14.166000366210938,0.016950000077486038
1698079809624721700,4.6827216796875,-2.67900013923645,-14.488950729370117,-0.922950029373169
1698079809634140700,4.692140625,-1.527000069618225,-14.665950775146484,-2.070000171661377
1698079809643559200,4.70155908203125,-0.2370000183582306,-14.548951148986816,-4.276950359344482
1698079809652978200,4.710978271484375,1.117050051689148,-13.819050788879395,-6.622950077056885
1698079809662397000,4.72039697265625,2.2350001335144043,-12.997050285339355,-9.331050872802734
1698079809671816000,4.72981591796875,2.6929500102996826,-13.141050338745117,-10.167000770568848
1698079809681234700,4.739234619140625,4.285050392150879,-13.303950309753418,-11.44800090789795
1698079809690653400,4.7486533203125,5.391000270843506,-14.647050857543945,-8.781000137329102
1698079809700072200,4.758072265625,4.816050052642822,-15.193050384521484,-7.975950241088867
1698079809709491200,4.7674912109375,4.89300012588501,-15.46095085144043,-7.890000343322754
1698079809718910000,4.776909912109375,4.930950164794922,-16.09095001220703,-7.789050579071045
1698079809728328700,4.78632861328125,5.1469502449035645,-16.027950286865234,-8.434050559997559
1698079809737747500,4.79574755859375,5.4150004386901855,-15.660000801086426,-8.176950454711914
1698079809747166200,4.805166259765625,5.467950344085693,-14.886000633239746,-6.5970001220703125
1698079809756585200,4.814585205078125,5.182950019836426,-14.082000732421875,-5.716050148010254
1698079809766004000,4.82400390625,4.198950290679932,-13.773000717163086,-4.630950450897217
1698079809775423000,4.833423095703125,1.527000069618225,-13.117050170898438,-2.848050117492676
1698079809784841700,4.842841796875,-0.7780500650405884,-12.538050651550293,-1.1809500455856323
1698079809794260500,4.852260498046875,-2.6170501708984375,-11.434050559997559,-0.1469999998807907
1698079809803679200,4.86167919921875,-3.019050121307373,-10.291950225830078,0.41505002975463867
1698079809813098200,4.87109814453125,-1.921950101852417,-9.09000015258789,0.5460000038146973
1698079809822517000,4.88051708984375,0.013950000517070293,-8.04104995727539,-0.48705002665519714
1698079809831935700,4.889935791015625,1.5240000486373901,-6.958950519561768,-0.987000048160553
1698079809841354800,4.899354736328125,2.0629501342773438,-5.7019500732421875,-1.7770501375198364
1698079809850773500,4.9087734375,3.7819502353668213,-4.6720499992370605,-1.957050085067749
1698079809860192500,4.918192626953125,5.038950443267822,-3.82200026512146,-1.858950138092041
1698079809869611300,4.927611328125,6.9910502433776855,-3.4009501934051514,-1.6120500564575195
1698079809879030000,4.937030029296875,7.2109503746032715,-2.893050193786621,-0.21405000984668732
1698079809888448800,4.94644873046875,5.544000148773193,-2.7139501571655273,1.072950005531311
1698079809897867500,4.955867431640625,3.844050168991089,-2.7660000324249268,1.9969501495361328
1698079809907286500,4.96528662109375,2.001000165939331,-3.2410502433776855,3.139050245285034
1698079809916705300,4.974705322265625,1.5340501070022583,-4.012050151824951,3.9300003051757812
1698079809926124000,4.9841240234375,1.333050012588501,-4.294050216674805,4.285950183868408
1698079809935542800,4.993542724609375,1.3230000734329224,-4.3560004234313965,4.176000118255615
1698079809944961800,5.0029619140625,0.9900000691413879,-4.3660502433776855,3.9870002269744873
1698079809954380800,5.012380859375,0.21900001168251038,-4.252950191497803,3.3570001125335693
1698079809963799600,5.021799560546875,-0.3540000021457672,-4.252950191497803,2.136000156402588
1698079809973218300,5.03121826171875,-0.673050045967102,-4.372950077056885,1.1640000343322754
1698079809982637300,5.04063720703125,-0.5359500050544739,-4.736999988555908,0.22995001077651978
1698079809992056000,5.05005615234375,-0.34005001187324524,-5.263950347900391,-0.08205000311136246
1698079810001474600,5.059474609375,-0.29205000400543213,-6.166050434112549,-0.037050001323223114
1698079810010893300,5.068893310546875,-1.0459500551223755,-7.383000373840332,0.06495000422000885
1698079810020312300,5.078312255859375,-5.248050212860107,-8.878950119018555,0.5299500226974487
1698079810029731300,5.0877314453125,-23.449050903320312,-10.498050689697266,1.2169500589370728
1698079810039150000,5.097150146484375,-42.54600143432617,-13.036050796508789,-1.9590001106262207
1698079810048569000,5.106569091796875,-25.522951126098633,-17.235000610351562,-0.19995000958442688
1698079810057987800,5.11598779296875,-13.207050323486328,-18.568950653076172,-1.801050066947937
1698079810067406600,5.125406494140625,-8.51205062866211,-17.809951782226562,-3.9630002975463867
1698079810076825600,5.13482568359375,-9.220050811767578,-15.880050659179688,-4.756050109863281
1698079810086244400,5.144244384765625,-8.397000312805176,-13.249051094055176,-4.018050193786621
1698079810095663000,5.1536630859375,-6.333000183105469,-10.150050163269043,-3.3100502490997314
1698079810105081900,5.163081787109375,-6.402000427246094,-7.122000217437744,-4.078050136566162
1698079810114500900,5.1725009765625,-4.1010003089904785,-5.692050457000732,-5.565000057220459
1698079810123919400,5.18191943359375,1.6800000667572021,-6.288000106811523,-7.219950199127197
1698079810133338600,5.191338623046875,6.87600040435791,-8.496000289916992,-8.416950225830078
1698079810142757000,5.200757080078125,8.206950187683105,-10.318050384521484,-9.445950508117676
1698079810152176000,5.210176025390625,6.823050498962402,-12.379950523376465,-12.47295093536377
1698079810161595000,5.219594970703125,6.634050369262695,-13.605000495910645,-14.188950538635254
1698079810171014000,5.229013916015625,5.90595006942749,-12.90195083618164,-9.21405029296875
1698079810180432600,5.2384326171875,0.8850000500679016,-11.209050178527832,-1.686000108718872
1698079810189851100,5.24785107421875,0.6100500226020813,-10.210050582885742,1.4010000228881836
1698079810199270100,5.257270263671875,0.7339500188827515,-10.348950386047363,2.6680500507354736
1698079810208689400,5.266689453125,1.374000072479248,-11.12505054473877,3.3360002040863037
1698079810218108000,5.27610791015625,2.230950117111206,-12.313050270080566,3.0270001888275146
1698079810227527000,5.28552685546875,2.427000045776367,-13.431000709533691,1.6210501194000244
1698079810236945400,5.2949453125,3.38700008392334,-13.761000633239746,0.5460000038146973
1698079810246364400,5.304364501953125,4.477050304412842,-14.67300033569336,0.970050036907196
1698079810255783200,5.313783203125,5.494050025939941,-14.731050491333008,1.8630000352859497
1698079810265202000,5.323201904296875,5.287950038909912,-14.66100025177002,2.470950126647949
1698079810274621000,5.332620849609375,5.025000095367432,-13.948050498962402,2.962050199508667
1698079810284040000,5.3420400390625,3.7729501724243164,-12.784050941467285,3.700050115585327
1698079810293458700,5.351458740234375,-0.26295000314712524,-10.110000610351562,4.705049991607666
1698079810302877400,5.36087744140625,-3.864000082015991,-8.086950302124023,4.557000160217285
1698079810312296200,5.370296142578125,-7.249950408935547,-6.721950531005859,4.897050380706787
1698079810321715200,5.379715087890625,-8.341950416564941,-5.850000381469727,3.6040501594543457
1698079810331134000,5.389134033203125,-8.0110502243042,-5.683050155639648,2.9140501022338867
1698079810340552700,5.398552734375,-6.730050086975098,-6.576000213623047,2.6080501079559326
1698079810349971500,5.407971435546875,-5.692950248718262,-7.15500020980835,2.4400501251220703
1698079810359390200,5.41739013671875,-4.234950065612793,-7.462050437927246,1.9519500732421875
1698079810368809000,5.42680908203125,-2.731950044631958,-7.584000587463379,1.3530000448226929
1698079810378228200,5.436228271484375,-1.64205002784729,-7.495050430297852,0.8839500546455383
1698079810387647000,5.44564697265625,-1.6710001230239868,-7.198050498962402,0.21405000984668732
1698079810397065500,5.4550654296875,-2.908950090408325,-6.585000514984131,-0.2639999985694885
1698079810406484700,5.464484619140625,-4.246950149536133,-6.334050178527832,-0.5920500159263611
1698079810415903500,5.473903564453125,-4.8510003089904785,-6.2910003662109375,-0.7140000462532043
1698079810425322200,5.483322265625,-5.398950099945068,-6.367950439453125,-0.7380000352859497
1698079810434741000,5.492740966796875,-5.8969502449035645,-6.60705041885376,-0.5179499983787537
1698079810444159700,5.50215966796875,-5.988000392913818,-6.757950305938721,-0.3820500075817108
1698079810453578500,5.51157861328125,-5.499000072479248,-6.978000164031982,0.004950000438839197
1698079810462997200,5.520997314453125,-4.495950222015381,-6.966000556945801,0.15405000746250153
1698079810472416500,5.53041650390625,-2.3389501571655273,-6.906000137329102,-0.26205000281333923
1698079810481835300,5.539835205078125,0.11400000751018524,-7.074000358581543,-0.9199500679969788
1698079810491254300,5.549254150390625,0.8710500597953796,-6.94005012512207,-1.91100013256073
1698079810500673000,5.558673095703125,0.12405000627040863,-7.038000106811523,-2.9700000286102295
1698079810510091500,5.568091552734375,-1.7020500898361206,-7.63200044631958,-3.8170502185821533
1698079810519510500,5.577510498046875,-4.381050109863281,-8.920050621032715,-3.142050266265869
1698079810528929500,5.586929443359375,-3.249000072479248,-9.97800064086914,-2.059950113296509
1698079810538348300,5.596348388671875,-2.728950023651123,-10.459050178527832,-1.4610000848770142
1698079810547767000,5.60576708984375,-3.1840500831604004,-10.738950729370117,-1.3459500074386597
1698079810557186000,5.61518603515625,-3.2629501819610596,-10.593000411987305,-1.144950032234192
1698079810566604800,5.624604736328125,-3.069000244140625,-10.258050918579102,-0.8389500379562378
1698079810576023600,5.6340234375,-3.6630001068115234,-10.246050834655762,-0.3739500045776367
1698079810585442300,5.6434423828125,-4.963050365447998,-10.723050117492676,0.208950012922287
1698079810594861300,5.652861328125,-6.712950229644775,-11.520000457763672,0.6540000438690186
1698079810604280000,5.662280029296875,-7.89900016784668,-12.358050346374512,1.0950000286102295
1698079810613698800,5.67169873046875,-7.987050533294678,-12.98805046081543,1.7269500494003296
1698079810623117600,5.68111767578125,-8.20305061340332,-12.886950492858887,2.2699501514434814
1698079810632536600,5.69053662109375,-9.891000747680664,-11.995950698852539,2.8470001220703125
1698079810641955600,5.69995556640625,-10.21095085144043,-10.869000434875488,2.886000156402588
1698079810651374300,5.709374267578125,-9.53895092010498,-9.700050354003906,2.5789501667022705
1698079810660793000,5.71879296875,-6.967050552368164,-8.10105037689209,0.8959500193595886
1698079810670211800,5.7282119140625,-3.988950252532959,-6.838950157165527,-0.9390000700950623
1698079810679630600,5.737630615234375,-1.3999500274658203,-5.260950088500977,-2.496000051498413
1698079810689049300,5.74704931640625,1.0669500827789307,-4.081050395965576,-3.681000232696533
1698079810698468400,5.75646826171875,1.8550500869750977,-2.625000238418579,-5.019000053405762
1698079810707887400,5.765887451171875,2.0080502033233643,-1.8229501247406006,-5.119950294494629
1698079810717305900,5.775305908203125,3.676950216293335,-1.6270500421524048,-3.7740001678466797
1698079810726724900,5.784724853515625,5.722050189971924,-1.902000069618225,-2.1750001907348633
1698079810736144000,5.794143798828125,7.651050567626953,-2.266050100326538,0.05595000088214874
1698079810745562600,5.803562744140625,8.074950218200684,-2.5099501609802246,-0.022050000727176666
1698079810754981400,5.8129814453125,9.616950035095215,-2.3020501136779785,-1.3459500074386597
1698079810764400000,5.822400146484375,5.868000507354736,-2.677950143814087,-3.753000259399414
1698079810773819000,5.83181884765625,0.8800500631332397,-3.8610002994537354,-5.580000400543213
1698079810783238100,5.841238037109375,-4.189949989318848,-5.644050121307373,-6.4609503746032715
1698079810792657000,5.850656982421875,-7.216050148010254,-8.107950210571289,-6.090000152587891
1698079810802075600,5.86007568359375,-5.521050453186035,-11.982000350952148,-3.844050168991089
1698079810811494400,5.869494384765625,-1.3810501098632812,-16.165050506591797,-3.160950183868408
1698079810820913400,5.878913330078125,1.2559500932693481,-19.033050537109375,0.4339500069618225
1698079810830332200,5.888332275390625,0.909000039100647,-19.507051467895508,4.260000228881836
1698079810839751000,5.8977509765625,-2.101950168609619,-17.970001220703125,5.725050449371338
1698079810849169700,5.907169677734375,-3.457050085067749,-15.183000564575195,4.861050128936768
1698079810858588700,5.916588623046875,-4.125,-12.589950561523438,3.1180500984191895
1698079810868007700,5.926007568359375,-4.258950233459473,-11.463000297546387,1.3440001010894775
1698079810877426400,5.935426513671875,-4.125,-11.568000793457031,0.34995001554489136
1698079810886845200,5.94484521484375,-3.66795015335083,-11.910000801086426,-0.859950065612793
1698079810896264000,5.954263916015625,-3.5839502811431885,-12.21405029296875,-2.386050224304199
1698079810905683000,5.963682861328125,-4.522950172424316,-12.171000480651855,-3.8479502201080322
1698079810915101400,5.973101318359375,-6.427950382232666,-11.817000389099121,-4.593000411987305
1698079810924520400,5.9825205078125,-8.655000686645508,-11.269050598144531,-4.31505012512207
1698079810933939200,5.991939208984375,-9.86400032043457,-10.54995059967041,-3.3889501094818115
1698079810943358200,6.001358154296875,-9.903000831604004,-9.805950164794922,-1.6819500923156738
1698079810952777000,6.01077685546875,-9.594000816345215,-9.331950187683105,0.36705002188682556
1698079810962196000,6.020196044921875,-9.168000221252441,-8.635050773620605,1.7869501113891602
1698079810971614700,6.02961474609375,-8.005949974060059,-7.969050407409668,2.776050090789795
1698079810981033500,6.039033447265625,-9.226950645446777,-6.457950115203857,3.24495005607605
1698079810990452500,6.048452392578125,-10.34595012664795,-4.264950275421143,2.826000213623047
1698079810999871200,6.057871337890625,-10.783950805664062,-2.2800002098083496,4.078050136566162
1698079811009290000,6.0672900390625,-12.096000671386719,-0.6040500402450562,4.035000324249268
1698079811018708700,6.076708740234375,-11.50005054473877,0.9220500588417053,3.183000087738037
1698079811028127500,6.08612744140625,-6.3160505294799805,1.5520501136779785,1.7389501333236694
1698079811037546500,6.09554638671875,1.6489500999450684,0.4720500111579895,-0.08700000494718552
1698079811046965200,6.10496533203125,5.665950298309326,-2.7930002212524414,-1.224000096321106
1698079811056384300,6.11438427734375,6.12600040435791,-3.6450002193450928,-2.848050117492676
1698079811065803000,6.123802978515625,6.973950386047363,-5.925000190734863,-4.573950290679932
1698079811075222000,6.133221923828125,9.5910005569458,-9.41100025177002,-5.014050006866455
1698079811084640800,6.142640869140625,4.414050102233887,-15.219000816345215,-7.500000476837158
1698079811094059500,6.1520595703125,0.6619500517845154,-17.34105110168457,-1.9590001106262207
1698079811103478300,6.161478271484375,-1.2019500732421875,-18.966001510620117,0.25905001163482666
1698079811112897000,6.17089697265625,-23.527950286865234,-22.906951904296875,2.266050100326538
1698079811122315800,6.180315673828125,-23.689050674438477,-23.125051498413086,3.013050079345703
1698079811131734500,6.189734619140625,-2.121000051498413,-20.96805191040039,3.811950206756592
1698079811141153500,6.199153564453125,-0.4909500181674957,-16.360950469970703,4.510950088500977
1698079811150572500,6.208572509765625,0.7080000042915344,-12.580950736999512,3.421950101852417
1698079811159991300,6.2179912109375,2.2260000705718994,-10.627050399780273,3.184950113296509
1698079811169410300,6.227410400390625,2.038950204849243,-10.087950706481934,2.4000000953674316
1698079811178829000,6.2368291015625,2.8530001640319824,-10.558050155639648,0.42195001244544983
1698079811188247800,6.246247802734375,-0.6490500569343567,-11.905050277709961,-0.8460000157356262
1698079811197666600,6.25566650390625,-10.141950607299805,-13.060050964355469,-0.2760000228881836
1698079811207085300,6.265085205078125,-15.840001106262207,-14.458050727844238,0.8620500564575195
1698079811216504300,6.27450439453125,-13.824000358581543,-16.27305030822754,1.2930001020431519
1698079811225923300,6.28392333984375,-11.643000602722168,-16.957050323486328,0.3930000066757202
1698079811235342000,6.293342041015625,-12.976950645446777,-15.820051193237305,-1.057050108909607
1698079811244760800,6.3027607421875,-12.2989501953125,-13.705950736999512,-2.6680500507354736
1698079811254179800,6.312179931640625,-8.302950859069824,-11.599050521850586,-3.769050121307373
1698079811263598600,6.3215986328125,-4.888950347900391,-9.46095085144043,-4.978950023651123
1698079811273017300,6.331017333984375,-3.5839502811431885,-7.252950191497803,-6.037050247192383
1698079811282436000,6.34043603515625,-0.34905001521110535,-5.4340500831604,-6.5560503005981445
1698079811291855000,6.349855224609375,3.2719502449035645,-3.802950143814087,-5.740050315856934
1698079811301274000,6.359274169921875,4.503000259399414,-2.9200501441955566,-4.270050048828125
1698079811310692900,6.36869287109375,3.832050085067749,-2.227950096130371,-3.5179500579833984
1698079811320111600,6.378111572265625,3.8179502487182617,-1.4590500593185425,-1.1929500102996826
1698079811329530400,6.3875302734375,6.1810503005981445,-1.2370500564575195,1.3099501132965088
1698079811338949000,6.39694921875,9.202950477600098,-1.5310500860214233,0.8580000400543213
1698079811348368100,6.4063681640625,8.980050086975098,-0.43695002794265747,0.9439500570297241
1698079811357787000,6.415786865234375,7.213050365447998,0.5269500017166138,0.18000000715255737
1698079811367206000,6.425205810546875,5.427000045776367,0.26100000739097595,-2.095950126647949
1698079811376624600,6.434624755859375,1.7830500602722168,-0.47505003213882446,-3.112950086593628
1698079811386043600,6.444043701171875,-0.5770500302314758,-1.9380000829696655,-2.2950000762939453
1698079811395462400,6.45346240234375,-1.546950101852417,-4.4160003662109375,-0.9270000457763672
1698079811404881200,6.462881103515625,-1.5490500926971436,-7.141050338745117,-0.5730000138282776
1698079811414300000,6.4722998046875,1.374000072479248,-11.12505054473877,-0.9130500555038452
1698079811423718700,6.48171875,4.510050296783447,-15.961050987243652,-1.227000117301941
1698079811433137700,6.4911376953125,6.925950527191162,-20.760000228881836,0.4410000145435333
1698079811442556400,6.500556396484375,5.410050392150879,-23.865001678466797,2.1190500259399414
1698079811451975400,6.509975341796875,2.1349501609802246,-24.106950759887695,3.3930001258850098
1698079811461394000,6.519393798828125,-1.1299500465393066,-20.84295082092285,2.3400001525878906
1698079811470813000,6.52881298828125,-3.460050106048584,-16.645950317382812,0.6130500435829163
1698079811480231700,6.538231689453125,-6.2820000648498535,-13.179000854492188,-0.4819500148296356
1698079811489650700,6.547650634765625,-10.647000312805176,-10.455000877380371,-1.072950005531311
1698079811499069400,6.5570693359375,-14.041950225830078,-8.392950057983398,-1.5859500169754028
1698079811508488200,6.56648828125,-13.362000465393066,-7.308000564575195,-1.8469500541687012
1698079811517907200,6.5759072265625,-11.064000129699707,-7.038000106811523,-1.6980000734329224
1698079811527325700,6.58532568359375,-9.688950538635254,-7.237050533294678,-1.4970000982284546
1698079811536744700,6.59474462890625,-9.831000328063965,-6.613950252532959,-0.7980000376701355
1698079811546163700,6.604163818359375,-10.282950401306152,-5.509950160980225,-0.48405003547668457
1698079811555582700,6.613582763671875,-11.518950462341309,-4.147950172424316,0.12495000660419464
1698079811565001500,6.62300146484375,-12.306000709533691,-2.854950189590454,1.606950044631958
1698079811574420200,6.632420166015625,-12.09795093536377,-1.9140000343322754,3.3480000495910645
1698079811583839000,6.6418388671875,-12.081000328063965,-1.7560501098632812,4.923000335693359
1698079811593257700,6.6512578125,-10.233000755310059,-3.013050079345703,6.252000331878662
1698079811602676700,6.6606767578125,-3.0240001678466797,-5.719050407409668,5.557950496673584
1698079811612095200,6.67009521484375,4.44795036315918,-8.707050323486328,2.9740500450134277
1698079811621514200,6.67951416015625,7.053000450134277,-11.455050468444824,1.0969500541687012
1698079811630933200,6.688933349609375,7.801950454711914,-13.797000885009766,-1.2580500841140747
1698079811640352000,6.69835205078125,9.09000015258789,-16.30605125427246,-4.296000003814697
1698079811649770800,6.707770751953125,10.76400089263916,-17.7810001373291,-5.440950393676758
1698079811659189800,6.717189697265625,13.990950584411621,-18.805950164794922,-11.886000633239746
1698079811668608500,6.7266083984375,7.941000461578369,-16.479000091552734,-10.954950332641602
1698079811678027300,6.73602734375,-2.6460001468658447,-13.620000839233398,-7.062000274658203
1698079811687446000,6.745446044921875,-27.904951095581055,-11.035950660705566,-3.772050142288208
1698079811696865000,6.754864990234375,-35.32005310058594,-13.31295108795166,1.492050051689148
1698079811706283800,6.76428369140625,-15.076951026916504,-16.126951217651367,2.055000066757202
1698079811715702500,6.77370263671875,-2.8969502449035645,-16.183950424194336,-0.49605002999305725
1698079811725121500,6.78312158203125,-1.8580501079559326,-14.6850004196167,0.7909500598907471
1698079811734540300,6.792540283203125,-2.419950008392334,-13.492950439453125,2.2920000553131104
1698079811743959300,6.801959228515625,-5.032950401306152,-11.689950942993164,2.3329501152038574
1698079811753378000,6.8113779296875,-10.386000633239746,-9.004050254821777,-0.05595000088214874
1698079811762796800,6.820796875,-12.453001022338867,-7.540950298309326,-2.407050132751465
1698079811772215600,6.830215576171875,-7.800000190734863,-6.849000453948975,-3.862950086593628
1698079811781634600,6.839634521484375,-2.5660500526428223,-6.7099504470825195,-4.236000061035156
1698079811791053300,6.84905322265625,-0.5500500202178955,-6.5370001792907715,-4.4730000495910645
1698079811800472300,6.858472412109375,-2.1790502071380615,-6.360000133514404,-4.513950347900391
1698079811809891000,6.86789111328125,-3.2970001697540283,-6.424950122833252,-3.979950189590454
1698079811819310000,6.87731005859375,0.9019500613212585,-6.696000099182129,-3.802950143814087
1698079811828728800,6.886728759765625,5.91795015335083,-6.1020002365112305,-3.68595027923584
1698079811838147600,6.896147705078125,7.282950401306152,-4.987950325012207,-2.4240000247955322
1698079811847566300,6.90556640625,7.228050231933594,-4.170000076293945,0.07005000114440918
1698079811856985300,6.9149853515625,5.5849504470825195,-2.7690000534057617,1.5619500875473022
1698079811866404000,6.924404052734375,3.7510502338409424,-2.2540500164031982,0.534000039100647
1698079811875822800,6.93382275390625,-1.699950098991394,-1.5720000267028809,-1.0300500392913818
1698079811885241900,6.943241943359375,-2.473050117492676,-2.4220499992370605,-2.1289501190185547
1698079811894660600,6.95266064453125,-1.377000093460083,-3.991950273513794,-2.2080001831054688
1698079811904079600,6.96207958984375,1.636950135231018,-5.877000331878662,-1.3680000305175781
1698079811913498400,6.971498291015625,2.9029500484466553,-8.110950469970703,0.19905000925064087
1698079811922917000,6.980917236328125,1.749000072479248,-11.743050575256348,2.127000093460083
1698079811932335900,6.9903359375,0.3340500295162201,-15.420001029968262,3.24495005607605
1698079811941754600,6.999754638671875,0.18105000257492065,-18.724050521850586,3.871950149536133
1698079811951173400,7.00917333984375,0.09300000220537186,-20.76405143737793,2.8780500888824463
1698079811960592400,7.01859228515625,-0.895050048828125,-21.349050521850586,1.055999994277954
1698079811970011100,7.02801123046875,-2.7559502124786377,-20.72100067138672,-0.6019500494003296
1698079811979430100,7.03743017578125,-4.513050079345703,-18.111000061035156,-2.0789999961853027
1698079811988849200,7.04684912109375,-5.835000514984131,-14.860051155090332,-2.746950149536133
1698079811998267600,7.056267578125,-7.204050540924072,-11.67300033569336,-2.353950023651123
1698079812007686700,7.065686767578125,-8.45895004272461,-9.103950500488281,-1.5120000839233398
1698079812017105400,7.07510546875,-8.998050689697266,-7.3560004234313965,0.05100000277161598
1698079812026524200,7.084524169921875,-8.848950386047363,-6.223950386047363,1.1740500926971436
1698079812035943000,7.09394287109375,-8.808000564575195,-5.6010003089904785,2.115000009536743
1698079812045362000,7.10336181640625,-9.618000030517578,-5.175000190734863,1.6690500974655151
1698079812054780700,7.11278076171875,-11.461050987243652,-4.371000289916992,1.2619500160217285
1698079812064199400,7.122199462890625,-13.153950691223145,-3.1519501209259033,1.8270001411437988
1698079812073618400,7.131618408203125,-14.967000961303711,-1.9170000553131104,1.8510000705718994
1698079812083037200,7.141037109375,-18.1560001373291,-1.0429500341415405,1.453950047492981
1698079812092456200,7.150456298828125,-23.196001052856445,-1.117050051689148,1.068000078201294
1698079812101875000,7.159875,-20.58405113220215,-2.6989500522613525,0.3720000088214874
1698079812111293700,7.169293701171875,-4.942050457000732,-6.283950328826904,0.7159500122070312
1698079812120712700,7.178712646484375,2.386050224304199,-9.532950401306152,0.2760000228881836
1698079812130131500,7.18813134765625,3.8830502033233643,-12.1399507522583,-1.3870500326156616
1698079812139550500,7.197550537109375,7.362000465393066,-14.689950942993164,-3.2880001068115234
1698079812148969000,7.206968994140625,10.065000534057617,-18.22905158996582,-5.400000095367432
1698079812158388000,7.216387939453125,12.994950294494629,-20.821950912475586,-9.640050888061523
1698079812167807000,7.225806884765625,13.074000358581543,-22.46700096130371,-14.017050743103027
1698079812177225700,7.235225830078125,8.580000877380371,-19.966951370239258,-8.601000785827637
1698079812186644500,7.24464453125,-1.5079500675201416,-17.16105079650879,-0.6280500292778015
1698079812196063200,7.254063232421875,-28.176000595092773,-14.257050514221191,3.3790502548217773
1698079812205482200,7.263482177734375,-21.292051315307617,-12.616950988769531,7.411050319671631
1698079812214901000,7.27290087890625,-5.665050506591797,-13.131000518798828,5.569950103759766
1698079812224319700,7.28231982421875,-0.9480000734329224,-13.22700023651123,4.633050441741943
1698079812233738500,7.291738525390625,-3.280050039291382,-13.761000633239746,5.6010003089904785
1698079812243157800,7.30115771484375,-12.32805061340332,-14.118000984191895,3.712050199508667
1698079812252576500,7.310576416015625,-20.751001358032227,-14.569951057434082,0.9340500235557556
1698079812261995300,7.319995361328125,-11.851950645446777,-14.785950660705566,-2.7109501361846924
1698079812271414000,7.3294140625,-3.049950122833252,-12.841950416564941,-5.569950103759766
1698079812280832800,7.338832763671875,0.08505000174045563,-10.617000579833984,-6.147000312805176
1698079812290251500,7.34825146484375,1.2540000677108765,-8.08395004272461,-6.424950122833252
1698079812299670500,7.35767041015625,1.01895010471344,-5.74500036239624,-5.878950119018555
1698079812309089500,7.367089599609375,2.200050115585327,-4.114050388336182,-4.6650004386901855
1698079812318508300,7.37650830078125,4.006950378417969,-2.8720500469207764,-3.580050230026245
1698079812327927300,7.38592724609375,5.185050010681152,-1.7509500980377197,-2.496000051498413
1698079812337346000,7.395345947265625,5.692950248718262,-1.0860000848770142,0.5680500268936157
1698079812346764800,7.404764892578125,5.784000396728516,-0.22605000436306,1.7290500402450562
1698079812356183600,7.41418359375,5.038950443267822,1.810050129890442,1.2910500764846802
1698079812365602300,7.423602294921875,2.419950008392334,3.7639501094818115,-0.1469999998807907
1698079812375021000,7.43302099609375,2.218950033187866,4.456050395965576,-1.4040000438690186
1698079812384440000,7.442440185546875,0.31800001859664917,3.2569501399993896,-2.8380000591278076
1698079812393859000,7.451859130859375,-0.44805002212524414,1.593000054359436,-2.9890501499176025
1698079812403277600,7.461277587890625,-0.37800002098083496,-1.114050030708313,-1.606950044631958
1698079812412696600,7.470696533203125,-0.41895002126693726,-3.8080501556396484,-0.9970500469207764
1698079812422115600,7.480115478515625,0.13095000386238098,-7.5169501304626465,-2.009999990463257
1698079812431534300,7.489534423828125,2.7840001583099365,-15.334051132202148,-2.914950132369995
1698079812440953000,7.498953125,3.8680500984191895,-25.906951904296875,-1.054050087928772
1698079812450371800,7.508371826171875,-0.2580000162124634,-33.39705276489258,0.8910000324249268
1698079812459790600,7.51779052734375,-4.654050350189209,-35.99700164794922,0.4720500111579895
1698079812469209300,7.527209228515625,-8.839950561523438,-32.99400329589844,-3.1300501823425293
1698079812478628400,7.53662841796875,-11.052000999450684,-27.126001358032227,-5.875950336456299
1698079812488047400,7.54604736328125,-10.843950271606445,-20.64000129699707,-6.03000020980835
1698079812497466400,7.55546630859375,-8.734050750732422,-14.838000297546387,-4.425000190734863
1698079812506885000,7.564885009765625,-7.483950138092041,-9.994950294494629,-2.395050048828125
1698079812516304000,7.574303955078125,-8.559000015258789,-6.016050338745117,-0.753000020980835
1698079812525722600,7.58372265625,-9.63705062866211,-2.994000196456909,0.9199500679969788
1698079812535141600,7.5931416015625,-9.666000366210938,-0.8460000157356262,2.0789999961853027
1698079812544560400,7.602560302734375,-8.808000564575195,-0.06795000284910202,2.055000066757202
1698079812553979100,7.611979248046875,-7.705050468444824,-0.07800000160932541,1.8919501304626465
1698079812563398000,7.62139794921875,-5.389050483703613,-0.09195000678300858,2.4499502182006836
1698079812572817000,7.63081689453125,-2.848950147628784,0.04605000093579292,2.296950101852417
1698079812582236000,7.64023583984375,-1.870050072669983,0.27105000615119934,1.665000081062317
1698079812591654700,7.649654541015625,-2.947050094604492,0.7429500222206116,0.8550000190734863
1698079812601073400,7.659073486328125,-2.7559502124786377,0.703950047492981,0.5580000281333923
1698079812610492200,7.6684921875,-2.722050189971924,0.5770500302314758,0.6280500292778015
1698079812619911000,7.677910888671875,-5.076000213623047,0.3570000231266022,0.8410500288009644
1698079812629330000,7.687329833984375,-9.145950317382812,-0.35805001854896545,-0.6859500408172607
1698079812638748400,7.69674853515625,-5.344050407409668,-2.8909502029418945,-3.115950107574463
1698079812648167400,7.70616748046875,1.1130000352859497,-5.740050315856934,-2.965050220489502
1698079812657586400,7.71558642578125,3.66195011138916,-8.175000190734863,-4.054049968719482
1698079812667005200,7.725005126953125,9.70995044708252,-11.235000610351562,-7.4760003089904785
1698079812676424200,7.734424072265625,7.584000587463379,-15.532950401306152,-8.143950462341309
1698079812685843000,7.743843017578125,0.8059500455856323,-17.560951232910156,-3.9559502601623535
1698079812695261700,7.75326171875,-2.182950019836426,-16.368000030517578,-2.2950000762939453
1698079812704680400,7.762680419921875,-2.464050054550171,-16.03995132446289,-1.2120000123977661
1698079812714099200,7.77209912109375,-6.381000518798828,-15.952051162719727,0.45795002579689026
1698079812723518000,7.78151806640625,-9.976950645446777,-14.797950744628906,-0.9270000457763672
1698079812732937000,7.79093701171875,-7.824000358581543,-14.748001098632812,1.7680500745773315
1698079812742355700,7.800355712890625,-4.105950355529785,-12.834000587463379,2.9380500316619873
1698079812751774700,7.809774658203125,-0.8040000200271606,-11.13705062866211,3.9030001163482666
1698079812761193500,7.819193359375,2.0970001220703125,-9.849000930786133,3.6090002059936523
1698079812770612200,7.8286123046875,4.6459503173828125,-8.659049987792969,3.5490002632141113
1698079812780031200,7.83803125,6.045000076293945,-7.869000434875488,3.9220502376556396
1698079812789450000,7.847449951171875,7.411950588226318,-7.380000114440918,3.850950241088867
1698079812798868700,7.85686865234375,6.844050407409668,-7.134000301361084,3.1870501041412354
1698079812808287700,7.866287841796875,-0.9259500503540039,-7.071000099182129,0.5629500150680542
1698079812817706800,7.875706787109375,-9.991050720214844,-8.57295036315918,0.18495000898838043
1698079812827125500,7.88512548828125,-14.48805046081543,-11.994000434875488,-0.283050000667572
1698079812836544300,7.894544189453125,-11.485050201416016,-14.080050468444824,0.036000002175569534
1698079812845963000,7.903962890625,-12.144001007080078,-17.53005027770996,0.3960000276565552
1698079812855382000,7.913382080078125,-12.972001075744629,-20.6689510345459,-0.22605000436306
1698079812864800800,7.92280078125,-13.021950721740723,-23.350051879882812,-1.7820000648498535
1698079812874219500,7.932219482421875,-8.413050651550293,-24.580951690673828,-2.517000198364258
1698079812883638300,7.94163818359375,-5.236050128936768,-23.98200035095215,-3.406050205230713
1698079812893057300,7.951057373046875,-2.731950044631958,-22.84305191040039,-4.236000061035156
1698079812902476300,7.960476318359375,0.909000039100647,-21.298051834106445,-5.083950042724609
1698079812911895000,7.96989501953125,3.676950216293335,-19.902000427246094,-5.644050121307373
1698079812921313800,7.979313720703125,4.378050327301025,-18.73200035095215,-6.505950450897217
1698079812930732500,7.988732666015625,4.234950065612793,-17.647050857543945,-8.158050537109375
1698079812940151600,7.998151611328125,1.9669500589370728,-17.251951217651367,-9.52500057220459
1698079812949570300,8.0075703125,-2.02305006980896,-17.0080509185791,-9.730950355529785
1698079812958989300,8.0169892578125,-5.155050277709961,-16.54800033569336,-9.777000427246094
1698079812968407800,8.02640771484375,-6.522000312805176,-15.724050521850586,-10.722000122070312
1698079812977826800,8.035826904296876,-5.791950225830078,-15.109050750732422,-10.07805061340332
1698079812987245600,8.04524560546875,-4.827000141143799,-14.508000373840332,-7.4160003662109375
1698079812996664600,8.05466455078125,-3.8929502964019775,-13.467000961303711,-4.736999988555908
1698079813006083300,8.064083251953125,-2.305950164794922,-11.862000465393066,-2.656050205230713
1698079813015502300,8.07350244140625,-0.9070500135421753,-10.110000610351562,-1.1050500869750977
1698079813024921000,8.082921142578124,0.33900001645088196,-8.371950149536133,-0.06105000153183937
1698079813034339800,8.09233984375,1.6060501337051392,-6.832050323486328,0.8719500303268433
1698079813043758800,8.1017587890625,1.2660000324249268,-5.035950183868408,1.450950026512146
1698079813053177600,8.111177490234375,0.8899500370025635,-3.4459502696990967,1.39395010471344
1698079813062596000,8.12059619140625,1.3900500535964966,-2.4030001163482666,1.4490001201629639
1698079813072015000,8.13001513671875,2.0250000953674316,-1.5360000133514404,1.380000114440918
1698079813081434000,8.13943408203125,2.2930500507354736,-0.8440500497817993,1.3510500192642212
1698079813090852900,8.148852783203125,2.2789502143859863,-0.45795002579689026,1.3489500284194946
1698079813100271600,8.158271728515626,1.6630500555038452,-0.3270000219345093,1.477950096130371
1698079813109690600,8.167690673828124,0.5740500092506409,-0.19500000774860382,1.549950122833252
1698079813119109400,8.177109375,-0.23205001652240753,-0.35295000672340393,1.7080501317977905
1698079813128528100,8.186528076171875,-0.6990000605583191,-0.5400000214576721,1.6120500564575195
1698079813137947100,8.195947021484375,-0.45000001788139343,-0.8269500136375427,1.53000009059906
1698079813147366000,8.205365966796874,-0.09300000220537186,-1.0639500617980957,1.39395010471344
1698079813156785000,8.214784912109375,0.14295001327991486,-1.5289500951766968,1.300950050354004
1698079813166203600,8.22420361328125,-0.5890500545501709,-2.356950044631958,1.4590500593185425
1698079813175622700,8.23362255859375,-2.8150501251220703,-3.4560000896453857,1.6140000820159912
1698079813185041400,8.24304150390625,-9.807000160217285,-4.870950222015381,1.7940000295639038
1698079813194460200,8.252460205078124,-29.157001495361328,-7.215000152587891,1.7560501098632812
1698079813203879000,8.26187890625,-31.41495132446289,-10.998000144958496,-2.1439499855041504
1698079813213297700,8.271297607421875,-11.62605094909668,-14.0910005569458,-7.3750505447387695
1698079813222716700,8.280716552734376,-5.1739501953125,-15.72195053100586,-10.897050857543945
1698079813232135200,8.29013525390625,-8.86305046081543,-17.584951400756836,-11.557950973510742
1698079813241554200,8.29955419921875,-11.241000175476074,-19.017000198364258,-9.127950668334961
1698079813250973200,8.30897314453125,-10.884000778198242,-18.106950759887695,-4.411050319671631
1698079813260392000,8.318391845703125,-9.429000854492188,-15.384000778198242,-5.134050369262695
1698079813269810700,8.327810791015626,-9.673050880432129,-13.225050926208496,-7.746000289916992
1698079813279229700,8.337229736328124,-12.78795051574707,-12.778950691223145,-10.854000091552734
1698079813288648400,8.3466484375,-9.31095027923584,-13.258050918579102,-12.853050231933594
1698079813298067200,8.356067138671875,-6.304050445556641,-13.842000961303711,-11.806950569152832
1698079813307486200,8.365486328125,4.242000102996826,-13.914000511169434,-7.651050567626953
1698079813316905000,8.374905029296874,18.778051376342773,-11.872050285339355,-1.5040500164031982
1698079813326324000,8.384323974609375,18.744001388549805,-7.552950382232666,-1.4899500608444214
1698079813335742700,8.39374267578125,10.711050033569336,-3.00600004196167,-3.2860500812530518
1698079813345161700,8.40316162109375,1.6300500631332397,0.5800500512123108,-7.009050369262695
1698079813354580500,8.41258056640625,-4.314000129699707,2.1000001430511475,-9.316950798034668
1698079813363999200,8.421999267578125,-7.003050327301025,0.6829500198364258,-11.752050399780273
1698079813373418000,8.43141796875,-3.6060001850128174,-2.686950206756592,-11.07705020904541
1698079813382836700,8.440836669921875,0.24105000495910645,-5.7210001945495605,-10.279950141906738
1698079813392255500,8.45025537109375,2.1090002059936523,-8.315999984741211,-9.046050071716309
1698079813401674800,8.4596748046875,4.234950065612793,-11.083950996398926,-6.714000225067139
1698079813411093500,8.469093505859375,5.812950134277344,-13.321050643920898,-5.035950183868408
1698079813420512300,8.47851220703125,7.575000286102295,-14.427000999450684,-3.961050271987915
1698079813429931300,8.48793115234375,9.022950172424316,-15.657000541687012,-2.587050199508667
1698079813439350000,8.49735009765625,7.821000576019287,-16.23000144958496,-2.2489500045776367
1698079813448768800,8.506768798828125,5.19195032119751,-15.475050926208496,-2.39805006980896
1698079813458187500,8.5161875,4.939050197601318,-14.773950576782227,-1.8060001134872437
1698079813467606500,8.5256064453125,5.3959503173828125,-14.206050872802734,-1.7200500965118408
1698079813477025300,8.535025390625,5.563950061798096,-13.318050384521484,-1.1290500164031982
1698079813486444300,8.5444443359375,6.202950477600098,-12.211950302124023,-0.5320500135421753
1698079813495862800,8.55386279296875,6.5209503173828125,-11.30505084991455,0.22800001502037048
1698079813505281800,8.56328173828125,5.961000442504883,-9.997050285339355,1.1040000915527344
1698079813514700500,8.572700439453126,6.658050537109375,-9.037050247192383,1.9140000343322754
1698079813524119600,8.58211962890625,6.481050491333008,-8.66100025177002,2.8570501804351807
1698079813533538300,8.591538330078125,4.788000106811523,-8.32800006866455,3.0460500717163086
1698079813542957300,8.600957275390625,3.475950241088867,-8.167950630187988,2.823000192642212
1698079813552376000,8.6103759765625,2.386050224304199,-8.09595012664795,2.313000202178955
1698079813561794800,8.619794921875,1.8520500659942627,-8.10300064086914,2.187000036239624
1698079813571213600,8.629213623046875,0.8869500160217285,-8.146050453186035,1.801050066947937
1698079813580632300,8.63863232421875,0.08505000174045563,-8.367000579833984,1.5709500312805176
1698079813590051300,8.64805126953125,0.3769500255584717,-8.982000350952148,1.39395010471344
1698079813599470300,8.65747021484375,0.895050048828125,-9.729000091552734,0.8620500564575195
1698079813608889000,8.66688916015625,1.0429500341415405,-10.360950469970703,0.6109500527381897
1698079813618307800,8.676307861328125,0.8230500221252441,-10.56195068359375,0.6709500551223755
1698079813627726800,8.685726806640625,0.11700000613927841,-10.510050773620605,1.1430000066757202
1698079813637145600,8.6951455078125,-1.0009500980377197,-10.038000106811523,1.8679500818252563
1698079813646564400,8.704564453125,-2.124000072479248,-9.633000373840332,2.3299500942230225
1698079813655983000,8.713983154296875,-2.9760000705718994,-9.271950721740723,2.3710501194000244
1698079813665402000,8.723402099609375,-3.3450002670288086,-8.695050239562988,2.39205002784729
1698079813674821000,8.732821044921875,-2.7529501914978027,-8.017050743103027,1.9639500379562378
1698079813684240000,8.742239990234374,-1.4530500173568726,-7.677000522613525,1.7320500612258911
1698079813693658600,8.75165869140625,-0.39000001549720764,-7.15500020980835,1.5109500885009766
1698079813703077400,8.761077392578125,0.7099500298500061,-6.949050426483154,1.377000093460083
1698079813712496000,8.77049609375,1.5480000972747803,-6.822000503540039,1.224000096321106
1698079813721915100,8.7799150390625,2.499000072479248,-6.87000036239624,1.3050000667572021
1698079813731333600,8.789333740234374,2.9440500736236572,-6.933000564575195,1.5640500783920288
1698079813740752600,8.798752685546875,2.6020500659942627,-6.978000164031982,2.064000129699707
1698079813750171600,8.808171630859375,1.4980500936508179,-7.182000160217285,2.7520501613616943
1698079813759590400,8.81759033203125,-0.11700000613927841,-7.8259501457214355,3.3790502548217773
1698079813769009200,8.827009033203124,-1.4959501028060913,-9.028050422668457,3.939000129699707
1698079813778428200,8.83642822265625,-2.3749501705169678,-10.821000099182129,4.276950359344482
1698079813787847000,8.845846923828125,-2.7340500354766846,-12.961050987243652,4.152000427246094
1698079813797265700,8.855265625,-2.9230501651763916,-14.781001091003418,3.750000238418579
1698079813806684700,8.8646845703125,-4.084050178527832,-16.054950714111328,3.183000087738037
1698079813816103400,8.874103515625,-6.772950172424316,-15.267001152038574,2.686950206756592
1698079813825522200,8.883522216796875,-9.370950698852539,-12.96405029296875,1.9090501070022583
1698079813834941200,8.892941162109375,-10.342950820922852,-10.897050857543945,1.228950023651123
1698079813844360000,8.90235986328125,-9.35205078125,-9.870000839233398,1.114050030708313
1698079813853779000,8.911779052734374,-6.811950206756592,-10.21500015258789,1.1160000562667847
1698079813863197700,8.92119775390625,-3.4810502529144287,-11.40000057220459,1.1209501028060913
1698079813872616400,8.930616455078125,-0.9220500588417053,-12.235950469970703,1.437000036239624
1698079813882035500,8.940035400390625,-0.39195001125335693,-12.745950698852539,1.0519500970840454
1698079813891454200,8.9494541015625,-1.294950008392334,-12.994950294494629,1.4490001201629639
1698079813900873000,8.958873046875,-2.3869500160217285,-13.344000816345215,1.0440000295639038
1698079813910291700,8.968291748046875,-3.6180002689361572,-13.003951072692871,-0.4650000333786011
1698079813919710500,8.97771044921875,-4.615950107574463,-12.23805046081543,-2.0190000534057617
1698079813929129700,8.987129638671876,-5.1160502433776855,-11.836050987243652,-2.9820001125335693
1698079813938548500,8.996548583984374,-4.798050403594971,-12.099000930786133,-3.259050130844116
1698079813947967200,9.00596728515625,-3.973950147628784,-12.640950202941895,-3.6979501247406006
1698079813957386000,9.015385986328125,-2.6670000553131104,-13.045050621032715,-4.234050273895264
1698079813966805000,9.024804931640626,-1.3309500217437744,-13.344000816345215,-5.296950340270996
1698079813976223700,9.0342236328125,1.0429500341415405,-13.692000389099121,-5.625000476837158
1698079813985642500,9.043642578125,3.7129502296447754,-14.326050758361816,-6.130050182342529
1698079813995061200,9.053061279296875,5.443950176239014,-14.962950706481934,-8.806950569152832
1698079814004480300,9.062480224609375,6.588000297546387,-16.13895034790039,-10.141050338745117
1698079814013899000,9.07189892578125,5.394000053405762,-16.09800148010254,-10.509000778198242
1698079814023318000,9.081318115234374,6.502050399780273,-16.573951721191406,-9.283050537109375
1698079814032736800,9.09073681640625,6.109050273895264,-16.41900062561035,-11.182050704956055
1698079814042155500,9.100155517578125,7.048050403594971,-15.760050773620605,-9.901050567626953
1698079814051574300,9.10957421875,6.586050510406494,-14.12505054473877,-9.207000732421875
1698079814060993000,9.118992919921874,5.998950481414795,-12.921000480651855,-8.752050399780273
1698079814070412000,9.128412109375,3.9880502223968506,-11.764050483703613,-6.124950408935547
1698079814079831000,9.1378310546875,1.0219500064849854,-10.588950157165527,-4.890000343322754
1698079814089249800,9.147249755859375,-1.9459501504898071,-9.681000709533691,-3.3190500736236572
1698079814098668500,9.15666845703125,-3.7110002040863037,-9.38895034790039,-0.2880000174045563
1698079814108087600,9.166087646484375,-5.374950408935547,-8.872050285339355,1.8060001134872437
1698079814117506300,9.17550634765625,-4.70205020904541,-8.593950271606445,3.7639501094818115
1698079814126925000,9.184925048828125,-2.0370001792907715,-7.954950332641602,4.328999996185303
1698079814136344000,9.194343994140626,0.8110500574111938,-7.158000469207764,4.087950229644775
1698079814145762800,9.2037626953125,2.9059500694274902,-6.778950214385986,3.999000072479248
1698079814155181600,9.213181640625,3.9900002479553223,-5.926950454711914,3.802950143814087
1698079814164600600,9.2226005859375,3.828000068664551,-4.741950035095215,2.644050121307373
1698079814174019600,9.23201953125,3.6100502014160156,-3.862950086593628,1.128000020980835
1698079814183438300,9.241438232421874,4.180050373077393,-3.0270001888275146,0.5749500393867493
1698079814192857000,9.250857177734375,4.381050109863281,-2.07705020904541,0.3930000066757202
1698079814202275800,9.26027587890625,4.729950428009033,-0.9949500560760498,-0.06795000284910202
1698079814211694600,9.269694580078125,4.414050102233887,0.3520500063896179,-0.3049500286579132
1698079814221113600,9.279113525390626,3.741000175476074,1.0110000371932983,-0.4410000145435333
1698079814230532400,9.288532470703124,2.884050130844116,1.6210501194000244,-0.2740500271320343
1698079814239951000,9.297951171875,2.6260502338409424,1.9759501218795776,-0.10905000567436218
1698079814249369900,9.307369873046875,2.4559500217437744,1.8889501094818115,-0.40995001792907715
1698079814258788900,9.316788818359376,2.257050037384033,0.8050500154495239,-1.015950083732605
1698079814268207900,9.326207763671874,2.3170502185821533,-0.5209500193595886,-1.0380001068115234
1698079814277626600,9.335626708984375,2.7360000610351562,-1.3180500268936157,-1.9210500717163086
1698079814287045400,9.34504541015625,4.2370500564575195,-4.431000232696533,-2.6989500522613525
1698079814296464100,9.354464111328125,7.575000286102295,-8.995950698852539,-4.071000099182129
1698079814305883100,9.363883056640624,9.42300033569336,-15.7870512008667,-3.3169500827789307
1698079814315302000,9.373302001953125,2.1229500770568848,-22.177051544189453,-4.11899995803833
1698079814324721000,9.382720947265625,-6.466950416564941,-23.38395118713379,-1.818000078201294
1698079814334139600,9.3921396484375,-12.760951042175293,-22.2220516204834,-2.9479501247406006
1698079814343558700,9.40155859375,-17.947050094604492,-19.68195152282715,-2.0839500427246094
1698079814352977200,9.41097705078125,-21.274951934814453,-16.689001083374023,-1.0110000371932983
1698079814362396200,9.420396240234375,-18.17205047607422,-13.918951034545898,0.6019500494003296
1698079814371815000,9.42981494140625,-14.077950477600098,-10.807050704956055,2.124000072479248
1698079814381233700,9.439233642578126,-11.986050605773926,-7.522050380706787,2.7679500579833984
1698079814390652400,9.44865234375,-12.238950729370117,-4.6459503173828125,2.3329501152038574
1698079814400071400,9.458071533203125,-13.554000854492188,-2.308950185775757,0.661050021648407
1698079814409490200,9.467490234375,-15.781050682067871,-0.7410000562667847,-1.9900500774383545
1698079814418909200,9.4769091796875,-16.456050872802734,-0.5899500250816345,-5.401950359344482
1698079814428328000,9.486327880859376,-12.939001083374023,-2.0940001010894775,-7.018950462341309
1698079814437747000,9.495746826171874,-6.9720001220703125,-5.75700044631958,-5.284950256347656
1698079814447165700,9.505165771484375,-4.204050064086914,-10.426050186157227,-1.7179501056671143
1698079814456584400,9.51458447265625,0.9400500655174255,-14.611050605773926,-1.456950068473816
1698079814466003200,9.524003173828126,5.082000255584717,-16.53404998779297,-2.4379501342773438
1698079814475422000,9.533421875,8.358000755310059,-16.684051513671875,-4.3660502433776855
1698079814484841000,9.542841064453125,11.470050811767578,-15.870000839233398,-6.724050521850586
1698079814494259700,9.552259765625,13.825950622558594,-12.942000389099121,-7.384950160980225
1698079814503678500,9.561678466796875,12.676950454711914,-10.057050704956055,-5.092950344085693
1698079814513097500,9.571097412109374,10.948050498962402,-8.439000129699707,-2.2729501724243164
1698079814522516200,9.58051611328125,11.379000663757324,-8.326050758361816,-1.1809500455856323
1698079814531935200,9.589935302734375,13.690051078796387,-8.295000076293945,-1.3459500074386597
1698079814541354000,9.59935400390625,2.7499501705169678,-10.789950370788574,-2.3779501914978027
1698079814550773000,9.60877294921875,-43.66200256347656,-10.645950317382812,-0.0799500048160553
1698079814560191700,9.618191650390624,-44.5620002746582,-12.672000885009766,4.387050151824951
1698079814569610500,9.627610595703125,-5.332050323486328,-15.844050407409668,2.4000000953674316
1698079814579029200,9.637029296875,6.4830002784729,-17.068050384521484,3.2659502029418945
1698079814588448300,9.6464482421875,3.7390501499176025,-16.45905113220215,6.2470502853393555
1698079814597867300,9.6558671875,-6.430950164794922,-14.92905044555664,5.056950092315674
1698079814607286000,9.6652861328125,-20.643001556396484,-12.205050468444824,-0.32895001769065857
1698079814616704800,9.674704833984375,-18.17205047607422,-11.106000900268555,-4.074000358581543
1698079814626123500,9.68412353515625,-9.27495002746582,-11.575050354003906,-4.974000453948975
1698079814635542300,9.693542236328126,-6.4170002937316895,-11.122950553894043,-5.194050312042236
1698079814644961300,9.702961181640624,-7.839000225067139,-9.7339506149292,-5.014050006866455
1698079814654380000,9.712380126953125,-9.940950393676758,-8.343000411987305,-4.581000328063965
1698079814663799000,9.721799072265625,-9.703950881958008,-7.2960004806518555,-4.773000240325928
1698079814673217800,9.7312177734375,-5.701050281524658,-6.796050548553467,-4.999950408935547
1698079814682636800,9.74063671875,-1.0049999952316284,-6.573000431060791,-5.029050350189209
1698079814692055600,9.7500556640625,2.9629502296447754,-5.805000305175781,-5.1409502029418945
1698079814701474300,9.759474365234375,5.07705020904541,-4.404000282287598,-5.320950031280518
1698079814710893000,9.76889306640625,5.94195032119751,-2.9170501232147217,-4.627050399780273
1698079814720311800,9.778311767578124,6.1120500564575195,-2.0239500999450684,-2.4810001850128174
1698079814729730800,9.787730712890625,6.093000411987305,-1.5600000619888306,-0.7669500112533569
1698079814739149800,9.79714990234375,6.8710503578186035,-1.1340000629425049,-0.29100000858306885
1698079814748568300,9.806568359375,8.140049934387207,-1.0399500131607056,-1.321950078010559
1698079814757987300,9.8159873046875,3.7680001258850098,-1.1260499954223633,-2.955000162124634
1698079814767406300,9.82540625,-0.7129500508308411,-2.416950225830078,-3.4990501403808594
1698079814776825000,9.8348251953125,-4.096050262451172,-5.002950191497803,-1.9590001106262207
1698079814786243800,9.844243896484375,-3.808950185775757,-7.684050559997559,-0.9829500317573547
1698079814795662600,9.85366259765625,-2.4679501056671143,-10.071000099182129,-1.2910500764846802
1698079814805081300,9.863081298828124,0.33000001311302185,-12.802950859069824,-1.519050121307373
1698079814814500400,9.872500244140625,3.484950065612793,-16.135950088500977,-0.22395001351833344
1698079814823919000,9.881919189453125,2.640000104904175,-19.134000778198242,2.203050136566162
1698079814833337900,9.891337890625,-0.6010500192642212,-21.159000396728516,4.000950336456299
1698079814842757000,9.900757080078124,-3.072000026702881,-19.395000457763672,1.9300501346588135
1698079814852176000,9.91017578125,-4.2330002784729,-15.514050483703613,-1.0999500751495361
1698079814861594600,9.9195947265625,-4.587000370025635,-12.528000831604004,-2.6680500507354736
1698079814871013400,9.929013427734375,-4.282950401306152,-10.359000205993652,-3.361950159072876
1698079814880432000,9.93843212890625,-4.120050430297852,-8.974950790405273,-3.700050115585327
1698079814889851100,9.94785107421875,-4.477050304412842,-8.476950645446777,-3.373950242996216
1698079814899270100,9.957270263671875,-5.514000415802002,-8.733000755310059,-2.625000238418579
1698079814908689000,9.96668896484375,-6.610050201416016,-9.38700008392334,-2.1940500736236572
1698079814918107600,9.976107666015626,-6.928950309753418,-10.171950340270996,-2.1030001640319824
1698079814927526400,9.9855263671875,-6.009000301361084,-10.936050415039062,-2.319000005722046
1698079814936945400,9.9949453125,-5.224050045013428,-11.14905071258545,-2.3329501152038574
1698079814946364200,10.0043642578125,-4.717050075531006,-10.914000511169434,-1.821000099182129
1698079814955783000,10.013782958984375,-5.179050445556641,-10.13895034790039,-0.6280500292778015
1698079814965201700,10.02320166015625,-6.237000465393066,-8.956050872802734,0.7740000486373901
1698079814974620700,10.03262060546875,-8.23905086517334,-7.414050579071045,2.4160501956939697
1698079814984039700,10.042039794921875,-11.806050300598145,-5.592000484466553,4.5259504318237305
1698079814993458400,10.05145849609375,-16.161001205444336,-3.5899500846862793,5.922000408172607
1698079815002877200,10.060877197265626,-20.641050338745117,-2.247000217437744,6.067950248718262
1698079815012296000,10.0702958984375,-19.98000144958496,-1.117050051689148,7.087950229644775
1698079815021714700,10.079714599609375,-8.20305061340332,-1.5570000410079956,6.084000110626221
1698079815031133700,10.0891337890625,0.5040000081062317,-3.7669501304626465,4.219050407409668
1698079815040552400,10.098552490234376,4.278000354766846,-6.2719502449035645,3.5460002422332764
1698079815049971500,10.107971435546874,4.062000274658203,-8.43600082397461,2.6200501918792725
1698079815059390200,10.11739013671875,5.737950325012207,-9.904050827026367,1.3459500074386597
1698079815068809200,10.126809326171875,5.227950096130371,-11.443050384521484,-0.41700002551078796
1698079815078227700,10.136227783203125,5.5849504470825195,-13.087950706481934,-3.100950241088867
1698079815087646700,10.145646728515626,6.934950351715088,-14.491050720214844,-5.943000316619873
1698079815097065500,10.1550654296875,11.26395034790039,-15.495000839233398,-11.539050102233887
1698079815106484500,10.164484375,10.117050170898438,-14.668050765991211,-14.082000732421875
1698079815115903200,10.1739033203125,-8.855999946594238,-12.280950546264648,-8.818950653076172
1698079815125322000,10.183322021484376,-43.10205078125,-11.34000015258789,-4.605000019073486
1698079815134741000,10.192740966796874,-30.991050720214844,-13.50195026397705,0.11505000293254852
1698079815144159500,10.202159423828125,-3.925950288772583,-15.147000312805176,0.7980000376701355
1698079815153578200,10.211578125,3.0420000553131104,-15.295950889587402,3.432000160217285
1698079815162997200,10.220997314453125,-2.5759501457214355,-13.795050621032715,5.359050273895264
1698079815172416300,10.230416259765626,-12.165000915527344,-11.467050552368164,2.8879501819610596
1698079815181835300,10.239835205078125,-19.746000289916992,-10.186050415039062,-0.859950065612793
1698079815191254000,10.24925390625,-16.326000213623047,-10.789950370788574,-3.4560000896453857
1698079815200672800,10.2586728515625,-4.699950218200684,-11.508000373840332,-5.91195011138916
1698079815210091800,10.268091796875,1.6800000667572021,-11.463000297546387,-5.002950191497803
1698079815219510300,10.27751025390625,-0.9360000491142273,-10.02405071258545,-5.380950450897217
1698079815228929300,10.28692919921875,-1.4910000562667847,-8.059950828552246,-5.8999505043029785
1698079815238348000,10.29634814453125,2.5320000648498535,-6.637950420379639,-5.035950183868408
1698079815247766800,10.305766845703126,6.945000171661377,-5.359950065612793,-4.1860504150390625
1698079815257185800,10.315185791015624,9.415950775146484,-4.231950283050537,-2.089050054550171
1698079815266604800,10.324604736328125,10.540950775146484,-3.6880502700805664,0.06495000422000885
1698079815276023600,10.3340234375,9.247950553894043,-2.7690000534057617,2.007000207901001
1698079815285442300,10.3434423828125,6.11400032043457,-1.818000078201294,2.5860002040863037
1698079815294861000,10.352861083984376,-1.8360000848770142,-0.1879500150680542,-0.6520500183105469
1698079815304280000,10.362280029296874,-5.461050033569336,-1.287000060081482,-2.3400001525878906
1698079815313698600,10.371698486328125,-3.9499502182006836,-3.3199501037597656,-2.7900002002716064
1698079815323117800,10.381117919921875,-0.4519500136375427,-6.070950508117676,-2.4090001583099365
1698079815332536600,10.39053662109375,3.238950252532959,-9.051000595092773,-1.9350000619888306
1698079815341955600,10.39995556640625,4.414050102233887,-12.973051071166992,-0.8320500254631042
1698079815351374000,10.4093740234375,3.7099502086639404,-17.680950164794922,0.7810500264167786
1698079815360792800,10.418792724609375,1.7280000448226929,-21.868051528930664,2.470950126647949
1698079815370211800,10.4282119140625,-0.028950002044439316,-23.772001266479492,2.8399500846862793
1698079815379630600,10.437630615234376,-1.360050082206726,-22.13895034790039,0.4819500148296356
1698079815389049600,10.447049560546875,-3.088050127029419,-18.259950637817383,-2.874000072479248
1698079815398468000,10.456468017578125,-4.465050220489502,-14.755050659179688,-4.179000377655029
1698079815407887400,10.465887451171875,-5.713050365447998,-11.533950805664062,-4.669950008392334
1698079815417306400,10.475306396484376,-7.444050312042236,-8.712000846862793,-4.555050373077393
1698079815426725000,10.48472509765625,-9.769050598144531,-6.085050106048584,-3.424950122833252
1698079815436143900,10.494143798828125,-13.510951042175293,-4.027950286865234,-1.9330500364303589
1698079815445562600,10.503562744140625,-13.9350004196167,-2.9509501457214355,-0.3550500273704529
1698079815454981400,10.5129814453125,-10.207050323486328,-3.0990002155303955,0.9490500688552856
1698079815464400100,10.522400146484374,-8.902050018310547,-3.6450002193450928,2.8879501819610596
1698079815473819100,10.531819091796875,-10.863000869750977,-3.8419501781463623,4.519050121307373
1698079815483238000,10.54123779296875,-16.35300064086914,-3.0199501514434814,3.372000217437744
1698079815492656600,10.55065673828125,-22.858051300048828,-1.6530001163482666,1.495050072669983
1698079815502075600,10.56007568359375,-25.398000717163086,-2.9820001125335693,4.168950080871582
1698079815511494400,10.569494384765624,-9.426000595092773,-5.026950359344482,4.597949981689453
1698079815520913200,10.5789130859375,0.9139500260353088,-8.31195068359375,2.622000217437744
1698079815530332200,10.588332275390625,4.6369500160217285,-10.735050201416016,1.606950044631958
1698079815539751000,10.5977509765625,5.44605016708374,-12.355950355529785,1.0420500040054321
1698079815549170000,10.607169921875,7.438050270080566,-14.42400074005127,-1.9210500717163086
1698079815558588400,10.61658837890625,8.118000030517578,-17.794950485229492,-3.1369502544403076
1698079815568007700,10.626007568359375,8.626049995422363,-20.226001739501953,-6.373950481414795
1698079815577426200,10.63542626953125,12.148050308227539,-21.72195053100586,-12.244950294494629
1698079815586845200,10.64484521484375,13.4839506149292,-19.582050323486328,-14.515050888061523
1698079815596264200,10.65426416015625,4.2870001792907715,-16.549951553344727,-6.796050548553467
1698079815605683000,10.663682861328125,-45.8149528503418,-12.712050437927246,0.05100000277161598
1698079815615101700,10.673101806640625,-31.39605140686035,-11.38800048828125,3.0010502338409424
1698079815624520400,10.6825205078125,-2.344050168991089,-12.310050964355469,1.3030500411987305
1698079815633939200,10.691939208984374,5.556000232696533,-12.319951057434082,3.4770002365112305
1698079815643358000,10.70135791015625,3.853950262069702,-11.995950698852539,5.026050090789795
1698079815652776700,10.710776611328125,-0.004950000438839197,-11.733000755310059,4.7029500007629395
1698079815662195700,10.72019580078125,-11.677050590515137,-11.13705062866211,2.890050172805786
1698079815671614700,10.72961474609375,-25.735950469970703,-10.738950729370117,-0.21405000984668732
1698079815681033500,10.739033447265625,-17.277000427246094,-12.517951011657715,-1.492050051689148
1698079815690452200,10.7484521484375,-3.0450000762939453,-13.22700023651123,-4.3060503005981445
1698079815699871200,10.757871337890625,-0.06405000388622284,-11.620950698852539,-4.4730000495910645
1698079815709290200,10.767290283203126,-3.649050235748291,-9.633000373840332,-4.82295036315918
1698079815718708700,10.776708740234374,-4.879050254821777,-7.3399505615234375,-5.104950428009033
1698079815728127700,10.786127685546875,-2.0779500007629395,-5.485950469970703,-5.0620503425598145
1698079815737546500,10.79554638671875,1.633950114250183,-4.06695032119751,-4.531050205230713
1698079815746965500,10.804965576171876,5.271000385284424,-3.0420000553131104,-4.693950176239014
1698079815756384300,10.81438427734375,6.883050441741943,-2.3929500579833984,-3.259050130844116
1698079815765803300,10.82380322265625,7.915050506591797,-1.9480501413345337,-1.3560000658035278
1698079815775222000,10.833221923828125,7.773000240325928,-0.9799500703811646,0.11505000293254852
1698079815784640800,10.842640869140626,3.604950189590454,0.8020500540733337,0.5029500126838684
1698079815794059500,10.8520595703125,0.6480000019073486,0.5530500411987305,-0.17805001139640808
1698079815803478300,10.861478271484375,-2.080049991607666,-0.9709500670433044,-1.2790501117706299
1698079815812897000,10.87089697265625,-3.687000274658203,-3.0510001182556152,-1.9810501337051392
1698079815822316300,10.88031640625,-3.1530001163482666,-5.829000473022461,-2.3110501766204834
1698079815831735000,10.889735107421876,-0.4830000102519989,-10.063950538635254,-1.6390501260757446
1698079815841154000,10.899154052734374,1.599000096321106,-15.909000396728516,-0.2350500077009201
1698079815850572500,10.908572509765625,2.3430001735687256,-22.018951416015625,1.308000087738037
1698079815859991600,10.917991455078125,-0.7879500389099121,-26.299951553344727,2.3710501194000244
1698079815869410300,10.927410400390626,-4.501049995422363,-26.187002182006836,1.902000069618225
1698079815878829000,10.9368291015625,-5.6260504722595215,-22.126951217651367,-0.17805001139640808
1698079815888247800,10.946247802734375,-4.975050449371338,-17.78295135498047,-2.1319501399993896
1698079815897666800,10.955666748046875,-4.012950420379639,-14.484001159667969,-2.955000162124634
1698079815907085800,10.9650859375,-3.510000228881836,-11.956050872802734,-3.235950231552124
1698079815916504300,10.97450439453125,-3.6630001068115234,-10.402050018310547,-2.8789501190185547
1698079815925923300,10.98392333984375,-4.35705041885376,-9.079950332641602,-1.9810501337051392
1698079815935342000,10.993342041015625,-5.2860002517700195,-7.960050582885742,-0.859950065612793
1698079815944761000,11.002760986328125,-6.60105037689209,-6.897000312805176,-0.46800002455711365
1698079815954179800,11.012179931640626,-8.530950546264648,-5.692050457000732,0.4510500133037567
1698079815963598600,11.0215986328125,-9.91200065612793,-4.711050033569336,1.4710500240325928
1698079815973017600,11.031017578125,-9.27495002746582,-4.402050018310547,2.1750001907348633
1698079815982436400,11.040436279296875,-8.72700023651123,-4.335000038146973,2.356950044631958
1698079815991855000,11.049855224609376,-8.109000205993652,-4.085999965667725,2.3179500102996826
1698079816001274000,11.059274169921874,-7.353000164031982,-3.3990001678466797,2.5410001277923584
1698079816010692900,11.06869287109375,-7.972950458526611,-2.4190502166748047,2.5600500106811523
1698079816020112000,11.07811181640625,-9.757050514221191,-1.3680000305175781,1.6840500831604004
1698079816029530400,11.0875302734375,-13.96095085144043,-0.24105000495910645,-1.5520501136779785
1698079816038949400,11.096949462890626,-19.827001571655273,-0.3630000054836273,-1.3780500888824463
1698079816048368000,11.1063681640625,-15.61500072479248,-1.8300000429153442,-1.76295006275177
1698079816057787000,11.115786865234375,-2.9059500694274902,-6.1620001792907715,-0.16095000505447388
1698079816067206000,11.125205810546875,3.3730502128601074,-9.652050018310547,0.3859500288963318
1698079816076624600,11.134624755859376,4.468950271606445,-12.115950584411621,0.1969500035047531
1698079816086043600,11.144043701171874,6.478050231933594,-14.257050514221191,-0.364950031042099
1698079816095462700,11.153462646484375,8.491950035095215,-16.336950302124023,-2.8720500469207764
1698079816104881400,11.16288134765625,9.472949981689453,-17.946001052856445,-6.339000225067139
1698079816114300200,11.172300048828125,5.640000343322754,-17.214000701904297,-7.219950199127197
1698079816123719000,11.181718994140626,3.853950262069702,-16.131000518798828,-7.5360002517700195
1698079816133138000,11.191137939453125,-2.2240500450134277,-15.283950805664062,-4.669950008392334
1698079816142556700,11.200556640625,-23.296051025390625,-14.9010009765625,-2.6539502143859863
1698079816151975200,11.20997509765625,-31.06800079345703,-15.601950645446777,3.5149502754211426
1698079816161394000,11.219393798828126,-13.875000953674316,-16.33005142211914,5.041050434112549
1698079816170813000,11.22881298828125,-4.381050109863281,-16.479000091552734,6.408000469207764
1698079816180232000,11.23823193359375,-4.426949977874756,-15.669000625610352,5.059950351715088
1698079816189651000,11.24765087890625,-4.417050361633301,-14.898000717163086,2.7990000247955322
1698079816199069700,11.257069580078126,-4.549050331115723,-13.01400089263916,-1.0810500383377075
1698079816208488400,11.266488525390624,-3.318000078201294,-10.870950698852539,-3.7740001678466797
1698079816217907500,11.275907470703125,-1.1490000486373901,-9.358050346374512,-3.5059502124786377
1698079816227326000,11.285325927734375,-1.3380000591278076,-7.761000156402588,-2.9820001125335693
1698079816236744700,11.29474462890625,-3.6820502281188965,-6.265050411224365,-3.489000082015991
1698079816246164000,11.3041640625,-4.6020002365112305,-5.407050132751465,-4.3660502433776855
1698079816255582700,11.313582763671874,-2.4559500217437744,-5.143950462341309,-4.0570502281188965
1698079816265001700,11.323001708984375,0.8730000257492065,-5.031000137329102,-3.9250502586364746
1698079816274420500,11.33242041015625,3.516000270843506,-4.8949503898620605,-3.025050163269043
1698079816283839200,11.341839111328126,5.476950168609619,-4.182000160217285,-2.428950071334839
1698079816293258000,11.351258056640624,6.2410502433776855,-3.4870500564575195,-1.3320000171661377
1698079816302676700,11.3606767578125,5.913000106811523,-2.829000234603882,0.4510500133037567
1698079816312095700,11.370095703125,2.089050054550171,-1.9000500440597534,0.8410500288009644
1698079816321514500,11.379514404296875,-2.722050189971924,-1.4740500450134277,0.015000000596046448
1698079816330933500,11.38893359375,-5.57895040512085,-2.197050094604492,-1.168950080871582
1698079816340352300,11.398352294921875,-5.614050388336182,-4.026000022888184,-0.9079500436782837
1698079816349771300,11.407771240234375,-3.936000108718872,-6.727050304412842,-0.6690000295639038
1698079816359190000,11.41718994140625,-2.740950107574463,-9.211950302124023,0.2160000056028366
1698079816368608800,11.42660888671875,-2.0899500846862793,-10.972050666809082,1.5690001249313354
1698079816378027500,11.436027587890624,-2.6100001335144043,-12.403050422668457,2.221950054168701
1698079816387446500,11.445446533203125,-2.722050189971924,-13.51395034790039,2.0020501613616943
1698079816396865000,11.454864990234375,-2.155050039291382,-13.819050788879395,0.8359500169754028
1698079816406284000,11.464283935546876,-2.143050193786621,-12.969000816345215,-0.6139500141143799
1698079816415702800,11.473702880859374,-2.4130501747131348,-11.02695083618164,-2.0620501041412354
1698079816425121500,11.48312158203125,-2.5639500617980957,-8.749950408935547,-3.0319502353668213
1698079816434540500,11.49254052734375,-2.8660502433776855,-7.05495023727417,-2.884050130844116
1698079816443959600,11.50195947265625,-3.4260001182556152,-6.078000068664551,-2.436000108718872
1698079816453378300,11.51137841796875,-4.324050426483154,-5.671050071716309,-2.568000078201294
1698079816462797000,11.520797119140624,-5.499000072479248,-5.802000045776367,-2.874000072479248
1698079816472215800,11.5302158203125,-7.281000137329102,-6.360000133514404,-3.24495005607605
1698079816481634600,11.539634521484375,-9.547950744628906,-7.323000431060791,-2.914950132369995
1698079816491053600,11.549053466796876,-11.473050117492676,-8.886000633239746,-2.9580001831054688
1698079816500472300,11.558472412109374,-11.433000564575195,-10.306050300598145,-3.0990002155303955
1698079816509891000,11.56789111328125,-9.475950241088867,-11.617950439453125,-2.794950246810913
1698079816519310000,11.57731005859375,-8.236050605773926,-12.41100025177002,-2.196000099182129
1698079816528728800,11.586728759765625,-9.574950218200684,-13.416000366210938,-1.5360000133514404
1698079816538147800,11.59614794921875,-13.302000999450684,-13.914000511169434,-1.6390501260757446
1698079816547566600,11.605566650390625,-16.39605140686035,-14.023950576782227,-1.4659500122070312
1698079816556985300,11.6149853515625,-16.615951538085938,-13.656001091003418,-1.588050127029419
1698079816566404400,11.624404296875,-15.61305046081543,-12.171000480651855,-1.725000023841858
1698079816575823000,11.633822998046876,-14.599950790405273,-10.825950622558594,-1.6410000324249268
1698079816585242000,11.6432421875,-15.192000389099121,-10.27500057220459,-1.2529500722885132
1698079816594660900,11.652660888671875,-13.573050498962402,-11.3860502243042,-1.7509500980377197
1698079816604079900,11.662079833984375,-14.770051002502441,-12.283950805664062,-1.7850000858306885
1698079816613498400,11.671498291015626,-17.4060001373291,-12.589950561523438,-0.6210000514984131
1698079816622917000,11.680917236328124,-11.020950317382812,-12.922950744628906,1.5540000200271606
1698079816632336100,11.690336181640625,1.804050087928772,-13.383000373840332,4.328999996185303
1698079816641755000,11.6997548828125,8.781000137329102,-11.6089506149292,4.2430500984191895
1698079816651174000,11.709173828125,11.28600025177002,-9.994950294494629,3.682950258255005
1698079816660593000,11.718593017578126,10.804950714111328,-9.175950050354004,-0.12300000339746475
1698079816670011400,11.728011474609374,8.427000045776367,-9.664050102233887,-4.054049968719482
1698079816679430400,11.737430419921875,7.969950199127197,-11.029050827026367,-7.666950225830078
1698079816688849200,11.74684912109375,7.330050468444824,-12.046950340270996,-10.648050308227539
1698079816698268200,11.75626806640625,8.109000205993652,-12.933000564575195,-14.029050827026367
1698079816707687000,11.76568701171875,14.331000328063965,-13.849950790405273,-15.937050819396973
1698079816717105700,11.775105712890625,8.470050811767578,-15.277050971984863,-11.299050331115723
1698079816726524700,11.784524658203125,2.5440001487731934,-15.279000282287598,-7.31505012512207
1698079816735943400,11.793943359375,1.6870501041412354,-15.415950775146484,-5.508000373840332
1698079816745362400,11.803362548828124,4.5199503898620605,-15.993000984191895,-5.047950267791748
1698079816754781000,11.812781005859375,5.053950309753418,-16.603050231933594,-3.753000259399414
1698079816764200000,11.822199951171875,3.907050132751465,-16.78995132446289,-1.533000111579895
1698079816773619000,11.831618896484375,3.744000196456909,-16.75200080871582,0.3169500231742859
1698079816783037700,11.84103759765625,4.170000076293945,-16.53404998779297,1.5589500665664673
1698079816792456400,11.85045654296875,3.934950113296509,-16.270050048828125,2.328000068664551
1698079816801875200,11.859875244140625,4.623000144958496,-15.520950317382812,3.037050247192383
1698079816811294200,11.869294189453125,6.253050327301025,-14.5420503616333,3.8310000896453857
1698079816820712700,11.878712646484376,6.454050540924072,-13.213050842285156,5.574000358581543
1698079816830131700,11.888131591796874,5.235000133514404,-11.886000633239746,5.995950222015381
1698079816839550500,11.897550537109375,3.327000141143799,-9.930000305175781,6.8359503746032715
1698079816848969200,11.90696923828125,-0.7230000495910645,-7.821000576019287,7.576050281524658
1698079816858388500,11.916388427734375,-5.101950168609619,-6.6190505027771,7.504050254821777
1698079816867807200,11.92580712890625,-7.410000324249268,-5.818950176239014,6.678000450134277
1698079816877226000,11.93522607421875,-7.056000232696533,-5.355000019073486,5.449950218200684
1698079816886644700,11.944644775390625,-4.957950115203857,-5.6610002517700195,5.188950061798096
1698079816896063700,11.954063720703125,-2.514000177383423,-5.752050399780273,4.902000427246094
1698079816905482500,11.963482421875,-0.8110500574111938,-5.818950176239014,4.14300012588501
