time,seconds_elapsed,z,y,x
1698079804971827000,0.029826904296875,-1.094081997871399,0.13743199408054352,-0.7666869759559631
1698079804981245700,0.03924560546875,0.2862350046634674,0.05361500009894371,0.07682199776172638
1698079804990664400,0.04866455078125,2.0644590854644775,0.6254349946975708,0.8346959948539734
1698079805000083200,0.058083251953125,4.29235315322876,1.7346019744873047,2.424578905105591
1698079805009502000,0.067501953125,2.4382450580596924,1.0923949480056763,1.081341028213501
1698079805018921000,0.0769208984375,-0.7119690179824829,-0.33397001028060913,-0.18490099906921387
1698079805028339700,0.086339599609375,-3.1605260372161865,-1.9874550104141235,-1.8604589700698853
1698079805037758700,0.0957587890625,-2.6350109577178955,-2.019392967224121,-1.7601629495620728
1698079805047177200,0.10517724609375,-0.3321619927883148,-1.769091010093689,-2.3339929580688477
1698079805056596200,0.11459619140625,1.584691047668457,-0.9942539930343628,-3.910965919494629
1698079805066015000,0.124014892578125,3.1705760955810547,-0.8006979823112488,-4.657704830169678
1698079805075433700,0.133433837890625,2.3331239223480225,-1.6984059810638428,-5.402079105377197
1698079805084852500,0.1428525390625,1.0643320083618164,-2.6373178958892822,-7.353115081787109
1698079805094271500,0.152271484375,-0.8247560262680054,-2.477786064147949,-9.045950889587402
1698079805103690200,0.161690185546875,-3.226649045944214,-1.4769799709320068,-8.625574111938477
1698079805113108700,0.171108642578125,-3.572946071624756,-1.12076997756958,-6.0215959548950195
1698079805122527700,0.18052783203125,-3.0158638954162598,-1.1075520515441895,-3.0970630645751953
1698079805131946500,0.189946533203125,0.7026370167732239,-0.7854059934616089,-0.2991020083427429
1698079805141365200,0.199365234375,3.5353500843048096,0.2868709862232208,-0.6718350052833557
1698079805150784000,0.208783935546875,6.2382121086120605,0.25600799918174744,-1.8915159702301025
1698079805160203000,0.218203125,4.7959089279174805,-1.7308390140533447,-1.2580300569534302
1698079805169621800,0.227621826171875,1.899446964263916,-1.9679290056228638,-1.8040610551834106
1698079805179040500,0.23704052734375,1.3318870067596436,-0.4273029863834381,-3.041325092315674
1698079805188459300,0.246459228515625,-0.16096200048923492,-0.25857600569725037,-4.1252970695495605
1698079805197878300,0.255878173828125,-2.4285030364990234,-1.2216720581054688,-4.183571815490723
1698079805207296800,0.265296875,-3.5661580562591553,-1.9062700271606445,-2.7574210166931152
1698079805216715500,0.274715576171875,-3.1091361045837402,-2.1956710815429688,-2.6490468978881836
1698079805226134800,0.284134765625,-5.311748027801514,-1.6633399724960327,-3.7261509895324707
1698079805235553300,0.29355322265625,-3.26596999168396,-0.2068990021944046,-4.46164083480835
1698079805244972000,0.302971923828125,-2.3379600048065186,0.6857990026473999,-5.284668922424316
1698079805254390800,0.312390869140625,-0.003272000001743436,-0.475957989692688,-5.676027774810791
1698079805263809500,0.3218095703125,2.4638679027557373,-1.497702956199646,-8.03591537475586
1698079805273228500,0.331228515625,3.4162158966064453,-3.461946964263916,-2.780837059020996
1698079805282647300,0.340647216796875,4.010159969329834,-5.202768802642822,-0.49578800797462463
1698079805292066000,0.350066162109375,5.401735782623291,-3.9934449195861816,-2.3316810131073
1698079805301485000,0.359485107421875,7.525670051574707,-1.359470009803772,-4.922337055206299
1698079805310903800,0.36890380859375,7.332540035247803,-0.05002899840474129,-5.550457000732422
1698079805320322600,0.378322509765625,4.2795891761779785,-0.6244019865989685,-4.686791896820068
1698079805329741300,0.3877412109375,1.8593569993972778,0.010247999802231789,-4.805436134338379
1698079805339160000,0.39716015625,0.9333699941635132,0.5815709829330444,-1.4654510021209717
1698079805348578800,0.406578857421875,-1.9118469953536987,0.656840980052948,0.9018430113792419
1698079805357997800,0.415997802734375,-6.297305107116699,0.8897240161895752,1.1815840005874634
1698079805367416800,0.425416748046875,-7.983234882354736,0.0664609968662262,-1.3982609510421753
1698079805376835300,0.43483544921875,-3.111186981201172,-1.219791054725647,-4.594941139221191
1698079805386254300,0.44425439453125,3.6810250282287598,-2.5997090339660645,-8.644503593444824
1698079805395672800,0.4536728515625,7.529935836791992,-3.964669942855835,-8.704815864562988
1698079805405091800,0.463091796875,7.2102131843566895,-3.4408419132232666,-4.628890037536621
1698079805414510600,0.472510498046875,4.471692085266113,-2.662061929702759,0.3125160038471222
1698079805423929300,0.481929443359375,1.7227890491485596,-2.397584915161133,0.8221480250358582
1698079805433348000,0.49134814453125,-0.8602150082588196,-1.2579189538955688,-3.8781189918518066
1698079805442766800,0.500766845703125,-1.3728749752044678,-0.9253060221672058,-7.540293216705322
1698079805452185900,0.510185791015625,2.022429943084717,-1.990447998046875,-7.616692066192627
1698079805461604600,0.5196044921875,6.948180198669434,-2.909558057785034,-6.254104137420654
1698079805471023400,0.5290234375,10.264581680297852,-3.038538932800293,-4.96853494644165
1698079805480442000,0.538442138671875,10.016817092895508,-2.3452529907226562,-4.527790069580078
1698079805489860900,0.54786083984375,6.659380912780762,-1.360821008682251,-5.9471588134765625
1698079805499279600,0.557279541015625,7.17673921585083,0.17201699316501617,-8.702784538269043
1698079805508698600,0.56669873046875,3.046170949935913,-5.5183491706848145,-5.49663782119751
1698079805518117400,0.576117431640625,1.0287879705429077,-9.294757843017578,-6.7824530601501465
1698079805527536400,0.585536376953125,0.24568399786949158,-6.976609230041504,-6.523161888122559
1698079805536955000,0.594954833984375,8.52734375,-3.448232889175415,-3.6407630443573
1698079805546374100,0.6043740234375,7.202509880065918,-3.301345109939575,-5.936890125274658
1698079805555792600,0.613792724609375,8.144521713256836,-4.776271820068359,-4.926912784576416
1698079805565211400,0.62321142578125,11.327433586120605,-5.4643049240112305,-2.2712740898132324
1698079805574630100,0.632630126953125,11.321128845214844,-5.687808036804199,-3.583380937576294
1698079805584049200,0.642049072265625,10.168852806091309,-5.9387359619140625,-4.113533973693848
1698079805593468000,0.651468017578125,7.333316802978516,-6.85991907119751,-3.9472739696502686
1698079805602886700,0.66088671875,6.255202770233154,-7.2622270584106445,-4.943556785583496
1698079805612305400,0.670305419921875,7.5421271324157715,-6.402845859527588,-6.596096038818359
1698079805621724200,0.67972412109375,9.223031044006348,-6.718428134918213,-4.962246894836426
1698079805631143200,0.68914306640625,7.900140762329102,-8.83487606048584,-2.0333290100097656
1698079805640562000,0.69856201171875,4.5086798667907715,-9.700252532958984,-1.6344410181045532
1698079805649981000,0.70798095703125,1.56187105178833,-9.786660194396973,0.4612399935722351
1698079805659399400,0.7173994140625,-0.7664340138435364,-9.129587173461914,4.262466907501221
1698079805668818200,0.726818115234375,-3.0719399452209473,-7.882429122924805,11.601865768432617
1698079805678237200,0.7362373046875,-6.4279069900512695,-5.326666831970215,16.957073211669922
1698079805687656000,0.745656005859375,-8.623225212097168,-2.348884105682373,20.85619354248047
1698079805697074700,0.75507470703125,-7.239590167999268,0.9997209906578064,22.496793746948242
1698079805706493400,0.764493408203125,-11.744964599609375,2.1983509063720703,25.2448673248291
1698079805715912200,0.773912109375,-18.959989547729492,4.510180950164795,25.447908401489258
1698079805725331200,0.783331298828125,-16.3267765045166,7.7008771896362305,21.948122024536133
1698079805734750000,0.79275,-7.527904033660889,6.274532794952393,18.494173049926758
1698079805744169000,0.8021689453125,-2.903580904006958,3.0203170776367188,14.43441390991211
1698079805753587500,0.81158740234375,-2.398745059967041,2.6560559272766113,7.153323173522949
1698079805763006500,0.82100634765625,-1.6175299882888794,2.551172971725464,1.8342560529708862
1698079805772425200,0.83042529296875,-0.1991170048713684,2.852634906768799,0.8344990015029907
1698079805781844000,0.839843994140625,1.172664999961853,4.434582233428955,1.5033270120620728
1698079805791262700,0.8492626953125,0.788303017616272,6.286481857299805,3.4133169651031494
1698079805800681500,0.858681396484375,0.5677520036697388,6.795271873474121,4.389009952545166
1698079805810100200,0.868100341796875,0.5506240129470825,7.468000888824463,2.610996961593628
1698079805819519000,0.87751904296875,2.2194418907165527,7.558895111083984,2.512816905975342
1698079805828938000,0.88693798828125,3.8820641040802,7.190911769866943,3.4394779205322266
1698079805838356700,0.896356689453125,3.9463579654693604,7.150022029876709,2.998383045196533
1698079805847775700,0.905775634765625,6.23038911819458,7.41951322555542,2.644913911819458
1698079805857194500,0.915194580078125,8.420675277709961,8.853719711303711,5.89084005355835
1698079805866613200,0.92461328125,6.005373001098633,6.752363204956055,4.657511234283447
1698079805876032000,0.934031982421875,7.318678855895996,6.721185207366943,4.44440221786499
1698079805885450800,0.94345068359375,7.894536018371582,4.228311061859131,0.6495620012283325
1698079805894869500,0.952869384765625,8.740677833557129,1.461421012878418,-4.33024787902832
1698079805904288500,0.96228857421875,4.491087913513184,0.3411319851875305,-9.022602081298828
1698079805913707000,0.97170703125,4.949155807495117,2.325968027114868,-6.284018039703369
1698079805923126000,0.9811259765625,-2.047679901123047,-1.0620720386505127,-7.545769214630127
1698079805932544800,0.990544677734375,-4.231853008270264,-0.8881130218505859,-4.868048191070557
1698079805941963500,0.999963623046875,-0.9743729829788208,-1.8301479816436768,-2.549691915512085
1698079805951382300,1.00938232421875,2.043440103530884,-5.444910049438477,0.8498110175132751
1698079805960801300,1.01880126953125,6.415589809417725,-6.89917516708374,2.0060648918151855
1698079805970219800,1.0282197265625,10.414335250854492,-6.6070451736450195,3.754132032394409
1698079805979638800,1.037638671875,8.452107429504395,-5.230819225311279,6.394800186157227
1698079805989057500,1.0470576171875,4.700257778167725,-2.5547571182250977,3.7143619060516357
1698079805998476300,1.056476318359375,3.1483099460601807,-1.345971941947937,4.55854606628418
1698079806007895300,1.065895263671875,-0.3958339989185333,-3.4364960193634033,0.4888409972190857
1698079806017314000,1.07531396484375,1.841120958328247,-0.12601499259471893,7.567780017852783
1698079806026732800,1.08473291015625,3.49849796295166,7.854650020599365,7.7220048904418945
1698079806036151600,1.094151611328125,-0.1301340013742447,1.464643955230713,2.470913887023926
1698079806045570300,1.1035703125,-1.856245994567871,-0.14440399408340454,2.5682830810546875
1698079806054989000,1.112989013671875,-2.1744210720062256,2.6481149196624756,1.579179048538208
1698079806064407800,1.12240771484375,0.6830430030822754,4.956186771392822,-2.7151169776916504
1698079806073826600,1.13182666015625,4.245691776275635,3.4978721141815186,-0.7642099857330322
1698079806083245600,1.14124560546875,9.040828704833984,4.0688700675964355,-2.527898073196411
1698079806092664300,1.150664306640625,6.488344192504883,4.390377044677734,0.3526670038700104
1698079806102083300,1.160083251953125,8.605876922607422,6.898349761962891,2.2360589504241943
1698079806111502000,1.169502197265625,11.115382194519043,10.861408233642578,7.064538955688477
1698079806120920800,1.1789208984375,10.52685260772705,11.929279327392578,3.8310959339141846
1698079806130339600,1.188339599609375,4.2246317863464355,3.409472942352295,1.4120850563049316
1698079806139758300,1.19775830078125,4.183437824249268,4.165865898132324,-2.0835249423980713
1698079806149177000,1.207177001953125,0.6536960005760193,2.592879056930542,-6.741996765136719
1698079806158595800,1.216595947265625,0.10234200209379196,1.7869369983673096,-10.289935111999512
1698079806168014800,1.226014892578125,1.746724009513855,0.0567299984395504,-9.181403160095215
1698079806177433600,1.23543359375,3.0295920372009277,-0.25411099195480347,-7.017982006072998
1698079806186852400,1.244852294921875,6.152376174926758,2.6276071071624756,-7.975001811981201
1698079806196271400,1.254271240234375,10.447236061096191,5.502392768859863,-11.63815975189209
1698079806205690000,1.263690185546875,17.41522979736328,7.020620822906494,-14.612577438354492
1698079806215108900,1.27310888671875,3.725395917892456,4.435451984405518,-8.02683162689209
1698079806224527600,1.282527587890625,-9.056676864624023,1.9848589897155762,-1.0990970134735107
1698079806233946400,1.2919462890625,-14.662604331970215,-1.598605990409851,12.194798469543457
1698079806243365000,1.301365234375,-14.990196228027344,5.118253231048584,0.5759609937667847
1698079806252783900,1.310783935546875,-12.991350173950195,7.886818885803223,-6.419839859008789
1698079806262203000,1.320202880859375,-2.2358360290527344,4.3869781494140625,-3.467686891555786
1698079806271621600,1.32962158203125,-0.36689499020576477,2.436527967453003,9.13262939453125
1698079806281040400,1.339040283203125,6.090969085693359,4.65823221206665,-3.0413808822631836
1698079806290459400,1.34845947265625,5.269622802734375,1.3603789806365967,-1.1474369764328003
1698079806299878100,1.357878173828125,2.5750880241394043,-5.164144039154053,6.946281909942627
1698079806309297200,1.367297119140625,1.9029649496078491,-2.9514780044555664,2.9803149700164795
1698079806318715600,1.376715576171875,5.859139919281006,-6.296405792236328,14.46458911895752
1698079806328134400,1.386134521484375,0.7087979912757874,-3.1979939937591553,6.153924942016602
1698079806337553400,1.395553466796875,-2.7550110816955566,-2.3306961059570312,2.443566083908081
1698079806346972200,1.40497216796875,-6.577148914337158,-0.8229979872703552,-0.9899659752845764
1698079806356391200,1.41439111328125,-6.924654006958008,1.133849024772644,-3.985722064971924
1698079806365809700,1.4238095703125,-5.46953821182251,0.6760579943656921,-6.702978134155273
1698079806375228400,1.433228515625,-3.100106954574585,-0.633508026599884,-9.720202445983887
1698079806384647400,1.4426474609375,-0.19280099868774414,-3.865243911743164,-8.325446128845215
1698079806394066200,1.452066162109375,13.6991548538208,-8.824441909790039,2.530474901199341
1698079806403485200,1.461485107421875,11.147404670715332,-13.263618469238281,11.295157432556152
1698079806412904000,1.470904052734375,10.38190746307373,-7.166256904602051,16.29407501220703
1698079806422322700,1.48032275390625,12.972410202026367,-2.074666976928711,16.320268630981445
1698079806431741400,1.489741455078125,6.680696964263916,-1.8423559665679932,10.89677619934082
1698079806441160200,1.49916015625,2.5927329063415527,-0.5925549864768982,2.713752031326294
1698079806450579000,1.508578857421875,4.240811824798584,-1.1032229661941528,2.6050779819488525
1698079806459997700,1.517997802734375,6.626165866851807,-1.9236669540405273,6.8759660720825195
1698079806469416700,1.527416748046875,9.273152351379395,-2.1895699501037598,8.893071174621582
1698079806478835500,1.53683544921875,4.990760803222656,-0.8048179745674133,7.682732105255127
1698079806488254500,1.54625439453125,3.6029210090637207,-0.9007940292358398,4.921578884124756
1698079806497673200,1.555673095703125,3.4679770469665527,-0.9543370008468628,3.6782848834991455
1698079806507092000,1.565092041015625,3.7109410762786865,-0.11072500050067902,3.5019919872283936
1698079806516511000,1.574510986328125,3.6345150470733643,-0.043825000524520874,5.438698768615723
1698079806525929500,1.583929443359375,3.560007095336914,0.4566270112991333,7.017805099487305
1698079806535348200,1.59334814453125,4.6591081619262695,0.5544800162315369,9.968379974365234
1698079806544767000,1.60276708984375,4.829223155975342,1.802817940711975,4.050481796264648
1698079806554186000,1.61218603515625,5.897834777832031,2.046027898788452,4.852330207824707
1698079806563605000,1.62160498046875,8.97046184539795,3.196892023086548,2.2276220321655273
1698079806573023700,1.631023681640625,6.690830230712891,3.316283941268921,-0.15328699350357056
1698079806582442500,1.6404423828125,5.4728288650512695,3.269473075866699,-1.7432910203933716
1698079806591861200,1.649861328125,7.8536481857299805,3.579040050506592,-1.9008820056915283
1698079806601280000,1.659280029296875,10.263238906860352,3.5770020484924316,-2.639991044998169
1698079806610699000,1.668698974609375,9.268548011779785,3.3406639099121094,-3.0275020599365234
1698079806620117800,1.67811767578125,7.070007801055908,2.364509105682373,-3.5946450233459473
1698079806629536300,1.687536376953125,6.468389987945557,1.6716010570526123,-1.904924988746643
1698079806638955500,1.69695556640625,6.71592378616333,1.6369860172271729,-0.28168201446533203
1698079806648374000,1.7063740234375,7.191559791564941,1.3381199836730957,-0.12214600294828415
1698079806657793000,1.71579296875,6.272409915924072,2.013101100921631,-0.37081700563430786
1698079806667211800,1.725211669921875,6.713712215423584,3.037853956222534,-0.6619560122489929
1698079806676630800,1.734630859375,5.668935775756836,3.3132729530334473,-0.8234819769859314
1698079806686049500,1.744049560546875,5.829553127288818,4.584855079650879,-1.9640660285949707
1698079806695468300,1.75346826171875,3.18562388420105,5.604074954986572,-2.692284107208252
1698079806704887000,1.762886962890625,-1.8370959758758545,3.5362260341644287,1.8690509796142578
1698079806714305800,1.772305908203125,-3.843909978866577,3.8221709728240967,1.1653690338134766
1698079806723724500,1.781724609375,-4.659214973449707,-1.7811709642410278,8.485371589660645
1698079806733143300,1.791143310546875,-3.6264960765838623,-1.4716370105743408,2.2226269245147705
1698079806742562300,1.800562255859375,0.5440300107002258,-2.1609950065612793,-0.34073498845100403
1698079806751981000,1.80998095703125,-5.271121978759766,-6.902514934539795,8.373995780944824
1698079806761399800,1.81939990234375,-2.5812699794769287,-4.321538925170898,11.062782287597656
1698079806770818600,1.828818603515625,-0.4500490128993988,-3.695080041885376,6.818400859832764
1698079806780237300,1.8382373046875,2.034467935562134,-2.5329129695892334,3.692779064178467
1698079806789656000,1.847656005859375,2.4295120239257812,-0.9200699925422668,2.090780019760132
1698079806799074800,1.85707470703125,5.488821029663086,2.307410955429077,1.3786499500274658
1698079806808493800,1.866493896484375,5.27429723739624,4.524514198303223,-1.0589549541473389
1698079806817912800,1.875912841796875,5.438930034637451,4.39185094833374,1.5120320320129395
1698079806827331600,1.88533154296875,5.422403812408447,4.076794147491455,2.1051790714263916
1698079806836750300,1.894750244140625,6.24886417388916,4.397709846496582,3.831634998321533
1698079806846169000,1.904169189453125,7.1387858390808105,4.918398857116699,3.4523940086364746
1698079806855588000,1.913588134765625,6.830018997192383,5.53938102722168,3.986414909362793
1698079806865006600,1.923006591796875,6.410704135894775,5.174407005310059,3.168834924697876
1698079806874425300,1.93242529296875,6.962508201599121,4.881564140319824,3.6088058948516846
1698079806883844000,1.941843994140625,3.03096604347229,19.406513214111328,-4.732085227966309
1698079806893263000,1.95126318359375,6.17121696472168,6.018943786621094,-7.317508220672607
1698079806902682000,1.96068212890625,2.4694409370422363,-5.029636859893799,-3.255316972732544
1698079806912100900,1.970100830078125,0.05382300168275833,-9.7814359664917,-1.4106370210647583
1698079806921519600,1.97951953125,8.920354843139648,-9.576228141784668,0.6832600235939026
1698079806930938400,1.9889384765625,11.162513732910156,-10.132498741149902,2.1860029697418213
1698079806940357000,1.998357177734375,11.338091850280762,-7.863478183746338,3.96856689453125
1698079806949776100,2.007776123046875,11.846549987792969,-5.834129810333252,0.6967930197715759
1698079806959195000,2.01719482421875,13.929536819458008,-3.287184000015259,-4.204860210418701
1698079806968613600,2.026613525390625,12.175016403198242,-7.4248151779174805,-3.549535036087036
1698079806978032400,2.036032470703125,6.288838863372803,-9.058794975280762,-2.8015270233154297
1698079806987451400,2.045451416015625,-9.113768577575684,-11.027436256408691,0.9097620248794556
1698079806996870000,2.054869873046875,-27.331661224365234,-9.58888053894043,4.470769882202148
1698079807006289000,2.064288818359375,-17.24833106994629,-11.640599250793457,9.305118560791016
1698079807015707600,2.073707763671875,2.5410149097442627,-11.411346435546875,5.744379997253418
1698079807025126700,2.083126708984375,9.384334564208984,-9.821874618530273,4.847135066986084
1698079807034545400,2.09254541015625,9.00289535522461,-8.448511123657227,5.739483833312988
1698079807043964200,2.101964111328125,9.738780975341797,-7.196652889251709,5.420474052429199
1698079807053383000,2.1113828125,7.302558898925781,-4.356207847595215,2.565748929977417
1698079807062801700,2.1208017578125,-1.066174030303955,-2.436436891555786,1.5328530073165894
1698079807072220700,2.130220703125,-12.256969451904297,-0.8113620281219482,1.7587120532989502
1698079807081639400,2.139639404296875,-14.261621475219727,-0.3439359962940216,1.2053040266036987
1698079807091058000,2.149057861328125,-4.860809803009033,-1.1678930521011353,0.46077901124954224
1698079807100477200,2.158477294921875,-3.3053390979766846,-2.3403050899505615,-0.1897609978914261
1698079807109896000,2.16789599609375,-5.763312816619873,-1.610556960105896,-0.2912220060825348
1698079807119314400,2.177314453125,-6.098491191864014,-2.1452760696411133,-0.6804819703102112
1698079807128733700,2.186733642578125,-0.17388400435447693,-3.1702980995178223,-0.5815309882164001
1698079807138152400,2.19615234375,5.221014976501465,-3.9037458896636963,-1.0765539407730103
1698079807147571200,2.2055712890625,8.359049797058105,-4.425559043884277,-3.352863073348999
1698079807156990000,2.214989990234375,8.800178527832031,-2.046674966812134,-0.9272149801254272
1698079807166409000,2.224408935546875,12.024118423461914,-0.8195409774780273,0.7425240278244019
1698079807175827500,2.233827392578125,14.743130683898926,0.506106972694397,2.4359829425811768
1698079807185246500,2.24324658203125,15.302061080932617,1.399209976196289,3.9586730003356934
1698079807194665500,2.25266552734375,13.062291145324707,2.803584098815918,6.042187213897705
1698079807204084200,2.262084228515625,10.007923126220703,4.263288974761963,6.977735996246338
1698079807213503000,2.2715029296875,7.622497081756592,4.880032062530518,6.119169235229492
1698079807222921700,2.280921630859375,6.286647796630859,3.999202013015747,3.5667550563812256
1698079807232340500,2.290340576171875,6.742225170135498,2.4144699573516846,1.8843179941177368
1698079807241759200,2.29975927734375,7.867231845855713,0.2629829943180084,1.4061230421066284
1698079807251178200,2.30917822265625,8.969067573547363,-2.3207430839538574,1.2375680208206177
1698079807260596700,2.3185966796875,9.273191452026367,-4.775272846221924,1.4267630577087402
1698079807270016000,2.32801611328125,8.637372970581055,-7.008862018585205,1.865164041519165
1698079807279434800,2.337434814453125,7.795044898986816,-8.563864707946777,2.062401056289673
1698079807288853500,2.346853515625,7.116422176361084,-9.57154369354248,2.00832200050354
1698079807298272300,2.356272216796875,6.563446044921875,-9.6343994140625,0.8273500204086304
1698079807307691000,2.36569091796875,6.356243133544922,-8.985219955444336,-0.6437039971351624
1698079807317109800,2.37510986328125,6.046298027038574,-7.927518844604492,-1.1518009901046753
1698079807326528800,2.38452880859375,5.594127178192139,-6.780307769775391,-1.350836992263794
1698079807335947500,2.393947509765625,4.797253131866455,-5.498082160949707,-1.5626369714736938
1698079807345366300,2.4033662109375,3.4335689544677734,-3.6221799850463867,-1.5274640321731567
1698079807354785000,2.412784912109375,1.6947979927062988,-2.3631091117858887,0.06652499735355377
1698079807364204000,2.4222041015625,0.6497120261192322,-1.4975030422210693,1.8930540084838867
1698079807373622800,2.431622802734375,0.30269598960876465,-0.8397369980812073,3.254473924636841
1698079807383041500,2.44104150390625,0.2892870008945465,-0.43770700693130493,4.719734191894531
1698079807392460300,2.450460205078125,-0.6106380224227905,-0.12137500196695328,6.568849086761475
1698079807401879000,2.459879150390625,-2.2060461044311523,0.6308659911155701,8.403332710266113
1698079807411298000,2.469298095703125,-4.99751091003418,1.485239028930664,9.405611038208008
1698079807420716800,2.478716796875,-8.852164268493652,2.5670599937438965,10.161083221435547
1698079807430135600,2.488135498046875,-14.508831024169922,3.348844051361084,10.000168800354004
1698079807439554300,2.49755419921875,-18.094202041625977,4.0700201988220215,9.781329154968262
1698079807448973000,2.50697314453125,-14.911280632019043,4.509911060333252,7.178307056427002
1698079807458392000,2.51639208984375,4.709856033325195,2.7643959522247314,4.56817102432251
1698079807467810800,2.525810791015625,12.830509185791016,1.2544219493865967,3.2790610790252686
1698079807477229600,2.5352294921875,13.817620277404785,1.3315730094909668,2.200463056564331
1698079807486648600,2.544648681640625,14.563543319702148,0.47944098711013794,0.17466500401496887
1698079807496067300,2.5540673828125,14.342930793762207,-0.9318640232086182,-1.3744499683380127
1698079807505486300,2.563486328125,13.71166706085205,-2.6650309562683105,-2.2984540462493896
1698079807514905000,2.572905029296875,13.251233100891113,-3.907179117202759,-3.682835102081299
1698079807524323800,2.58232373046875,12.975044250488281,-4.165328025817871,-5.603754997253418
1698079807533742600,2.59174267578125,12.493303298950195,-4.522111892700195,-5.8957839012146
1698079807543161300,2.601161376953125,11.727834701538086,-4.113335132598877,-5.942575931549072
1698079807552580000,2.610580078125,11.568288803100586,-4.3251051902771,-4.226934909820557
1698079807561998800,2.619998779296875,-3.9190399646759033,-3.486661911010742,-4.263122081756592
1698079807571417900,2.62941796875,-44.146663665771484,-7.859796047210693,0.014446999877691269
1698079807580836600,2.638836669921875,-28.951364517211914,-11.976728439331055,11.630559921264648
1698079807590255400,2.64825537109375,-0.7246739864349365,-14.790637969970703,8.912609100341797
1698079807599674000,2.657674072265625,10.372941017150879,-11.116215705871582,8.122037887573242
1698079807609093000,2.667093017578125,10.608034133911133,-8.486950874328613,7.997122764587402
1698079807618512000,2.676511962890625,0.2772279977798462,-6.880046844482422,7.872861862182617
1698079807627931000,2.685930908203125,-15.77270221710205,-3.819298028945923,4.956127166748047
1698079807637349600,2.695349609375,-10.696907043457031,-3.7421910762786865,3.1903419494628906
1698079807646768400,2.704768310546875,0.5760570168495178,-4.110400199890137,3.2830231189727783
1698079807656187400,2.7141875,1.5983059406280518,-3.8473730087280273,3.108851909637451
1698079807665606100,2.723606201171875,-2.5298690795898438,-3.210858106613159,2.382051944732666
1698079807675025000,2.73302490234375,-1.7455719709396362,-2.862128973007202,1.7151479721069336
1698079807684443600,2.742443603515625,1.406440019607544,-2.5318350791931152,0.48081400990486145
1698079807693862700,2.751862548828125,4.676418781280518,-1.8387900590896606,-0.44094300270080566
1698079807703281400,2.761281494140625,8.740157127380371,-0.8334159851074219,-1.3028219938278198
1698079807712700200,2.7707001953125,12.764962196350098,0.2170500010251999,-2.0733039379119873
1698079807722119000,2.780118896484375,15.242464065551758,1.4921369552612305,-1.6866029500961304
1698079807731537700,2.78953759765625,15.067679405212402,2.809741973876953,-0.5038989782333374
1698079807740956400,2.798956298828125,15.187142372131348,4.085032939910889,1.6583399772644043
1698079807750375200,2.808375244140625,13.82095718383789,5.392295837402344,2.921557903289795
1698079807759794200,2.817794189453125,10.788045883178711,6.088481903076172,2.410615921020508
1698079807769213200,2.827213134765625,7.738101005554199,5.186675071716309,-0.16687500476837158
1698079807778632000,2.8366318359375,5.1491169929504395,3.282829999923706,-1.7929890155792236
1698079807788050700,2.84605078125,5.208703994750977,0.6928939819335938,-1.706367015838623
1698079807797469700,2.8554697265625,6.983235836029053,-2.3862268924713135,-1.3953640460968018
1698079807806888400,2.864888427734375,9.240315437316895,-6.153601169586182,-0.37798500061035156
1698079807816307200,2.87430712890625,8.984536170959473,-9.733429908752441,0.8538770079612732
1698079807825726000,2.883725830078125,7.100456237792969,-12.73095989227295,2.1725540161132812
1698079807835144700,2.893144775390625,3.944688081741333,-14.652789115905762,3.2178258895874023
1698079807844563700,2.902563720703125,2.1127030849456787,-14.332833290100098,3.8227460384368896
1698079807853982700,2.911982666015625,2.3022170066833496,-12.375200271606445,3.0011610984802246
1698079807863401200,2.921401123046875,2.4856410026550293,-9.40632152557373,1.2415109872817993
1698079807872820200,2.9308203125,1.9628959894180298,-6.389033794403076,-0.26456698775291443
1698079807882239000,2.940239013671875,0.8257949948310852,-3.8370978832244873,-0.8479710221290588
1698079807891657700,2.94965771484375,0.08787199854850769,-1.9527169466018677,-0.3240090012550354
1698079807901076500,2.959076416015625,0.4311259984970093,-0.5197870135307312,1.1715339422225952
1698079807910495500,2.96849560546875,1.2979480028152466,0.48662999272346497,2.906317949295044
1698079807919914000,2.9779140625,2.4014439582824707,1.2560009956359863,4.423288822174072
1698079807929333000,2.9873330078125,2.8275070190429688,1.9104490280151367,5.986784934997559
1698079807938752000,2.996751953125,2.758474111557007,2.7868130207061768,6.720380783081055
1698079807948170500,3.00617041015625,0.8633360266685486,3.8153069019317627,7.464078903198242
1698079807957589500,3.015589599609375,-2.6242079734802246,5.243256092071533,8.283476829528809
1698079807967008300,3.02500830078125,-7.203808784484863,6.524263858795166,9.570178031921387
1698079807976427300,3.03442724609375,-11.668191909790039,6.298730850219727,10.308910369873047
1698079807985846000,3.043845947265625,-20.935718536376953,6.532341003417969,10.73835277557373
1698079807995264800,3.0532646484375,-18.333553314208984,6.228733062744141,9.013748168945312
1698079808004683500,3.06268359375,-0.19538000226020813,3.570158004760742,5.746519088745117
1698079808014102500,3.0721025390625,11.97089958190918,0.2971949875354767,3.617706060409546
1698079808023521300,3.081521240234375,15.237586975097656,-1.2953089475631714,2.5007688999176025
1698079808032940000,3.09093994140625,15.738517761230469,-2.9334919452667236,0.5778669714927673
1698079808042359000,3.100359130859375,15.388534545898438,-5.653982162475586,-1.0334190130233765
1698079808051777800,3.10977783203125,13.946670532226562,-8.087421417236328,-3.2696330547332764
1698079808061196500,3.119196533203125,13.327178001403809,-9.238341331481934,-7.2064900398254395
1698079808070615300,3.128615234375,14.636528015136719,-10.01063346862793,-9.575149536132812
1698079808080034000,3.138033935546875,10.947925567626953,-9.31319808959961,-8.089369773864746
1698079808089452800,3.147452880859375,-10.742278099060059,-7.914522171020508,-4.060303211212158
1698079808098871800,3.156871826171875,-19.55719757080078,-5.97784423828125,2.000917911529541
1698079808108290600,3.16629052734375,-14.653491020202637,-6.3892059326171875,7.209385871887207
1698079808117709600,3.17570947265625,-4.192328929901123,-7.204472064971924,8.235910415649414
1698079808127128000,3.185128173828125,3.130887985229492,-7.069893836975098,7.583615779876709
1698079808136547000,3.194547119140625,2.22798490524292,-6.532215118408203,7.815841197967529
1698079808145965800,3.2039658203125,-5.478176116943359,-6.054267883300781,6.772087097167969
1698079808155384800,3.213384765625,-11.216130256652832,-5.23740291595459,5.099751949310303
1698079808164803600,3.222803466796875,-7.35595178604126,-4.865087032318115,3.575946092605591
1698079808174222300,3.232222412109375,-0.5320680141448975,-4.723077774047852,2.1389520168304443
1698079808183641000,3.24164111328125,2.3198959827423096,-3.7603540420532227,-0.06018799915909767
1698079808193059800,3.251059814453125,3.4465858936309814,-2.7277779579162598,-2.124561071395874
1698079808202478800,3.260478759765625,6.880949020385742,-1.297348976135254,-2.980452060699463
1698079808211897600,3.269897705078125,9.715660095214844,-0.11261100322008133,-2.686147928237915
1698079808221316400,3.27931640625,11.524673461914062,1.764428973197937,-2.257802963256836
1698079808230735400,3.2887353515625,11.135438919067383,3.34401798248291,-2.273982048034668
1698079808240153900,3.29815380859375,11.397927284240723,4.216652870178223,-1.322532057762146
1698079808249572900,3.30757275390625,11.959677696228027,4.3127899169921875,0.11160200089216232
1698079808258991600,3.31699169921875,12.410143852233887,4.9027228355407715,1.851330041885376
1698079808268410600,3.32641064453125,13.060532569885254,4.997237205505371,1.696274995803833
1698079808277829400,3.335829345703125,12.289230346679688,4.931503772735596,-0.6905480027198792
1698079808287248100,3.345248046875,11.077823638916016,3.2164080142974854,-2.421670913696289
1698079808296667100,3.354667236328125,9.28144359588623,1.7533169984817505,-2.7537150382995605
1698079808306086000,3.3640859375,8.201010704040527,-0.4867759943008423,-2.247206926345825
1698079808315504600,3.373504638671875,8.709357261657715,-3.5606539249420166,-1.5471320152282715
1698079808324923600,3.382923583984375,9.667530059814453,-8.059527397155762,-0.868602991104126
1698079808334342400,3.39234228515625,9.388580322265625,-11.86111831665039,0.8408330082893372
1698079808343761400,3.401761474609375,9.252294540405273,-15.534568786621094,2.438961982727051
1698079808353180200,3.41118017578125,8.215880393981934,-17.478755950927734,4.77207612991333
1698079808362599000,3.420598876953125,5.898873805999756,-17.074567794799805,5.338184833526611
1698079808372017700,3.430017578125,2.663585901260376,-14.645500183105469,5.411596775054932
1698079808381436400,3.4394365234375,-2.837476968765259,-10.838479995727539,4.652411937713623
1698079808390855200,3.448855224609375,-8.426675796508789,-7.510252952575684,4.524497985839844
1698079808400274200,3.458274169921875,-9.687948226928711,-4.787693977355957,4.299702167510986
1698079808409693000,3.46769287109375,-6.958387851715088,-2.7580978870391846,4.261163234710693
1698079808419111700,3.477111572265625,-3.5994479656219482,-1.4725990295410156,4.601766109466553
1698079808428530700,3.48653076171875,-1.9482059478759766,-0.6029379963874817,4.748042106628418
1698079808437949400,3.495949462890625,-2.0492889881134033,0.6723139882087708,4.413392066955566
1698079808447368200,3.5053681640625,-2.3804121017456055,2.0884859561920166,4.230517864227295
1698079808456787200,3.514787109375,-2.804011106491089,3.6898810863494873,3.7061240673065186
1698079808466206000,3.5242060546875,-3.0311219692230225,5.642605781555176,3.389072895050049
1698079808475624700,3.533624755859375,-2.176898956298828,7.11959981918335,3.8679521083831787
1698079808485043500,3.54304345703125,-1.5733510255813599,8.008628845214844,4.783452987670898
1698079808494462200,3.552462158203125,-0.46888598799705505,7.954600811004639,5.063049793243408
1698079808503881000,3.561880859375,4.3846659660339355,6.533449172973633,4.928859233856201
1698079808513300000,3.571300048828125,8.839034080505371,4.809244155883789,4.412322998046875
1698079808522718700,3.58071875,10.156269073486328,3.8083040714263916,4.662959098815918
1698079808532137700,3.5901376953125,10.545297622680664,2.7493069171905518,4.170833110809326
1698079808541556500,3.599556396484375,10.339424133300781,1.0664089918136597,2.5060250759124756
1698079808550975200,3.608975341796875,10.35245418548584,-1.1267590522766113,0.38383299112319946
1698079808560394200,3.618394287109375,9.869156837463379,-2.8948609828948975,-1.4383490085601807
1698079808569813000,3.62781298828125,10.606101989746094,-5.639742851257324,-2.925976037979126
1698079808579231700,3.637231689453125,11.170757293701172,-8.127111434936523,-4.67556619644165
1698079808588650500,3.646650390625,9.945713996887207,-10.658169746398926,-6.198883056640625
1698079808598069500,3.656069580078125,-8.84770393371582,-11.379597663879395,-6.621172904968262
1698079808607488300,3.66548828125,-25.112302780151367,-11.19958782196045,-2.8374059200286865
1698079808616907000,3.674906982421875,-16.60638427734375,-12.215893745422363,1.283653974533081
1698079808626326000,3.684325927734375,-3.053272008895874,-11.77109146118164,2.244317054748535
1698079808635744800,3.693744873046875,2.9965479373931885,-8.758206367492676,3.182781934738159
1698079808645163500,3.70316357421875,-1.3470079898834229,-5.772250175476074,3.2752199172973633
1698079808654582300,3.712582275390625,-8.301542282104492,-3.129831075668335,3.36198091506958
1698079808664001300,3.722001220703125,-12.483654975891113,-2.1784510612487793,2.323702096939087
1698079808673420000,3.731419921875,-5.666327953338623,-2.6440720558166504,0.5765089988708496
1698079808682838800,3.7408388671875,4.651917934417725,-3.0344910621643066,-1.3455289602279663
1698079808692257800,3.7502578125,9.510034561157227,-1.7728179693222046,-3.8399829864501953
1698079808701676500,3.759676513671875,12.126114845275879,-1.3264009952545166,-3.1144649982452393
1698079808711095000,3.769094970703125,14.709694862365723,-0.6394720077514648,-3.143217086791992
1698079808720514000,3.77851416015625,15.692638397216797,0.8157070279121399,-2.7510809898376465
1698079808729933000,3.78793310546875,14.51661205291748,2.337869882583618,-1.1311830282211304
1698079808739351800,3.797351806640625,13.339136123657227,3.791245937347412,-0.43619000911712646
1698079808748770600,3.8067705078125,12.4801607131958,4.437256813049316,1.6061149835586548
1698079808758189300,3.816189208984375,11.93730354309082,4.998794078826904,5.193371772766113
1698079808767608000,3.825608154296875,9.718765258789062,7.057236194610596,3.8390579223632812
1698079808777027000,3.835027099609375,8.67013931274414,7.502598762512207,2.4694039821624756
1698079808786445800,3.84444580078125,7.856298923492432,5.944974899291992,-0.699895977973938
1698079808795864800,3.85386474609375,7.454730987548828,3.986485004425049,-1.3834609985351562
1698079808805283600,3.86328369140625,6.873173236846924,1.8885029554367065,-1.7505520582199097
1698079808814702600,3.87270263671875,6.879632949829102,-0.5598919987678528,-0.8775529861450195
1698079808824121000,3.88212109375,8.046001434326172,-2.9596359729766846,-0.0773719996213913
1698079808833539800,3.891539794921875,9.820229530334473,-5.820583820343018,0.9545260071754456
1698079808842958800,3.900958740234375,10.15424919128418,-9.457124710083008,2.9992361068725586
1698079808852377600,3.910377685546875,7.519086837768555,-12.265448570251465,4.58367395401001
1698079808861796600,3.919796630859375,5.0228681564331055,-13.664617538452148,5.207909107208252
1698079808871215400,3.92921533203125,3.2814218997955322,-13.660894393920898,3.270988941192627
1698079808880634000,3.938634033203125,1.9639819860458374,-12.2071533203125,0.4261719882488251
1698079808890052900,3.948052978515625,0.9947050213813782,-9.844091415405273,-2.145685911178589
1698079808899472000,3.957471923828125,-0.44092899560928345,-7.557750225067139,-3.759546995162964
1698079808908890600,3.966890625,-2.3790080547332764,-5.513792991638184,-4.5703301429748535
1698079808918309400,3.976309326171875,-2.8030030727386475,-3.796588897705078,-4.541391849517822
1698079808927728000,3.98572802734375,-3.1610019207000732,-2.889141082763672,-3.5474579334259033
1698079808937147100,3.995147216796875,-3.2048819065093994,-2.69138503074646,-2.360713005065918
1698079808946566100,4.004566162109375,-3.4875500202178955,-3.0941970348358154,-1.1911989450454712
1698079808955984600,4.013984619140625,-3.2586469650268555,-4.154417037963867,-0.9146389961242676
1698079808965403600,4.023403564453125,-2.910989999771118,-5.321803092956543,-1.3943730592727661
1698079808974822400,4.032822509765625,-2.670703887939453,-6.2963080406188965,-1.9084869623184204
1698079808984241400,4.042241455078125,-2.8717401027679443,-7.020957946777344,-1.872014045715332
1698079808993660200,4.05166015625,-4.320793151855469,-7.181301116943359,-1.3624440431594849
1698079809003079000,4.061078857421875,-7.903569221496582,-6.2027201652526855,0.23393499851226807
1698079809012497700,4.07049755859375,-12.418530464172363,-5.308102130889893,1.6823910474777222
1698079809021916700,4.079916748046875,-15.09622859954834,-4.400123119354248,3.074453115463257
1698079809031335200,4.089335205078125,-13.705866813659668,-4.276803016662598,4.256575107574463
1698079809040754200,4.098754150390625,-2.402890920639038,-4.412723064422607,2.593161106109619
1698079809050173200,4.108173095703125,10.895853042602539,-3.9810550212860107,-0.7347080111503601
1698079809059592000,4.117592041015625,13.850190162658691,-3.3621809482574463,-3.2115840911865234
1698079809069010700,4.1270107421875,11.402488708496094,-3.11065411567688,-4.563010215759277
1698079809078429400,4.136429443359375,9.83371353149414,-3.570430040359497,-5.186674118041992
1698079809087848400,4.145848388671875,9.482009887695312,-4.8337788581848145,-6.254759788513184
1698079809097267200,4.15526708984375,9.284588813781738,-6.270934104919434,-7.721177101135254
1698079809106686000,4.16468603515625,9.061127662658691,-6.879899978637695,-8.407919883728027
1698079809116105000,4.17410498046875,9.349696159362793,-5.342494964599609,-8.898308753967285
1698079809125523700,4.183523681640625,10.036035537719727,-3.287220001220703,-9.712203025817871
1698079809134942700,4.192942626953125,10.019720077514648,-2.268188953399658,-8.841390609741211
1698079809144361500,4.202361572265625,10.104361534118652,-2.752131938934326,-8.867650032043457
1698079809153780200,4.2117802734375,10.219771385192871,-3.7917211055755615,-8.47266960144043
1698079809163199000,4.221198974609375,9.92347526550293,-5.059135913848877,-8.00597858428955
1698079809172618000,4.230617919921875,9.613245964050293,-6.314752101898193,-7.838655948638916
1698079809182036700,4.24003662109375,9.936741828918457,-7.224352836608887,-7.911661148071289
1698079809191455500,4.24945556640625,9.974162101745605,-7.816864013671875,-8.30831241607666
1698079809200874200,4.258874267578125,10.558487892150879,-7.696694850921631,-8.136014938354492
1698079809210293200,4.268293212890625,10.548954010009766,-6.780542850494385,-7.766017913818359
1698079809219712300,4.277712158203125,9.663293838500977,-5.259328842163086,-6.675981044769287
1698079809229130800,4.287130859375,8.753387451171875,-3.847848892211914,-5.634946823120117
1698079809238549500,4.296549560546875,8.05026626586914,-2.482335090637207,-4.996106147766113
1698079809247968500,4.305968505859375,7.168108940124512,-1.3129669427871704,-4.6577558517456055
1698079809257387300,4.31538720703125,6.977158069610596,-0.4625310003757477,-4.07716178894043
1698079809266806000,4.324805908203125,7.0903449058532715,0.11141999810934067,-3.7736880779266357
1698079809276225000,4.33422509765625,7.025386810302734,0.36961299180984497,-3.5430140495300293
1698079809285643800,4.343643798828125,6.813057899475098,0.9382619857788086,-3.5707039833068848
1698079809295062800,4.353062744140625,6.634391784667969,1.4643559455871582,-3.454153060913086
1698079809304481500,4.3624814453125,5.742519855499268,1.6217989921569824,-3.134587049484253
1698079809313900300,4.371900390625,5.065790176391602,1.898306965827942,-2.2482850551605225
1698079809323319300,4.3813193359375,4.25159215927124,2.1820709705352783,-1.5361039638519287
1698079809332738000,4.390738037109375,3.45386004447937,1.8859189748764038,-1.0539109706878662
1698079809342156800,4.40015673828125,2.3261609077453613,1.471755027770996,-0.22982099652290344
1698079809351575600,4.409575439453125,1.487434983253479,1.0213040113449097,0.7046700119972229
1698079809360994300,4.418994384765625,0.518651008605957,0.7129960060119629,1.614372968673706
1698079809370413000,4.4284130859375,-0.6214969754219055,0.5351089835166931,2.3639349937438965
1698079809379831800,4.437831787109375,-1.594607949256897,0.42098701000213623,3.021354913711548
1698079809389250800,4.447250732421875,-1.6497050523757935,0.1801699995994568,3.42179799079895
1698079809398669600,4.456669677734375,-1.6478830575942993,-0.25581100583076477,3.455064058303833
1698079809408088600,4.466088623046875,-0.6928319931030273,-0.8858140110969543,2.3442790508270264
1698079809417507300,4.47550732421875,0.9679099917411804,-1.4490129947662354,1.2221640348434448
1698079809426926000,4.484926025390625,-0.05453300103545189,-1.918936014175415,0.043825000524520874
1698079809436345000,4.494344970703125,-1.7028299570083618,-1.9826459884643555,-1.6017370223999023
1698079809445763800,4.503763916015625,-3.208656072616577,-1.964890956878662,-2.5528879165649414
1698079809455182600,4.5131826171875,-4.259524822235107,-1.7826080322265625,-3.0108749866485596
1698079809464601600,4.5226015625,-4.780934810638428,-1.6260169744491577,-3.1511878967285156
1698079809474020400,4.532020263671875,-4.52095890045166,-1.4958720207214355,-2.9207210540771484
1698079809483439000,4.541439208984375,-3.36859393119812,-1.3535890579223633,-2.882783889770508
1698079809492858000,4.550858154296875,-2.0914390087127686,-1.29557204246521,-3.284972906112671
1698079809502276900,4.56027685546875,-0.7768219709396362,-1.348433017730713,-3.9761099815368652
1698079809511695600,4.569695556640625,0.09733200073242188,-1.5784080028533936,-4.557231903076172
1698079809521114400,4.5791142578125,0.1269409954547882,-1.9147650003433228,-4.995878219604492
1698079809530533400,4.588533447265625,-0.5847970247268677,-2.328378915786743,-4.9755859375
1698079809539952400,4.597952392578125,-1.7160099744796753,-2.69690203666687,-4.538644790649414
1698079809549371100,4.60737109375,-2.5991580486297607,-2.9002139568328857,-4.167139053344727
1698079809558790000,4.616789794921875,-3.3611810207366943,-2.913115978240967,-3.9195690155029297
1698079809568208600,4.626208740234375,-3.7629919052124023,-3.213639974594116,-3.3214919567108154
1698079809577627600,4.635627685546875,-4.486021041870117,-3.095978021621704,-3.2630910873413086
1698079809587046400,4.64504638671875,-4.7144551277160645,-3.4740920066833496,-3.556262969970703
1698079809596465200,4.654465087890625,-4.611533164978027,-3.9141790866851807,-4.150355815887451
1698079809605884000,4.6638837890625,-4.265271186828613,-4.675655841827393,-4.351998805999756
1698079809615303000,4.673302978515625,-3.6254749298095703,-5.500904083251953,-4.57173490524292
1698079809624721700,4.6827216796875,-2.8778419494628906,-5.859623908996582,-5.586236000061035
1698079809634140700,4.692140625,-1.647130012512207,-6.091393947601318,-6.832840919494629
1698079809643559200,4.70155908203125,-0.2501789927482605,-6.0448079109191895,-9.164608001708984
1698079809652978200,4.710978271484375,1.2194620370864868,-5.37395715713501,-11.617051124572754
1698079809662397000,4.72039697265625,2.476332902908325,-4.614048957824707,-14.418272018432617
1698079809671816000,4.72981591796875,3.082628011703491,-4.788595199584961,-15.301944732666016
1698079809681234700,4.739234619140625,4.842322826385498,-4.96677303314209,-16.590543746948242
1698079809690653400,4.7486533203125,6.120916843414307,-6.307988166809082,-13.886957168579102
1698079809700072200,4.758072265625,5.704685211181641,-6.836112976074219,-13.030928611755371
1698079809709491200,4.7674912109375,5.897305011749268,-7.090153217315674,-12.897764205932617
1698079809718910000,4.776909912109375,6.0134758949279785,-7.70273494720459,-12.749617576599121
1698079809728328700,4.78632861328125,6.290935039520264,-7.629072189331055,-13.377481460571289
1698079809737747500,4.79574755859375,6.669654846191406,-7.260733127593994,-13.091633796691895
1698079809747166200,4.805166259765625,6.8717942237854,-6.483883857727051,-11.47055721282959
1698079809756585200,4.814585205078125,6.746620178222656,-5.673655986785889,-10.524307250976562
1698079809766004000,4.82400390625,5.927121162414551,-5.358260154724121,-9.364851951599121
1698079809775423000,4.833423095703125,3.423119068145752,-4.681672096252441,-7.475348949432373
1698079809784841700,4.842841796875,1.2867449522018433,-4.072748184204102,-5.68540620803833
1698079809794260500,4.852260498046875,-0.39967501163482666,-2.9515540599823,-4.543140888214111
1698079809803679200,4.86167919921875,-0.6683650016784668,-1.7974200248718262,-3.9129059314727783
1698079809813098200,4.87109814453125,0.5070030093193054,-0.5962409973144531,-3.7239880561828613
1698079809822517000,4.88051708984375,2.489945888519287,0.45045098662376404,-4.72150993347168
1698079809831935700,4.889935791015625,4.0087361335754395,1.537392020225525,-5.218782901763916
1698079809841354800,4.899354736328125,4.554388999938965,2.789350986480713,-6.010498046875
1698079809850773500,4.9087734375,6.261104106903076,3.8137149810791016,-6.187435150146484
1698079809860192500,4.918192626953125,7.516114234924316,4.681428909301758,-6.0796332359313965
1698079809869611300,4.927611328125,9.453337669372559,5.121847152709961,-5.80389404296875
1698079809879030000,4.937030029296875,9.669264793395996,5.651834011077881,-4.3489580154418945
1698079809888448800,4.94644873046875,8.020445823669434,5.858249187469482,-3.0134520530700684
1698079809897867500,4.955867431640625,6.347486972808838,5.831480026245117,-2.010097026824951
1698079809907286500,4.96528662109375,4.537255764007568,5.391977787017822,-0.7878000140190125
1698079809916705300,4.974705322265625,4.123983860015869,4.6337151527404785,0.0753910019993782
1698079809926124000,4.9841240234375,3.965327024459839,4.361021995544434,0.4910759925842285
1698079809935542800,4.993542724609375,3.995582103729248,4.317272186279297,0.42818498611450195
1698079809944961800,5.0029619140625,3.6608729362487793,4.313508033752441,0.26460000872612
1698079809954380800,5.012380859375,2.877336025238037,4.431038856506348,-0.3568609952926636
1698079809963799600,5.021799560546875,2.255500078201294,4.43735408782959,-1.6032160520553589
1698079809973218300,5.03121826171875,1.8620749711990356,4.3188629150390625,-2.6157031059265137
1698079809982637300,5.04063720703125,1.887578010559082,3.9670000076293945,-3.622282028198242
1698079809992056000,5.05005615234375,1.9524970054626465,3.4381110668182373,-4.001152992248535
1698079810001474600,5.059474609375,1.8259520530700684,2.542613983154297,-4.031880855560303
1698079810010893300,5.068893310546875,0.8819620013237,1.321403980255127,-4.037202835083008
1698079810020312300,5.078312255859375,-3.5369598865509033,-0.1591469943523407,-3.6577110290527344
1698079810029731300,5.0877314453125,-21.910537719726562,-1.7835580110549927,-3.0384039878845215
1698079810039150000,5.097150146484375,-41.01748275756836,-4.359360218048096,-6.2607622146606445
1698079810048569000,5.106569091796875,-23.81407928466797,-8.600820541381836,-4.5303778648376465
1698079810057987800,5.11598779296875,-11.33276653289795,-9.973698616027832,-6.143970012664795
1698079810067406600,5.125406494140625,-6.513528823852539,-9.231339454650879,-8.296558380126953
1698079810076825600,5.13482568359375,-7.146718978881836,-7.2990899085998535,-9.055020332336426
1698079810086244400,5.144244384765625,-6.274641036987305,-4.663272857666016,-8.278564453125
1698079810095663000,5.1536630859375,-4.152612209320068,-1.5672639608383179,-7.535728931427002
1698079810105081900,5.163081787109375,-4.171347141265869,1.4643900394439697,-8.27717399597168
1698079810114500900,5.1725009765625,-1.7724519968032837,2.878355026245117,-9.742091178894043
1698079810123919400,5.18191943359375,4.125461101531982,2.2597498893737793,-11.372967720031738
1698079810133338600,5.191338623046875,9.415440559387207,0.04392300173640251,-12.516319274902344
1698079810142757000,5.200757080078125,10.794585227966309,-1.772487998008728,-13.505386352539062
1698079810152176000,5.210176025390625,9.407767295837402,-3.805202007293701,-16.47681999206543
1698079810161595000,5.219594970703125,9.258543014526367,-4.998693943023682,-18.104799270629883
1698079810171014000,5.229013916015625,8.600228309631348,-4.259130954742432,-12.979376792907715
1698079810180432600,5.2384326171875,3.6098310947418213,-2.486938953399658,-5.267101764678955
1698079810189851100,5.24785107421875,3.2213070392608643,-1.408121943473816,-2.0704240798950195
1698079810199270100,5.257270263671875,3.1510660648345947,-1.4610249996185303,-0.731003999710083
1698079810208689400,5.266689453125,3.558964967727661,-2.164314031600952,-0.029749000445008278
1698079810218108000,5.27610791015625,4.157041072845459,-3.301999092102051,-0.3265480101108551
1698079810227527000,5.28552685546875,4.073331832885742,-4.370052814483643,-1.751857042312622
1698079810236945400,5.2949453125,4.710597038269043,-4.659333229064941,-2.866168975830078
1698079810246364400,5.304364501953125,5.46488094329834,-5.544763088226318,-2.485753059387207
1698079810255783200,5.313783203125,6.148656845092773,-5.5842790603637695,-1.6416490077972412
1698079810265202000,5.323201904296875,5.627163887023926,-5.515405178070068,-1.071931004524231
1698079810274621000,5.332620849609375,5.069517135620117,-4.820833206176758,-0.6326860189437866
1698079810284040000,5.3420400390625,3.575330972671509,-3.676743984222412,0.03912400081753731
1698079810293458700,5.351458740234375,-0.6701899766921997,-1.04624605178833,0.9685189723968506
1698079810302877400,5.36087744140625,-4.4293060302734375,0.9360089898109436,0.7271360158920288
1698079810312296200,5.370296142578125,-7.938745021820068,2.2497498989105225,0.9747570157051086
1698079810321715200,5.379715087890625,-9.1229248046875,3.0784800052642822,-0.39865899085998535
1698079810331134000,5.389134033203125,-8.886150360107422,3.2113659381866455,-1.1287330389022827
1698079810340552700,5.398552734375,-7.705129146575928,2.3106300830841064,-1.4530830383300781
1698079810349971500,5.407971435546875,-6.7804718017578125,1.7192269563674927,-1.6009140014648438
1698079810359390200,5.41739013671875,-5.422404766082764,1.4167399406433105,-2.0654220581054688
1698079810368809000,5.42680908203125,-4.030458927154541,1.2908799648284912,-2.6386799812316895
1698079810378228200,5.436228271484375,-3.0387039184570312,1.3670450448989868,-3.0944149494171143
1698079810387647000,5.44564697265625,-3.1555891036987305,1.6581159830093384,-3.7481799125671387
1698079810397065500,5.4550654296875,-4.471316814422607,2.2614998817443848,-4.203029155731201
1698079810406484700,5.464484619140625,-5.860715866088867,2.499540090560913,-4.523764133453369
1698079810415903500,5.473903564453125,-6.501025199890137,2.551835060119629,-4.639848232269287
1698079810425322200,5.483322265625,-7.049874782562256,2.473119020462036,-4.658627986907959
1698079810434741000,5.492740966796875,-7.530764102935791,2.2353639602661133,-4.4279608726501465
1698079810444159700,5.50215966796875,-7.614285945892334,2.096229076385498,-4.27249002456665
1698079810453578500,5.51157861328125,-7.12205696105957,1.8903019428253174,-3.8645100593566895
1698079810462997200,5.520997314453125,-6.143352031707764,1.9148889780044556,-3.6827659606933594
1698079810472416500,5.53041650390625,-4.01337194442749,1.9776380062103271,-4.056563854217529
1698079810481835300,5.539835205078125,-1.6356749534606934,1.8190029859542847,-4.671649932861328
1698079810491254300,5.549254150390625,-0.9682779908180237,1.9558039903640747,-5.625489234924316
1698079810500673000,5.558673095703125,-1.7829209566116333,1.858077049255371,-6.65370512008667
1698079810510091500,5.568091552734375,-3.655916929244995,1.258208990097046,-7.474401950836182
1698079810519510500,5.577510498046875,-6.339594841003418,-0.01473500020802021,-6.767862796783447
1698079810528929500,5.586929443359375,-5.212025165557861,-1.0603350400924683,-5.648914813995361
1698079810538348300,5.596348388671875,-4.690341949462891,-1.5135209560394287,-4.992991924285889
1698079810547767000,5.60576708984375,-5.130224227905273,-1.7734390497207642,-4.8091349601745605
1698079810557186000,5.61518603515625,-5.202153205871582,-1.59853994846344,-4.5586838722229
1698079810566604800,5.624604736328125,-5.0102128982543945,-1.2485480308532715,-4.184720993041992
1698079810576023600,5.6340234375,-5.606071949005127,-1.2128130197525024,-3.6555910110473633
1698079810585442300,5.6434423828125,-6.928236961364746,-1.6669659614562988,-3.01200008392334
1698079810594861300,5.652861328125,-8.675841331481934,-2.4321749210357666,-2.489306926727295
1698079810604280000,5.662280029296875,-9.843411445617676,-3.248215913772583,-1.9813059568405151
1698079810613698800,5.67169873046875,-9.900477409362793,-3.843363046646118,-1.2849010229110718
1698079810623117600,5.68111767578125,-10.064188957214355,-3.715862989425659,-0.6754909753799438
1698079810632536600,5.69053662109375,-11.679397583007812,-2.784869909286499,-0.03493700176477432
1698079810641955600,5.69995556640625,-11.888455390930176,-1.6355630159378052,0.033466000109910965
1698079810651374300,5.709374267578125,-11.082640647888184,-0.4310620129108429,-0.23689599335193634
1698079810660793000,5.71879296875,-8.341362953186035,1.2091490030288696,-1.9037690162658691
1698079810670211800,5.7282119140625,-5.165780067443848,2.4947669506073,-3.7089059352874756
1698079810679630600,5.737630615234375,-2.372248888015747,4.106428146362305,-5.235128879547119
1698079810689049300,5.74704931640625,0.2844710052013397,5.322397232055664,-6.37962007522583
1698079810698468400,5.75646826171875,1.2682050466537476,6.811641216278076,-7.6515212059021
1698079810707887400,5.765887451171875,1.5961780548095703,7.650609016418457,-7.652022838592529
1698079810717305900,5.775305908203125,3.413454055786133,7.879525184631348,-6.191742897033691
1698079810726724900,5.784724853515625,5.598099231719971,7.644534111022949,-4.44301700592041
1698079810736144000,5.794143798828125,7.616077899932861,7.309463977813721,-2.0847740173339844
1698079810745562600,5.803562744140625,8.103619575500488,7.088990211486816,-2.0390050411224365
1698079810754981400,5.8129814453125,9.696800231933594,7.309803009033203,-3.2790720462799072
1698079810764400000,5.822400146484375,5.974146842956543,6.951929092407227,-5.638477802276611
1698079810773819000,5.83181884765625,1.052351951599121,5.773044109344482,-7.427340984344482
1698079810783238100,5.841238037109375,-3.8883988857269287,3.9946529865264893,-8.267297744750977
1698079810792657000,5.850656982421875,-6.7452921867370605,1.5364619493484497,-7.825634002685547
1698079810802075600,5.86007568359375,-4.838401794433594,-2.3265140056610107,-5.474971771240234
1698079810811494400,5.869494384765625,-0.457846999168396,-6.507650852203369,-4.670267105102539
1698079810820913400,5.878913330078125,2.3837668895721436,-9.384151458740234,-0.9544870257377625
1698079810830332200,5.888332275390625,2.1543519496917725,-9.860610961914062,2.9874520301818848
1698079810839751000,5.8977509765625,-0.830748975276947,-8.314233779907227,4.527332782745361
1698079810849169700,5.907169677734375,-2.263612985610962,-5.509533882141113,3.6704559326171875
1698079810858588700,5.916588623046875,-3.085408926010132,-2.9068570137023926,1.9040119647979736
1698079810868007700,5.926007568359375,-3.4282588958740234,-1.7621270418167114,0.08992800116539001
1698079810877426400,5.935426513671875,-3.5413079261779785,-1.8605990409851074,-0.9608340263366699
1698079810886845200,5.94484521484375,-3.379127025604248,-2.1985840797424316,-2.2331039905548096
1698079810896264000,5.954263916015625,-3.616283893585205,-2.507582902908325,-3.8505349159240723
1698079810905683000,5.963682861328125,-4.894507884979248,-2.4904661178588867,-5.4139251708984375
1698079810915101400,5.973101318359375,-7.140845775604248,-2.174330949783325,-6.2751688957214355
1698079810924520400,5.9825205078125,-9.681662559509277,-1.6785000562667847,-6.098886013031006
1698079810933939200,5.991939208984375,-11.18124771118164,-1.0114389657974243,-5.273435115814209
1698079810943358200,6.001358154296875,-11.468461990356445,-0.31828999519348145,-3.661729097366333
1698079810952777000,6.01077685546875,-11.356491088867188,0.09085500240325928,-1.7180769443511963
1698079810962196000,6.020196044921875,-11.08846378326416,0.7494639754295349,-0.37399300932884216
1698079810971614700,6.02961474609375,-10.024497032165527,1.3591909408569336,0.5160599946975708
1698079810981033500,6.039033447265625,-11.301079750061035,2.834376096725464,0.8896949887275696
1698079810990452500,6.048452392578125,-12.389569282531738,5.002129077911377,0.34654501080513
1698079810999871200,6.057871337890625,-12.717266082763672,6.977804183959961,1.4674910306930542
1698079811009290000,6.0672900390625,-13.888800621032715,8.646515846252441,1.2990080118179321
1698079811018708700,6.076708740234375,-13.128830909729004,10.153637886047363,0.32653799653053284
1698079811028127500,6.08612744140625,-7.788226127624512,10.774041175842285,-1.2180789709091187
1698079811037546500,6.09554638671875,0.2526780068874359,9.685124397277832,-3.1111490726470947
1698079811046965200,6.10496533203125,4.252723217010498,6.406186103820801,-4.304635047912598
1698079811056384300,6.11438427734375,4.58518123626709,5.5289130210876465,-5.980525016784668
1698079811065803000,6.123802978515625,5.269985198974609,3.2060670852661133,-7.70835018157959
1698079811075222000,6.133221923828125,7.73498010635376,-0.2985459864139557,-8.163994789123535
1698079811084640800,6.142640869140625,2.5013580322265625,-6.140676021575928,-10.683704376220703
1698079811094059500,6.1520595703125,-1.2714899778366089,-8.28264331817627,-5.1805901527404785
1698079811103478300,6.161478271484375,-3.1020169258117676,-9.9092435836792,-3.003079891204834
1698079811112897000,6.17089697265625,-25.303611755371094,-13.83351993560791,-1.0363680124282837
1698079811122315800,6.180315673828125,-25.148012161254883,-14.005934715270996,-0.3186210095882416
1698079811131734500,6.189734619140625,-3.321284055709839,-11.80649471282959,0.5003870129585266
1698079811141153500,6.199153564453125,-1.6388779878616333,-7.174078941345215,1.2670170068740845
1698079811150572500,6.208572509765625,-0.4940989911556244,-3.3749780654907227,0.23323699831962585
1698079811159991300,6.2179912109375,0.9407250285148621,-1.4255510568618774,0.023228999227285385
1698079811169410300,6.227410400390625,0.6898279786109924,-0.8871440291404724,-0.7467979788780212
1698079811178829000,6.2368291015625,1.4539450407028198,-1.3773150444030762,-2.737950086593628
1698079811188247800,6.246247802734375,-2.0933949947357178,-2.7451510429382324,-4.033600807189941
1698079811197666600,6.25566650390625,-11.650666236877441,-3.9098079204559326,-3.490607976913452
1698079811207085300,6.265085205078125,-17.393068313598633,-5.323509216308594,-2.373832941055298
1698079811216504300,6.27450439453125,-15.366497039794922,-7.131657123565674,-1.9336450099945068
1698079811225923300,6.28392333984375,-13.128222465515137,-7.8151140213012695,-2.8359060287475586
1698079811235342000,6.293342041015625,-14.391562461853027,-6.657097816467285,-4.2589287757873535
1698079811244760800,6.3027607421875,-13.627108573913574,-4.52744197845459,-5.854907989501953
1698079811254179800,6.312179931640625,-9.499570846557617,-2.3892040252685547,-6.928983211517334
1698079811263598600,6.3215986328125,-5.938180923461914,-0.21543200314044952,-8.088884353637695
1698079811273017300,6.331017333984375,-4.487645149230957,2.0334739685058594,-9.07378101348877
1698079811282436000,6.34043603515625,-1.080536961555481,3.9069979190826416,-9.48619556427002
1698079811291855000,6.349855224609375,2.6899900436401367,5.57954216003418,-8.537385940551758
1698079811301274000,6.359274169921875,4.05076789855957,6.515880107879639,-6.915797233581543
1698079811310692900,6.36869287109375,3.4851760864257812,7.258100986480713,-6.007388114929199
1698079811320111600,6.378111572265625,3.545919895172119,8.063541412353516,-3.5196659564971924
1698079811329530400,6.3875302734375,5.95497989654541,8.329740524291992,-0.8867980241775513
1698079811338949000,6.39694921875,9.019152641296387,8.053398132324219,-1.2359650135040283
1698079811348368100,6.4063681640625,8.8319673538208,9.154664039611816,-1.102673053741455
1698079811357787000,6.415786865234375,7.070650100708008,10.110444068908691,-1.8549679517745972
1698079811367206000,6.425205810546875,5.283642768859863,9.849918365478516,-4.123948097229004
1698079811376624600,6.434624755859375,1.6390440464019775,9.129841804504395,-5.137363910675049
1698079811386043600,6.444043701171875,-0.6719369888305664,7.668622016906738,-4.275261878967285
1698079811395462400,6.45346240234375,-1.5804749727249146,5.205545902252197,-2.8373169898986816
1698079811404881200,6.462881103515625,-1.5016499757766724,2.4996089935302734,-2.389626979827881
1698079811414300000,6.4722998046875,1.4909989833831787,-1.458662986755371,-2.622620105743408
1698079811423718700,6.48171875,4.722771167755127,-6.274155139923096,-2.8112480640411377
1698079811433137700,6.4911376953125,7.17363977432251,-11.061222076416016,-1.009680986404419
1698079811442556400,6.500556396484375,5.603116035461426,-14.14670467376709,0.7963950037956238
1698079811451975400,6.509975341796875,2.1492791175842285,-14.365135192871094,2.162108898162842
1698079811461394000,6.519393798828125,-1.3471120595932007,-11.111050605773926,1.1117709875106812
1698079811470813000,6.52881298828125,-3.9855411052703857,-6.933709144592285,-0.653078019618988
1698079811480231700,6.538231689453125,-7.106159210205078,-3.4933550357818604,-1.8301470279693604
1698079811489650700,6.547650634765625,-11.74858283996582,-0.8145670294761658,-2.530663013458252
1698079811499069400,6.5570693359375,-15.398449897766113,1.1897430419921875,-3.1793220043182373
1698079811508488200,6.56648828125,-14.913687705993652,2.226404905319214,-3.5705809593200684
1698079811517907200,6.5759072265625,-12.775547981262207,2.4473440647125244,-3.5442678928375244
1698079811527325700,6.58532568359375,-11.54893970489502,2.1919031143188477,-3.4531400203704834
1698079811536744700,6.59474462890625,-11.827923774719238,2.767098903656006,-2.8605360984802246
1698079811546163700,6.604163818359375,-12.423222541809082,3.8216819763183594,-2.632810115814209
1698079811555582700,6.613582763671875,-13.750746726989746,5.143634796142578,-2.1020679473876953
1698079811565001500,6.62300146484375,-14.589953422546387,6.411678791046143,-0.674465000629425
1698079811574420200,6.632420166015625,-14.380027770996094,7.339807033538818,1.0029289722442627
1698079811583839000,6.6418388671875,-14.325740814208984,7.500295162200928,2.5322721004486084
1698079811593257700,6.6512578125,-12.431642532348633,6.232320785522461,3.823580026626587
1698079811602676700,6.6606767578125,-5.217517852783203,3.5298259258270264,3.0994489192962646
1698079811612095200,6.67009521484375,2.200206995010376,0.5181260108947754,0.4961639940738678
1698079811621514200,6.67951416015625,4.705445766448975,-2.25858211517334,-1.3889670372009277
1698079811630933200,6.688933349609375,5.350401878356934,-4.616404056549072,-3.737761974334717
1698079811640352000,6.69835205078125,6.575220108032227,-7.159189224243164,-6.79102897644043
1698079811649770800,6.707770751953125,8.241827011108398,-8.641998291015625,-7.969324111938477
1698079811659189800,6.717189697265625,11.512648582458496,-9.66928482055664,-14.473896980285645
1698079811668608500,6.7266083984375,5.528800964355469,-7.342236042022705,-13.61384105682373
1698079811678027300,6.73602734375,-4.969511032104492,-4.471806049346924,-9.758660316467285
1698079811687446000,6.745446044921875,-30.03483772277832,-1.859805941581726,-6.488913059234619
1698079811696865000,6.754864990234375,-37.075599670410156,-4.0524678230285645,-1.241534948348999
1698079811706283800,6.76428369140625,-16.379459381103516,-6.780949115753174,-0.6217340230941772
1698079811715702500,6.77370263671875,-3.9044530391693115,-6.771365165710449,-3.0585010051727295
1698079811725121500,6.78312158203125,-2.8144960403442383,-5.233720779418945,-1.651507019996643
1698079811734540300,6.792540283203125,-3.467794895172119,-4.013031959533691,-0.025046000257134438
1698079811743959300,6.801959228515625,-6.223083019256592,-2.2085208892822266,0.11329600214958191
1698079811753378000,6.8113779296875,-11.682945251464844,0.47169798612594604,-2.2220840454101562
1698079811762796800,6.820796875,-13.774611473083496,1.9423129558563232,-4.553462028503418
1698079811772215600,6.830215576171875,-9.039521217346191,2.6473960876464844,-6.0108442306518555
1698079811781634600,6.839634521484375,-3.654064893722534,2.803986072540283,-6.386745929718018
1698079811791053300,6.84905322265625,-1.446025013923645,2.993441104888916,-6.592156887054443
1698079811800472300,6.858472412109375,-2.8501029014587402,3.2142488956451416,-6.577836990356445
1698079811809891000,6.86789111328125,-3.7306571006774902,3.1779980659484863,-5.965213775634766
1698079811819310000,6.87731005859375,0.7373009920120239,2.9342780113220215,-5.687905788421631
1698079811828728800,6.886728759765625,6.002597808837891,3.542133092880249,-5.453542232513428
1698079811838147600,6.896147705078125,7.569197177886963,4.675629138946533,-4.070374965667725
1698079811847566300,6.90556640625,7.671284198760986,5.503972053527832,-1.488165020942688
1698079811856985300,6.9149853515625,6.162775039672852,6.91086483001709,0.06449300050735474
1698079811866404000,6.924404052734375,4.440834999084473,7.424025058746338,-0.9355649948120117
1698079811875822800,6.93382275390625,-0.8657919764518738,8.09381103515625,-2.496087074279785
1698079811885241900,6.943241943359375,-1.4948760271072388,7.234982967376709,-3.6038119792938232
1698079811894660600,6.95266064453125,-0.24625299870967865,5.64132022857666,-3.6617939472198486
1698079811904079600,6.96207958984375,2.9105489253997803,3.7527759075164795,-2.753809928894043
1698079811913498400,6.971498291015625,4.2857489585876465,1.518833041191101,-1.09471595287323
1698079811922917000,6.980917236328125,3.1806869506835938,-2.108289957046509,0.9756199717521667
1698079811932335900,6.9903359375,1.751952052116394,-5.7681989669799805,2.2334580421447754
1698079811941754600,6.999754638671875,1.511654019355774,-9.039763450622559,2.978511095046997
1698079811951173400,7.00917333984375,1.2331390380859375,-11.052839279174805,2.057810068130493
1698079811960592400,7.01859228515625,-0.007337000221014023,-11.608521461486816,0.2501170039176941
1698079811970011100,7.02801123046875,-2.2145729064941406,-10.960308074951172,-1.4347959756851196
1698079811979430100,7.03743017578125,-4.350900173187256,-8.338859558105469,-2.985511064529419
1698079811988849200,7.04684912109375,-6.05986213684082,-5.108364105224609,-3.751030921936035
1698079811998267600,7.056267578125,-7.793348789215088,-1.9476410150527954,-3.4529550075531006
1698079812007686700,7.065686767578125,-9.39984130859375,0.5888109803199768,-2.712636947631836
1698079812017105400,7.07510546875,-10.234384536743164,2.2863380908966064,-1.2496140003204346
1698079812026524200,7.084524169921875,-10.354639053344727,3.3783071041107178,-0.21521799266338348
1698079812035943000,7.09394287109375,-10.552254676818848,3.9348809719085693,0.6210280060768127
1698079812045362000,7.10336181640625,-11.578048706054688,4.311645030975342,0.05901100113987923
1698079812054780700,7.11278076171875,-13.58459758758545,5.05857515335083,-0.4652009904384613
1698079812064199400,7.122199462890625,-15.385481834411621,6.223708152770996,-0.004484999924898148
1698079812073618400,7.131618408203125,-17.232807159423828,7.432513236999512,-0.10005400329828262
1698079812083037200,7.141037109375,-20.375457763671875,8.294698715209961,-0.6051449775695801
1698079812092456200,7.150456298828125,-25.251855850219727,8.227103233337402,-1.089779019355774
1698079812101875000,7.159875,-22.394304275512695,6.680461883544922,-1.8562959432601929
1698079812111293700,7.169293701171875,-6.530869007110596,3.1312649250030518,-1.5404499769210815
1698079812120712700,7.178712646484375,0.8541799783706665,-0.0970970019698143,-1.9700360298156738
1698079812130131500,7.18813134765625,2.284709930419922,-2.719973087310791,-3.603485107421875
1698079812139550500,7.197550537109375,5.61308479309082,-5.289400100708008,-5.496421813964844
1698079812148969000,7.206968994140625,8.165597915649414,-8.861550331115723,-7.6200151443481445
1698079812158388000,7.216387939453125,11.002143859863281,-11.485404014587402,-11.914377212524414
1698079812167807000,7.225806884765625,10.986406326293945,-13.166666030883789,-16.360010147094727
1698079812177225700,7.235225830078125,6.44622278213501,-10.678604125976562,-10.9575834274292
1698079812186644500,7.24464453125,-3.6435279846191406,-7.875235080718994,-2.989509105682373
1698079812196063200,7.254063232421875,-30.234575271606445,-4.960375785827637,0.9996520280838013
1698079812205482200,7.263482177734375,-23.182729721069336,-3.2878119945526123,5.035863876342773
1698079812214901000,7.27290087890625,-7.357402801513672,-3.7624568939208984,3.2092549800872803
1698079812224319700,7.28231982421875,-2.5359930992126465,-3.829011917114258,2.321959972381592
1698079812233738500,7.291738525390625,-4.843903064727783,-4.346069812774658,3.3324429988861084
1698079812243157800,7.30115771484375,-13.914237976074219,-4.694652080535889,1.4714349508285522
1698079812252576500,7.310576416015625,-22.29732894897461,-5.132440090179443,-1.2817909717559814
1698079812261995300,7.319995361328125,-13.272721290588379,-5.323544025421143,-4.891554832458496
1698079812271414000,7.3294140625,-4.266697883605957,-3.3419320583343506,-7.70854377746582
1698079812280832800,7.338832763671875,-0.9350360035896301,-1.0873680114746094,-8.252592086791992
1698079812290251500,7.34825146484375,0.44241899251937866,1.4794189929962158,-8.462289810180664
1698079812299670500,7.35767041015625,0.4005270004272461,3.8550009727478027,-7.832347869873047
1698079812309089500,7.367089599609375,1.7802560329437256,5.5067219734191895,-6.5167741775512695
1698079812318508300,7.37650830078125,3.760627031326294,6.787083148956299,-5.311944961547852
1698079812327927300,7.38592724609375,5.063963890075684,7.9269819259643555,-4.117804050445557
1698079812337346000,7.395345947265625,5.6792731285095215,8.61203670501709,-0.9621049761772156
1698079812346764800,7.404764892578125,5.826420783996582,9.479548454284668,0.2578260004520416
1698079812356183600,7.41418359375,5.125618934631348,11.496139526367188,-0.17118099331855774
1698079812365602300,7.423602294921875,2.520730972290039,13.451237678527832,-1.6271909475326538
1698079812375021000,7.43302099609375,2.3518199920654297,14.135659217834473,-2.9559249877929688
1698079812384440000,7.442440185546875,0.5139930248260498,12.927186965942383,-4.440508842468262
1698079812393859000,7.451859130859375,-0.15419000387191772,11.247319221496582,-4.605591773986816
1698079812403277600,7.461277587890625,0.016986999660730362,8.566126823425293,-3.196392059326172
1698079812412696600,7.470696533203125,0.09526500105857849,5.876290798187256,-2.50571608543396
1698079812422115600,7.480115478515625,0.7476040124893188,2.1825509071350098,-3.3931500911712646
1698079812431534300,7.489534423828125,3.502405881881714,-5.62001895904541,-4.139802932739258
1698079812440953000,7.498953125,4.6287841796875,-16.182830810546875,-2.0753231048583984
1698079812450371800,7.508371826171875,0.4151279926300049,-23.638032913208008,0.023524999618530273
1698079812459790600,7.51779052734375,-4.2025370597839355,-26.220684051513672,-0.3331420123577118
1698079812469209300,7.527209228515625,-8.735058784484863,-23.21875,-3.9627490043640137
1698079812478628400,7.53662841796875,-11.323497772216797,-17.362056732177734,-6.825804233551025
1698079812488047400,7.54604736328125,-11.495577812194824,-10.908980369567871,-7.092973232269287
1698079812497466400,7.55546630859375,-9.72891902923584,-5.1471991539001465,-5.582460880279541
1698079812506885000,7.564885009765625,-8.78989315032959,-0.345988005399704,-3.6335461139678955
1698079812516304000,7.574303955078125,-10.16220760345459,3.575798988342285,-2.0760819911956787
1698079812525722600,7.58372265625,-11.514656066894531,6.537507057189941,-0.4944249987602234
1698079812535141600,7.5931416015625,-11.794617652893066,8.609535217285156,0.5795890092849731
1698079812544560400,7.602560302734375,-11.163342475891113,9.318154335021973,0.4691210091114044
1698079812553979100,7.611979248046875,-10.259984016418457,9.252317428588867,0.22927799820899963
1698079812563398000,7.62139794921875,-8.121041297912598,9.176071166992188,0.7203270196914673
1698079812572817000,7.63081689453125,-5.750314235687256,9.236461639404297,0.5049440264701843
1698079812582236000,7.64023583984375,-4.926242828369141,9.389769554138184,-0.19044099748134613
1698079812591654700,7.649654541015625,-6.1544318199157715,9.799766540527344,-1.0763989686965942
1698079812601073400,7.659073486328125,-6.113406181335449,9.692370414733887,-1.4183039665222168
1698079812610492200,7.6684921875,-6.221464157104492,9.505175590515137,-1.384063959121704
1698079812619911000,7.677910888671875,-8.717196464538574,9.227435111999512,-1.1962809562683105
1698079812629330000,7.687329833984375,-12.888476371765137,8.476837158203125,-2.7127020359039307
1698079812638748400,7.69674853515625,-9.117655754089355,5.934165954589844,-5.123220920562744
1698079812648167400,7.70616748046875,-2.674226999282837,3.1007239818573,-4.916684150695801
1698079812657586400,7.71558642578125,-0.11451199650764465,0.6854680180549622,-5.92633581161499
1698079812667005200,7.725005126953125,5.968808174133301,-2.335582971572876,-9.274121284484863
1698079812676424200,7.734424072265625,3.8807809352874756,-6.619833946228027,-9.919496536254883
1698079812685843000,7.743843017578125,-2.9030730724334717,-8.649815559387207,-5.710486888885498
1698079812695261700,7.75326171875,-5.915576934814453,-7.451720237731934,-3.9875779151916504
1698079812704680400,7.762680419921875,-6.185762882232666,-7.105943202972412,-2.8145830631256104
1698079812714099200,7.77209912109375,-10.058985710144043,-6.982683181762695,-1.0307819843292236
1698079812723518000,7.78151806640625,-13.547248840332031,-5.763689994812012,-2.293459892272949
1698079812732937000,7.79093701171875,-11.285432815551758,-5.657132148742676,0.4532020092010498
1698079812742355700,7.800355712890625,-7.540175914764404,-3.731839895248413,1.6831820011138916
1698079812751774700,7.809774658203125,-4.275238037109375,-2.0285990238189697,2.7455248832702637
1698079812761193500,7.819193359375,-1.4310380220413208,-0.751101016998291,2.5609519481658936
1698079812770612200,7.8286123046875,1.0785009860992432,0.4413340091705322,2.6351799964904785
1698079812780031200,7.83803125,2.4071860313415527,1.219519019126892,3.1483449935913086
1698079812789450000,7.847449951171875,3.7150790691375732,1.6923179626464844,3.191696882247925
1698079812798868700,7.85686865234375,3.0765790939331055,1.9168720245361328,2.6401469707489014
1698079812808287700,7.866287841796875,-4.733074188232422,1.9546539783477783,0.056113000959157944
1698079812817706800,7.875706787109375,-13.764784812927246,0.4635869860649109,-0.38756799697875977
1698079812827125500,7.88512548828125,-18.165706634521484,-2.920564889907837,-0.9000959992408752
1698079812836544300,7.894544189453125,-15.021410942077637,-4.943373203277588,-0.5648710131645203
1698079812845963000,7.903962890625,-15.469578742980957,-8.321056365966797,-0.11733400076627731
1698079812855382000,7.913382080078125,-16.053800582885742,-11.362764358520508,-0.6208710074424744
1698079812864800800,7.92280078125,-15.830087661743164,-13.953540802001953,-2.0445079803466797
1698079812874219500,7.932219482421875,-10.913558959960938,-15.09199333190918,-2.6392030715942383
1698079812883638300,7.94163818359375,-7.438553810119629,-14.417040824890137,-3.400791883468628
1698079812893057300,7.951057373046875,-4.636139869689941,-13.223870277404785,-4.098025798797607
1698079812902476300,7.960476318359375,-0.7258870005607605,-11.621514320373535,-4.80155086517334
1698079812911895000,7.96989501953125,2.3097589015960693,-10.196513175964355,-5.200450897216797
1698079812921313800,7.979313720703125,3.2576489448547363,-9.004554748535156,-5.877754211425781
1698079812930732500,7.988732666015625,3.3138010501861572,-7.908421039581299,-7.337910175323486
1698079812940151600,7.998151611328125,1.2147250175476074,-7.519794940948486,-8.488495826721191
1698079812949570300,8.0075703125,-2.6388919353485107,-7.289338111877441,-8.491928100585938
1698079812958989300,8.0169892578125,-5.6678948402404785,-6.842858791351318,-8.3654146194458
1698079812968407800,8.02640771484375,-6.932100772857666,-6.041056156158447,-9.185674667358398
1698079812977826800,8.035826904296876,-6.121565818786621,-5.445600986480713,-8.40523624420166
1698079812987245600,8.04524560546875,-5.089878082275391,-4.868980884552002,-5.611509799957275
1698079812996664600,8.05466455078125,-4.122050762176514,-3.8474009037017822,-2.784569025039673
1698079813006083300,8.064083251953125,-2.553831100463867,-2.269874095916748,-0.5741919875144958
1698079813015502300,8.07350244140625,-1.198909044265747,-0.5579900145530701,1.1126550436019897
1698079813024921000,8.082921142578124,-0.05011099949479103,1.152325987815857,2.2883520126342773
1698079813034339800,8.09233984375,1.1182650327682495,2.655992031097412,3.3370819091796875
1698079813043758800,8.1017587890625,0.66628098487854,4.415840148925781,4.028223991394043
1698079813053177600,8.111177490234375,0.18920199573040009,5.955545902252197,4.090705871582031
1698079813062596000,8.12059619140625,0.597540020942688,6.96221399307251,4.262493133544922
1698079813072015000,8.13001513671875,1.143584966659546,7.791807174682617,4.307857990264893
1698079813081434000,8.13943408203125,1.3459049463272095,8.445283889770508,4.387484073638916
1698079813090852900,8.148852783203125,1.2679749727249146,8.787575721740723,4.484350204467773
1698079813100271600,8.158271728515626,0.5927349925041199,8.874199867248535,4.69089412689209
1698079813109690600,8.167690673828124,-0.5575169920921326,8.978524208068848,4.82848596572876
1698079813119109400,8.177109375,-1.4185889959335327,8.800339698791504,5.050116062164307
1698079813128528100,8.186528076171875,-1.9338810443878174,8.584858894348145,5.003117084503174
1698079813137947100,8.195947021484375,-1.7376320362091064,8.276626586914062,4.962480068206787
1698079813147366000,8.205365966796874,-1.4212640523910522,8.01095199584961,4.860668182373047
1698079813156785000,8.214784912109375,-1.2669099569320679,7.527723789215088,4.792669773101807
1698079813166203600,8.22420361328125,-2.0754880905151367,6.676092147827148,4.97396183013916
1698079813175622700,8.23362255859375,-4.4066691398620605,5.565547943115234,5.128634929656982
1698079813185041400,8.24304150390625,-11.526139259338379,4.131639003753662,5.294229984283447
1698079813194460200,8.252460205078124,-30.931154251098633,1.7867439985275269,5.2268967628479
1698079813203879000,8.26187890625,-33.09111404418945,-1.9685250520706177,1.314581036567688
1698079813213297700,8.271297607421875,-13.084667205810547,-5.0151472091674805,-3.935559034347534
1698079813222716700,8.280716552734376,-6.466858863830566,-6.630327224731445,-7.448898792266846
1698079813232135200,8.29013525390625,-10.10037899017334,-8.512235641479492,-8.040000915527344
1698079813241554200,8.29955419921875,-12.499815940856934,-9.979449272155762,-5.52675199508667
1698079813250973200,8.30897314453125,-12.207128524780273,-9.103049278259277,-0.7326139807701111
1698079813260392000,8.318391845703125,-10.82857894897461,-6.395571231842041,-1.443153977394104
1698079813269810700,8.327810791015626,-11.144710540771484,-4.229963779449463,-4.086052894592285
1698079813279229700,8.337229736328124,-14.279040336608887,-3.7869770526885986,-7.220962047576904
1698079813288648400,8.3466484375,-10.752381324768066,-4.255953788757324,-9.220561027526855
1698079813298067200,8.356067138671875,-7.6075568199157715,-4.839285850524902,-8.12649917602539
1698079813307486200,8.365486328125,3.119645118713379,-4.911987781524658,-3.8959779739379883
1698079813316905000,8.374905029296874,17.848148345947266,-2.8789730072021484,2.3233070373535156
1698079813326324000,8.384323974609375,17.92484474182129,1.4348629713058472,2.369378089904785
1698079813335742700,8.39374267578125,9.890217781066895,5.994950771331787,0.5463089942932129
1698079813345161700,8.40316162109375,0.7577210068702698,9.585259437561035,-3.23421311378479
1698079813354580500,8.41258056640625,-5.207036972045898,11.135058403015137,-5.617919921875
1698079813363999200,8.421999267578125,-7.89650297164917,9.739884376525879,-8.09311294555664
1698079813373418000,8.43141796875,-4.434838771820068,6.387495994567871,-7.441720008850098
1698079813382836700,8.440836669921875,-0.5374780297279358,3.344533920288086,-6.6086859703063965
1698079813392255500,8.45025537109375,1.39198899269104,0.7271590232849121,-5.298107147216797
1698079813401674800,8.4596748046875,3.57627010345459,-2.087017059326172,-2.8419768810272217
1698079813411093500,8.469093505859375,5.21685791015625,-4.391355991363525,-1.014111042022705
1698079813420512300,8.47851220703125,7.045421123504639,-5.545607089996338,0.1813489943742752
1698079813429931300,8.48793115234375,8.523613929748535,-6.810691833496094,1.6445039510726929
1698079813439350000,8.49735009765625,7.316475868225098,-7.406391143798828,2.0195810794830322
1698079813448768800,8.506768798828125,4.650050163269043,-6.666226863861084,1.8836300373077393
1698079813458187500,8.5161875,4.356628894805908,-5.9572601318359375,2.4769580364227295
1698079813467606500,8.5256064453125,4.79754114151001,-5.392642974853516,2.542872905731201
1698079813477025300,8.535025390625,4.947897911071777,-4.48576021194458,3.1238369941711426
1698079813486444300,8.5444443359375,5.578817844390869,-3.375494956970215,3.693542957305908
1698079813495862800,8.55386279296875,5.878117084503174,-2.4593260288238525,4.433051109313965
1698079813505281800,8.56328173828125,5.295259952545166,-1.1658649444580078,5.315624237060547
1698079813514700500,8.572700439453126,5.951642990112305,-0.20419299602508545,6.1243438720703125
1698079813524119600,8.58211962890625,5.713444232940674,0.16693300008773804,7.075038909912109
1698079813533538300,8.591538330078125,3.9407079219818115,0.48066800832748413,7.277291774749756
1698079813542957300,8.600957275390625,2.5415260791778564,0.6296460032463074,7.070213794708252
1698079813552376000,8.6103759765625,1.3659980297088623,0.6819279789924622,6.565602779388428
1698079813561794800,8.619794921875,0.7633360028266907,0.6643649935722351,6.461422920227051
1698079813571213600,8.629213623046875,-0.2576789855957031,0.5912119746208191,6.104054927825928
1698079813580632300,8.63863232421875,-1.1001299619674683,0.35500800609588623,5.898982048034668
1698079813590051300,8.64805126953125,-0.835411012172699,-0.273377001285553,5.7470808029174805
1698079813599470300,8.65747021484375,-0.3287909924983978,-1.0344560146331787,5.236668109893799
1698079813608889000,8.66688916015625,-0.19295300543308258,-1.6711900234222412,4.994182109832764
1698079813618307800,8.676307861328125,-0.4315600097179413,-1.8859390020370483,5.077045917510986
1698079813627726800,8.685726806640625,-1.164080023765564,-1.8429700136184692,5.555788993835449
1698079813637145600,8.6951455078125,-2.286449909210205,-1.3919689655303955,6.309350967407227
1698079813646564400,8.704564453125,-3.4063189029693604,-0.994858980178833,6.793880939483643
1698079813655983000,8.713983154296875,-4.2411580085754395,-0.636538028717041,6.859579086303711
1698079813665402000,8.723402099609375,-4.5507612228393555,-0.06944800168275833,6.89875602722168
1698079813674821000,8.732821044921875,-3.868572950363159,0.6129699945449829,6.498711109161377
1698079813684240000,8.742239990234374,-2.4342710971832275,0.9610720276832581,6.282145023345947
1698079813693658600,8.75165869140625,-1.232051968574524,1.491811990737915,6.067519187927246
1698079813703077400,8.761077392578125,-0.004038999788463116,1.7135080099105835,5.922018051147461
1698079813712496000,8.77049609375,0.9511290192604065,1.8688709735870361,5.739779949188232
1698079813721915100,8.7799150390625,2.0029280185699463,1.8320679664611816,5.799228191375732
1698079813731333600,8.789333740234374,2.51861310005188,1.7780640125274658,6.037440776824951
1698079813740752600,8.798752685546875,2.2082159519195557,1.7463810443878174,6.52627420425415
1698079813750171600,8.808171630859375,1.1007740497589111,1.5458359718322754,7.213200092315674
1698079813759590400,8.81759033203125,-0.5339360237121582,0.9041590094566345,7.840170860290527
1698079813769009200,8.827009033203124,-1.9435540437698364,-0.300680011510849,8.40744400024414
1698079813778428200,8.83642822265625,-2.8571910858154297,-2.1085829734802246,8.764442443847656
1698079813787847000,8.845846923828125,-3.2326440811157227,-4.258824825286865,8.648794174194336
1698079813797265700,8.855265625,-3.4471049308776855,-6.095582008361816,8.273429870605469
1698079813806684700,8.8646845703125,-4.64473819732666,-7.373082160949707,7.717193126678467
1698079813816103400,8.874103515625,-7.397994041442871,-6.591567039489746,7.2355427742004395
1698079813825522200,8.883522216796875,-10.05132007598877,-4.294891834259033,6.461548805236816
1698079813834941200,8.892941162109375,-11.039987564086914,-2.2401978969573975,5.781009197235107
1698079813844360000,8.90235986328125,-10.028178215026855,-1.205420970916748,5.661799907684326
1698079813853779000,8.911779052734374,-7.4448018074035645,-1.5591909885406494,5.668345928192139
1698079813863197700,8.92119775390625,-4.041441917419434,-2.7439029216766357,5.690210819244385
1698079813872616400,8.930616455078125,-1.4191739559173584,-3.5744121074676514,6.010091781616211
1698079813882035500,8.940035400390625,-0.8437860012054443,-4.077362060546875,5.631501197814941
1698079813891454200,8.9494541015625,-1.7202659845352173,-4.335048198699951,6.027910232543945
1698079813900873000,8.958873046875,-2.7659080028533936,-4.6704277992248535,5.613484859466553
1698079813910291700,8.968291748046875,-3.9291648864746094,-4.317644119262695,4.096759796142578
1698079813919710500,8.97771044921875,-4.8352251052856445,-3.537942886352539,2.516990900039673
1698079813929129700,8.987129638671876,-5.217825889587402,-3.1248230934143066,1.5332319736480713
1698079813938548500,8.996548583984374,-4.740409851074219,-3.3674309253692627,1.2167960405349731
1698079813947967200,9.00596728515625,-3.693140983581543,-3.8997769355773926,0.7486310005187988
1698079813957386000,9.015385986328125,-2.115748882293701,-4.288932800292969,0.1811710000038147
1698079813966805000,9.024804931640626,-0.4708290100097656,-4.593358039855957,-0.9208790063858032
1698079813976223700,9.0342236328125,2.2238290309906006,-4.969905853271484,-1.2957179546356201
1698079813985642500,9.043642578125,5.264575958251953,-5.6413068771362305,-1.827455997467041
1698079813995061200,9.053061279296875,7.389542102813721,-6.346195220947266,-4.52857780456543
1698079814004480300,9.062480224609375,8.927458763122559,-7.603072166442871,-5.890336036682129
1698079814013899000,9.07189892578125,8.128813743591309,-7.666526794433594,-6.281330108642578
1698079814023318000,9.081318115234374,9.611762046813965,-8.260832786560059,-5.085824012756348
1698079814032736800,9.09073681640625,9.576165199279785,-8.237181663513184,-7.027322769165039
1698079814042155500,9.100155517578125,10.854774475097656,-7.71743106842041,-5.769104957580566
1698079814051574300,9.10957421875,10.694525718688965,-6.221438884735107,-5.098059177398682
1698079814060993000,9.118992919921874,10.356039047241211,-5.15100622177124,-4.63336181640625
1698079814070412000,9.128412109375,8.528074264526367,-4.144550800323486,-1.9262360334396362
1698079814079831000,9.1378310546875,5.71611213684082,-3.1348559856414795,-0.5704129934310913
1698079814089249800,9.147249755859375,2.8875041007995605,-2.40024995803833,1.1698609590530396
1698079814098668500,9.15666845703125,1.2521899938583374,-2.3156590461730957,4.364984035491943
1698079814108087600,9.166087646484375,-0.24282200634479523,-2.0208170413970947,6.599037170410156
1698079814117506300,9.17550634765625,0.6414139866828918,-1.983894944190979,8.653181076049805
1698079814126925000,9.184925048828125,3.573988914489746,-1.5772910118103027,9.22744083404541
1698079814136344000,9.194343994140626,6.6888298988342285,-0.9897379875183105,8.941746711730957
1698079814145762800,9.2037626953125,9.054609298706055,-0.7922400236129761,8.74257755279541
1698079814155181600,9.213181640625,10.377150535583496,-0.08797500282526016,8.4169340133667
1698079814164600600,9.2226005859375,10.401924133300781,1.0041019916534424,7.109073162078857
1698079814174019600,9.23201953125,10.331625938415527,1.839434027671814,5.425048828125
1698079814183438300,9.241438232421874,11.001663208007812,2.6552789211273193,4.721522808074951
1698079814192857000,9.250857177734375,11.2774658203125,3.6215860843658447,4.392514228820801
1698079814202275800,9.26027587890625,11.665199279785156,4.731632232666016,3.8351550102233887
1698079814211694600,9.269694580078125,11.356247901916504,6.116344928741455,3.5215179920196533
1698079814221113600,9.279113525390626,10.661059379577637,6.844785213470459,3.3176870346069336
1698079814230532400,9.288532470703124,9.779560089111328,7.524003028869629,3.420103073120117
1698079814239951000,9.297951171875,9.49549674987793,7.94810676574707,3.5176079273223877
1698079814249369900,9.307369873046875,9.30561637878418,7.927787780761719,3.1429009437561035
1698079814258788900,9.316788818359376,9.070796966552734,6.932704925537109,2.46270489692688
1698079814268207900,9.326207763671874,9.099334716796875,5.698925018310547,2.3566908836364746
1698079814277626600,9.335626708984375,9.451506614685059,5.002140998840332,1.4111579656600952
1698079814287045400,9.34504541015625,10.879022598266602,1.9793729782104492,0.6202570199966431
1698079814296464100,9.354464111328125,14.074077606201172,-2.4741199016571045,-0.6741909980773926
1698079814305883100,9.363883056640624,15.660978317260742,-9.11793041229248,0.24743899703025818
1698079814315302000,9.373302001953125,7.958515167236328,-15.28872013092041,-0.2959260046482086
1698079814324721000,9.382720947265625,-1.107103943824768,-16.228845596313477,2.253864049911499
1698079814334139600,9.3921396484375,-7.915674209594727,-14.818817138671875,1.31387197971344
1698079814343558700,9.40155859375,-13.565890312194824,-12.08358383178711,2.3124749660491943
1698079814352977200,9.41097705078125,-17.248769760131836,-8.95263957977295,3.483393907546997
1698079814362396200,9.420396240234375,-14.348579406738281,-6.10283899307251,5.146320819854736
1698079814371815000,9.42981494140625,-10.345086097717285,-2.9653289318084717,6.696433067321777
1698079814381233700,9.439233642578126,-8.295452117919922,0.3367820084095001,7.33073616027832
1698079814390652400,9.44865234375,-8.53770923614502,3.2330169677734375,6.853858947753906
1698079814400071400,9.458071533203125,-9.817428588867188,5.598633766174316,5.103952884674072
1698079814409490200,9.467490234375,-11.944290161132812,7.174662113189697,2.3640830516815186
1698079814418909200,9.4769091796875,-12.468362808227539,7.301894187927246,-1.1420329809188843
1698079814428328000,9.486327880859376,-8.740348815917969,5.735824108123779,-2.830594062805176
1698079814437747000,9.495746826171874,-2.5755419731140137,1.9717069864273071,-1.118595004081726
1698079814447165700,9.505165771484375,0.3789510130882263,-2.799556016921997,2.4292209148406982
1698079814456584400,9.51458447265625,5.7536702156066895,-7.057416915893555,2.567634105682373
1698079814466003200,9.524003173828126,10.19151782989502,-9.021162986755371,1.2757200002670288
1698079814475422000,9.533421875,13.759053230285645,-9.186774253845215,-1.0590380430221558
1698079814484841000,9.542841064453125,17.128591537475586,-8.391983985900879,-3.843337059020996
1698079814494259700,9.552259765625,19.663471221923828,-5.480902194976807,-4.842459201812744
1698079814503678500,9.561678466796875,18.604537963867188,-2.6207919120788574,-2.693963050842285
1698079814513097500,9.571097412109374,16.912357330322266,-1.0348260402679443,0.1398240029811859
1698079814522516200,9.58051611328125,17.32611656188965,-0.9573310017585754,1.376567006111145
1698079814531935200,9.589935302734375,19.50812530517578,-0.935018002986908,1.5174859762191772
1698079814541354000,9.59935400390625,8.230220794677734,-3.3814759254455566,0.9701259732246399
1698079814550773000,9.60877294921875,-38.587501525878906,-3.1826040744781494,3.796302080154419
1698079814560191700,9.618191650390624,-39.68299865722656,-5.288565158843994,8.630928039550781
1698079814569610500,9.627610595703125,-0.3711169958114624,-8.633912086486816,6.834469795227051
1698079814579029200,9.637029296875,11.514569282531738,-9.986808776855469,7.809107780456543
1698079814588448300,9.6464482421875,8.732962608337402,-9.390812873840332,10.851214408874512
1698079814597867300,9.6558671875,-1.5276509523391724,-7.793278217315674,9.662522315979004
1698079814607286000,9.6652861328125,-15.8206205368042,-4.977428913116455,4.2308502197265625
1698079814616704800,9.674704833984375,-13.335835456848145,-3.836843967437744,0.4045419991016388
1698079814626123500,9.68412353515625,-4.328793048858643,-4.3222808837890625,-0.5824450254440308
1698079814635542300,9.693542236328126,-1.333096981048584,-3.920984983444214,-0.8765310049057007
1698079814644961300,9.702961181640624,-2.618839979171753,-2.5865139961242676,-0.764989972114563
1698079814654380000,9.712380126953125,-4.576611042022705,-1.2606370449066162,-0.3974379897117615
1698079814663799000,9.721799072265625,-4.171969890594482,-0.2925809919834137,-0.6785320043563843
1698079814673217800,9.7312177734375,0.048048000782728195,0.10920099914073944,-1.0356229543685913
1698079814682636800,9.74063671875,4.989846229553223,0.21208499372005463,-1.227020025253296
1698079814692055600,9.7500556640625,9.183476448059082,0.8645169734954834,-1.5379060506820679
1698079814701474300,9.759474365234375,11.51404094696045,2.1727728843688965,-1.9340620040893555
1698079814710893000,9.76889306640625,12.571598052978516,3.58115291595459,-1.4589409828186035
1698079814720311800,9.778311767578124,12.885549545288086,4.423019886016846,0.4696800112724304
1698079814729730800,9.787730712890625,12.994370460510254,4.851434230804443,1.9691749811172485
1698079814739149800,9.79714990234375,13.87309455871582,5.258052825927734,2.2117209434509277
1698079814748568300,9.806568359375,15.224532127380371,5.346776008605957,0.9433839917182922
1698079814757987300,9.8159873046875,10.922659873962402,5.250781059265137,-0.8799129724502563
1698079814767406300,9.82540625,6.533498764038086,3.900979995727539,-1.5148119926452637
1698079814776825000,9.8348251953125,3.2664999961853027,1.192850947380066,-0.004838000051677227
1698079814786243800,9.844243896484375,3.7018001079559326,-1.6712449789047241,0.9595710039138794
1698079814795662600,9.85366259765625,5.212159156799316,-4.286388874053955,0.6766970157623291
1698079814805081300,9.863081298828124,8.179559707641602,-7.2837748527526855,0.49878600239753723
1698079814814500400,9.872500244140625,11.463614463806152,-10.855006217956543,1.911620020866394
1698079814823919000,9.881919189453125,10.687509536743164,-14.03668212890625,4.5072021484375
1698079814833337900,9.891337890625,7.4561448097229,-16.16032600402832,6.512567043304443
1698079814842757000,9.900757080078124,4.931004047393799,-14.386771202087402,4.620703220367432
1698079814852176000,9.91017578125,3.671376943588257,-10.431376457214355,1.7443510293960571
1698079814861594600,9.9195947265625,3.1830570697784424,-7.283811092376709,0.27207300066947937
1698079814871013400,9.929013427734375,3.31848406791687,-4.916437149047852,-0.3601660132408142
1698079814880432000,9.93843212890625,3.290105104446411,-3.2895491123199463,-0.6611790060997009
1698079814889851100,9.94785107421875,2.7164180278778076,-2.5386109352111816,-0.30502599477767944
1698079814899270100,9.957270263671875,1.438781976699829,-2.527446985244751,0.4683470129966736
1698079814908689000,9.96668896484375,0.07966600358486176,-2.913975954055786,0.906702995300293
1698079814918107600,9.976107666015626,-0.4921880066394806,-3.435710906982422,1.00701904296875
1698079814927526400,9.9855263671875,0.16499599814414978,-3.9612269401550293,0.7843170166015625
1698079814936945400,9.9949453125,0.7019640207290649,-3.9602649211883545,0.7647489905357361
1698079814946364200,10.0043642578125,0.9577509760856628,-3.5308570861816406,1.2815220355987549
1698079814955783000,10.013782958984375,0.25435400009155273,-2.580559015274048,2.477828025817871
1698079814965201700,10.02320166015625,-1.0137319564819336,-1.2533149719238281,3.8934600353240967
1698079814974620700,10.03262060546875,-3.1990559101104736,0.3909440040588379,5.580482006072998
1698079814984039700,10.042039794921875,-6.89716100692749,2.2792129516601562,7.738150119781494
1698079814993458400,10.05145849609375,-11.314952850341797,4.297840118408203,9.176557540893555
1698079815002877200,10.060877197265626,-15.782748222351074,5.614562034606934,9.382488250732422
1698079815012296000,10.0702958984375,-15.0344877243042,6.6567230224609375,10.460121154785156
1698079815021714700,10.079714599609375,-3.1384899616241455,6.135879993438721,9.457356452941895
1698079815031133700,10.0891337890625,5.683345794677734,3.875925064086914,7.532672882080078
1698079815040552400,10.098552490234376,9.541642189025879,1.3658900260925293,6.737497806549072
1698079815049971500,10.107971435546874,9.38158893585205,-0.7614579796791077,5.617975234985352
1698079815059390200,10.11739013671875,11.103930473327637,-2.1750259399414062,4.097039222717285
1698079815068809200,10.126809326171875,10.621441841125488,-3.655426025390625,2.109610080718994
1698079815078227700,10.136227783203125,11.021498680114746,-5.243677139282227,-0.7962239980697632
1698079815087646700,10.145646728515626,12.401325225830078,-6.616645812988281,-3.827178955078125
1698079815097065500,10.1550654296875,16.729978561401367,-7.597990989685059,-9.519558906555176
1698079815106484500,10.164484375,15.476472854614258,-6.722952842712402,-11.970656394958496
1698079815115903200,10.1739033203125,-3.6868410110473633,-4.285886764526367,-6.424497127532959
1698079815125322000,10.183322021484376,-38.115665435791016,-3.353579044342041,-1.824910044670105
1698079815134741000,10.192740966796874,-25.967243194580078,-5.655195236206055,3.186903953552246
1698079815144159500,10.202159423828125,1.288601040840149,-7.493927955627441,4.024415969848633
1698079815153578200,10.211578125,8.391837120056152,-7.779734134674072,6.736949920654297
1698079815162997200,10.220997314453125,2.8494009971618652,-6.3197550773620605,8.675838470458984
1698079815172416300,10.230416259765626,-6.674394130706787,-3.9962921142578125,6.115190029144287
1698079815181835300,10.239835205078125,-14.118146896362305,-2.7402329444885254,2.19881010055542
1698079815191254000,10.24925390625,-10.476288795471191,-3.448807954788208,-0.5822489857673645
1698079815200672800,10.2586728515625,1.41737699508667,-4.322457790374756,-3.2081780433654785
1698079815210091800,10.268091796875,8.043171882629395,-4.476981163024902,-2.365809917449951
1698079815219510300,10.27751025390625,5.657470226287842,-3.231355905532837,-2.760313034057617
1698079815228929300,10.28692919921875,5.308131217956543,-1.47959303855896,-3.2777531147003174
1698079815238348000,10.29634814453125,9.526810646057129,-0.2882100045681,-2.415553092956543
1698079815247766800,10.305766845703126,14.14523983001709,0.7705919742584229,-1.6017930507659912
1698079815257185800,10.315185791015624,16.80140495300293,1.7060470581054688,0.4492030143737793
1698079815266604800,10.324604736328125,18.05923843383789,2.0922670364379883,2.538153886795044
1698079815276023600,10.3340234375,16.878496170043945,2.884932041168213,4.457447052001953
1698079815285442300,10.3434423828125,13.797025680541992,3.7478199005126953,5.033840179443359
1698079815294861000,10.352861083984376,5.916708946228027,5.292669773101807,1.8730870485305786
1698079815304280000,10.362280029296874,2.358454942703247,4.064138889312744,0.2524630129337311
1698079815313698600,10.371698486328125,3.9574270248413086,1.8598589897155762,-0.14800700545310974
1698079815323117800,10.381117919921875,7.57632303237915,-1.0996190309524536,0.27512699365615845
1698079815332536600,10.39053662109375,11.357917785644531,-4.2968058586120605,0.811847984790802
1698079815341955600,10.39995556640625,12.602383613586426,-8.400291442871094,2.0420238971710205
1698079815351374000,10.4093740234375,11.895681381225586,-13.224515914916992,3.815196990966797
1698079815360792800,10.418792724609375,9.846359252929688,-17.412919998168945,5.672766208648682
1698079815370211800,10.4282119140625,7.986692905426025,-19.195236206054688,6.155932903289795
1698079815379630600,10.437630615234376,6.50486421585083,-17.313570022583008,3.833627939224243
1698079815389049600,10.447049560546875,4.579442024230957,-13.102497100830078,0.4459100067615509
1698079815398468000,10.456468017578125,2.9803249835968018,-9.242586135864258,-0.917809009552002
1698079815407887400,10.465887451171875,1.4821480512619019,-5.6622209548950195,-1.4736510515213013
1698079815417306400,10.475306396484376,-0.5126050114631653,-2.514676094055176,-1.3984999656677246
1698079815426725000,10.48472509765625,-3.1132819652557373,0.4006890058517456,-0.2589170038700104
1698079815436143900,10.494143798828125,-7.10434103012085,2.699907064437866,1.2676769495010376
1698079815445562600,10.503562744140625,-7.767821788787842,3.975677967071533,2.855103015899658
1698079815454981400,10.5129814453125,-4.234564781188965,3.9940879344940186,4.15762186050415
1698079815464400100,10.522400146484374,-3.1164350509643555,3.6026699542999268,6.1095662117004395
1698079815473819100,10.531819091796875,-5.255414009094238,3.5353829860687256,7.733280181884766
1698079815483238000,10.54123779296875,-10.88743782043457,4.468213081359863,6.599451065063477
1698079815492656600,10.55065673828125,-17.48110580444336,5.862020969390869,4.784759998321533
1698079815502075600,10.56007568359375,-20.023405075073242,4.48283576965332,7.610884189605713
1698079815511494400,10.569494384765624,-3.966878890991211,2.323918104171753,8.105215072631836
1698079815520913200,10.5789130859375,6.518139839172363,-1.0360620021820068,6.059064865112305
1698079815530332200,10.588332275390625,10.39449691772461,-3.492846965789795,4.852838039398193
1698079815539751000,10.5977509765625,11.349027633666992,-5.112435817718506,3.9938158988952637
1698079815549170000,10.607169921875,13.478175163269043,-7.159640789031982,0.7065010070800781
1698079815558588400,10.61658837890625,14.25218391418457,-10.491402626037598,-0.8313729763031006
1698079815568007700,10.626007568359375,14.82028865814209,-12.885493278503418,-4.359076023101807
1698079815577426200,10.63542626953125,18.36159324645996,-14.350900650024414,-10.444574356079102
1698079815586845200,10.64484521484375,19.662797927856445,-12.161316871643066,-12.753558158874512
1698079815596264200,10.65426416015625,10.29667854309082,-9.062850952148438,-4.809838771820068
1698079815605683000,10.663682861328125,-39.994625091552734,-5.177908897399902,2.4300620555877686
1698079815615101700,10.673101806640625,-25.57520866394043,-3.9565999507904053,5.660401821136475
1698079815624520400,10.6825205078125,3.646091938018799,-5.043160915374756,4.060708999633789
1698079815633939200,10.691939208984374,11.657711029052734,-5.182466983795166,6.291883945465088
1698079815643358000,10.70135791015625,10.002947807312012,-4.900493144989014,7.8538007736206055
1698079815652776700,10.710776611328125,6.166721820831299,-4.628007888793945,7.481933116912842
1698079815662195700,10.72019580078125,-5.512416839599609,-3.9879720211029053,5.5790910720825195
1698079815671614700,10.72961474609375,-19.514787673950195,-3.59259295463562,2.3594729900360107
1698079815681033500,10.739033447265625,-10.884466171264648,-5.476826190948486,0.9283159971237183
1698079815690452200,10.7484521484375,3.572005033493042,-6.345084190368652,-2.0349230766296387
1698079815699871200,10.757871337890625,6.738255023956299,-4.895205020904541,-2.2695059776306152
1698079815709290200,10.767290283203126,3.3043038845062256,-3.0555670261383057,-2.636173963546753
1698079815718708700,10.776708740234374,2.2169480323791504,-0.9177259802818298,-2.9097659587860107
1698079815728127700,10.786127685546875,5.196063041687012,0.7439990043640137,-2.887547016143799
1698079815737546500,10.79554638671875,9.083802223205566,1.9555519819259644,-2.399627923965454
1698079815746965500,10.804965576171876,12.89763355255127,2.7729101181030273,-2.624562978744507
1698079815756384300,10.81438427734375,14.657881736755371,3.2454259395599365,-1.2646369934082031
1698079815765803300,10.82380322265625,15.81859016418457,3.5296080112457275,0.5693269968032837
1698079815775222000,10.833221923828125,15.764448165893555,4.373630046844482,1.9766789674758911
1698079815784640800,10.842640869140626,11.664987564086914,6.036657810211182,2.3693079948425293
1698079815794059500,10.8520595703125,8.764788627624512,5.679804801940918,1.7704030275344849
1698079815803478300,10.861478271484375,6.110651969909668,4.035634994506836,0.786549985408783
1698079815812897000,10.87089697265625,4.5689802169799805,1.790086030960083,0.19998100399971008
1698079815822316300,10.88031640625,5.174519062042236,-1.1656910181045532,0.0025140000507235527
1698079815831735000,10.889735107421876,7.914246082305908,-5.604980945587158,0.8125619888305664
1698079815841154000,10.899154052734374,10.03016185760498,-11.644485473632812,2.3784470558166504
1698079815850572500,10.908572509765625,10.783919334411621,-17.858211517333984,4.0779128074646
1698079815859991600,10.917991455078125,7.618989944458008,-22.11777114868164,5.251573085784912
1698079815869410300,10.927410400390626,3.81571888923645,-21.852001190185547,4.789811134338379
1698079815878829000,10.9368291015625,2.575666904449463,-17.53821563720703,2.638700008392334
1698079815888247800,10.946247802734375,3.099586009979248,-12.89072322845459,0.5542929768562317
1698079815897666800,10.955666748046875,3.913547992706299,-9.277177810668945,-0.42110100388526917
1698079815907085800,10.9650859375,4.235787868499756,-6.424020767211914,-0.8114889860153198
1698079815916504300,10.97450439453125,3.8768770694732666,-4.560351848602295,-0.52851402759552
1698079815925923300,10.98392333984375,2.951261043548584,-2.9427289962768555,0.3443250060081482
1698079815935342000,10.993342041015625,1.7653189897537231,-1.544342041015625,1.4614839553833008
1698079815944761000,11.002760986328125,0.20207799971103668,-0.2166689932346344,1.8711849451065063
1698079815954179800,11.012179931640626,-1.9882110357284546,1.2401119470596313,2.8031270503997803
1698079815963598600,11.0215986328125,-3.609584093093872,2.441462993621826,3.835207939147949
1698079815973017600,11.031017578125,-3.210705041885376,2.9398748874664307,4.516089916229248
1698079815982436400,11.040436279296875,-2.860697031021118,3.1874799728393555,4.667654037475586
1698079815991855000,11.049855224609376,-2.4305970668792725,3.603398084640503,4.565462112426758
1698079816001274000,11.059274169921874,-1.8173370361328125,4.415172100067139,4.704071998596191
1698079816010692900,11.06869287109375,-2.554379940032959,5.495669841766357,4.633129119873047
1698079816020112000,11.07811181640625,-4.4034199714660645,6.606551170349121,3.690969944000244
1698079816029530400,11.0875302734375,-8.620030403137207,7.74907112121582,0.43617698550224304
1698079816038949400,11.096949462890626,-14.41179084777832,7.573204040527344,0.6504169702529907
1698079816048368000,11.1063681640625,-10.056619644165039,5.980823993682861,0.34286099672317505
1698079816057787000,11.115786865234375,2.825615882873535,1.5074939727783203,2.0041310787200928
1698079816067206000,11.125205810546875,9.22315788269043,-2.072329044342041,2.508610963821411
1698079816076624600,11.134624755859376,10.417840003967285,-4.573967933654785,2.189326047897339
1698079816086043600,11.144043701171874,12.486478805541992,-6.713494777679443,1.4392989873886108
1698079816095462700,11.153462646484375,14.544290542602539,-8.779156684875488,-1.3001660108566284
1698079816104881400,11.16288134765625,15.52873706817627,-10.352790832519531,-4.9623260498046875
1698079816114300200,11.172300048828125,11.666313171386719,-9.568340301513672,-5.970016956329346
1698079816123719000,11.181718994140626,9.825363159179688,-8.447875022888184,-6.350568771362305
1698079816133138000,11.191137939453125,3.732448101043701,-7.578225135803223,-3.479696035385132
1698079816142556700,11.200556640625,-17.33159065246582,-7.216287136077881,-1.3740119934082031
1698079816151975200,11.20997509765625,-25.019729614257812,-8.00971508026123,4.945007801055908
1698079816161394000,11.219393798828126,-7.654372215270996,-8.882646560668945,6.5626420974731445
1698079816170813000,11.22881298828125,1.9916629791259766,-9.164036750793457,7.931004047393799
1698079816180232000,11.23823193359375,2.050676107406616,-8.444217681884766,6.50179386138916
1698079816189651000,11.24765087890625,2.166301965713501,-7.7275800704956055,4.067113876342773
1698079816199069700,11.257069580078126,2.132904052734375,-5.90865421295166,-0.014255999587476254
1698079816208488400,11.266488525390624,3.4800870418548584,-3.8492488861083984,-2.8833529949188232
1698079816217907500,11.275907470703125,5.764820098876953,-2.443466901779175,-2.701864004135132
1698079816227326000,11.285325927734375,5.706690788269043,-0.9667329788208008,-2.2106270790100098
1698079816236744700,11.29474462890625,3.511115074157715,0.37788400053977966,-2.7502899169921875
1698079816246164000,11.3041640625,2.7644240856170654,1.0389939546585083,-3.6321630477905273
1698079816255582700,11.313582763671874,5.084187984466553,1.0977250337600708,-3.313062906265259
1698079816265001700,11.323001708984375,8.588983535766602,0.9796209931373596,-3.18264102935791
1698079816274420500,11.33242041015625,11.397384643554688,0.8976470232009888,-2.295686960220337
1698079816283839200,11.341839111328126,13.501969337463379,1.410804033279419,-1.7381370067596436
1698079816293258000,11.351258056640624,14.383116722106934,1.9379290342330933,-0.6874529719352722
1698079816302676700,11.3606767578125,14.151796340942383,2.4623138904571533,1.05513596534729
1698079816312095700,11.370095703125,10.402274131774902,3.263046979904175,1.4538220167160034
1698079816321514500,11.379514404296875,5.679595947265625,3.5629940032958984,0.6743159890174866
1698079816330933500,11.38893359375,2.8997011184692383,2.698183059692383,-0.4507009983062744
1698079816340352300,11.398352294921875,2.9492900371551514,0.7048360109329224,-0.13960400223731995
1698079816349771300,11.407771240234375,4.716316223144531,-2.1732261180877686,0.1552709937095642
1698079816359190000,11.41718994140625,5.994009971618652,-4.836583137512207,1.1121670007705688
1698079816368608800,11.42660888671875,6.70416784286499,-6.729255199432373,2.568229913711548
1698079816378027500,11.436027587890624,6.217173099517822,-8.243910789489746,3.303679943084717
1698079816387446500,11.445446533203125,6.1174821853637695,-9.394269943237305,3.136847972869873
1698079816396865000,11.454864990234375,6.670923233032227,-9.688676834106445,1.985139012336731
1698079816406284000,11.464283935546876,6.667998790740967,-8.809552192687988,0.5433909893035889
1698079816415702800,11.473702880859374,6.369911193847656,-6.807796955108643,-0.9006490111351013
1698079816425121500,11.48312158203125,6.186798095703125,-4.465478897094727,-1.8639639616012573
1698079816434540500,11.49254052734375,5.8463969230651855,-2.684433937072754,-1.6998250484466553
1698079816443959600,11.50195947265625,5.240016937255859,-1.6299420595169067,-1.2238949537277222
1698079816453378300,11.51137841796875,4.285775184631348,-1.123661994934082,-1.328518033027649
1698079816462797000,11.520797119140624,3.050581932067871,-1.1481510400772095,-1.6148829460144043
1698079816472215800,11.5302158203125,1.1895109415054321,-1.5592349767684937,-1.9655879735946655
1698079816481634600,11.539634521484375,-1.1783499717712402,-2.364345073699951,-1.6414389610290527
1698079816491053600,11.549053466796876,-3.21016788482666,-3.738306999206543,-1.718161940574646
1698079816500472300,11.558472412109374,-3.30185604095459,-4.928934097290039,-1.9390959739685059
1698079816509891000,11.56789111328125,-1.5001020431518555,-5.9900078773498535,-1.774014949798584
1698079816519310000,11.57731005859375,-0.45243000984191895,-6.492514133453369,-1.334578037261963
1698079816528728800,11.586728759765625,-2.0065200328826904,-7.2028489112854,-0.82607102394104
1698079816538147800,11.59614794921875,-5.968021869659424,-7.408645153045654,-1.0978620052337646
1698079816547566600,11.605566650390625,-9.272721290588379,-7.273286819458008,-1.1014070510864258
1698079816556985300,11.6149853515625,-9.661418914794922,-6.722537994384766,-1.4195979833602905
1698079816566404400,11.624404296875,-8.787610054016113,-5.117496967315674,-1.7547860145568848
1698079816575823000,11.633822998046876,-7.839856147766113,-3.7019031047821045,-1.8609999418258667
1698079816585242000,11.6432421875,-8.477616310119629,-3.128321886062622,-1.651684045791626
1698079816594660900,11.652660888671875,-6.866344928741455,-4.233644008636475,-2.306051015853882
1698079816604079900,11.662079833984375,-8.051262855529785,-5.160181045532227,-2.5098159313201904
1698079816613498400,11.671498291015626,-10.635276794433594,-5.534615993499756,-1.5019259452819824
1698079816622917000,11.680917236328124,-4.186787128448486,-5.955912113189697,0.5016440153121948
1698079816632336100,11.690336181640625,8.684024810791016,-6.503035068511963,3.0826969146728516
1698079816641755000,11.6997548828125,15.628809928894043,-4.758278846740723,2.7271149158477783
1698079816651174000,11.709173828125,18.02936363220215,-3.127379894256592,1.786605954170227
1698079816660593000,11.718593017578126,17.418563842773438,-2.3130409717559814,-2.4480080604553223
1698079816670011400,11.728011474609374,14.911060333251953,-2.840888023376465,-6.792137145996094
1698079816679430400,11.737430419921875,14.363981246948242,-4.278636932373047,-10.789910316467285
1698079816688849200,11.74684912109375,13.654903411865234,-5.40019416809082,-14.108134269714355
1698079816698268200,11.75626806640625,14.377890586853027,-6.382873058319092,-17.770795822143555
1698079816707687000,11.76568701171875,20.56773567199707,-7.347933769226074,-19.824153900146484
1698079816717105700,11.775105712890625,14.695487022399902,-8.743230819702148,-15.12391185760498
1698079816726524700,11.784524658203125,8.729317665100098,-8.645600318908691,-11.04496955871582
1698079816735943400,11.793943359375,7.783563137054443,-8.667783737182617,-9.1734037399292
1698079816745362400,11.803362548828124,10.489721298217773,-9.130663871765137,-8.69178295135498
1698079816754781000,11.812781005859375,10.874641418457031,-9.599615097045898,-7.382957935333252
1698079816764200000,11.822199951171875,9.52493953704834,-9.612099647521973,-5.144350051879883
1698079816773619000,11.831618896484375,9.142123222351074,-9.401337623596191,-3.299685001373291
1698079816783037700,11.84103759765625,9.335260391235352,-9.019753456115723,-2.0793728828430176
1698079816792456400,11.85045654296875,8.826400756835938,-8.606954574584961,-1.3605899810791016
1698079816801875200,11.859875244140625,9.232949256896973,-7.714850902557373,-0.7240840196609497
1698079816811294200,11.869294189453125,10.5536527633667,-6.601160049438477,-0.013418000191450119
1698079816820712700,11.878712646484376,10.42599105834961,-5.157887935638428,1.6417109966278076
1698079816830131700,11.888131591796874,8.911965370178223,-3.7151029109954834,1.9930189847946167
1698079816839550500,11.897550537109375,6.7042012214660645,-1.669785976409912,2.759084939956665
1698079816848969500,11.906969482421875,2.351728916168213,0.527642011642456,3.4410529136657715
1698079816858388500,11.916388427734375,-2.3341140747070312,1.8110589981079102,3.28302001953125
1698079816867807200,11.92580712890625,-4.958631992340088,2.6524879932403564,2.3785789012908936
1698079816877226000,11.93522607421875,-4.904767036437988,3.150022029876709,1.0609400272369385
1698079816886644700,11.944644775390625,-3.090604066848755,2.874171018600464,0.7193629741668701
1698079816896063700,11.954063720703125,-0.8985530138015747,2.794502019882202,0.34929099678993225
1698079816905482500,11.963482421875,0.5709099769592285,2.732908010482788,-0.46367400884628296
1698079816914901000,11.97290087890625,1.6922730207443237,3.3316099643707275,-1.7762290239334106
1698079816924320300,11.9823203125,2.6804399490356445,3.697943925857544,-2.2865190505981445
1698079816933739000,11.991739013671875,3.527493953704834,3.999821901321411,-2.900546073913574
1698079816943158000,12.001157958984376,4.591641902923584,3.940052032470703,-2.7716588973999023
1698079816952576800,12.01057666015625,5.137563228607178,3.6812050342559814,-2.5305070877075195
1698079816961995500,12.01999560546875,4.966691970825195,3.153256893157959,-2.428370952606201
1698079816971414500,12.02941455078125,4.005803108215332,2.1505160331726074,-2.7279911041259766
