time,seconds_elapsed,z,y,x
1701881328135562800,0.167562744140625,6.7779693603515625,6.141777515411377,0.5300102233886719
1701881328145156000,0.177156005859375,6.6484575271606445,6.010172367095947,0.6783652305603027
1701881328154748200,0.186748046875,6.809075832366943,6.024528980255127,0.7716853022575378
1701881328164339700,0.196339599609375,7.0770721435546875,6.2159552574157715,1.054038405418396
1701881328173932300,0.205932373046875,7.264011383056641,6.484250068664551,1.5927225351333618
1701881328183525400,0.215525390625,7.64447021484375,6.227919101715088,2.090728759765625
1701881328193117700,0.22511767578125,7.58943510055542,5.991029739379883,2.5624139308929443
1701881328202709500,0.23470947265625,7.548757076263428,5.935994625091553,2.53609299659729
1701881328212301600,0.244301513671875,7.357331275939941,5.959922790527344,2.0787646770477295
1701881328221894700,0.253894775390625,7.223034381866455,6.024528980255127,1.5185450315475464
1701881328231487000,0.263487060546875,7.206284523010254,6.156134605407715,1.0612168312072754
1701881328241078500,0.27307861328125,7.141678333282471,6.39093017578125,0.8865407705307007
1701881328250670800,0.2826708984375,6.8880391120910645,6.472286224365234,0.9128618240356445
1701881328260264000,0.292263916015625,6.612565517425537,6.338288307189941,1.073180913925171
1701881328269856300,0.301856201171875,6.909574508666992,6.424429893493652,0.745364248752594
1701881328279447800,0.31144775390625,6.483353137969971,7.125825881958008,0.0487537607550621
1701881328289040100,0.3210400390625,5.413163185119629,7.216753005981445,0.08225327730178833
1701881328298633200,0.33063330078125,4.814658164978027,6.872186660766602,0.8913264274597168
1701881328308225500,0.3402255859375,4.65433931350708,6.682854652404785,1.5089738368988037
1701881328317817000,0.349817138671875,4.977370262145996,6.716353893280029,2.6102705001831055
1701881328327409400,0.359409423828125,5.523232936859131,6.565606117248535,3.355036497116089
1701881328337002500,0.36900244140625,5.453841209411621,6.512964248657227,2.0476579666137695
1701881328346594800,0.3785947265625,5.585745334625244,6.8264241218566895,1.9710876941680908
1701881328356186400,0.388186279296875,5.767600059509277,7.063612461090088,1.8921245336532593
1701881328365778700,0.39777880859375,5.729314804077148,6.896114826202393,2.131406784057617
1701881328375371800,0.407371826171875,5.8944196701049805,6.742675304412842,2.246561288833618
1701881328384964000,0.416964111328125,6.457031726837158,6.797709941864014,2.0476579666137695
1701881328394555600,0.4265556640625,7.069893836975098,6.6708903312683105,2.0165512561798096
1701881328404148000,0.43614794921875,7.5080790519714355,6.594320297241211,1.8490537405014038
1701881328413741000,0.445740966796875,7.596613883972168,6.539285182952881,1.449153184890747
1701881328423333400,0.45533349609375,7.58943510055542,6.374180316925049,1.2337992191314697
1701881328432925000,0.464925048828125,7.639684677124023,6.129813194274902,1.4347963333129883
1701881328442517200,0.474517333984375,7.646862983703613,5.986244201660156,1.6576279401779175
1701881328452110600,0.484110595703125,7.555935859680176,5.840281963348389,1.9016958475112915
1701881328461702700,0.49370263671875,7.2349982261657715,5.792425632476807,2.638984203338623
1701881328471294200,0.503294189453125,6.821040153503418,5.8713884353637695,3.4555349349975586
1701881328480886500,0.512886474609375,7.065107822418213,6.08195686340332,3.5895330905914307
1701881328490479900,0.52247998046875,7.680362701416016,6.266204357147217,3.630211114883423
1701881328500072000,0.532072021484375,7.694719314575195,6.0747785568237305,3.790530204772949
1701881328509663500,0.54166357421875,7.742575645446777,5.8953166007995605,3.6445679664611816
1701881328519256000,0.551256103515625,8.15683364868164,5.900102615356445,3.211168050765991
1701881328528849000,0.560848876953125,8.504091262817383,5.904888153076172,2.8689942359924316
1701881328538441200,0.570441162109375,8.544769287109375,5.914459228515625,2.7804598808288574
1701881328548032800,0.58003271484375,8.47298526763916,5.943173408508301,2.9144580364227295
1701881328557625300,0.589625244140625,8.47298526763916,5.998208045959473,3.012563705444336
1701881328567218200,0.59921826171875,8.437092781066895,6.029314994812012,3.06999135017395
1701881328576810500,0.608810546875,8.259724617004395,6.031707763671875,3.0963125228881836
1701881328586402000,0.618402099609375,7.939086437225342,6.0747785568237305,3.10109806060791
1701881328595994400,0.627994384765625,7.536793231964111,6.182455539703369,3.0628130435943604
1701881328605587700,0.637587646484375,7.177570819854736,6.244668960571289,2.9623143672943115
1701881328615179800,0.6471796875,6.900003433227539,6.211169242858887,2.8977081775665283
1701881328624771300,0.656771240234375,6.602993965148926,6.156134605407715,2.9168508052825928
1701881328634363600,0.66636376953125,6.394818305969238,6.189633846282959,2.854637384414673
1701881328643957000,0.67595703125,6.356533527374268,6.2327046394348145,2.806781053543091
1701881328653549000,0.685549072265625,6.406782627105713,6.237490653991699,2.794816732406616
1701881328663140600,0.695140625,6.595815658569336,6.247061729431152,2.785245656967163
1701881328672733200,0.704733154296875,6.8258256912231445,6.273382663726807,2.7370901107788086
1701881328682326300,0.714326171875,7.194320201873779,6.249454498291016,2.6653053760528564
1701881328691918300,0.72391845703125,7.658827304840088,6.14417028427124,2.741875648498535
1701881328701510000,0.733510009765625,8.006085395812988,5.993422508239746,2.9383862018585205
1701881328711102500,0.7431025390625,8.28126049041748,5.907280921936035,3.177668571472168
1701881328720695300,0.7526953125,8.482556343078613,5.890531063079834,3.3358938694000244
1701881328730287600,0.76228759765625,8.506484031677246,5.885745525360107,3.4244282245635986
1701881328739879200,0.771879150390625,8.583054542541504,5.684449195861816,3.3020951747894287
1701881328749471500,0.781471435546875,7.917551040649414,5.907280921936035,3.491427421569824
1701881328759064800,0.79106494140625,7.584649562835693,6.455536365509033,3.680460214614868
1701881328768657000,0.800656982421875,7.376473903656006,6.2327046394348145,3.355036497116089
1701881328778248400,0.81024853515625,6.995716094970703,5.916851997375488,3.263810157775879
1701881328787840800,0.8198408203125,6.710970401763916,5.967101573944092,3.1896326541900635
1701881328797434000,0.82943408203125,6.67717170715332,6.086742401123047,2.902493953704834
1701881328807026200,0.839026123046875,6.859325408935547,6.08195686340332,2.7804598808288574
1701881328816617700,0.84861767578125,6.957430839538574,6.038886070251465,2.806781053543091
1701881328826210300,0.858210205078125,7.060322284698486,6.010172367095947,2.8833513259887695
1701881328835803400,0.867803466796875,7.136892795562744,5.974279880523682,3.0484559535980225
1701881328845395500,0.8773955078125,6.93828821182251,5.955137252807617,3.13220477104187
1701881328854987000,0.886987060546875,7.002894401550293,5.883352756500244,3.184846878051758
1701881328864579600,0.89657958984375,7.251748085021973,5.79481840133667,3.122633457183838
1701881328874172700,0.906172607421875,7.072286605834961,5.754140377044678,3.2039895057678223
1701881328883764700,0.9157646484375,7.11775016784668,5.737390518188477,3.029313564300537
1701881328893356300,0.925356201171875,7.275975227355957,5.725127220153809,2.8594231605529785
1701881328902948900,0.934948974609375,7.371688365936279,5.732305526733398,2.6724836826324463
1701881328912542000,0.9445419921875,7.500900745391846,5.756533145904541,2.44277286529541
1701881328922134000,0.954134033203125,7.699504852294922,5.717948913574219,2.3590240478515625
1701881328931725600,0.9637255859375,7.931908130645752,5.710770130157471,2.3901307582855225
1701881328941318000,0.97331787109375,8.185546875,5.763711452484131,2.3973093032836914
1701881328950911200,0.9829111328125,8.353044509887695,5.787639617919922,2.4786651134490967
1701881328960503300,0.99250341796875,8.250153541564941,5.830710411071777,2.57437801361084
1701881328970094800,1.0020947265625,7.896015644073486,5.876173973083496,2.5648066997528076
1701881328979687200,1.011687255859375,7.555935859680176,5.914459228515625,2.5336999893188477
1701881328989280500,1.021280517578125,7.223034381866455,6.0125651359558105,2.4762723445892334
1701881328998872600,1.03087255859375,6.971787929534912,6.113063812255859,2.356631278991699
1701881329008464100,1.040464111328125,6.904788970947266,6.101099491119385,2.2896320819854736
1701881329018056700,1.050056640625,7.031608581542969,6.053243160247803,2.2704896926879883
1701881329027649800,1.05964990234375,7.273582458496094,6.005386829376221,2.3255245685577393
1701881329037242000,1.0692421875,7.618149280548096,5.928816318511963,2.5097718238830566
1701881329046833400,1.07883349609375,7.915158271789551,5.912066459655762,2.830709218978882
1701881329056426000,1.088426025390625,8.056334495544434,5.9407806396484375,3.0173492431640625
1701881329066019000,1.09801904296875,7.989335536956787,5.979065418243408,3.115455150604248
1701881329075611100,1.107611083984375,7.8433732986450195,6.005386829376221,3.077169895172119
1701881329085203000,1.117202880859375,7.591827869415283,6.002993583679199,2.933600664138794
1701881329094795000,1.126794921875,7.4506516456604,5.947958946228027,2.739482879638672
1701881329104388400,1.136388427734375,7.342974662780762,5.8713884353637695,2.526521682739258
1701881329113980400,1.14598046875,7.309474945068359,5.818746566772461,2.3829522132873535
1701881329123572000,1.155572021484375,7.328617572784424,5.778068542480469,2.41166615486145
1701881329133164300,1.165164306640625,7.426723480224609,5.768496990203857,2.6485555171966553
1701881329142757600,1.174757568359375,7.467401027679443,5.773283004760742,2.840280532836914
1701881329152349700,1.184349609375,7.405188083648682,5.792425632476807,2.8977081775665283
1701881329161941200,1.193941162109375,7.239784240722656,5.806782245635986,2.8737800121307373
1701881329171533600,1.203533447265625,7.127321243286133,5.7756757736206055,2.794816732406616
1701881329181127000,1.213126953125,7.081857681274414,5.713163375854492,2.701197624206543
1701881329190719000,1.222718994140625,7.151249408721924,5.648557186126709,2.749054193496704
1701881329200310500,1.232310546875,7.342974662780762,5.612664699554443,2.909672260284424
1701881329209902800,1.24190283203125,7.500900745391846,5.540879726409912,3.0484559535980225
1701881329219496200,1.25149609375,7.615756034851074,5.514558792114258,3.0173492431640625
1701881329229088500,1.261088623046875,7.618149280548096,5.524130344390869,2.964707374572754
1701881329238679800,1.2706796875,7.481758117675781,5.550451278686523,2.943171739578247
1701881329248272400,1.2802724609375,7.323832035064697,5.526523113250732,2.8929226398468018
1701881329257865500,1.289865478515625,7.206284523010254,5.473880767822266,2.854637384414673
1701881329267457500,1.29945751953125,7.227819919586182,5.428417205810547,2.9551360607147217
1701881329277049000,1.309049072265625,7.3262248039245605,5.445167064666748,3.2542388439178467
1701881329286641700,1.3186416015625,7.4123663902282715,5.481059551239014,3.5512478351593018
1701881329296234800,1.32823486328125,7.405188083648682,5.538486957550049,3.7857444286346436
1701881329305826800,1.337826904296875,7.311867713928223,5.61745023727417,3.883850336074829
1701881329315418600,1.347418701171875,7.146463871002197,5.6533427238464355,3.883850336074829
1701881329325010700,1.3570107421875,6.998108863830566,5.667699337005615,3.883850336074829
1701881329334604000,1.36660400390625,7.00050163269043,5.677270889282227,3.9008991718292236
1701881329344196000,1.376196044921875,7.165606498718262,5.586343765258789,4.063611030578613
1701881329353787600,1.38578759765625,7.316653251647949,5.509773254394531,4.219144344329834
1701881329363380000,1.3953798828125,7.359724044799805,5.452345371246338,4.161716938018799
1701881329372973300,1.404973388671875,7.369295597076416,5.387739181518555,4.06839656829834
1701881329382565400,1.4145654296875,7.335795879364014,5.3542399406433105,3.934398651123047
1701881329392157000,1.424156982421875,7.374081134796143,5.332704544067383,3.8479578495025635
1701881329401749200,1.433749267578125,7.517650604248047,5.301597595214844,3.8001015186309814
1701881329411342600,1.443342529296875,7.692326545715332,5.263312339782715,3.819244146347046
1701881329420934700,1.4529345703125,7.89123010635376,5.193920612335205,3.912863254547119
1701881329430526200,1.462526123046875,8.020442008972168,5.119443893432617,3.9463627338409424
1701881329440118500,1.472118408203125,8.041977882385254,5.088337421417236,3.99900484085083
1701881329449711900,1.4817119140625,7.958229064941406,5.0907301902771,3.9487555027008057
1701881329459304000,1.491303955078125,7.824231147766113,5.126622676849365,3.8455650806427
1701881329468895500,1.5008955078125,7.670791149139404,5.164907455444336,3.7307095527648926
1701881329478487800,1.51048779296875,7.587042331695557,5.191527843475342,3.601497173309326
1701881329488081200,1.5200810546875,7.6253275871276855,5.193920612335205,3.4603207111358643
1701881329497673200,1.529673095703125,7.788039684295654,5.136193752288818,3.22552490234375
1701881329507264800,1.5392646484375,7.95344352722168,5.073980331420898,3.1250264644622803
1701881329516857300,1.548857421875,8.223832130432129,5.138586521148682,2.847458839416504
1701881329526450400,1.558450439453125,8.539983749389648,5.109872817993164,2.435594320297241
1701881329536042500,1.56804248046875,9.052347183227539,4.920839786529541,2.1409780979156494
1701881329545634000,1.577634033203125,9.502496719360352,4.64805793762207,1.7868403196334839
1701881329555226600,1.5872265625,9.799206733703613,4.341477394104004,1.547258973121643
1701881329564819700,1.59681982421875,10.009775161743164,3.965505361557007,1.5999010801315308
1701881329574411800,1.606411865234375,10.168001174926758,3.494119167327881,1.810768485069275
1701881329584003300,1.61600341796875,10.141679763793945,3.0702905654907227,2.394916296005249
1701881329593596000,1.625595947265625,9.54078197479248,2.6967110633850098,2.8187451362609863
1701881329603188700,1.635188720703125,8.738588333129883,2.390429735183716,2.7972097396850586
1701881329612781000,1.644781005859375,7.996514320373535,2.150848388671875,2.6653053760528564
1701881329622372600,1.65437255859375,7.264011383056641,1.8756738901138306,2.394916296005249
1701881329631965200,1.663965087890625,6.480959892272949,1.430309772491455,1.9615163803100586
1701881329641558000,1.67355810546875,5.868098258972168,0.8174480199813843,1.7437695264816284
1701881329651150300,1.683150390625,5.338985443115234,0.0894317477941513,2.4547369480133057
1701881329660742000,1.692741943359375,4.644767761230469,-0.6598208546638489,3.1657042503356934
1701881329670334200,1.702334228515625,4.06540584564209,-1.3229317665100098,3.9008991718292236
1701881329679927600,1.711927490234375,3.9840497970581055,-1.9142581224441528,4.640580177307129
1701881329689519600,1.72151953125,4.201796531677246,-2.5175485610961914,4.934897422790527
1701881329699111200,1.731111083984375,4.683053016662598,-3.173480987548828,4.932504653930664
1701881329708703500,1.740703369140625,4.704588413238525,-3.961317777633667,5.1290154457092285
1701881329718296800,1.750296875,4.304687976837158,-5.103292465209961,6.15134859085083
1701881329727889000,1.759888916015625,3.636791229248047,-6.151947021484375,7.939684867858887
1701881329737480400,1.76948046875,2.274677038192749,-6.539584159851074,8.933005332946777
1701881329747072800,1.77907275390625,0.6969096064567566,-6.50608491897583,9.364012718200684
1701881329756666000,1.788666015625,-1.1105687618255615,-6.2668023109436035,9.7064847946167
1701881329766258200,1.798258056640625,-3.3658041954040527,-6.022435665130615,9.555737495422363
1701881329775849700,1.807849609375,-5.836692810058594,-5.92432975769043,8.9883394241333
1701881329785442000,1.817442138671875,-8.123034477233887,-5.713761329650879,8.741579055786133
1701881329795035400,1.827035400390625,-9.851550102233887,-5.196612358093262,9.189335823059082
1701881329804627500,1.83662744140625,-11.027024269104004,-4.37318229675293,9.9409818649292
1701881329814219000,1.846218994140625,-11.505887985229492,-3.728914976119995,10.412667274475098
1701881329823811600,1.8558115234375,-11.525030136108398,-3.2575290203094482,10.781460762023926
1701881329833404400,1.865404296875,-11.4652099609375,-3.0275187492370605,11.003993034362793
1701881329842996700,1.874996826171875,-10.998310089111328,-2.8624141216278076,11.308180809020996
1701881329852588300,1.88458837890625,-10.349555969238281,-2.991626501083374,11.274681091308594
1701881329862180900,1.894180908203125,-9.095118522644043,-3.436990737915039,10.829317092895508
1701881329871773700,1.903773681640625,-7.091129779815674,-4.045066833496094,10.431809425354004
1701881329881366000,1.913365966796875,-5.39132833480835,-5.361717224121094,10.932208061218262
1701881329890957600,1.92295751953125,-2.9638099670410156,-6.104090690612793,10.637890815734863
1701881329900550000,1.9325498046875,-0.6559324860572815,-6.482156753540039,10.587343215942383
1701881329910143000,1.94214306640625,0.3735794425010681,-6.6714887619018555,10.563414573669434
1701881329919735300,1.9517353515625,0.005084747914224863,-6.565905570983887,10.628021240234375
1701881329929326800,1.961326904296875,-1.4434702396392822,-6.369693756103516,10.254740715026855
1701881329938919200,1.970919189453125,-3.107379198074341,-6.2189459800720215,8.880363464355469
1701881329948512300,1.98051220703125,-4.642076015472412,-6.3122663497924805,7.084848880767822
1701881329958104600,1.9901044921875,-5.484648704528809,-6.618846416473389,5.914160251617432
1701881329967696100,1.999696044921875,-4.658825874328613,-6.807879447937012,5.241477966308594
1701881329977288400,2.009288330078125,3.4357941150665283,-9.740582466125488,8.990732192993164
1701881329986881500,2.018881591796875,6.921538829803467,-7.75842809677124,6.819245338439941
1701881329996473900,2.028473876953125,1.4629119634628296,-7.571488857269287,6.131906986236572
1701881330006065400,2.0380654296875,-0.7731808423995972,-7.890033721923828,6.977171897888184
1701881330015657700,2.04765771484375,-1.3716856241226196,-7.118946552276611,10.417452812194824
1701881330025250800,2.057250732421875,-2.2046868801116943,-6.285944938659668,12.316157341003418
1701881330034843100,2.066843017578125,-2.9327032566070557,-5.744868278503418,10.199706077575684
1701881330044434700,2.0764345703125,-4.385744571685791,-6.367300987243652,8.552546501159668
1701881330054027000,2.086027099609375,-4.103391647338867,-7.310671329498291,6.5389862060546875
1701881330063620000,2.0956201171875,-2.389233350753784,-8.323433876037598,5.6916279792785645
1701881330073212400,2.10521240234375,1.3815559148788452,-9.14686393737793,5.42572546005249
1701881330082804000,2.114803955078125,5.013561725616455,-9.307182312011719,5.02851676940918
1701881330092396300,2.124396240234375,0.07447660714387894,-7.451848030090332,3.929612874984741
1701881330101989400,2.1339892578125,-5.343472003936768,-6.7193450927734375,3.96789813041687
1701881330111581700,2.143581787109375,-6.413661956787109,-6.8605217933654785,4.750650405883789
1701881330121173200,2.15317333984375,-3.9284164905548096,-7.3298139572143555,5.600700378417969
1701881330130765600,2.162765625,-1.323829174041748,-8.318648338317871,6.182455539703369
1701881330140358700,2.172358642578125,-0.46420758962631226,-9.096614837646484,5.523830890655518
1701881330149951000,2.181950927734375,-0.91914302110672,-9.24018383026123,4.528117656707764
1701881330159542500,2.19154248046875,-0.9263214468955994,-8.668000221252441,3.115455150604248
1701881330169134800,2.201134765625,-0.5527420043945312,-7.497311592102051,2.8977081775665283
1701881330178728000,2.21072802734375,-0.5814558863639832,-6.894021034240723,3.0867412090301514
1701881330188320300,2.2203203125,-2.202294111251831,-6.474977970123291,3.8985064029693604
1701881330197911800,2.229911865234375,-2.7984061241149902,-6.159125328063965,3.1728827953338623
1701881330207504100,2.239504150390625,-1.8481563329696655,-7.126124858856201,1.3151551485061646
1701881330217097200,2.24909716796875,-1.5487544536590576,-8.677571296691895,0.6975077986717224
1701881330226689500,2.258689453125,-1.414756417274475,-10.43958568572998,0.376570463180542
1701881330236281000,2.268281005859375,-0.643968403339386,-10.039984703063965,3.90568470954895
1701881330245873400,2.277873291015625,-0.5359922647476196,-7.430312633514404,4.030111312866211
1701881330255466500,2.287466552734375,-2.669193744659424,-4.899603366851807,2.8187451362609863
1701881330265058800,2.297058837890625,-2.020439624786377,-4.42821741104126,1.4946168661117554
1701881330274650400,2.306650390625,-0.040677983313798904,-4.31306266784668,0.776470959186554
1701881330284242700,2.31624267578125,1.4964114427566528,-4.131208419799805,0.24017956852912903
1701881330293835800,2.325835693359375,1.0247262716293335,-4.047459602355957,0.4459623098373413
1701881330303428000,2.335427978515625,0.44775694608688354,-4.538287162780762,1.1907284259796143
1701881330313019600,2.34501953125,0.4166502356529236,-3.970889091491699,0.5491527915000916
1701881330322612000,2.354612060546875,-3.037987470626831,-4.54546594619751,0.07028916478157043
1701881330332205000,2.364205078125,-7.761419296264648,-5.687440395355225,-0.1788634955883026
1701881330341797400,2.37379736328125,-8.970393180847168,-6.120840549468994,-0.4181457459926605
1701881330351389000,2.383388916015625,-5.166403293609619,-5.706583023071289,-0.4133601188659668
1701881330360981200,2.392981201171875,0.529412031173706,-6.106483459472656,0.18514464795589447
1701881330370574300,2.40257421875,1.2547364234924316,-12.20638656616211,-0.19561325013637543
1701881330380166700,2.412166748046875,-3.305983543395996,-41.060237884521484,-6.413064002990723
1701881330389758200,2.42175830078125,-0.3613162338733673,-59.88248062133789,3.843172311782837
1701881330399350500,2.4313505859375,6.09541654586792,-37.596031188964844,11.568998336791992
1701881330408943600,2.440943603515625,3.2344980239868164,-11.26810073852539,-2.6255247592926025
1701881330418536000,2.450535888671875,-0.9789635539054871,-4.834997177124023,-3.396312713623047
1701881330428127500,2.46012744140625,-3.648456335067749,-6.333801746368408,-0.8036893010139465
1701881330437719800,2.4697197265625,-3.7489547729492188,-9.589835166931152,1.0133603811264038
1701881330447313000,2.47931298828125,-2.2621147632598877,-9.80518913269043,1.9878374338150024
1701881330456905200,2.4889052734375,-1.3046865463256836,-9.120542526245117,1.547258973121643
1701881330466496800,2.498496826171875,-1.0028917789459229,-9.328718185424805,-0.23629122972488403
1701881330476089000,2.508089111328125,-0.5527420043945312,-9.407681465148926,-0.4325026869773865
1701881330485682200,2.51768212890625,-0.6535396575927734,-9.307182312011719,-0.16929219663143158
1701881330495274500,2.5272744140625,-0.7181459069252014,-9.630513191223145,-0.03768695518374443
1701881330504866000,2.536865966796875,-0.5479564070701599,-10.018449783325195,-0.06161518394947052
1701881330514458400,2.546458251953125,-0.550349235534668,-10.130911827087402,-0.09032905846834183
1701881330524051500,2.556051513671875,-0.8617152571678162,-10.262516975402832,0.017647067084908485
1701881330533643800,2.565643798828125,-1.074676513671875,-10.305587768554688,0.1707877218723297
1701881330543235300,2.5752353515625,-1.1129616498947144,-10.327123641967773,0.22103698551654816
1701881330552827600,2.58482763671875,-1.0555338859558105,-10.310373306274414,0.19710876047611237
1701881330562420700,2.594420654296875,-1.6612170934677124,-9.597013473510742,0.09182456880807877
1701881330572013000,2.604012939453125,-1.469791293144226,-9.841081619262695,-0.2793620526790619
1701881330581604600,2.6136044921875,-0.6702894568443298,-8.931509971618652,-1.0046863555908203
1701881330591196700,2.62319677734375,0.2587239444255829,-7.767999649047852,-1.8403797149658203
1701881330600790000,2.6327900390625,0.584446907043457,-8.356932640075684,-1.588834285736084
1701881330610382000,2.642382080078125,-0.004486542660742998,-8.534002304077148,-1.1147562265396118
1701881330619973600,2.6519736328125,-2.5710878372192383,-10.298409461975098,-0.1453639715909958
1701881330629566000,2.66156591796875,-3.0092735290527344,-11.342278480529785,1.8059829473495483
1701881330639159300,2.6711591796875,0.21804596483707428,-10.667202949523926,0.7860422134399414
1701881330648751400,2.68075146484375,-0.2847459018230438,-10.157233238220215,-0.968794047832489
1701881330658343000,2.690343017578125,-1.2855439186096191,-9.551549911499023,-1.0621141195297241
1701881330667935200,2.699935302734375,-1.7572290897369385,-9.553942680358887,-0.24586252868175507
1701881330677528600,2.709528564453125,-1.165902853012085,-9.68076229095459,-0.06161518394947052
1701881330687120600,2.71912060546875,-0.7803592681884766,-9.671191215515137,-0.37507495284080505
1701881330696712200,2.728712158203125,-0.7803592681884766,-9.589835166931152,-0.5569294691085815
1701881330706304500,2.738304443359375,-0.8425726890563965,-9.592227935791016,-0.5545366406440735
1701881330715897900,2.74789794921875,-0.9239286184310913,-9.697511672973633,-0.45643091201782227
1701881330725490000,2.757489990234375,-0.9334999322891235,-9.881759643554688,-0.3248256742954254
1701881330735081500,2.76708154296875,-0.9095717072486877,-10.028020858764648,-0.20997019112110138
1701881330744673800,2.776673828125,-0.8688937425613403,-10.171589851379395,-0.0687936544418335
1701881330754267100,2.78626708984375,-0.7516453862190247,-10.226624488830566,-0.03529413416981697
1701881330763859200,2.795859130859375,-0.6822535395622253,-10.250553131103516,-0.04007977992296219
1701881330773450800,2.80545068359375,-0.7564310431480408,-10.226624488830566,0.020039889961481094
1701881330783043000,2.81504296875,-0.8090731501579285,-10.152447700500488,0.0487537607550621
1701881330792636400,2.824636474609375,-0.8425726890563965,-10.12134075164795,0.012861421331763268
1701881330802228500,2.834228515625,-0.9095717072486877,-10.09023380279541,0.0894317477941513
1701881330811820000,2.843820068359375,-0.8736793398857117,-10.056734085083008,0.1133599728345871
1701881330821412400,2.853412353515625,-0.7755736112594604,-10.059126853942871,0.16839489340782166
1701881330831005400,2.86300537109375,-0.6942176818847656,-10.104591369628906,0.2665006220340729
1701881330840597800,2.87259765625,-0.6559324860572815,-10.116555213928223,0.3119642436504364
1701881330850189300,2.882189208984375,-0.6535396575927734,-10.08305549621582,0.31435707211494446
1701881330859781600,2.89178173828125,-0.6990033388137817,-10.001699447631836,0.3358924686908722
1701881330869374700,2.901374755859375,-0.7205387353897095,-9.91286563873291,0.24017956852912903
1701881330878967000,2.910967041015625,-0.732502818107605,-9.845867156982422,0.1660020649433136
1701881330888558600,2.92055859375,-0.7899305820465088,-9.776474952697754,0.12771691381931305
1701881330898151000,2.93015087890625,-0.8449655175209045,-9.757332801818848,0.08464609831571579
1701881330907744000,2.939743896484375,-0.9047860503196716,-9.752547264099121,0.05832505226135254
1701881330917336300,2.94933642578125,-0.8784649968147278,-9.740582466125488,0.13250255584716797
1701881330926928000,2.958927978515625,-0.8521439433097839,-9.714262008666992,0.1540379524230957
1701881330936520200,2.968520263671875,-0.8234301209449768,-9.704689979553223,0.1779661774635315
1701881330946113300,2.97811328125,-0.734895646572113,-9.738189697265625,0.26889345049858093
1701881330955705600,2.98770556640625,-0.7277171611785889,-9.707083702087402,0.35024940967559814
1701881330965297200,2.997297119140625,-0.7779664397239685,-9.678369522094727,0.3287140130996704
1701881330974889500,3.006889404296875,-0.8497511148452759,-9.637691497802734,0.24257239699363708
1701881330984482600,3.016482666015625,-0.734895646572113,-9.628120422363281,0.23778675496578217
1701881330994075000,3.026074951171875,-0.5359922647476196,-9.659226417541504,0.2665006220340729
1701881331003666400,3.03566650390625,-0.6080760359764099,-9.7669038772583,0.09182456880807877
1701881331013258800,3.0452587890625,-0.6056832075119019,-9.865009307861328,-0.04247260093688965
1701881331022851800,3.054851806640625,-0.5647061467170715,-9.987342834472656,-0.1860419660806656
1701881331032444200,3.064444091796875,-0.5144568681716919,-10.128519058227539,-0.38225340843200684
1701881331042035700,3.07403564453125,-0.38763725757598877,-10.252945899963379,-0.5042873620986938
1701881331051628000,3.0836279296875,-0.38763725757598877,-10.372587203979492,-0.6840481758117676
1701881331061221000,3.09322119140625,-0.39960137009620667,-10.427621841430664,-0.7749754190444946
1701881331070813400,3.1028134765625,-0.40677985548973083,-10.475478172302246,-0.8659027218818665
1701881331080405000,3.112405029296875,-0.4163511395454407,-10.518548965454102,-0.9352945685386658
1701881331089997300,3.121997314453125,-0.44027936458587646,-10.557133674621582,-0.9927222728729248
1701881331099590400,3.13159033203125,-0.4163511395454407,-10.571490287780762,-1.0118649005889893
1701881331109182700,3.1411826171875,-0.35892340540885925,-10.576275825500488,-1.0094720125198364
1701881331118774300,3.150774169921875,-0.27756741642951965,-10.581061363220215,-0.9831510186195374
1701881331128366600,3.16036669921875,-0.20817556977272034,-10.576275825500488,-0.9903294444084167
1701881331137959700,3.169959716796875,-0.16271193325519562,-10.530513763427734,-0.9592227935791016
1701881331147552000,3.179552001953125,-0.09571290761232376,-10.480263710021973,-0.9376873970031738
1701881331157143600,3.1891435546875,-0.018843477591872215,-10.420443534851074,-0.9233304262161255
1701881331166736000,3.19873583984375,0.01704886183142662,-10.334301948547363,-0.877866804599762
1701881331176329000,3.208328857421875,0.08644071966409683,-10.248160362243652,-0.8324031829833984
1701881331185921300,3.21792138671875,0.15583257377147675,-10.116555213928223,-0.791725218296051
1701881331195512800,3.227512939453125,0.19651055335998535,-9.967901229858398,-0.7534400224685669
1701881331205105200,3.237105224609375,0.1821536272764206,-9.829116821289062,-0.7055835723876953
1701881331214698200,3.2466982421875,0.18454644083976746,-9.716654777526855,-0.6816553473472595
1701881331224290600,3.25629052734375,0.16301104426383972,-9.616155624389648,-0.6744768619537354
1701881331233882000,3.265882080078125,0.12711870670318604,-9.57787036895752,-0.6625127792358398
1701881331243474400,3.275474365234375,0.09601201117038727,-9.565906524658203,-0.6170491576194763
1701881331253067500,3.285067626953125,0.07208377867937088,-9.575477600097656,-0.5186443328857422
1701881331262659800,3.294659912109375,0.009870393201708794,-9.606584548950195,-0.4085744619369507
1701881331272251100,3.304251220703125,-0.040677983313798904,-9.644869804382324,-0.27696922421455383
1701881331281843700,3.31384375,-0.07178468257188797,-9.714262008666992,-0.16689938306808472
1701881331291436800,3.323436767578125,-0.08853443711996078,-9.795618057250977,-0.07597211748361588
1701881331301028900,3.33302880859375,-0.1052841991186142,-9.876974105834961,-0.011066804639995098
1701881331310620400,3.342620361328125,-0.11485548317432404,-9.958329200744629,0.022432712838053703
1701881331320212700,3.352212646484375,-0.10767702013254166,-10.028020858764648,0.022432712838053703
1701881331329806000,3.36180615234375,-0.11964113265275955,-10.078269958496094,0.03918246924877167
1701881331339398100,3.371398193359375,-0.12681959569454193,-10.095019340515137,0.05832505226135254
1701881331348989700,3.38098974609375,-0.13878370821475983,-10.12134075164795,0.08225327730178833
1701881331358582000,3.39058203125,-0.16510476171970367,-10.11416244506836,0.1133599728345871
1701881331368175400,3.40017529296875,-0.16749759018421173,-10.095019340515137,0.12771691381931305
1701881331377767400,3.409767333984375,-0.19381862878799438,-10.080662727355957,0.09900303930044174
1701881331387359000,3.41935888671875,-0.2153540402650833,-10.078269958496094,0.043968115001916885
1701881331396951300,3.428951416015625,-0.24167509377002716,-10.095019340515137,-0.027816563844680786
1701881331406544600,3.438544677734375,-0.28235307335853577,-10.099804878234863,-0.11665010452270508
1701881331416136700,3.44813671875,-0.31345975399017334,-10.102197647094727,-0.21954147517681122
1701881331425728300,3.457728271484375,-0.380458801984787,-10.092626571655273,-0.32243284583091736
1701881331435320600,3.467320556640625,-0.4211367964744568,-10.07587718963623,-0.4085744619369507
1701881331444913700,3.47691357421875,-0.47617170214653015,-10.047163009643555,-0.46360939741134644
1701881331454506000,3.486506103515625,-0.5048855543136597,-10.013663291931152,-0.5258227586746216
1701881331464097500,3.49609765625,-0.5312066078186035,-9.987342834472656,-0.5234299302101135
1701881331473689900,3.50568994140625,-0.5647061467170715,-9.984950065612793,-0.5353940725326538
1701881331483283000,3.515282958984375,-0.6176473498344421,-10.016056060791016,-0.5688936114311218
1701881331492875300,3.524875244140625,-0.6894320249557495,-10.109376907348633,-0.6002993583679199
1701881331502466800,3.534466796875,-0.7253243923187256,-10.212267875671387,-0.6337988972663879
1701881331512059100,3.54405908203125,-0.768395185470581,-10.272088050842285,-0.669691264629364
1701881331521652200,3.55365234375,-0.7899305820465088,-10.312766075134277,-0.6816553473472595
1701881331531244500,3.56324462890625,-0.6655037999153137,-10.30798053741455,-0.6218347549438477
1701881331540836000,3.572836181640625,-0.8377870321273804,-10.2385892868042,-0.5955137610435486
1701881331550428400,3.582428466796875,-0.7085745930671692,-10.274481773376465,-0.48035913705825806
1701881331560021500,3.592021484375,-0.8066803216934204,-10.312766075134277,-0.5688936114311218
1701881331569613800,3.60161376953125,-1.0483554601669312,-10.257731437683105,-0.7438687682151794
1701881331579205400,3.611205322265625,-0.7205387353897095,-10.178768157958984,-0.6194419860839844
1701881331588797700,3.620797607421875,-0.7181459069252014,-10.080662727355957,-0.4325026869773865
1701881331598390800,3.630390869140625,-0.8449655175209045,-10.016056060791016,-0.4492524564266205
1701881331607983000,3.639983154296875,-0.8306085467338562,-9.915258407592773,-0.49232324957847595
1701881331617574700,3.64957470703125,-0.7707880139350891,-9.77408218383789,-0.38703906536102295
1701881331627167000,3.6591669921875,-0.6008976101875305,-9.697511672973633,-0.19561325013637543
1701881331636760000,3.668760009765625,-0.30149564146995544,-9.764511108398438,-0.030209386721253395
1701881331646352400,3.678352294921875,0.01944168470799923,-9.81954574584961,0.05593222752213478
1701881331655944000,3.68794384765625,0.057726845145225525,-9.81954574584961,0.20428723096847534
1701881331665536300,3.697536376953125,-0.12681959569454193,-9.821938514709473,0.2928216755390167
1701881331675129300,3.70712939453125,-0.22492532432079315,-9.836296081542969,0.23300109803676605
1701881331684721700,3.7167216796875,-0.2392822653055191,-9.833903312683105,0.2186441719532013
1701881331694313200,3.726313232421875,-0.31106695532798767,-9.79083251953125,0.254536509513855
1701881331703905500,3.735905517578125,-0.3397808074951172,-9.699904441833496,0.1420738399028778
1701881331713498600,3.74549853515625,-0.32542386651039124,-9.647262573242188,-0.04486542567610741
1701881331723091000,3.755091064453125,-0.3517449200153351,-9.64965534210205,-0.12861421704292297
1701881331732682500,3.7646826171875,-0.39960137009620667,-9.723833084106445,-0.13100704550743103
1701881331742274800,3.77427490234375,-0.4618147611618042,-9.807581901550293,-0.12143574655056
1701881331751868000,3.783867919921875,-0.5647061467170715,-9.876974105834961,-0.16450655460357666
1701881331761460200,3.793460205078125,-0.7301099896430969,-9.924830436706543,-0.20039889216423035
1701881331771051800,3.8030517578125,-0.8473583459854126,-9.920044898986816,-0.23389841616153717
1701881331780643800,3.812643798828125,-0.8808578252792358,-9.92961597442627,-0.22911277413368225
1701881331790237200,3.8222373046875,-0.797109067440033,-9.953543663024902,-0.16929219663143158
1701881331799829500,3.83182958984375,-0.6631109714508057,-10.006484985351562,-0.11665010452270508
1701881331809421000,3.841421142578125,-0.5407779216766357,-10.116555213928223,-0.07597211748361588
1701881331819013000,3.85101318359375,-0.4331009089946747,-10.219446182250977,-0.05922235921025276
1701881331828606500,3.8606064453125,-0.3756731450557709,-10.300802230834961,-0.09990034252405167
1701881331838198500,3.870198486328125,-0.3732803463935852,-10.31755256652832,-0.18364913761615753
1701881331847790000,3.8797900390625,-0.39481574296951294,-10.257731437683105,-0.24825534224510193
1701881331857382700,3.889382568359375,-0.3756731450557709,-10.197911262512207,-0.3080759048461914
1701881331866975700,3.898975830078125,-0.38285163044929504,-10.099804878234863,-0.372682124376297
1701881331876567800,3.90856787109375,-0.363709032535553,-10.044770240783691,-0.43968117237091064
1701881331886159400,3.918159423828125,-0.37088751792907715,-10.001699447631836,-0.4995017349720001
1701881331895751700,3.927751708984375,-0.4043870270252228,-9.98973560333252,-0.5353940725326538
1701881331905345000,3.937344970703125,-0.4785645306110382,-9.975079536437988,-0.5282155871391296
1701881331914937000,3.94693701171875,-0.5647061467170715,-9.955936431884766,-0.4995017349720001
1701881331924528600,3.956528564453125,-0.6272186636924744,-9.934401512145996,-0.4372883439064026
1701881331934121000,3.966120849609375,-0.6846463680267334,-9.900901794433594,-0.389431893825531
1701881331943714000,3.975714111328125,-0.6415755748748779,-9.857831001281738,-0.35832518339157104
1701881331953306400,3.985306396484375,-0.5527420043945312,-9.831509590148926,-0.39182472229003906
1701881331962898000,3.99489794921875,-0.4211367964744568,-9.817152976989746,-0.4061816334724426
1701881331972490200,4.004490234375,-0.30149564146995544,-9.81954574584961,-0.43489551544189453
1701881331982083300,4.014083251953125,-0.20817556977272034,-9.81954574584961,-0.4420739710330963
1701881331991675600,4.023675537109375,-0.21296121180057526,-9.838688850402832,-0.4731806814670563
1701881332001267200,4.03326708984375,-0.2632105052471161,-9.855438232421875,-0.5234299302101135
1701881332010859500,4.042859619140625,-0.30149564146995544,-9.888937950134277,-0.5880361795425415
1701881332020452600,4.05245263671875,-0.3565305769443512,-9.908080101013184,-0.605085015296936
1701881332030045000,4.062044921875,-0.40677985548973083,-9.941579818725586,-0.6457630395889282
1701881332039636500,4.071636474609375,-0.43549370765686035,-9.941579818725586,-0.6792625188827515
1701881332049228800,4.081228759765625,-0.4426721930503845,-9.977771759033203,-0.6601199507713318
1701881332058822000,4.09082177734375,-0.4666004180908203,-10.016056060791016,-0.6314060688018799
1701881332068414200,4.100414306640625,-0.4546363055706024,-10.073484420776367,-0.5688936114311218
1701881332078005800,4.110005859375,-0.40677985548973083,-10.099804878234863,-0.5353940725326538
1701881332087598000,4.11959814453125,-0.33738797903060913,-10.109376907348633,-0.5569294691085815
1701881332097191200,4.129191162109375,-0.3086741268634796,-10.10698413848877,-0.5856433510780334
1701881332106783500,4.138783447265625,-0.2632105052471161,-10.09023380279541,-0.49710890650749207
1701881332116375000,4.148375,-0.19381862878799438,-10.059126853942871,-0.4707878530025482
1701881332125967400,4.15796728515625,-0.1579262912273407,-9.999306678771973,-0.4875376224517822
1701881332135560400,4.167560546875,-0.1746760457754135,-10.006484985351562,-0.48514479398727417
1701881332145152800,4.17715283203125,-0.22971096634864807,-10.016056060791016,-0.48514479398727417
1701881332154744300,4.186744384765625,-0.31106695532798767,-10.037591934204102,-0.5042873620986938
1701881332164336600,4.196336669921875,-0.3397808074951172,-10.030413627624512,-0.6098706722259521
1701881332173929700,4.2059296875,-0.40677985548973083,-9.975079536437988,-0.7223333120346069
1701881332183522000,4.21552197265625,-0.5072783827781677,-9.953543663024902,-0.7295117974281311
1701881332193113600,4.225113525390625,-0.5575276613235474,-9.881759643554688,-0.7103692293167114
1701881332202705700,4.23470556640625,-0.5575276613235474,-9.81954574584961,-0.669691264629364
1701881332212299000,4.244299072265625,-0.5240281820297241,-9.726225852966309,-0.6242275834083557
1701881332221891300,4.253891357421875,-0.4905286431312561,-9.68076229095459,-0.5306084156036377
1701881332231483000,4.26348291015625,-0.5312066078186035,-9.54197883605957,-0.5377869009971619
1701881332241075000,4.273074951171875,-0.5647061467170715,-9.513264656066895,-0.42293140292167664
1701881332250668300,4.282668212890625,-0.7061817646026611,-9.506086349487305,-0.32243284583091736
1701881332260260400,4.29226025390625,-0.8186444640159607,-9.558728218078613,-0.25064817070961
1701881332269852000,4.301851806640625,-0.7899305820465088,-9.592227935791016,-0.25304099917411804
1701881332279444500,4.311444580078125,-0.7253243923187256,-9.64965534210205,-0.24586252868175507
1701881332289037600,4.32103759765625,-0.7061817646026611,-9.692726135253906,-0.24107688665390015
1701881332298629600,4.330629638671875,-0.6798607110977173,-9.81954574584961,-0.14057832956314087
1701881332308221200,4.34022119140625,-0.6320042610168457,-9.800403594970703,-0.11425728350877762
1701881332317813800,4.349813720703125,-0.24646073579788208,-9.506086349487305,-0.1740778535604477
1701881332327406800,4.35940673828125,0.13668999075889587,-9.367003440856934,0.05832505226135254
1701881332336999000,4.3689990234375,0.2682952284812927,-9.087042808532715,0.30239295959472656
1701881332346590500,4.378590576171875,0.1462612897157669,-8.866903305053711,0.5730810165405273
1701881332356182800,4.388182861328125,0.02183450572192669,-8.835497856140137,0.6281159520149231
1701881332365776000,4.39777587890625,-0.2392822653055191,-8.560322761535645,0.5009972453117371
1701881332375368200,4.4073681640625,-0.4833501875400543,-8.548358917236328,0.5778666734695435
1701881332384959700,4.416959716796875,-0.6846463680267334,-8.656036376953125,0.534795880317688
1701881332394552000,4.426552001953125,-0.6032904386520386,-8.938688278198242,0.623330295085907
1701881332404145200,4.436145263671875,-0.11485548317432404,-9.055936813354492,0.4746761918067932
1701881332413737500,4.445737548828125,0.4621138870716095,-9.170791625976562,0.2880360186100006
1701881332423329000,4.4553291015625,0.615553617477417,-9.283254623413086,0.24257239699363708
1701881332432921300,4.46492138671875,0.6035895347595215,-9.367003440856934,0.3885345757007599
1701881332442514400,4.474514404296875,0.5748756527900696,-9.26171875,0.3813561201095581
1701881332452106800,4.484106689453125,1.0055837631225586,-9.44626522064209,0.6831508874893188
1701881332461698300,4.4936982421875,1.230808138847351,-9.972686767578125,0.6616154313087463
1701881332471290600,4.50329052734375,1.1422736644744873,-10.150054931640625,0.1707877218723297
1701881332480883700,4.5128837890625,0.6394818425178528,-9.747760772705078,-0.4731806814670563
1701881332490476000,4.52247607421875,0.15583257377147675,-9.508479118347168,-0.47557350993156433
1701881332500067600,4.532067626953125,0.37118661403656006,-9.393324851989746,-0.7390831112861633
1701881332509660000,4.541659912109375,1.108774185180664,-7.478168964385986,-2.120339870452881
1701881332519253000,4.5512529296875,0.9984052777290344,-4.500001907348633,-3.403790235519409
1701881332528845300,4.56084521484375,0.39511483907699585,-5.110470771789551,-3.3245279788970947
1701881332538436900,4.570436767578125,1.529910922050476,-5.73768949508667,-2.7906293869018555
1701881332548029200,4.580029296875,2.2459630966186523,-4.789533615112305,-2.7738797664642334
1701881332557622300,4.589622314453125,-0.349352091550827,-4.9139604568481445,-3.161816120147705
1701881332567214600,4.599214599609375,-2.592623233795166,-7.444669246673584,-2.682952404022217
1701881332576806100,4.60880615234375,-0.5790630578994751,-7.202994346618652,-3.3556346893310547
1701881332586398500,4.6183984375,3.9050865173339844,-3.7695930004119873,-3.576073408126831
1701881332595991600,4.627991455078125,4.472484588623047,-2.436192512512207,-3.154637575149536
1701881332605584000,4.637583984375,0.5437689423561096,-4.325026988983154,-2.1586251258850098
1701881332615175400,4.647175537109375,-0.3852444589138031,-12.233006477355957,2.0787646770477295
1701881332624767500,4.656767578125,4.522733688354492,-17.471195220947266,1.827518343925476
1701881332634360800,4.66636083984375,1.0414760112762451,3.0702905654907227,1.8681962490081787
1701881332643953200,4.675953125,-0.363709032535553,-1.002293586730957,4.233501434326172
1701881332653544700,4.685544677734375,-3.2676985263824463,3.113361358642578,1.6648063659667969
1701881332663136800,4.69513671875,-1.0316057205200195,-5.478965759277344,6.960422039031982
1701881332672730000,4.704730224609375,1.9202401638031006,-13.822439193725586,5.5983076095581055
1701881332682322200,4.714322265625,6.073881149291992,-23.89203453063965,4.877470016479492
1701881332691913700,4.723913818359375,4.922335147857666,-10.34626579284668,-0.9400802254676819
1701881332701506300,4.73350634765625,-1.555932879447937,8.069195747375488,0.8243274092674255
1701881332711099400,4.743099365234375,-3.9595232009887695,-1.296610713005066,1.1715857982635498
1701881332720691500,4.75269140625,-0.349352091550827,-12.034103393554688,-0.7773682475090027
1701881332730283000,4.762282958984375,0.6203392744064331,-14.090734481811523,-1.0070792436599731
1701881332739875300,4.771875244140625,0.7040880918502808,-9.510871887207031,-2.050948143005371
1701881332749468700,4.78146875,-0.5934200286865234,-7.856534004211426,-1.545763373374939
1701881332759060700,4.791060791015625,-2.796013355255127,-2.848057270050049,-1.806880235671997
1701881332768652300,4.80065234375,-3.79681134223938,-1.5840486288070679,1.150050401687622
1701881332778244600,4.81024462890625,-2.21665096282959,-6.8294148445129395,3.591925859451294
1701881332787837700,4.819837646484375,-0.25363919138908386,-11.191530227661133,3.1680972576141357
1701881332797430000,4.829429931640625,-0.5240281820297241,-13.00379467010498,-0.34636107087135315
1701881332807021600,4.839021484375,-1.0698908567428589,-16.10160255432129,-3.5234313011169434
1701881332816614000,4.84861376953125,-1.716252088546753,-13.650156021118164,-4.634299278259277
1701881332826207000,4.85820703125,-2.9087750911712646,-4.751248359680176,-4.320540428161621
1701881332835799300,4.86779931640625,-3.7776687145233154,-14.789737701416016,-3.4779677391052246
1701881332845390800,4.877390869140625,-3.069094181060791,-14.469099044799805,-3.326920747756958
1701881332854983200,4.886983154296875,-2.630908489227295,-12.18245792388916,-2.606382131576538
1701881332864576300,4.896576171875,-0.3565305769443512,-14.897414207458496,-2.6470601558685303
1701881332874168600,4.90616845703125,-0.9861420392990112,-12.975080490112305,-1.1386845111846924
1701881332883760000,4.915760009765625,-1.4003994464874268,-11.330314636230469,0.714257538318634
1701881332893352400,4.9253525390625,-1.8649061918258667,-11.979068756103516,2.3685953617095947
1701881332902945500,4.934945556640625,-3.2365918159484863,-15.562918663024902,3.1178479194641113
1701881332912537900,4.944537841796875,-3.0786654949188232,-11.213066101074219,3.005385160446167
1701881332922129400,4.95412939453125,-4.7952165603637695,-15.316457748413086,4.331607341766357
1701881332931721700,4.9637216796875,-3.820739507675171,-13.932807922363281,5.607879161834717
1701881332941314800,4.973314697265625,-5.977869033813477,-14.397015571594238,5.595914840698242
1701881332950907100,4.9829072265625,-6.490232467651367,-13.781761169433594,5.186442852020264
1701881332960498400,4.99249853515625,-6.368198394775391,-12.534502029418945,5.1290154457092285
1701881332970091000,5.002091064453125,-9.150154113769531,-13.243077278137207,4.37228536605835
1701881332979684000,5.01168408203125,-7.684848785400391,-12.374183654785156,4.1282172203063965
1701881332989276400,5.0212763671875,-12.839287757873535,-12.103495597839355,3.7235312461853027
1701881332998867700,5.03086767578125,-16.471294403076172,-12.35982608795166,4.501796722412109
1701881333008460000,5.0404599609375,-18.252450942993164,-10.805987358093262,4.233501434326172
1701881333018053400,5.050053466796875,-19.66242218017578,-10.573883056640625,3.7354953289031982
1701881333027645400,5.0596455078125,-20.383258819580078,-9.496515274047852,3.8407795429229736
1701881333037237000,5.069237060546875,-19.887645721435547,-6.441478729248047,4.06839656829834
1701881333046829300,5.078829345703125,-22.949562072753906,-8.06231689453125,6.340381622314453
1701881333056422400,5.08842236328125,-14.989239692687988,-2.3668007850646973,5.382654666900635
1701881333066014700,5.0980146484375,-15.918252944946289,-1.5960127115249634,4.717150688171387
1701881333075606300,5.107606201171875,-12.939786911010742,-0.13070793449878693,3.3068809509277344
1701881333085198600,5.117198486328125,-12.066107749938965,1.8349958658218384,1.9902302026748657
1701881333094791700,5.126791748046875,-11.094022750854492,2.6464617252349854,1.181157112121582
1701881333104384000,5.136384033203125,-11.802597999572754,2.6057839393615723,0.7357929348945618
1701881333113975600,5.1459755859375,-11.637493133544922,1.3680963516235352,0.8721838593482971
1701881333123567900,5.15556787109375,-11.443674087524414,-0.02063809521496296,1.566401481628418
1701881333133161000,5.165160888671875,-7.706384658813477,1.051944613456726,-0.7989036440849304
1701881333142753300,5.174753173828125,-6.514160633087158,1.980958104133606,-2.3359930515289307
1701881333152344800,5.1843447265625,-8.575576782226562,1.277169108390808,-1.7231314182281494
1701881333161937200,5.193937255859375,-8.240283012390137,-0.125922292470932,-0.6649056077003479
1701881333171530200,5.2035302734375,-7.943572998046875,-0.7387840151786804,-1.0405787229537964
1701881333181122600,5.21312255859375,-8.194819450378418,-0.4298107624053955,-1.9097715616226196
1701881333190714000,5.222714111328125,-8.774181365966797,-0.20488543808460236,-2.472383975982666
1701881333200306400,5.232306396484375,-7.1988067626953125,-0.19770696759223938,-2.8579275608062744
1701881333209899500,5.2418994140625,-6.346662998199463,1.425524115562439,-4.66779899597168
1701881333219491800,5.251491943359375,-6.882954120635986,2.3856441974639893,-4.859224796295166
1701881333229083400,5.26108349609375,-7.196413993835449,2.8115665912628174,-4.703691005706787
1701881333238675500,5.270675537109375,-7.433602809906006,2.4335005283355713,-3.946960926055908
1701881333248268800,5.280268798828125,-7.866703510284424,1.41834557056427,-3.4923245906829834
1701881333257861000,5.289861083984375,-8.546863555908203,0.50129634141922,-2.941676378250122
1701881333267452700,5.29945263671875,-9.272188186645508,-0.18813568353652954,-2.5800609588623047
1701881333277044700,5.309044677734375,-9.779765129089355,-0.5928218364715576,-2.1634106636047363
1701881333286638000,5.31863818359375,-9.901799201965332,-0.755533754825592,-2.0006988048553467
1701881333296230100,5.328230224609375,-10.225129127502441,-0.4226323068141937,-2.184946060180664
1701881333305821700,5.33782177734375,-10.158130645751953,0.09421738982200623,-2.4436700344085693
1701881333315414300,5.347414306640625,-9.42772102355957,0.7671987414360046,-2.7284159660339355
1701881333325007400,5.35700732421875,-8.87946605682373,1.4925230741500854,-2.7212376594543457
1701881333334599400,5.366599365234375,-8.855537414550781,1.9642082452774048,-2.723630428314209
1701881333344191000,5.37619091796875,-8.738288879394531,2.1867408752441406,-2.675773859024048
1701881333353783300,5.385783203125,-8.67607593536377,2.110170364379883,-2.6350958347320557
1701881333363376600,5.395376708984375,-8.831609725952148,1.6217355728149414,-2.4747767448425293
1701881333372968700,5.40496875,-9.22433090209961,0.7528418302536011,-2.283350944519043
1701881333382560300,5.414560302734375,-9.56650447845459,-0.11395817995071411,-2.2495524883270264
1701881333392152600,5.424152587890625,-9.786943435668945,-0.753140926361084,-2.239981174468994
1701881333401745700,5.43374560546875,-10.019047737121582,-1.1147562265396118,-2.3336002826690674
1701881333411338000,5.443337890625,-9.746265411376953,-1.1530413627624512,-2.568096876144409
1701881333420929500,5.452929443359375,-9.300901412963867,-0.8919246196746826,-2.709273338317871
1701881333430521900,5.46252197265625,-9.262616157531738,-0.5473581552505493,-2.5537400245666504
1701881333440115000,5.472114990234375,-9.504291534423828,-0.30538398027420044,-2.2686948776245117
1701881333449707300,5.481707275390625,-9.693623542785645,-0.21684955060482025,-1.9408782720565796
1701881333459298800,5.491298828125,-9.703194618225098,-0.12831512093544006,-1.6390835046768188
1701881333468891100,5.50089111328125,-9.770194053649902,0.09182456880807877,-1.3950155973434448
1701881333478484200,5.510484130859375,-9.765408515930176,0.0726819857954979,-1.2873386144638062
1701881333488076500,5.52007666015625,-9.655338287353516,-0.13310076296329498,-0.9927222728729248
1701881333497668000,5.529668212890625,-9.162117958068848,0.09182456880807877,-1.2203395366668701
1701881333507260400,5.539260498046875,-9.068798065185547,-0.09960123896598816,-1.057328462600708
1701881333516853500,5.548853515625,-9.006285667419434,-0.23838496208190918,-0.9831510186195374
1701881333526445800,5.55844580078125,-9.308079719543457,-0.4731806814670563,-0.9041878581047058
1701881333536037400,5.568037353515625,-9.554540634155273,-0.7052844762802124,-0.7965108156204224
1701881333545629700,5.577629638671875,-9.698409080505371,-0.8344969153404236,-0.7725825905799866
1701881333555222800,5.587222900390625,-9.801301002502441,-0.8847461938858032,-0.6768696904182434
1701881333564815000,5.596815185546875,-9.7366943359375,-0.8273184299468994,-0.5521438121795654
1701881333574406400,5.606406494140625,-9.741479873657227,-0.7674978375434875,-0.4372883439064026
1701881333583999000,5.6159990234375,-9.573683738708496,-0.8153542876243591,-0.39182472229003906
1701881333593592000,5.625592041015625,-9.45164966583252,-0.8943174481391907,-0.3535395562648773
1701881333603184000,5.63518408203125,-9.343972206115723,-1.033400297164917,-0.33439695835113525
1701881333612775700,5.644775634765625,-9.365508079528809,-1.1697912216186523,-0.243469700217247
1701881333622368000,5.654367919921875,-9.377471923828125,-1.2248260974884033,-0.19322042167186737
1701881333631961000,5.663961181640625,-9.363115310668945,-1.217647671699524,-0.24107688665390015
1701881333641553400,5.673553466796875,-9.468399047851562,-1.119541883468628,-0.2745763957500458
1701881333651145000,5.68314501953125,-9.61226749420166,-1.0357930660247803,-0.25304099917411804
1701881333660737300,5.6927373046875,-9.241081237792969,-0.8727820515632629,-0.267397940158844
1701881333670330400,5.702330322265625,-9.346364974975586,-0.7244270443916321,-0.3367897868156433
1701881333679922700,5.711922607421875,-9.513862609863281,-0.6358926296234131,-0.23629122972488403
1701881333689514200,5.72151416015625,-9.497113227844238,-0.5904290080070496,-0.2793620526790619
1701881333699106600,5.7311064453125,-9.384650230407715,-0.6765705943107605,-0.2721835672855377
1701881333708699600,5.74069970703125,-9.45164966583252,-0.7794619798660278,-0.27696922421455383
1701881333718292000,5.7502919921875,-9.504291534423828,-0.9038887619972229,-0.3008974492549896
1701881333727883500,5.759883544921875,-9.667302131652832,-1.0429716110229492,-0.2267199456691742
1701881333737475800,5.769475830078125,-9.882657051086426,-1.1051849126815796,-0.1621137410402298
1701881333747069000,5.77906884765625,-9.908977508544922,-1.1362916231155396,-0.06640082597732544
1701881333756661200,5.7886611328125,-9.818050384521484,-1.1315059661865234,0.024825535714626312
1701881333766252800,5.798252685546875,-9.662516593933105,-1.095613718032837,0.09900303930044174
1701881333775845000,5.80784521484375,-9.648159980773926,-1.033400297164917,0.16360925137996674
1701881333785438200,5.817438232421875,-9.540184020996094,-1.0908280611038208,0.17557336390018463
1701881333795030500,5.827030517578125,-9.549755096435547,-1.1961122751235962,0.19232311844825745
1701881333804622000,5.8366220703125,-9.571290969848633,-1.313360571861267,0.2186441719532013
1701881333814214400,5.84621435546875,-9.62901782989502,-1.4736796617507935,0.22582264244556427
1701881333823807500,5.855807373046875,-9.681659698486328,-1.5912270545959473,0.2234298139810562
1701881333833399800,5.86539990234375,-9.624231338500977,-1.672582983970642,0.12053844332695007
1701881333842991400,5.874991455078125,-9.581160545349121,-1.6845471858978271,0.0032901312224566936
1701881333852583400,5.88458349609375,-9.559326171875,-1.6103696823120117,-0.13579268753528595
1701881333862176800,5.8941767578125,-9.45164966583252,-1.6223337650299072,-0.20518454909324646
1701881333871769000,5.90376904296875,-9.454042434692383,-1.6606189012527466,-0.17168502509593964
1701881333881360600,5.913360595703125,-9.59791088104248,-1.7060825824737549,-0.10707881301641464
1701881333890952700,5.92295263671875,-9.585947036743164,-1.8376877307891846,-0.0062811593525111675
1701881333900546000,5.932546142578125,-9.595518112182617,-1.947757601737976,0.0487537607550621
1701881333910138000,5.94213818359375,-9.571290969848633,-2.093719720840454,0.11096715182065964
1701881333919729700,5.951729736328125,-9.549755096435547,-2.2663021087646484,0.15643078088760376
1701881333929322000,5.961322021484375,-9.633803367614746,-2.4409782886505127,0.3287140130996704
1701881333938915300,5.970915283203125,-9.688838005065918,-2.271087884902954,0.09661021083593369
1701881333948507400,5.98050732421875,-9.767801284790039,-2.402693033218384,0.31914272904396057
1701881333958099000,5.990098876953125,-9.56889820098877,-2.395514488220215,0.25692933797836304
1701881333967691300,5.999691162109375,-9.494720458984375,-2.318944215774536,0.1899302899837494
1701881333977284400,6.009284423828125,-9.44447135925293,-2.2902302742004395,0.16839489340782166
1701881333986876700,6.018876708984375,-9.370293617248535,-2.2686948776245117,0.1827518343925476
1701881333996468200,6.02846826171875,-9.32722282409668,-2.2686948776245117,0.22582264244556427
1701881334006060500,6.038060546875,-9.34875774383545,-2.2974088191986084,0.271286278963089
1701881334015653600,6.047653564453125,-9.391828536987305,-2.333301067352295,0.3287140130996704
1701881334025246000,6.057245849609375,-9.365508079528809,-2.3356940746307373,0.39092740416526794
1701881334034837500,6.06683740234375,-9.372686386108398,-2.3213369846343994,0.41964125633239746
1701881334044429800,6.076429931640625,-9.396614074707031,-2.333301067352295,0.4292125701904297
1701881334054023000,6.08602294921875,-9.387042999267578,-2.340479612350464,0.3981058597564697
1701881334063615200,6.095615234375,-9.33440113067627,-2.3691935539245605,0.40289151668548584
1701881334073206800,6.105206787109375,-9.442078590393066,-2.3907289505004883,0.40289151668548584
1701881334082799000,6.114799072265625,-9.511469841003418,-2.4170498847961426,0.3813561201095581
1701881334092392200,6.12439208984375,-9.504291534423828,-2.467299222946167,0.5802595019340515
1701881334101984500,6.133984619140625,-9.049654960632324,-2.161017894744873,0.022432712838053703
1701881334111576000,6.143576171875,-9.367900848388672,-2.318944215774536,0.2665006220340729
1701881334121168400,6.15316845703125,-9.324830055236816,-2.3691935539245605,0.3358924686908722
1701881334130761500,6.162761474609375,-9.32722282409668,-2.4625136852264404,0.393320232629776
1701881334140353800,6.172353759765625,-9.28893756866455,-2.507977247238159,0.3646063506603241
1701881334149945300,6.1819453125,-9.308079719543457,-2.529512643814087,0.3981058597564697
1701881334159537700,6.19153759765625,-9.300901412963867,-2.553440809249878,0.4244269132614136
1701881334169130800,6.201130859375,-9.422935485839844,-2.6300110816955566,0.4746761918067932
1701881334178722800,6.210722900390625,-9.145368576049805,-2.709273338317871,0.6520441770553589
1701881334188314400,6.220314453125,-8.987142562866211,-2.476870536804199,0.1540379524230957
1701881334197906700,6.22990673828125,-9.162117958068848,-2.7188446521759033,0.44835513830184937
1701881334207499800,6.239499755859375,-9.10229778289795,-2.788236618041992,0.534795880317688
1701881334217092000,6.249092041015625,-9.059226989746094,-2.826521635055542,0.5611169338226318
1701881334226683600,6.25868359375,-9.037691116333008,-2.7930221557617188,0.5467599630355835
1701881334236276000,6.26827587890625,-9.396614074707031,-2.9700911045074463,0.9152546525001526
1701881334245869000,6.277869140625,-8.881858825683594,-2.65633225440979,0.3981058597564697
1701881334255461400,6.28746142578125,-8.723932266235352,-2.6611177921295166,0.46031925082206726
1701881334265053000,6.297052978515625,-9.20997428894043,-2.7571299076080322,0.6472585201263428
1701881334274645200,6.306645263671875,-9.97836971282959,-3.178266763687134,1.2290135622024536
1701881334284238300,6.31623828125,-8.951250076293945,-2.6443681716918945,0.5826523303985596
1701881334293830700,6.32583056640625,-9.035298347473145,-2.6371896266937256,0.44835513830184937
1701881334303422200,6.335422119140625,-9.05444049835205,-2.826521635055542,0.6161518096923828
1701881334313014500,6.3450146484375,-9.073583602905273,-2.371586322784424,0.27846473455429077
1701881334322607600,6.354607666015625,-10.28016471862793,-2.9629125595092773,1.5329020023345947
1701881334332200000,6.364199951171875,-9.29611587524414,-2.4553351402282715,-0.02063809521496296
1701881334341791500,6.37379150390625,-9.739087104797363,-2.601297378540039,0.9942178130149841
1701881334351383800,6.3833837890625,-9.446864128112793,-2.507977247238159,0.7190431952476501
1701881334360977000,6.392976806640625,-9.561718940734863,-2.7738797664642334,1.169192910194397
1701881334370569200,6.4025693359375,-9.485149383544922,-2.6539394855499268,1.2529417276382446
1701881334380160800,6.412160888671875,-9.329615592956543,-2.6539394855499268,1.4084752798080444
1701881334389753000,6.421753173828125,-9.463613510131836,-2.6108686923980713,1.4371891021728516
1701881334399346200,6.43134619140625,-9.346364974975586,-2.6371896266937256,1.5448660850524902
1701881334408938500,6.4409384765625,-9.236295700073242,-2.771486759185791,1.6791633367538452
1701881334418530000,6.450530029296875,-9.183652877807617,-2.8313074111938477,1.7222341299057007
1701881334428122400,6.460122314453125,-9.126225471496582,-2.9030921459198,1.784447431564331
1701881334437715500,6.469715576171875,-9.032905578613281,-3.032304525375366,1.846660852432251
1701881334447307800,6.479307861328125,-8.996713638305664,-3.2910284996032715,1.9016958475112915
1701881334456899000,6.488899169921875,-9.095118522644043,-3.451347589492798,1.9806588888168335
1701881334466491600,6.49849169921875,-9.01107120513916,-3.458526134490967,1.9639091491699219
1701881334476084700,6.508084716796875,-8.865108489990234,-3.4250264167785645,1.8801604509353638
1701881334485676800,6.5176767578125,-8.764610290527344,-3.4010982513427734,1.8394824266433716
1701881334495268400,6.527268310546875,-8.726325035095215,-3.3699915409088135,1.8131613731384277
1701881334504860700,6.536860595703125,-8.767003059387207,-3.334099292755127,1.7964116334915161
1701881334514453800,6.546453857421875,-8.723932266235352,-3.302992582321167,1.8011972904205322
1701881334524046000,6.556046142578125,-8.532505989074707,-3.3723843097686768,1.8394824266433716
1701881334533637600,6.5656376953125,-8.951250076293945,-3.132802963256836,1.633400559425354
1701881334543230000,6.57522998046875,-8.757431983947754,-3.358027458190918,1.7629120349884033
1701881334552823000,6.584822998046875,-8.841180801391602,-3.3388848304748535,1.7700905799865723
1701881334562415400,6.594415283203125,-8.805288314819336,-3.36759877204895,1.810768485069275
1701881334572007000,6.6040068359375,-8.740681648254395,-3.4178481101989746,1.8059829473495483
1701881334581599200,6.61359912109375,-8.80050277709961,-3.422633647918701,1.815554141998291
1701881334591192300,6.6231923828125,-8.965607643127441,-3.3245279788970947,1.6791633367538452
1701881334600784600,6.63278466796875,-8.956035614013672,-3.4944183826446533,1.7676976919174194
1701881334610376200,6.642376220703125,-9.10229778289795,-3.5207393169403076,1.6863417625427246
1701881334619968500,6.651968505859375,-9.10229778289795,-3.5733814239501953,1.7174484729766846
1701881334629561600,6.6615615234375,-9.056833267211914,-3.5183465480804443,1.6719847917556763
1701881334639154000,6.67115380859375,-8.896215438842773,-3.4896326065063477,1.693520188331604
1701881334648745500,6.680745361328125,-8.982357025146484,-3.341277837753296,1.5879368782043457
1701881334658337800,6.690337890625,-8.922536849975586,-3.3053853511810303,1.6453646421432495
1701881334667931000,6.699930908203125,-8.934500694274902,-3.3628132343292236,1.7270197868347168
1701881334677523200,6.709523193359375,-9.008678436279297,-3.3556346893310547,1.662413477897644
1701881334687114800,6.71911474609375,-8.941679000854492,-3.515953779220581,1.810768485069275
1701881334696707000,6.72870703125,-8.968000411987305,-3.609273910522461,1.8203397989273071
1701881334706300200,6.738300048828125,-8.972785949707031,-3.7097723484039307,1.815554141998291
1701881334715892200,6.747892333984375,-8.910572052001953,-3.728914976119995,1.8083757162094116
1701881334725484000,6.757484130859375,-8.857930183410645,-3.664308786392212,1.7365909814834595
1701881334735076000,6.767076171875,-8.850751876831055,-3.5518460273742676,1.6310077905654907
1701881334744669400,6.77666943359375,-8.874680519104004,-3.420240879058838,1.5640087127685547
1701881334754261500,6.786261474609375,-9.023334503173828,-3.264707326889038,1.394118309020996
1701881334763853000,6.79585302734375,-9.104690551757812,-3.2575290203094482,1.4587244987487793
1701881334773445600,6.805445556640625,-9.08554744720459,-3.319742202758789,1.5544373989105225
1701881334783038700,6.815038818359375,-9.119047164916992,-3.288635730743408,1.5305092334747314
1701881334792630800,6.824630859375,-9.09990406036377,-3.2838499546051025,1.5759727954864502
1701881334802222300,6.834222412109375,-9.030512809753418,-3.286242723464966,1.6600207090377808
1701881334811814700,6.843814697265625,-8.953642845153809,-3.2814571857452393,1.7198412418365479
1701881334821407700,6.85340771484375,-8.89382266998291,-3.228515863418579,1.7270197868347168
1701881334831000000,6.863,-8.87946605682373,-3.197409152984619,1.7629120349884033
1701881334840591600,6.872591552734375,-8.929715156555176,-3.1902308464050293,1.7485551834106445
1701881334850184000,6.882183837890625,-8.905786514282227,-3.2838499546051025,1.827518343925476
1701881334859777000,6.891777099609375,-8.999106407165527,-3.2599217891693115,1.7437695264816284
1701881334869369300,6.901369384765625,-9.047262191772461,-3.36759877204895,1.731805443763733
1701881334878961000,6.9109609375,-8.996713638305664,-3.413062334060669,1.6671991348266602
1701881334888553200,6.92055322265625,-9.015856742858887,-3.4250264167785645,1.5879368782043457
1701881334898146300,6.930146240234375,-9.052047729492188,-3.444169044494629,1.5568302869796753
1701881334907738600,6.939738525390625,-9.05444049835205,-3.4322049617767334,1.4970096349716187
1701881334917330200,6.949330078125,-9.042476654052734,-3.5422747135162354,1.4587244987487793
1701881334926922500,6.958922607421875,-9.090332984924316,-3.5327036380767822,1.38933265209198
1701881334936515600,6.968515625,-9.090332984924316,-3.508775234222412,1.2792627811431885
1701881334946108000,6.97810791015625,-9.056833267211914,-3.563810110092163,1.267298698425293
1701881334955699500,6.987699462890625,-8.999106407165527,-3.5566318035125732,1.2481560707092285
1701881334965291800,6.997291748046875,-8.92492961883545,-3.5183465480804443,1.2385848760604858
1701881334974884900,7.006884765625,-8.912964820861816,-3.4800615310668945,1.2649059295654297
1701881334984477200,7.016477294921875,-8.877073287963867,-3.4489548206329346,1.2792627811431885
1701881334994068500,7.026068359375,-8.853144645690918,-3.391526937484741,1.2768700122833252
1701881335003660800,7.035660888671875,-8.80050277709961,-3.312563896179199,1.2768700122833252
1701881335013254100,7.045254150390625,-8.826823234558105,-3.2934212684631348,1.2864413261413574
1701881335022846200,7.05484619140625,-8.865108489990234,-3.2527432441711426,1.3055838346481323
1701881335032437800,7.064437744140625,-8.90817928314209,-3.2141590118408203,1.3079767227172852
1701881335042030000,7.074030029296875,-8.953642845153809,-3.235694408416748,1.3462618589401245
1701881335051623200,7.083623046875,-8.948857307434082,-3.3053853511810303,1.4347963333129883
1701881335061215500,7.093215576171875,-8.884251594543457,-3.365206003189087,1.4874383211135864
1701881335070807000,7.10280712890625,-9.128618240356445,-3.3221352100372314,1.3821542263031006
1701881335080399400,7.1123994140625,-9.05444049835205,-3.204587697982788,1.3319048881530762
1701881335089992400,7.121992431640625,-9.044869422912598,-3.39870548248291,1.4946168661117554
1701881335099584800,7.131584716796875,-9.015856742858887,-3.405884027481079,1.511366605758667
1701881335109176300,7.14117626953125,-8.982357025146484,-3.2982068061828613,1.4706885814666748
1701881335118768600,7.1507685546875,-8.956035614013672,-3.255136013031006,1.516152262687683
1701881335128361700,7.16036181640625,-9.006285667419434,-3.1998021602630615,1.5257235765457153
1701881335137954000,7.1699541015625,-9.013463973999023,-3.2404799461364746,1.5831513404846191
1701881335147545600,7.179545654296875,-9.028120040893555,-3.2575290203094482,1.573580026626587
1701881335157138000,7.189137939453125,-9.023334503173828,-3.312563896179199,1.5831513404846191
1701881335166731000,7.19873095703125,-8.984749794006348,-3.343670606613159,1.5759727954864502
1701881335176323300,7.2083232421875,-8.982357025146484,-3.310171127319336,1.5520446300506592
1701881335185915000,7.217914794921875,-8.960822105407715,-3.3293135166168213,1.5927225351333618
1701881335195507200,7.227507080078125,-8.982357025146484,-3.3317065238952637,1.547258973121643
1701881335205100300,7.237100341796875,-8.927322387695312,-3.3053853511810303,1.475474238395691
1701881335214692600,7.246692626953125,-8.903393745422363,-3.36759877204895,1.475474238395691
1701881335224284200,7.2562841796875,-8.87946605682373,-3.4034910202026367,1.4587244987487793
1701881335233876500,7.26587646484375,-8.850751876831055,-3.4561331272125244,1.4730814695358276
1701881335243469600,7.275469482421875,-8.843573570251465,-3.451347589492798,1.5065809488296509
1701881335253062000,7.285061767578125,-8.889037132263184,-3.484847068786621,1.5041881799697876
1701881335262653400,7.2946533203125,-8.853144645690918,-3.4106695652008057,1.4611172676086426
1701881335272245800,7.304245849609375,-8.9010009765625,-3.396312713623047,1.449153184890747
1701881335281838800,7.3138388671875,-8.946464538574219,-3.3771700859069824,1.4156537055969238
1701881335291431200,7.32343115234375,-8.956035614013672,-3.36759877204895,1.35822594165802
1701881335301022500,7.3330224609375,-8.996713638305664,-3.389134168624878,1.35822594165802
1701881335310614800,7.34261474609375,-9.023334503173828,-3.3771700859069824,1.3486546277999878
1701881335320208100,7.3522080078125,-9.028120040893555,-3.3723843097686768,1.3486546277999878
1701881335329800200,7.36180029296875,-9.05444049835205,-3.3149566650390625,1.2601202726364136
1701881335339391700,7.371391845703125,-9.06401252746582,-3.326920747756958,1.303191065788269
1701881335348984000,7.380984130859375,-9.090332984924316,-3.343670606613159,1.32711923122406
1701881335358577200,7.3905771484375,-9.056833267211914,-3.341277837753296,1.35822594165802
1701881335368169500,7.40016943359375,-9.061619758605957,-3.2982068061828613,1.3917254209518433
1701881335377761000,7.409760986328125,-9.042476654052734,-3.2814571857452393,1.4300106763839722
1701881335387353300,7.419353271484375,-9.00389289855957,-3.2671003341674805,1.4539388418197632
1701881335396946400,7.428946533203125,-8.970393180847168,-3.2934212684631348,1.4682958126068115
1701881335406538800,7.438538818359375,-8.941679000854492,-3.319742202758789,1.4467604160308838
1701881335416130300,7.44813037109375,-8.91775131225586,-3.3484561443328857,1.4371891021728516
1701881335425722600,7.45772265625,-8.944071769714355,-3.3723843097686768,1.4228321313858032
1701881335435315700,7.467315673828125,-8.951250076293945,-3.381955623626709,1.4371891021728516
1701881335444908000,7.476907958984375,-8.9943208694458,-3.4034910202026367,1.4730814695358276
1701881335454499600,7.48649951171875,-9.020941734313965,-3.4010982513427734,1.511366605758667
1701881335464092000,7.496091796875,-8.999106407165527,-3.396312713623047,1.542473316192627
1701881335473685000,7.50568505859375,-8.963214874267578,-3.381955623626709,1.602293848991394
1701881335483277300,7.51527734375,-8.817252159118652,-3.453740358352661,1.7174484729766846
1701881335492868900,7.524868896484375,-9.01107120513916,-3.39870548248291,1.633400559425354
1701881335502461200,7.534461181640625,-8.896215438842773,-3.3723843097686768,1.6453646421432495
1701881335512054300,7.54405419921875,-8.881858825683594,-3.288635730743408,1.6429718732833862
1701881335521646600,7.553646484375,-8.855537414550781,-3.5135610103607178,1.7581263780593872
1701881335531238100,7.563238037109375,-8.812466621398926,-3.539881944656372,1.7198412418365479
1701881335540830200,7.572830322265625,-8.771788597106934,-3.453740358352661,1.6552350521087646
1701881335550423600,7.582423583984375,-8.781359672546387,-3.4657044410705566,1.6477575302124023
1701881335560015600,7.592015625,-8.836395263671875,-3.49920392036438,1.6357933282852173
1701881335569607200,7.601607177734375,-8.865108489990234,-3.49202561378479,1.6166508197784424
1701881335579199700,7.61119970703125,-8.912964820861816,-3.52313232421875,1.6477575302124023
1701881335588792800,7.620792724609375,-8.936893463134766,-3.49202561378479,1.597508192062378
1701881335598385000,7.630385009765625,-8.963214874267578,-3.4872398376464844,1.5951154232025146
1701881335607976400,7.6399765625,-8.963214874267578,-3.4704902172088623,1.5951154232025146
1701881335617568800,7.64956884765625,-8.991928100585938,-3.4034910202026367,1.5951154232025146
1701881335627162000,7.659162109375,-8.999106407165527,-3.3795628547668457,1.602293848991394
1701881335636754200,7.668754150390625,-9.049654960632324,-3.295814037322998,1.5376876592636108
1701881335646345700,7.678345703125,-9.056833267211914,-3.286242723464966,1.5640087127685547
1701881335655938000,7.68793798828125,-9.059226989746094,-3.1998021602630615,1.4970096349716187
1701881335665531100,7.69753125,-9.025727272033691,-3.2309088706970215,1.4970096349716187
1701881335675123500,7.70712353515625,-9.008678436279297,-3.2333016395568848,1.4659029245376587
1701881335684715000,7.716715087890625,-8.9943208694458,-3.2503504753112793,1.4347963333129883
1701881335694307300,7.726307373046875,-8.977571487426758,-3.279064416885376,1.413260817527771
1701881335703900400,7.735900390625,-8.999106407165527,-3.3364920616149902,1.4108680486679077
1701881335713492700,7.74549267578125,-8.984749794006348,-3.381955623626709,1.3869398832321167
1701881335723084300,7.755084228515625,-8.956035614013672,-3.3939197063446045,1.394118309020996
1701881335732676600,7.764676513671875,-8.953642845153809,-3.358027458190918,1.3797613382339478
1701881335742269700,7.774269775390625,-8.960822105407715,-3.3699915409088135,1.3821542263031006
1701881335751862000,7.783862060546875,-8.889037132263184,-3.3460633754730225,1.3773685693740845
1701881335761453600,7.79345361328125,-8.903393745422363,-3.2093734741210938,1.3797613382339478
1701881335771046000,7.8030458984375,-8.87946605682373,-3.39870548248291,1.4970096349716187
1701881335780639000,7.812638916015625,-8.845966339111328,-3.4178481101989746,1.4874383211135864
1701881335790231300,7.822231201171875,-8.867501258850098,-3.3723843097686768,1.4946168661117554
1701881335799822600,7.831822509765625,-8.848359107971191,-3.413062334060669,1.511366605758667
1701881335809415200,7.841415283203125,-8.857930183410645,-3.4345977306365967,1.547258973121643
1701881335819008300,7.85100830078125,-8.91775131225586,-3.453740358352661,1.5687943696975708
1701881335828600300,7.860600341796875,-8.979964256286621,-3.4728829860687256,1.6214364767074585
1701881335838191900,7.87019189453125,-9.006285667419434,-3.46091890335083,1.6477575302124023
1701881335847784200,7.8797841796875,-9.023334503173828,-3.4393835067749023,1.6576279401779175
1701881335857377500,7.88937744140625,-9.018548965454102,-3.427419424057007,1.6453646421432495
1701881335866969600,7.898969482421875,-9.008678436279297,-3.3604202270507812,1.5927225351333618
1701881335876561200,7.90856103515625,-9.00389289855957,-3.312563896179199,1.566401481628418
1701881335886153700,7.91815380859375,-9.008678436279297,-3.2694931030273438,1.5448660850524902
1701881335895746600,7.92774658203125,-9.008678436279297,-3.2213375568389893,1.511366605758667
1701881335905339000,7.9373388671875,-9.008678436279297,-3.2141590118408203,1.5017952919006348
1701881335914930400,7.946930419921875,-8.963214874267578,-3.2380871772766113,1.4994025230407715
1701881335924522800,7.956522705078125,-8.960822105407715,-3.242872953414917,1.4922239780426025
1701881335934115800,7.96611572265625,-8.960822105407715,-3.2575290203094482,1.4898312091827393
1701881335943708200,7.975708251953125,-8.991928100585938,-3.2503504753112793,1.4826527833938599
1701881335953299700,7.9852998046875,-9.047262191772461,-3.202194929122925,1.449153184890747
1701881335962892000,7.99489208984375,-9.028120040893555,-2.895913600921631,1.3199408054351807
1701881335972485000,8.004485107421875,-9.061619758605957,-3.2575290203094482,1.5209379196166992
1701881335982077400,8.014077392578125,-9.001500129699707,-3.46809720993042,1.5831513404846191
1701881335991669000,8.0236689453125,-8.958429336547852,-3.405884027481079,1.535294771194458
1701881336001261300,8.03326123046875,-9.00389289855957,-3.343670606613159,1.516152262687683
1701881336010854400,8.0428544921875,-9.013463973999023,-3.3245279788970947,1.5568302869796753
1701881336020446700,8.05244677734375,-9.00389289855957,-3.3532419204711914,1.6118651628494263
1701881336030038300,8.062038330078124,-8.982357025146484,-3.36759877204895,1.6381862163543701
1701881336039630600,8.071630615234374,-8.905786514282227,-3.350848913192749,1.6429718732833862
1701881336049223700,8.0812236328125,-8.838788032531738,-3.334099292755127,1.6142579317092896
1701881336058816000,8.09081591796875,-8.822037696838379,-3.312563896179199,1.6070795059204102
1701881336068407600,8.100407470703125,-8.795717239379883,-3.295814037322998,1.6070795059204102
1701881336077999900,8.109999755859375,-8.790931701660156,-3.2910284996032715,1.6046867370605469
1701881336087593000,8.119593017578126,-8.798110008239746,-3.279064416885376,1.5903297662734985
1701881336097185300,8.129185302734374,-8.790931701660156,-3.2910284996032715,1.5640087127685547
1701881336106776600,8.138776611328124,-8.80050277709961,-3.3149566650390625,1.5376876592636108
1701881336116369200,8.148369140625,-8.836395263671875,-3.3364920616149902,1.511366605758667
1701881336125962200,8.157962158203125,-8.88664436340332,-3.3939197063446045,1.4922239780426025
1701881336135554300,8.16755419921875,-8.948857307434082,-3.420240879058838,1.480259895324707
1701881336145145900,8.177145751953125,-8.991928100585938,-3.4489548206329346,1.4682958126068115
1701881336154738200,8.18673828125,-9.040083885192871,-3.446561813354492,1.4587244987487793
1701881336164331300,8.196331298828126,-9.109476089477539,-3.46091890335083,1.4515460729599
1701881336173923600,8.205923583984376,-9.169296264648438,-3.4633116722106934,1.4300106763839722
1701881336183515100,8.21551513671875,-9.18843936920166,-3.477668523788452,1.4611172676086426
1701881336193107500,8.225107421875,-9.181260108947754,-3.451347589492798,1.4587244987487793
1701881336202700500,8.234700439453125,-9.145368576049805,-3.4106695652008057,1.4539388418197632
1701881336212292900,8.24429296875,-9.095118522644043,-3.3556346893310547,1.4515460729599
1701881336221884400,8.253884521484375,-9.028120040893555,-3.295814037322998,1.4706885814666748
1701881336231476700,8.263476806640625,-8.956035614013672,-3.2213375568389893,1.449153184890747
1701881336241069800,8.27306982421875,-8.944071769714355,-3.171088218688965,1.4635101556777954
1701881336250662100,8.282662109375,-8.929715156555176,-3.1543383598327637,1.4659029245376587
1701881336260253700,8.292253662109376,-8.912964820861816,-3.156731367111206,1.5089738368988037
1701881336269846000,8.301845947265624,-8.932107925415039,-3.163909673690796,1.5400804281234741
1701881336279439000,8.311439208984375,-8.932107925415039,-3.1758737564086914,1.5640087127685547
1701881336289031400,8.321031494140625,-8.910572052001953,-3.187838077545166,1.571187138557434
1701881336298623000,8.330623046875,-8.92492961883545,-3.2069804668426514,1.5687943696975708
1701881336308215300,8.34021533203125,-8.934500694274902,-3.2333016395568848,1.571187138557434
1701881336317808400,8.349808349609376,-8.915358543395996,-3.2069804668426514,1.5687943696975708
1701881336327400700,8.359400634765626,-8.903393745422363,-3.211766242980957,1.5329020023345947
1701881336336992300,8.3689921875,-8.891429901123047,-3.2309088706970215,1.5329020023345947
1701881336346584600,8.37858447265625,-8.948857307434082,-3.242872953414917,1.5209379196166992
1701881336356177700,8.388177734375,-8.963214874267578,-3.262314558029175,1.4946168661117554
1701881336365769700,8.397769775390625,-8.958429336547852,-3.3053853511810303,1.4730814695358276
1701881336375361500,8.407361572265625,-8.92492961883545,-3.2404799461364746,1.3965110778808594
1701881336384953600,8.41695361328125,-9.083154678344727,-3.226123094558716,1.4228321313858032
1701881336394547000,8.426546875,-9.174081802368164,-3.288635730743408,1.4778671264648438
1701881336404139000,8.436138916015626,-9.061619758605957,-3.5255250930786133,1.5520446300506592
1701881336413730600,8.44573046875,-9.06401252746582,-3.5422747135162354,1.5137593746185303
1701881336423323000,8.455322998046874,-9.056833267211914,-3.3628132343292236,1.4611172676086426
1701881336432916200,8.464916259765625,-9.037691116333008,-3.3245279788970947,1.4826527833938599
1701881336442508300,8.47450830078125,-9.001500129699707,-3.2934212684631348,1.5017952919006348
1701881336452099800,8.484099853515625,-8.987142562866211,-3.255136013031006,1.5329020023345947
1701881336461692200,8.493692138671875,-8.968000411987305,-3.255136013031006,1.571187138557434
1701881336471285200,8.50328515625,-8.89382266998291,-3.226123094558716,1.5951154232025146
1701881336480877600,8.512877685546876,-8.860322952270508,-3.197409152984619,1.6262221336364746
1701881336490469000,8.52246923828125,-8.841180801391602,-3.1686954498291016,1.6477575302124023
1701881336500061400,8.5320615234375,-8.805288314819336,-3.163909673690796,1.6453646421432495
1701881336509654500,8.541654541015625,-8.826823234558105,-3.1591241359710693,1.6504493951797485
1701881336519246800,8.551246826171875,-8.865108489990234,-3.1830523014068604,1.628614902496338
1701881336528838400,8.56083837890625,-8.934500694274902,-3.2165517807006836,1.6166508197784424
1701881336538430700,8.5704306640625,-8.999106407165527,-3.2309088706970215,1.6118651628494263
1701881336548023800,8.58002392578125,-9.068798065185547,-3.255136013031006,1.5999010801315308
1701881336557616000,8.5896162109375,-9.114261627197266,-3.2910284996032715,1.5879368782043457
1701881336567207700,8.599207763671876,-9.135796546936035,-3.295814037322998,1.5903297662734985
1701881336576800000,8.608800048828124,-9.109476089477539,-3.310171127319336,1.5951154232025146
1701881336586393000,8.61839306640625,-9.107083320617676,-3.319742202758789,1.602293848991394
1701881336595985400,8.6279853515625,-9.059226989746094,-3.3245279788970947,1.597508192062378
1701881336605577000,8.637576904296875,-8.934500694274902,-3.3604202270507812,1.597508192062378
1701881336615169300,8.647169189453125,-8.743074417114258,-3.2380871772766113,1.5640087127685547
1701881336624762400,8.656762451171875,-9.083154678344727,-3.413062334060669,1.6429718732833862
1701881336634354700,8.666354736328126,-8.975178718566895,-3.422633647918701,1.76051926612854
1701881336643946000,8.675946044921876,-8.912964820861816,-3.1615169048309326,1.5640087127685547
1701881336653538300,8.685538330078124,-8.92492961883545,-3.3843486309051514,1.6214364767074585
1701881336663131600,8.695131591796875,-8.79332447052002,-3.46809720993042,1.597508192062378
1701881336672723700,8.7047236328125,-8.771788597106934,-3.427419424057007,1.5544373989105225
1701881336682315300,8.714315185546875,-8.869894027709961,-3.4154551029205322,1.5592230558395386
1701881336691907600,8.723907470703125,-8.951250076293945,-3.391526937484741,1.5879368782043457
1701881336701500700,8.733500732421875,-8.953642845153809,-3.36759877204895,1.6357933282852173
1701881336711093000,8.743093017578126,-8.953642845153809,-3.310171127319336,1.633400559425354
1701881336720684500,8.7526845703125,-8.958429336547852,-3.197409152984619,1.5999010801315308
1701881336730276900,8.76227685546875,-8.912964820861816,-3.2671003341674805,1.6214364767074585
1701881336739870000,8.771869873046874,-8.848359107971191,-3.391526937484741,1.6166508197784424
1701881336749462300,8.781462158203125,-8.905786514282227,-3.264707326889038,1.5903297662734985
1701881336759053800,8.7910537109375,-8.948857307434082,-3.247957706451416,1.6046867370605469
1701881336768646100,8.800646240234375,-8.970393180847168,-3.2694931030273438,1.578365683555603
1701881336778239200,8.8102392578125,-8.948857307434082,-3.288635730743408,1.5640087127685547
1701881336787831600,8.81983154296875,-8.912964820861816,-3.3317065238952637,1.5544373989105225
1701881336797423000,8.829423095703126,-8.953642845153809,-3.3723843097686768,1.5544373989105225
1701881336807015400,8.839015380859376,-8.979964256286621,-3.3843486309051514,1.5831513404846191
1701881336816608500,8.8486083984375,-8.975178718566895,-3.391526937484741,1.602293848991394
1701881336826200800,8.858200927734375,-8.982357025146484,-3.3771700859069824,1.6070795059204102
1701881336835792400,8.86779248046875,-8.999106407165527,-3.3699915409088135,1.6142579317092896
1701881336845384700,8.877384765625,-9.01107120513916,-3.343670606613159,1.628614902496338
1701881336854977800,8.886977783203125,-9.047262191772461,-3.319742202758789,1.6453646421432495
1701881336864570000,8.896570068359376,-9.07119083404541,-3.2838499546051025,1.7102699279785156
1701881336874161700,8.90616162109375,-9.066405296325684,-3.2455646991729736,1.7341982126235962
1701881336883754000,8.91575390625,-9.020941734313965,-3.211766242980957,1.7389838695526123
1701881336893347000,8.92534716796875,-8.970393180847168,-3.149552822113037,1.700698733329773
1701881336902939400,8.934939453125,-8.929715156555176,-3.1351959705352783,1.700698733329773
1701881336912531000,8.944531005859375,-8.936893463134766,-3.149552822113037,1.693520188331604
1701881336922123000,8.954123046875,-8.934500694274902,-3.178266763687134,1.6791633367538452
1701881336931716400,8.96371630859375,-8.927322387695312,-3.2141590118408203,1.6504493951797485
1701881336941308700,8.97330859375,-8.960822105407715,-3.2404799461364746,1.6552350521087646
1701881336950900000,8.98289990234375,-8.975178718566895,-3.264707326889038,1.6381862163543701
1701881336960492300,8.9924921875,-8.958429336547852,-3.279064416885376,1.6238292455673218
1701881336970085600,9.002085693359374,-8.951250076293945,-3.312563896179199,1.674377679824829
1701881336979677700,9.011677734375,-9.015856742858887,-3.295814037322998,1.7126628160476685
1701881336989269200,9.021269287109375,-9.001500129699707,-3.228515863418579,1.674377679824829
1701881336998861600,9.030861572265625,-8.9010009765625,-3.218944549560547,1.571187138557434
1701881337008454700,9.04045458984375,-8.922536849975586,-3.2165517807006836,1.573580026626587
1701881337018047000,9.050046875,-9.056833267211914,-3.211766242980957,1.5855441093444824
1701881337027638500,9.059638427734376,-9.030512809753418,-3.235694408416748,1.578365683555603
1701881337037230800,9.06923095703125,-8.999106407165527,-3.2742786407470703,1.5999010801315308
1701881337046824000,9.078823974609374,-8.968000411987305,-3.3005998134613037,1.602293848991394
1701881337056416300,9.088416259765625,-8.936893463134766,-3.317349433898926,1.6262221336364746
1701881337066007800,9.0980078125,-8.929715156555176,-3.302992582321167,1.6477575302124023
1701881337075600100,9.10760009765625,-8.922536849975586,-3.2814571857452393,1.6477575302124023
1701881337085193200,9.117193115234375,-8.903393745422363,-3.2503504753112793,1.628614902496338
1701881337094785500,9.12678564453125,-8.903393745422363,-3.2069804668426514,1.6142579317092896
1701881337104377000,9.136377197265626,-8.960822105407715,-3.0825538635253906,1.5592230558395386
1701881337113969400,9.145969482421876,-9.037691116333008,-3.147160053253174,1.5951154232025146
1701881337123562500,9.1555625,-8.968000411987305,-3.2527432441711426,1.5520446300506592
1701881337133154800,9.16515478515625,-8.891429901123047,-3.343670606613159,1.5568302869796753
1701881337142746400,9.174746337890625,-8.999106407165527,-3.295814037322998,1.547258973121643
1701881337152338700,9.184338623046875,-9.040083885192871,-3.2309088706970215,1.5329020023345947
1701881337161931800,9.193931884765625,-9.044869422912598,-3.1998021602630615,1.5400804281234741
1701881337171524000,9.203524169921875,-9.008678436279297,-3.226123094558716,1.5400804281234741
1701881337181115600,9.21311572265625,-9.047262191772461,-3.1663026809692383,1.5544373989105225
1701881337190708000,9.2227080078125,-9.040083885192871,-3.156731367111206,1.5496517419815063
1701881337200301000,9.232301025390624,-9.023334503173828,-3.163909673690796,1.542473316192627
1701881337209893000,9.24189306640625,-9.044869422912598,-3.1854450702667236,1.571187138557434
1701881337219484700,9.251484619140625,-9.049654960632324,-3.187838077545166,1.5999010801315308
1701881337229077000,9.261076904296875,-9.020941734313965,-3.202194929122925,1.5927225351333618
1701881337238670300,9.27067041015625,-9.028120040893555,-3.180659532546997,1.602293848991394
1701881337248262400,9.280262451171875,-9.013463973999023,-3.163909673690796,1.628614902496338
1701881337257854000,9.28985400390625,-8.977571487426758,-3.1543383598327637,1.6552350521087646
1701881337267446500,9.299446533203126,-9.01107120513916,-3.063411235809326,1.6142579317092896
1701881337277039400,9.309039306640624,-8.946464538574219,-3.1136605739593506,1.6405789852142334
1701881337286631700,9.318631591796875,-8.845966339111328,-3.226123094558716,1.6576279401779175
1701881337296223200,9.32822314453125,-8.845966339111328,-3.195016384124756,1.628614902496338
1701881337305815600,9.337815673828125,-8.903393745422363,-3.2069804668426514,1.6576279401779175
1701881337315408600,9.34740869140625,-8.948857307434082,-3.3149566650390625,1.724626898765564
1701881337325001000,9.3570009765625,-8.996713638305664,-3.3317065238952637,1.731805443763733
1701881337334592500,9.366592529296875,-8.975178718566895,-3.326920747756958,1.7174484729766846
1701881337344184800,9.376184814453126,-9.032905578613281,-3.350848913192749,1.7198412418365479
1701881337353778000,9.38577783203125,-9.056833267211914,-3.4250264167785645,1.705484390258789
1701881337363370200,9.395370361328125,-9.107083320617676,-3.2814571857452393,1.602293848991394
1701881337372961800,9.4049619140625,-8.979964256286621,-3.077768087387085,1.5137593746185303
1701881337382554000,9.41455419921875,-8.881858825683594,-3.0011978149414062,1.394118309020996
1701881337392147200,9.424147216796875,-9.023334503173828,-2.974876642227173,1.4659029245376587
1701881337401739500,9.433739501953125,-9.006285667419434,-3.211766242980957,1.5496517419815063
1701881337411331000,9.4433310546875,-8.936893463134766,-3.2141590118408203,1.4970096349716187
1701881337420923400,9.45292333984375,-8.958429336547852,-3.218944549560547,1.4419747591018677
1701881337430516500,9.4625166015625,-9.028120040893555,-3.202194929122925,1.4659029245376587
1701881337440108800,9.47210888671875,-9.023334503173828,-3.2838499546051025,1.4276177883148193
1701881337449700400,9.481700439453125,-9.020941734313965,-3.39870548248291,1.4036896228790283
1701881337459292700,9.491292724609375,-9.169296264648438,-3.3556346893310547,1.4587244987487793
1701881337468885800,9.5008857421875,-9.159725189208984,-3.365206003189087,1.475474238395691
1701881337478478000,9.51047802734375,-9.169296264648438,-3.436990737915039,1.4659029245376587
1701881337488069400,9.5200693359375,-9.22433090209961,-3.6236307621002197,1.662413477897644
1701881337497662000,9.529661865234376,-9.140582084655762,-3.594916820526123,1.674377679824829
1701881337507255000,9.539255126953124,-8.946464538574219,-3.812962770462036,1.7988044023513794
1701881337516847400,9.548847412109374,-8.869894027709961,-4.071387767791748,2.0237298011779785
1701881337526438700,9.558438720703125,-9.032905578613281,-4.047459602355957,2.213061809539795
1701881337536031000,9.568031005859375,-8.877073287963867,-4.095315933227539,2.2274186611175537
1701881337545624300,9.577624267578125,-8.714361190795898,-4.1623148918151855,2.2031915187835693
1701881337555216400,9.58721630859375,-9.00389289855957,-4.502394676208496,2.2896320819854736
1701881337564808000,9.596807861328125,-8.680861473083496,-4.885246753692627,2.4236302375793457
1701881337574400300,9.606400146484376,-8.463114738464355,-4.246063709259033,2.145763635635376
1701881337583993300,9.615993408203124,-9.193224906921387,-3.8919260501861572,1.9830517768859863
1701881337593585700,9.625585693359374,-8.941679000854492,-3.8632121086120605,1.7030915021896362
1701881337603177200,9.63517724609375,-9.34875774383545,-4.322634220123291,1.5257235765457153
1701881337612769500,9.64476953125,-8.802895545959473,-5.32821798324585,1.9902302026748657
1701881337622362600,9.654362548828125,-8.534899711608887,-7.772785186767578,2.717947483062744
1701881337631955000,9.663954833984375,-8.402995109558105,-7.325028419494629,2.684448003768921
1701881337641546500,9.67354638671875,-8.38863754272461,-6.5180487632751465,2.193620204925537
1701881337651138800,9.683138916015626,-7.775776386260986,-6.065805435180664,2.0620148181915283
1701881337660732000,9.69273193359375,-8.127820014953613,-4.995615482330322,1.8610178232192993
1701881337670324200,9.70232421875,-9.035298347473145,-5.129613399505615,2.191227436065674
1701881337679915800,9.711915771484374,-9.72233772277832,-5.007579803466797,3.1178479194641113
1701881337689508000,9.721508056640625,-9.231510162353516,-5.649155139923096,3.8814573287963867
1701881337699101200,9.73110107421875,-9.834799766540527,-6.798308372497559,4.008575916290283
1701881337708693500,9.740693603515625,-10.560124397277832,-7.6911301612854,5.330012321472168
1701881337718285000,9.75028515625,-7.392924785614014,-6.882057189941406,5.30847692489624
1701881337727877400,9.75987744140625,-12.10678482055664,-8.622536659240723,4.977968215942383
1701881337737470500,9.769470458984374,-13.334901809692383,-7.226922512054443,4.13060998916626
1701881337747062800,9.779062744140624,-16.320545196533203,-5.708975791931152,3.93679141998291
1701881337756654300,9.788654296875,-8.915358543395996,-5.775974750518799,4.12343168258667
1701881337766246700,9.79824658203125,-6.392126560211182,-7.585845947265625,5.74187707901001
1701881337775839700,9.80783984375,-7.718348503112793,-6.901199817657471,6.000301837921143
1701881337785432000,9.81743212890625,-8.912964820861816,-4.90199613571167,6.5868425369262695
1701881337795023600,9.827023681640625,-10.995917320251465,-4.531108856201172,7.812565803527832
1701881337804615700,9.83661572265625,-13.550554275512695,-3.271885871887207,9.297013282775879
1701881337814209000,9.846208984375,-11.608778953552246,-2.474477767944336,9.850054740905762
1701881337823801000,9.855801025390624,-8.075178146362305,-2.4218356609344482,10.345667839050293
1701881337833392600,9.865392578125,-7.328019142150879,-2.076970100402832,10.613663673400879
1701881337842985000,9.87498486328125,-7.7231340408325195,-2.153839588165283,11.27946662902832
1701881337852578300,9.884578369140625,-7.989036560058594,-1.5335001945495605,11.346466064453125
1701881337862170400,9.89417041015625,-8.290532112121582,-1.2367901802062988,11.11167049407959
1701881337871762000,9.903761962890625,-8.920144081115723,-1.801795482635498,11.104491233825684
1701881337881354500,9.9133544921875,-9.389435768127441,-2.87198543548584,11.142776489257812
1701881337890947600,9.922947509765624,-9.140582084655762,-3.9828531742095947,10.64507007598877
1701881337900539600,9.93253955078125,-8.376673698425293,-4.8421759605407715,9.050552368164062
1701881337910131200,9.942131103515624,-7.107879638671875,-5.361717224121094,7.020242691040039
1701881337919723500,9.9517236328125,-5.946762561798096,-5.586941719055176,5.212764263153076
1701881337929316600,9.961316650390625,-3.792025566101074,-5.7185468673706055,4.353142738342285
1701881337938909000,9.970908935546875,-2.0347964763641357,-5.627619743347168,3.0867412090301514
1701881337948500500,9.98050048828125,-0.6702894568443298,-5.404788017272949,2.3446671962738037
1701881337958092800,9.9900927734375,0.6634100675582886,-4.811069011688232,2.131406784057617
1701881337967686000,9.999685791015626,1.9657038450241089,-4.107280254364014,2.160120725631714
1701881337977278200,10.0092783203125,2.98085880279541,-3.2141590118408203,2.2968106269836426
1701881337986869800,10.018869873046874,3.833002805709839,-2.216052770614624,2.47387957572937
1701881337996462000,10.028462158203125,4.4410786628723145,-1.2798609733581543,2.3039891719818115
1701881338006055200,10.03805517578125,4.706981182098389,-0.4827519655227661,1.4276177883148193
1701881338015647500,10.0476474609375,4.53709077835083,0.7217351198196411,-1.1267203092575073
1701881338025239000,10.057239013671875,2.7173492908477783,2.2872393131256104,-5.369194984436035
1701881338034831400,10.066831298828125,0.02183450572192669,0.49651068449020386,-4.864010334014893
1701881338044424400,10.076424560546876,-0.6008976101875305,-1.9022940397262573,-1.2251251935958862
1701881338054016800,10.086016845703124,2.899502754211426,-1.7180466651916504,-0.18364913761615753
1701881338063608300,10.0956083984375,7.677969455718994,-0.5832505226135254,-0.42293140292167664
1701881338073200600,10.10520068359375,10.292427062988281,-0.41066819429397583,0.5443671345710754
1701881338082793700,10.114793701171875,12.74866008758545,-0.9110672473907471,2.018944025039673
1701881338092386000,10.124385986328125,16.567306518554688,-0.906281590461731,2.3279173374176025
1701881338101977600,10.1339775390625,19.41865348815918,-0.29820552468299866,1.085145115852356
1701881338111570000,10.14356982421875,19.50240135192871,0.24287149310112,-0.23389841616153717
1701881338121163000,10.1531630859375,18.31735610961914,0.8868398666381836,-1.0621141195297241
1701881338130755300,10.16275537109375,17.33570098876953,2.2178475856781006,-1.4859428405761719
1701881338140347000,10.172346923828124,13.89542007446289,3.151646614074707,-2.1418752670288086
1701881338149939000,10.18193896484375,11.520544052124023,2.2274186611175537,-1.7422740459442139
1701881338159532300,10.1915322265625,12.174083709716797,1.41834557056427,-1.0190433263778687
1701881338169124600,10.20112451171875,12.19801139831543,1.4709876775741577,0.26889345049858093
1701881338178716000,10.2107158203125,10.59631633758545,2.356631278991699,0.6759724020957947
1701881338188308500,10.22030859375,9.272486686706543,3.1803603172302246,1.0564311742782593
1701881338197901600,10.229901611328126,9.449555397033691,3.1875388622283936,2.121835470199585
1701881338207493600,10.23949365234375,10.42642593383789,3.144468069076538,3.5560336112976074
1701881338217085200,10.249085205078124,11.52532958984375,3.3741791248321533,5.138586521148682
1701881338226677500,10.258677490234374,11.51815128326416,3.37896466255188,6.369095802307129
1701881338236270800,10.268270751953125,10.179965019226074,3.199502944946289,6.728318214416504
1701881338245863000,10.27786279296875,9.021240234375,3.2401809692382812,6.139384746551514
1701881338255454500,10.287454345703125,8.82233715057373,3.457927703857422,5.526223659515381
1701881338265046800,10.297046875,8.882157325744629,3.0200412273406982,5.373083114624023
1701881338274640000,10.306639892578126,8.731410026550293,2.3207387924194336,5.542973518371582
1701881338284232200,10.316232177734374,8.616554260253906,2.110170364379883,5.545366287231445
1701881338293823700,10.32582373046875,8.73619556427002,2.2657039165496826,5.511867046356201
1701881338303416000,10.335416015625,8.745766639709473,2.7637102603912354,5.923731327056885
1701881338313009200,10.345009033203125,8.254939079284668,2.9506494998931885,6.244668960571289
1701881338322601500,10.3546015625,7.431509017944336,3.096611499786377,6.124728679656982
1701881338332193000,10.364193115234375,6.816254615783691,3.2952158451080322,5.6222357749938965
1701881338341785300,10.373785400390625,7.110571384429932,3.2904303073883057,5.071587562561035
1701881338351378400,10.38337841796875,7.70668363571167,3.2976086139678955,4.686044216156006
1701881338360970800,10.392970703125,8.018049240112305,3.395714521408081,4.465904235839844
1701881338370562300,10.402562255859374,8.06112003326416,3.3598220348358154,4.623830795288086
1701881338380154600,10.412154541015624,7.965407371520996,3.30957293510437,4.812863826751709
1701881338389747700,10.421747802734375,7.9606218338012695,3.4076786041259766,4.638187408447266
1701881338399340000,10.431340087890625,7.977371692657471,3.6161532402038574,4.482654094696045
1701881338408931600,10.440931640625,8.247760772705078,3.6185460090637207,4.4512481689453125
1701881338418524000,10.45052392578125,8.38684368133545,3.525225877761841,4.468297004699707
1701881338428117000,10.460116943359376,8.422736167907715,3.6089746952056885,4.516153812408447
1701881338437709300,10.469709228515624,8.434700012207031,3.7669010162353516,4.547260284423828
1701881338447300900,10.47930078125,8.216653823852539,3.850649833679199,4.554438591003418
1701881338456893200,10.48889306640625,7.833802223205566,3.896113395690918,4.400999069213867
1701881338466486300,10.498486328125,7.378866672515869,3.9391841888427734,4.144967079162598
1701881338476078600,10.50807861328125,6.9837517738342285,3.9320058822631836,3.780958890914917
1701881338485670000,10.517669921875,6.768397808074951,3.8769710063934326,3.314059257507324
1701881338495262500,10.527262451171875,7.1010003089904785,3.3693933486938477,3.355036497116089
1701881338504855600,10.53685546875,8.489734649658203,3.199502944946289,4.142574310302734
1701881338514447600,10.546447509765626,8.99252700805664,3.745365619659424,4.00618314743042
1701881338524039200,10.5560390625,8.963812828063965,4.193122386932373,3.4292140007019043
1701881338533631500,10.565631591796874,8.561519622802734,3.7334015369415283,3.2446675300598145
1701881338543224800,10.575224853515625,8.384450912475586,3.4842488765716553,3.0939197540283203
1701881338552817000,10.58481689453125,8.673981666564941,3.731008768081665,2.8809585571289062
1701881338562408400,10.594408447265625,8.767302513122559,3.6161532402038574,3.053241729736328
1701881338572000800,10.604000732421875,8.623732566833496,3.465106248855591,3.591925859451294
