time,seconds_elapsed,z,y,x
1701865090477408800,0.15840869140625,0.4151177406311035,0.7156448364257812,2.2454833984375
1701865090487001600,0.168001708984375,-0.6505556106567383,1.1583404541015625,-0.007848739624023438
1701865090496595200,0.17759521484375,-1.6582756042480469,1.1208758354187012,-0.7480099201202393
1701865090506187800,0.187187744140625,-1.6021819114685059,0.7882342338562012,-0.13821649551391602
1701865090515779800,0.19677978515625,-1.494919776916504,0.46344757080078125,0.7551308870315552
1701865090525372700,0.20637255859375,-0.9656777381896973,0.7067952156066895,1.2958041429519653
1701865090534966000,0.215966064453125,-0.37102556228637695,0.9369778633117676,1.5261805057525635
1701865090544558800,0.225558837890625,-0.4180483818054199,0.6879634857177734,1.5746568441390991
1701865090554150700,0.235150634765625,-0.5574383735656738,0.34313535690307617,1.1665215492248535
1701865090563743500,0.244743408203125,0.19942378997802734,0.40058088302612305,0.4485599994659424
1701865090573337000,0.254337158203125,1.6374573707580566,0.3409080505371094,0.6281301379203796
1701865090582929700,0.2639296875,0.9913229942321777,0.6151371002197266,0.38250619173049927
1701865090592521700,0.273521728515625,1.615267276763916,0.5236697196960449,-0.2319488525390625
1701865090602114600,0.283114501953125,2.76760196685791,0.36603498458862305,-0.4714924097061157
1701865090611708000,0.2927080078125,2.773519992828369,-0.2163705825805664,-0.1657293438911438
1701865090621300700,0.30230078125,2.380221366882324,-0.9069247245788574,0.03915536403656006
1701865090630892500,0.311892578125,2.007741928100586,-0.5324835777282715,0.810104250907898
1701865090640485400,0.3214853515625,1.787623405456543,-0.6283979415893555,1.2219359874725342
1701865090650079000,0.331078857421875,1.040151596069336,-0.7964038848876953,1.5345187187194824
1701865090659671600,0.340671630859375,-0.2503776550292969,-0.7531280517578125,1.9810763597488403
1701865090669263600,0.350263671875,-1.34342622756958,-0.6952657699584961,2.0824272632598877
1701865090678856400,0.3598564453125,-1.8987174034118652,-0.4769620895385742,1.727864146232605
1701865090688449800,0.36944970703125,-2.7183024883270264,-0.10858869552612305,1.6711456775665283
1701865090698042600,0.379042724609375,-3.1964073181152344,0.07621955871582031,1.4312841892242432
1701865090707634400,0.388634521484375,-3.0489392280578613,-0.0887002944946289,1.2772276401519775
1701865090717227300,0.398227294921875,0.6637148857116699,-0.6626491546630859,0.23803281784057617
1701865090726820900,0.40782080078125,1.147010326385498,0.24626588821411133,-0.4371100664138794
1701865090736413400,0.417413330078125,-0.6878299713134766,0.5212020874023438,0.12368261814117432
1701865090746005500,0.427005615234375,-1.6677746772766113,0.7605209350585938,0.4224492311477661
1701865090755598000,0.43659814453125,-2.2146942615509033,0.7995243072509766,0.7605702877044678
1701865090765191700,0.446191650390625,-2.4746134281158447,0.4335508346557617,1.3014596700668335
1701865090774784500,0.455784423828125,-2.4029808044433594,0.15365266799926758,1.571397066116333
1701865090784376300,0.465376220703125,-2.1367132663726807,-0.0328679084777832,1.3598127365112305
1701865090793969200,0.47496923828125,-1.601945400238037,-0.23867559432983398,0.8254704475402832
1701865090803562800,0.484562744140625,-0.9709901809692383,-0.6249837875366211,0.37318921089172363
1701865090813155300,0.4941552734375,-0.7120018005371094,-0.8313102722167969,0.6318783760070801
1701865090822747400,0.503747314453125,-0.5084185600280762,-0.5396895408630371,0.5896589756011963
1701865090832340000,0.513340087890625,-0.313723087310791,-0.3786201477050781,0.27333998680114746
1701865090841933600,0.52293359375,-0.1711592674255371,-0.30324840545654297,0.21904277801513672
1701865090851526400,0.5325263671875,-0.16913223266601562,-0.3118314743041992,0.11107134819030762
1701865090861118200,0.5421181640625,-0.050913333892822266,-0.44242095947265625,-0.06332063674926758
1701865090870711000,0.5517109375,0.23350954055786133,-0.5408949851989746,-0.11639904975891113
1701865090880304600,0.5613046875,0.3930363655090332,-0.730161190032959,0.03912687301635742
1701865090889897200,0.570897216796875,0.563873291015625,-0.8318157196044922,0.45932602882385254
1701865090899489300,0.5804892578125,0.8935761451721191,-0.862675666809082,0.9044356346130371
1701865090909081900,0.590081787109375,1.056318759918213,-0.8811497688293457,1.460841417312622
1701865090918675500,0.599675537109375,0.8551478385925293,-0.7065386772155762,1.9401881694793701
1701865090928268000,0.60926806640625,0.5027270317077637,-0.43489694595336914,1.9285888671875
1701865090937860000,0.618860107421875,0.28392791748046875,-0.34795045852661133,1.468961238861084
1701865090947453000,0.628452880859375,-0.015592575073242188,-0.2884664535522461,1.0441579818725586
1701865090957046500,0.638046630859375,-0.17136573791503906,-0.05117940902709961,0.7235379219055176
1701865090966639000,0.64763916015625,-0.0005388259887695312,0.21931219100952148,0.10469436645507812
1701865090976231200,0.657231201171875,0.6699008941650391,0.6242637634277344,-0.776259183883667
1701865090985823700,0.66682373046875,1.5197854042053223,1.000605583190918,-0.7558133602142334
1701865090995417300,0.676417236328125,1.895885944366455,0.6936955451965332,-0.5421051979064941
1701865091005010000,0.686010009765625,1.8390297889709473,0.07624530792236328,-0.02383136749267578
1701865091014602000,0.69560205078125,1.6709980964660645,-0.5111255645751953,0.5492968559265137
1701865091024194800,0.70519482421875,1.3511295318603516,-0.9436478614807129,0.8377623558044434
1701865091033788200,0.7147880859375,0.4282650947570801,-1.112931251525879,0.7741537094116211
1701865091043381000,0.724381103515625,-0.18982839584350586,-1.1076927185058594,0.4238719940185547
1701865091052972800,0.733972900390625,-0.16776371002197266,-1.2152485847473145,-0.011908531188964844
1701865091062565600,0.743565673828125,-0.5097208023071289,-1.2604689598083496,-0.3621354103088379
1701865091072159200,0.7531591796875,-0.8015255928039551,-1.3529138565063477,-0.3600625991821289
1701865091081751800,0.762751708984375,-0.7120647430419922,-1.415379524230957,-0.42020082473754883
1701865091091344000,0.77234375,-0.42208433151245117,-1.4439773559570312,-0.39737606048583984
1701865091100936700,0.781936767578125,-0.1716022491455078,-1.439870834350586,-0.17016935348510742
1701865091110530000,0.791530029296875,-0.02055215835571289,-1.402174472808838,-0.004593849182128906
1701865091120123000,0.801122802734375,0.20990800857543945,-1.2741429805755615,-0.11451196670532227
1701865091129714700,0.810714599609375,0.431215763092041,-1.0465378761291504,-0.40873193740844727
1701865091139307500,0.8203076171875,0.4372272491455078,-0.8550858497619629,-0.5504212379455566
1701865091148901000,0.829901123046875,0.37793493270874023,-0.7420549392700195,-0.45911550521850586
1701865091158493700,0.83949365234375,0.4809837341308594,-0.6777920722961426,-0.3109912872314453
1701865091168085800,0.849085693359375,0.6671004295349121,-0.641334056854248,-0.25367021560668945
1701865091177678300,0.85867822265625,0.7721648216247559,-0.589026927947998,-0.29627466201782227
1701865091187272000,0.86827197265625,0.8821024894714355,-0.47551918029785156,-0.3828773498535156
1701865091196864800,0.87786474609375,0.9255719184875488,-0.3285641670227051,-0.3144679069519043
1701865091206456600,0.88745654296875,0.7788519859313965,-0.21586179733276367,0.002933025360107422
1701865091216049400,0.89704931640625,0.664487361907959,-0.2270979881286621,0.6443934440612793
1701865091225643000,0.90664306640625,0.6117324829101562,-0.512770414352417,1.4074649810791016
1701865091235235600,0.916235595703125,0.7380547523498535,-0.9019296169281006,1.8461785316467285
1701865091244827600,0.92582763671875,1.0568175315856934,-1.1281037330627441,2.051046371459961
1701865091254420200,0.935420166015625,1.4679737091064453,-1.1618943214416504,1.8049139976501465
1701865091264013800,0.945013916015625,1.8168487548828125,-1.0867788791656494,1.2945847511291504
1701865091273606700,0.954606689453125,1.781789779663086,-0.8553662300109863,1.240616798400879
1701865091283198500,0.964198486328125,1.1922926902770996,-0.6562991142272949,1.3191046714782715
1701865091292791300,0.973791259765625,0.3709583282470703,-0.45217204093933105,1.3210582733154297
1701865091302385000,0.983385009765625,-0.20082616806030273,-0.20551824569702148,1.3040986061096191
1701865091311977500,0.9929775390625,-0.4712839126586914,0.1051781177520752,1.3446502685546875
1701865091321569500,1.002569580078125,-0.6629705429077148,0.35878825187683105,1.308640480041504
1701865091331162000,1.012162109375,-0.918797492980957,0.3430190086364746,1.2412338256835938
1701865091340755700,1.021755615234375,-1.0098085403442383,0.15124297142028809,1.158379077911377
1701865091350348300,1.031348388671875,-0.6679377555847168,0.046652793884277344,1.034515380859375
1701865091359940400,1.0409404296875,-0.36272621154785156,-0.053060054779052734,1.012404441833496
1701865091369533200,1.050533203125,-0.19641590118408203,-0.10105347633361816,1.188951015472412
1701865091379126800,1.060126708984375,-0.15721559524536133,-0.24326014518737793,1.4658050537109375
1701865091388719400,1.06971923828125,-0.09738349914550781,-0.4020552635192871,1.4833869934082031
1701865091398311400,1.0793115234375,-0.046591758728027344,-0.5529518127441406,1.2412986755371094
1701865091407904000,1.088904052734375,-0.010219097137451172,-0.715919017791748,0.9748835563659668
1701865091417497600,1.09849755859375,0.040172576904296875,-0.8737289905548096,0.7861332893371582
1701865091427090200,1.108090087890625,0.12803936004638672,-1.0149319171905518,0.7172126770019531
1701865091436682200,1.11768212890625,0.1292881965637207,-1.1302974224090576,0.6439881324768066
1701865091446275000,1.127275146484375,0.03146934509277344,-1.174321174621582,0.38210201263427734
1701865091455868700,1.13686865234375,-0.09954977035522461,-1.2311921119689941,0.12787151336669922
1701865091465461200,1.146461181640625,-0.21368026733398438,-1.2503769397735596,0.009028911590576172
1701865091475053300,1.15605322265625,-0.3714113235473633,-1.2765066623687744,-0.07497644424438477
1701865091484646000,1.16564599609375,-0.49051523208618164,-1.2587049007415771,-0.23724842071533203
1701865091494239500,1.175239501953125,-0.5003137588500977,-1.15116548538208,-0.4008603096008301
1701865091503832000,1.18483203125,-0.5535054206848145,-1.0439116954803467,-0.5260272026062012
1701865091513424100,1.194424072265625,-0.5805964469909668,-0.9667527675628662,-0.6612787246704102
1701865091523017000,1.204016845703125,-0.5293459892272949,-0.887606143951416,-0.7929549217224121
1701865091532610300,1.2136103515625,-0.4745297431945801,-0.8321073055267334,-0.8806166648864746
1701865091542203100,1.223203125,-0.42920923233032227,-0.8046383857727051,-0.9452505111694336
1701865091551795000,1.232794921875,-0.3455543518066406,-0.8102576732635498,-1.0130581855773926
1701865091561387800,1.2423876953125,-0.052069664001464844,-0.8609457015991211,-1.055241584777832
1701865091570981400,1.2519814453125,0.3583393096923828,-0.830834150314331,-1.100644588470459
1701865091580574000,1.261573974609375,0.6506543159484863,-0.7982649803161621,-0.9852786064147949
1701865091590166000,1.271166015625,0.7869815826416016,-0.7550604343414307,-0.8326449394226074
1701865091599758800,1.2807587890625,0.9139218330383301,-0.6996185779571533,-0.735630989074707
1701865091609352200,1.290352294921875,0.9365525245666504,-0.7082624435424805,-0.622380256652832
1701865091618945000,1.299945068359375,0.8384337425231934,-0.7002041339874268,-0.5255312919616699
1701865091628536800,1.309536865234375,0.7458553314208984,-0.62357497215271,-0.39688587188720703
1701865091638129700,1.319129638671875,0.6236319541931152,-0.5601613521575928,-0.1543102264404297
1701865091647723300,1.32872314453125,0.4001126289367676,-0.48902344703674316,0.061162471771240234
1701865091657315800,1.33831591796875,0.15274477005004883,-0.35730528831481934,0.17226028442382812
1701865091666908000,1.347907958984375,-0.08147954940795898,-0.30135583877563477,0.19402408599853516
1701865091676500500,1.35750048828125,-0.24212360382080078,-0.31673407554626465,0.09168672561645508
1701865091686094000,1.367093994140625,-0.26897287368774414,-0.3544738292694092,-0.026611328125
1701865091695687000,1.37668701171875,-0.0839238166809082,-0.3832814693450928,-0.20171594619750977
1701865091705278700,1.38627880859375,0.21361160278320312,-0.3960127830505371,-0.4440450668334961
1701865091714871600,1.39587158203125,0.39797353744506836,-0.4550046920776367,-0.5942897796630859
1701865091724465200,1.405465087890625,0.49347591400146484,-0.515451192855835,-0.6328268051147461
1701865091734057700,1.4150576171875,0.6633543968200684,-0.5451040267944336,-0.6454544067382812
1701865091743649800,1.42464990234375,0.8425178527832031,-0.6291341781616211,-0.5426621437072754
1701865091753242400,1.434242431640625,0.8857588768005371,-0.706742525100708,-0.46485185623168945
1701865091762836000,1.4438359375,1.006570816040039,-0.6775608062744141,-0.6242094039916992
1701865091772428500,1.453428466796875,1.1046314239501953,-0.7160742282867432,-0.928647518157959
1701865091782020600,1.4630205078125,1.1896471977233887,-0.8766674995422363,-1.1795883178710938
1701865091791613400,1.472613525390625,1.3275456428527832,-1.0719261169433594,-1.471156120300293
1701865091801207000,1.48220703125,1.5543503761291504,-1.2518362998962402,-1.6532015800476074
1701865091810799600,1.491799560546875,1.6967573165893555,-1.3824127912521362,-1.6222352981567383
1701865091820391700,1.5013916015625,1.6112666130065918,-1.4909555912017822,-1.4812450408935547
1701865091829984300,1.510984375,1.4585652351379395,-1.6595499515533447,-1.5004816055297852
1701865091839577900,1.520577880859375,1.3989849090576172,-1.7430121898651123,-1.4962701797485352
1701865091849170400,1.53017041015625,1.2029829025268555,-1.6591107845306396,-1.3841252326965332
1701865091858762500,1.539762451171875,1.0393686294555664,-1.6012516021728516,-1.319504737854004
1701865091868355300,1.549355224609375,0.9374456405639648,-1.6271958351135254,-1.1481742858886719
1701865091877949000,1.558948974609375,0.6244449615478516,-1.6831378936767578,-0.8466367721557617
1701865091887541500,1.56854150390625,0.34970664978027344,-1.6533324718475342,-0.6164064407348633
1701865091897133600,1.578133544921875,0.24180269241333008,-1.6365275382995605,-0.4152498245239258
1701865091906726100,1.58772607421875,0.21171307563781738,-1.5403320789337158,-0.19419097900390625
1701865091916319700,1.59731982421875,0.09336590766906738,-1.461321473121643,-0.19701004028320312
1701865091925912300,1.606912353515625,-0.06932353973388672,-1.545788288116455,-0.5724945068359375
1701865091935504400,1.61650439453125,0.04258561134338379,-1.5529181957244873,-1.2419390678405762
1701865091945097200,1.62609716796875,0.15732526779174805,-1.5243849754333496,-1.7197237014770508
1701865091954690600,1.635690673828125,0.3517296314239502,-1.6305572986602783,-1.7947235107421875
1701865091964283400,1.645283447265625,0.5975937843322754,-1.833304762840271,-1.3705239295959473
1701865091973875200,1.654875244140625,0.6761066913604736,-1.9617421627044678,-0.7338762283325195
1701865091983468000,1.664468017578125,0.4444568157196045,-2.0044965744018555,-0.5130300521850586
1701865091993061600,1.6740615234375,0.11149144172668457,-2.0744895935058594,-0.8505744934082031
1701865092002654200,1.683654296875,-0.03510117530822754,-1.9267141819000244,-1.549337387084961
1701865092012246300,1.693246337890625,-0.17497873306274414,-1.7524945735931396,-2.436345100402832
1701865092021839000,1.702839111328125,-0.3171663284301758,-1.836061954498291,-3.265432357788086
1701865092031432400,1.712432373046875,-0.22171688079833984,-2.076206684112549,-3.064054012298584
1701865092041025300,1.722025390625,-0.13135170936584473,-2.1676621437072754,-2.235478401184082
1701865092050617000,1.7316171875,-0.15941178798675537,-2.146456718444824,-1.3789525032043457
1701865092060210000,1.7412099609375,-0.05385029315948486,-1.9946057796478271,-0.5908451080322266
1701865092069803500,1.750803466796875,0.13815605640411377,-1.7340314388275146,0.1478137969970703
1701865092079396000,1.76039599609375,0.11801958084106445,-1.407639980316162,0.4340705871582031
1701865092088988200,1.76998828125,-0.06833577156066895,-1.090101718902588,0.13878250122070312
1701865092098580700,1.779580810546875,-0.3731420040130615,-0.9618856906890869,-0.3959770202636719
1701865092108174300,1.78917431640625,-0.747117280960083,-1.3753161430358887,-0.6271333694458008
1701865092117767200,1.79876708984375,-0.5093996524810791,-1.5089144706726074,-0.23931503295898438
1701865092127359000,1.80835888671875,-0.3341801166534424,-1.3780956268310547,0.17880821228027344
1701865092136951800,1.817951904296875,-0.5011152029037476,-1.4858441352844238,0.6273250579833984
1701865092146545400,1.82754541015625,-0.814454972743988,-1.6627416610717773,0.9697847366333008
1701865092156138000,1.837137939453125,-1.1489027738571167,-1.781379222869873,1.0613231658935547
1701865092165730000,1.84672998046875,-1.4725494384765625,-1.7736396789550781,0.9991531372070312
1701865092175322600,1.856322509765625,-1.8001537322998047,-1.6663379669189453,0.9928398132324219
1701865092184916200,1.865916259765625,-2.166492462158203,-1.5571551322937012,1.0206422805786133
1701865092194509000,1.875509033203125,-2.5479397773742676,-1.3700389862060547,1.1636605262756348
1701865092204100900,1.885100830078125,-2.7692744731903076,-0.923001766204834,0.8202886581420898
1701865092213693700,1.894693603515625,-3.263313055038452,-1.3956751823425293,1.006730079650879
1701865092223287300,1.904287353515625,-3.556774616241455,-1.8127756118774414,0.8121027946472168
1701865092232879900,1.9138798828125,-3.5373592376708984,-1.8618621826171875,0.6668739318847656
1701865092242472000,1.923471923828125,-3.365849494934082,-1.874692440032959,0.9558992385864258
1701865092252064500,1.933064453125,-2.9115145206451416,-1.9048418998718262,2.098442554473877
1701865092261658000,1.942658203125,-3.1256470680236816,-1.5651545524597168,3.7553539276123047
1701865092271250700,1.952250732421875,-3.3486366271972656,-0.9874286651611328,4.640066146850586
1701865092280842800,1.9618427734375,-3.2768380641937256,-0.5378627777099609,5.144860744476318
1701865092290435600,1.971435546875,-2.962137222290039,-0.1912078857421875,5.08264684677124
1701865092300029000,1.98102880859375,-2.7909412384033203,-0.18694782257080078,5.132287979125977
1701865092309621800,1.990621826171875,-2.5996968746185303,-0.15448713302612305,4.158636569976807
1701865092319213600,2.000213623046875,-2.7702443599700928,-0.31089305877685547,3.1505160331726074
1701865092328806400,2.009806396484375,-2.5313539505004883,0.22115564346313477,1.8959474563598633
1701865092338400000,2.01939990234375,-2.493212938308716,0.3256082534790039,0.9082942008972168
1701865092347992600,2.02899267578125,-1.367569923400879,0.11423778533935547,-0.464144229888916
1701865092357584600,2.038584716796875,-0.489798903465271,0.13823890686035156,-2.270273208618164
1701865092367177500,2.048177490234375,0.004542112350463867,-0.014568328857421875,-3.798419237136841
1701865092376770800,2.057770751953125,0.68320232629776,-0.5938491821289062,-4.300852298736572
1701865092386363600,2.06736376953125,6.052981853485107,-2.2845168113708496,-0.6622390747070312
1701865092395955500,2.07695556640625,7.831900119781494,-1.8350777626037598,-0.42009592056274414
1701865092405548300,2.08654833984375,6.38979959487915,-1.9695696830749512,-0.7086405754089355
1701865092415142000,2.096141845703125,3.8472235202789307,-2.021916389465332,-0.8855428695678711
1701865092424734500,2.105734375,1.5505982637405396,-1.1480250358581543,-1.3994340896606445
1701865092434326500,2.115326416015625,-1.3373404741287231,-0.1338939666748047,-2.189455032348633
1701865092443919000,2.124919189453125,-3.019768714904785,0.13285017013549805,-2.7355549335479736
1701865092453512700,2.1345126953125,-3.796668291091919,-0.6899232864379883,-1.6270089149475098
1701865092463105500,2.14410546875,-3.2683160305023193,-1.6711349487304688,0.6020598411560059
1701865092472697300,2.153697265625,-2.152602195739746,-1.5795049667358398,1.9899849891662598
1701865092482290200,2.163290283203125,-1.03931725025177,-1.3403363227844238,3.257840633392334
1701865092491883800,2.1728837890625,-0.5812680721282959,-1.0946369171142578,3.80698823928833
1701865092501476400,2.182476318359375,-0.8392294645309448,-1.0563898086547852,3.6964035034179688
1701865092511068400,2.192068359375,-0.6178898811340332,-0.8190155029296875,2.268021583557129
1701865092520661000,2.201660888671875,0.12022817134857178,-0.5124516487121582,0.9436111450195312
1701865092530254600,2.211254638671875,0.6119229793548584,-0.26554203033447266,-0.006852149963378906
1701865092539847400,2.220847412109375,0.7836756706237793,-0.31940174102783203,-0.06688117980957031
1701865092549439200,2.230439208984375,0.7861838340759277,-0.1787433624267578,-0.1006927490234375
1701865092559032000,2.240031982421875,0.5315883159637451,-0.10187053680419922,-0.1422257423400879
1701865092568625700,2.249625732421875,0.1638643741607666,0.08655834197998047,-0.3189883232116699
1701865092578218200,2.25921826171875,0.695783257484436,0.6215672492980957,-0.7902393341064453
1701865092587810300,2.268810302734375,0.066009521484375,0.7222504615783691,-0.44301795959472656
1701865092597403000,2.27840283203125,0.04854393005371094,0.5584392547607422,-0.37194061279296875
1701865092606996500,2.28799658203125,0.12476205825805664,0.6495871543884277,-0.17539453506469727
1701865092616589300,2.29758935546875,0.45127737522125244,0.7870631217956543,-0.009324073791503906
1701865092626181000,2.30718115234375,0.3791424036026001,1.0844907760620117,0.006424903869628906
1701865092635774000,2.31677392578125,0.2475728988647461,1.402109146118164,-0.09625816345214844
1701865092645367300,2.3263671875,0.3971759080886841,1.250293254852295,0.03866386413574219
1701865092654960000,2.335960205078125,0.6643357276916504,1.0198116302490234,0.0440983772277832
1701865092664552000,2.345552001953125,0.7233157157897949,0.7481856346130371,-0.1682910919189453
1701865092674144800,2.355144775390625,0.46427392959594727,0.837977409362793,-0.6332035064697266
1701865092683738400,2.36473828125,0.17022228240966797,0.8038930892944336,-0.5838274955749512
1701865092693331000,2.3743310546875,0.4219473600387573,0.801384449005127,-0.3674159049987793
1701865092702923000,2.383923095703125,0.6009241342544556,0.5381894111633301,-0.008677482604980469
1701865092712515600,2.393515625,1.1141109466552734,0.45888805389404297,-0.02700185775756836
1701865092722109200,2.403109130859375,0.3909198045730591,0.9274134635925293,-0.4259672164916992
1701865092731702000,2.412701904296875,-0.2619771957397461,0.9557933807373047,-0.2347397804260254
1701865092741293800,2.4222939453125,-0.4978218078613281,1.3132376670837402,-0.5780148506164551
1701865092750886700,2.43188671875,0.7924740314483643,1.1328363418579102,-0.49803972244262695
1701865092760480300,2.441480224609375,1.1763560771942139,0.30945301055908203,-0.3178701400756836
1701865092770072800,2.45107275390625,2.751171350479126,-0.07780170440673828,-0.38705968856811523
1701865092779665000,2.460664794921875,1.9073655605316162,-0.6100568771362305,0.04387378692626953
1701865092789257500,2.470257568359375,-0.8702528476715088,-0.8490800857543945,0.06897974014282227
1701865092798851000,2.47985107421875,-2.44846510887146,-0.9720745086669922,0.1319279670715332
1701865092808444000,2.48944384765625,-0.35410141944885254,-1.5899839401245117,0.3603534698486328
1701865092818035700,2.49903564453125,1.1702234745025635,-1.5277938842773438,0.3833274841308594
1701865092827628500,2.508628662109375,0.2994110584259033,-2.0950984954833984,-0.20055413246154785
1701865092837222100,2.51822216796875,0.07432961463928223,-1.485574722290039,-0.961310863494873
1701865092846814700,2.527814697265625,1.020372986793518,-0.6138057708740234,-0.9784255027770996
1701865092856406800,2.53740673828125,0.8408476114273071,-0.9347953796386719,-0.3217294216156006
1701865092865999400,2.546999267578125,0.22119688987731934,-0.9864969253540039,0.0034079551696777344
1701865092875593000,2.556593017578125,-0.28224778175354004,-0.9815464019775391,0.31829357147216797
1701865092885185800,2.566185791015625,-0.13559746742248535,-1.6919746398925781,0.9817984104156494
1701865092894777600,2.575777587890625,0.6001445055007935,-3.14370059967041,1.6957173347473145
1701865092904370400,2.585370361328125,0.04036831855773926,-3.899232864379883,2.4999117851257324
1701865092913964000,2.594964111328125,-0.581545352935791,-3.7920846939086914,2.468470811843872
1701865092923556600,2.604556640625,-0.4913177490234375,-2.676358222961426,1.9917311668395996
1701865092933148700,2.614148681640625,1.3238811492919922,2.340834617614746,-0.3635258674621582
1701865092942741200,2.6237412109375,1.6902005672454834,4.9264936447143555,-1.451606273651123
1701865092952334800,2.6333349609375,1.2644391059875488,4.828529357910156,-2.131049871444702
1701865092961927400,2.642927490234375,0.9964341521263123,3.764677047729492,-2.353313446044922
1701865092971519500,2.65251953125,1.3266178369522095,2.6395201683044434,-2.4316115379333496
1701865092981112300,2.6621123046875,1.3771276473999023,1.7738475799560547,-2.6748690605163574
1701865092990706000,2.671705810546875,0.6950834393501282,1.2088432312011719,-3.107591152191162
1701865093000298500,2.681298583984375,-0.43009138107299805,1.239952564239502,-3.3200056552886963
1701865093009890600,2.690890625,-1.7769737243652344,1.5524859428405762,-2.944082021713257
1701865093019483100,2.700483154296875,-2.8901662826538086,1.9145526885986328,-2.869436264038086
1701865093029076700,2.71007666015625,-3.7453694343566895,2.515042304992676,-2.5877814292907715
1701865093038669300,2.71966943359375,-3.128931760787964,2.665745258331299,-1.6976120471954346
1701865093048261400,2.729261474609375,-3.2208876609802246,-1.779881477355957,1.7327871322631836
1701865093057854200,2.738854248046875,-2.1519970893859863,-5.705864906311035,5.167552471160889
1701865093067447600,2.748447509765625,0.6990702748298645,-0.1539297103881836,1.2924820184707642
1701865093077040400,2.758040283203125,0.17542099952697754,1.6167616844177246,-0.5182066559791565
1701865093086632200,2.767632080078125,-0.9696671962738037,0.00331878662109375,0.34405040740966797
1701865093096225000,2.77722509765625,-0.5691304206848145,-1.3326873779296875,0.9257264137268066
1701865093105818600,2.786818603515625,0.9426488876342773,-1.4792718887329102,-0.0008375644683837891
1701865093115411200,2.7964111328125,1.2670583724975586,-2.3213844299316406,-0.24179935455322266
1701865093125003300,2.806003173828125,1.5055854320526123,-6.986785888671875,0.9204897880554199
1701865093134595800,2.815595947265625,0.8639561533927917,-12.602824211120605,0.954941987991333
1701865093144189400,2.825189453125,3.370767593383789,-14.359339714050293,4.593753814697266
1701865093153782300,2.8347822265625,3.6838176250457764,-3.7237977981567383,3.6786794662475586
1701865093163374000,2.8443740234375,1.3955559730529785,0.6953611373901367,1.1505732536315918
1701865093172967000,2.853966796875,-0.1846224069595337,0.4172534942626953,-0.41275298595428467
1701865093182560500,2.863560546875,-0.5498145818710327,0.5413417816162109,-0.637164831161499
1701865093192153000,2.873153076171875,-0.4303821325302124,0.4019632339477539,-0.3867757320404053
1701865093201745200,2.8827451171875,-0.10322141647338867,0.12439537048339844,-0.07808172702789307
1701865093211337700,2.892337646484375,0.26799750328063965,-0.1091604232788086,0.01325845718383789
1701865093220931300,2.901931396484375,0.29590368270874023,-0.027009963989257812,0.29599666595458984
1701865093230524200,2.911524169921875,0.1844930648803711,0.062094688415527344,0.2718085050582886
1701865093240116000,2.921115966796875,0.09499382972717285,0.14379215240478516,0.12419366836547852
1701865093249708800,2.930708740234375,0.10214853286743164,0.12252235412597656,0.1470944881439209
1701865093259302100,2.94030224609375,0.22073698043823242,-0.003910064697265625,0.21803879737854004
1701865093268895000,2.94989501953125,0.4092738628387451,-0.036960601806640625,0.22050976753234863
1701865093278486800,2.95948681640625,-1.182790994644165,4.756943225860596,0.10574793815612793
1701865093288079600,2.96907958984375,-4.606465816497803,4.786786079406738,3.629067897796631
1701865093297673200,2.978673095703125,2.4105355739593506,-2.0982484817504883,1.9239269495010376
1701865093307265800,2.988265869140625,3.70680570602417,-2.187047004699707,-1.8598166704177856
1701865093316857900,2.99785791015625,3.0975561141967773,-1.4956331253051758,-2.30535888671875
1701865093326450400,3.007450439453125,2.115605354309082,-1.1747808456420898,-1.1325870752334595
1701865093336044000,3.0170439453125,0.8631584048271179,-0.25207042694091797,-0.90310138463974
1701865093345636900,3.026636962890625,0.6655694246292114,-0.5094757080078125,0.06920957565307617
1701865093355228700,3.036228759765625,0.3635658025741577,-0.28870582580566406,0.2724592685699463
1701865093364821500,3.045821533203125,0.12512195110321045,0.15534305572509766,0.1497148871421814
1701865093374415000,3.0554150390625,-0.16712331771850586,0.3461732864379883,-0.042122840881347656
1701865093384007700,3.065007568359375,-0.15790367126464844,0.2933225631713867,-0.049978435039520264
1701865093393599700,3.074599853515625,-0.3281409740447998,0.31308555603027344,-0.06100088357925415
1701865093403192300,3.0841923828125,-0.49646055698394775,0.22215557098388672,0.24418193101882935
1701865093412786000,3.093785888671875,0.24216866493225098,0.15973186492919922,0.6463119983673096
1701865093422378800,3.103378662109375,1.0259723663330078,0.09273242950439453,0.8309394121170044
1701865093431970600,3.112970458984375,0.9152234792709351,0.3699970245361328,0.6262197494506836
1701865093441563400,3.1225634765625,0.5632399320602417,-0.034236907958984375,0.3686503767967224
1701865093451157000,3.132156982421875,2.1216840744018555,0.8917617797851562,-0.5570590496063232
1701865093460749600,3.14174951171875,0.23597586154937744,0.6861667633056641,-1.0469093322753906
1701865093470341600,3.151341552734375,-0.4348536729812622,0.049223899841308594,-0.41389888525009155
1701865093479934200,3.160934326171875,0.4130558371543884,-0.08397674560546875,0.715671718120575
1701865093489527800,3.17052783203125,0.7757200598716736,-0.3144245147705078,1.0618458986282349
1701865093499120400,3.180120361328125,0.6184520125389099,-0.5827579498291016,0.7369082570075989
1701865093508712400,3.18971240234375,0.35259318351745605,-0.6622047424316406,0.2080051302909851
1701865093518305300,3.19930517578125,0.30089735984802246,-0.5317707061767578,-0.15967515110969543
1701865093527899000,3.20889892578125,0.343925416469574,-0.3997068405151367,-0.3889186382293701
1701865093537491500,3.218491455078125,0.43124592304229736,-0.31366825103759766,-0.5649622678756714
1701865093547083300,3.228083251953125,0.4812135100364685,-0.3307323455810547,-0.5994558334350586
1701865093556676000,3.237676025390625,0.4742687940597534,-0.3287668228149414,-0.6405978202819824
1701865093566269700,3.247269775390625,0.4296949505805969,-0.26960086822509766,-0.7282044291496277
1701865093575862300,3.2568623046875,0.4667520523071289,-0.26318931579589844,-0.6404149532318115
1701865093585454300,3.266454345703125,0.3465237021446228,-0.1804962158203125,-0.614257276058197
1701865093595047200,3.276047119140625,0.2486981749534607,-0.13397693634033203,-0.5163816213607788
1701865093604640500,3.285640625,0.1593605875968933,-0.08301448822021484,-0.45006370544433594
1701865093614233300,3.2952333984375,0.04552638530731201,-0.08259201049804688,-0.42307204008102417
1701865093623825200,3.3048251953125,-0.02351212501525879,-0.12540626525878906,-0.4023410379886627
1701865093633418000,3.31441796875,-0.08376157283782959,-0.18027782440185547,-0.4784761667251587
1701865093643011600,3.324011474609375,-0.14461153745651245,-0.2184734344482422,-0.6522769927978516
1701865093652604200,3.333604248046875,0.01798558235168457,-0.354583740234375,-0.6299211382865906
1701865093662196200,3.3431962890625,-0.026707768440246582,-0.38297176361083984,-0.7481313943862915
1701865093671788800,3.352788818359375,0.0013224482536315918,-0.4137544631958008,-0.7721948623657227
1701865093681382400,3.36238232421875,0.051531195640563965,-0.4827098846435547,-0.7812110781669617
1701865093690975200,3.371975341796875,0.10491031408309937,-0.5515470504760742,-0.7345618605613708
1701865093700567000,3.381567138671875,0.1257738471031189,-0.6131095886230469,-0.670448362827301
1701865093710160000,3.391159912109375,0.14275074005126953,-0.6721858978271484,-0.5746939182281494
1701865093719753500,3.40075341796875,0.13926732540130615,-0.7049312591552734,-0.471463680267334
1701865093729346000,3.410345947265625,0.1227690577507019,-0.6923465728759766,-0.39898818731307983
1701865093738938000,3.419938232421875,0.05531001091003418,-0.6393585205078125,-0.3621107339859009
1701865093748530700,3.42953076171875,0.008870482444763184,-0.6201143264770508,-0.37769943475723267
1701865093758124300,3.439124267578125,-0.05731797218322754,-0.5628843307495117,-0.4289260506629944
1701865093767717000,3.448717041015625,-0.07215172052383423,-0.5536823272705078,-0.4921591877937317
1701865093777309000,3.458308837890625,-0.06975144147872925,-0.5111589431762695,-0.5460580587387085
1701865093786901800,3.46790185546875,-0.04799056053161621,-0.49268531799316406,-0.5477513074874878
1701865093796495400,3.477495361328125,-0.04544627666473389,-0.4647397994995117,-0.5498575568199158
1701865093806088000,3.487087890625,-0.04067814350128174,-0.41301631927490234,-0.5190308094024658
1701865093815679700,3.4966796875,-0.04062151908874512,-0.34952831268310547,-0.48855575919151306
1701865093825272600,3.5062724609375,-0.012181997299194336,-0.2551765441894531,-0.4559166431427002
1701865093834866200,3.5158662109375,0.07776528596878052,-0.14435291290283203,-0.4330172538757324
1701865093844458800,3.525458740234375,0.16903060674667358,-0.021842002868652344,-0.3791981339454651
1701865093854050800,3.53505078125,0.24251604080200195,0.050248146057128906,-0.33522969484329224
1701865093863643400,3.544643310546875,0.32941365242004395,0.11024761199951172,-0.30112555623054504
1701865093873237000,3.554237060546875,0.37260615825653076,0.15578651428222656,-0.2887420058250427
1701865093882829800,3.563829833984375,0.40337324142456055,0.17256450653076172,-0.30300819873809814
1701865093892421600,3.573421630859375,0.4123044013977051,0.1725921630859375,-0.31037020683288574
1701865093902014500,3.583014404296875,0.3256751298904419,0.1415719985961914,-0.3466777801513672
1701865093911608000,3.592608154296875,0.20373541116714478,0.0807657241821289,-0.41793596744537354
1701865093921200600,3.60220068359375,0.15082323551177979,-0.042697906494140625,-0.4718189835548401
1701865093930792700,3.611792724609375,0.14448225498199463,-0.1736154556274414,-0.5672918558120728
1701865093940385300,3.62138525390625,0.15568667650222778,-0.3118572235107422,-0.6373190879821777
1701865093949979000,3.630978759765625,0.16779261827468872,-0.47379302978515625,-0.6448336839675903
1701865093959571700,3.64057177734375,0.22093254327774048,-0.6237258911132812,-0.673138439655304
1701865093969163500,3.65016357421875,0.26286864280700684,-0.7336254119873047,-0.6442036628723145
1701865093978756400,3.65975634765625,0.3198113441467285,-0.7665004730224609,-0.5757332444190979
1701865093988349700,3.669349609375,0.39612072706222534,-0.7330493927001953,-0.5504287481307983
1701865093997942500,3.678942626953125,0.45852750539779663,-0.650853157043457,-0.48773014545440674
1701865094007534300,3.688534423828125,0.4485333561897278,-0.548985481262207,-0.42579543590545654
1701865094017127200,3.698127197265625,0.46870100498199463,-0.40895652770996094,-0.37167492508888245
1701865094026720800,3.707720703125,0.5253645181655884,-0.32790660858154297,-0.35557931661605835
1701865094036313300,3.717313232421875,0.533049464225769,-0.22716236114501953,-0.34870612621307373
1701865094045905400,3.726905517578125,0.5329481959342957,-0.20125293731689453,-0.3156500458717346
1701865094055498000,3.736498046875,0.47127625346183777,-0.1689128875732422,-0.3181268870830536
1701865094065091600,3.746091552734375,0.4714787006378174,-0.17734146118164062,-0.36046019196510315
1701865094074684400,3.755684326171875,0.471307635307312,-0.2494068145751953,-0.3787252902984619
1701865094084276200,3.765276123046875,0.47189944982528687,-0.37708568572998047,-0.37859398126602173
1701865094093869000,3.774869140625,0.49860525131225586,-0.4937095642089844,-0.40296828746795654
1701865094103462700,3.784462646484375,0.47786271572113037,-0.34995460510253906,-0.5799040794372559
1701865094113055200,3.79405517578125,0.5089092254638672,-0.23737144470214844,-0.5870894193649292
1701865094122647300,3.803647216796875,0.5190151333808899,-0.29212474822998047,-0.6633234024047852
1701865094132240000,3.813239990234375,0.4838818311691284,-0.42920684814453125,-0.690211296081543
1701865094141833500,3.82283349609375,0.46845513582229614,-0.5085000991821289,-0.7324423789978027
1701865094151426300,3.83242626953125,0.425367534160614,-0.6275796890258789,-0.7600642442703247
1701865094161018000,3.84201806640625,0.31112271547317505,-0.6612930297851562,-0.8939930200576782
1701865094170611000,3.85161083984375,-0.013948202133178711,-0.7713785171508789,-0.9491292238235474
1701865094180204500,3.86120458984375,0.021363139152526855,-1.0462627410888672,-0.7613509893417358
1701865094189797000,3.870797119140625,-0.005565285682678223,-1.2409381866455078,-0.8203737735748291
1701865094199389200,3.88038916015625,-0.15846037864685059,-1.4184722900390625,-0.8800915479660034
1701865094208981800,3.889981689453125,-0.2827571630477905,-1.2499523162841797,-1.1303027868270874
1701865094218575400,3.899575439453125,-0.12517213821411133,-1.269688606262207,-1.100529432296753
1701865094228168000,3.90916796875,0.24739372730255127,-1.4563627243041992,-0.7503417730331421
1701865094237760000,3.918760009765625,0.5836136341094971,-1.1668691635131836,-0.8798744678497314
1701865094247352800,3.928352783203125,0.43572378158569336,-0.7722358703613281,-0.6747621893882751
1701865094256946200,3.9379462890625,-0.13875389099121094,-0.34942054748535156,-0.5214495658874512
1701865094266539000,3.9475390625,-0.5546808242797852,-0.14246368408203125,-0.2846370041370392
1701865094276130800,3.957130859375,-0.6896817684173584,-0.3851957321166992,-0.06634348630905151
1701865094285723600,3.9667236328125,-0.9269504547119141,-0.4795570373535156,0.11322186887264252
1701865094295317200,3.976317138671875,-0.23242545127868652,-0.41512489318847656,0.10754530131816864
1701865094304909800,3.985909912109375,0.04781222343444824,-0.26728248596191406,0.16891472041606903
1701865094314502000,3.995501953125,0.010056018829345703,-0.3645153045654297,0.7459157109260559
1701865094324094500,4.005094482421875,0.3401830196380615,0.2095794677734375,0.7715914249420166
1701865094333688000,4.01468798828125,-0.09445714950561523,1.409123420715332,0.47750064730644226
1701865094343281000,4.024281005859375,0.295135498046875,1.554555892944336,0.9843326210975647
1701865094352872700,4.033872802734375,0.12355732917785645,1.1713151931762695,1.2479859590530396
1701865094362465500,4.043465576171875,0.2449204921722412,1.2987794876098633,1.2528184652328491
1701865094372059100,4.05305908203125,0.04549860954284668,1.5907363891601562,0.8329357504844666
1701865094381651700,4.062651611328125,0.2776787281036377,1.2820930480957031,0.9883711338043213
1701865094391243800,4.072243896484375,0.12134456634521484,-0.10979461669921875,1.516865849494934
1701865094400836400,4.08183642578125,0.2639598846435547,1.1241321563720703,1.1636117696762085
1701865094410430000,4.091429931640625,-0.013180017471313477,3.3507208824157715,0.5137786865234375
1701865094420022500,4.1010224609375,-0.7639274597167969,3.3068337440490723,0.640200138092041
1701865094429614600,4.110614501953125,-0.0899651050567627,3.1838698387145996,0.6079556345939636
1701865094439207400,4.12020751953125,0.2194805145263672,2.3116917610168457,0.9799444079399109
1701865094448801000,4.129801025390625,0.6030991077423096,1.7220845222473145,0.9477142691612244
1701865094458393600,4.1393935546875,0.6486592292785645,1.5046000480651855,0.6500155925750732
1701865094467985700,4.148985595703125,0.5402874946594238,1.5310277938842773,0.020523235201835632
1701865094477578200,4.158578125,0.4585850238800049,1.6929240226745605,-0.8733757734298706
1701865094487171800,4.168171875,0.38833022117614746,1.6502342224121094,-0.8297408223152161
1701865094496764400,4.177764404296875,-0.30436253547668457,2.088914394378662,-1.3729044198989868
1701865094506356500,4.1873564453125,-1.0663681030273438,2.3229522705078125,-1.563126564025879
1701865094515949000,4.196948974609375,-0.8108081817626953,1.7996273040771484,-1.0649538040161133
1701865094525542700,4.206542724609375,-0.013701200485229492,1.5999374389648438,-0.7931845188140869
1701865094535135500,4.216135498046875,0.7234909534454346,1.6153106689453125,-0.5901223421096802
1701865094544727300,4.225727294921875,1.1088104248046875,1.6457605361938477,-0.4812362790107727
1701865094554320100,4.235320068359375,1.0144636631011963,1.5597076416015625,-0.4494052529335022
1701865094563913700,4.244913818359375,0.8415515422821045,1.3999319076538086,-0.5625929832458496
1701865094573506300,4.25450634765625,0.81732177734375,1.3002338409423828,-0.6874483823776245
1701865094583098400,4.264098388671875,0.8360555171966553,1.2031898498535156,-0.7749465703964233
1701865094592691000,4.27369091796875,0.7025504112243652,1.122762680053711,-0.8051541447639465
1701865094602284500,4.283284423828125,0.3878762722015381,1.0391340255737305,-0.8482436537742615
1701865094611877400,4.29287744140625,0.025421619415283203,1.0401992797851562,-1.2593284845352173
1701865094621469200,4.30246923828125,-0.4205350875854492,0.9934101104736328,-0.6976883411407471
1701865094631062000,4.31206201171875,-0.8722143173217773,0.9653358459472656,-0.5250422954559326
1701865094640655600,4.321655517578125,-1.1476893424987793,1.1972131729125977,-0.7205615639686584
1701865094650248200,4.331248291015625,-1.173464059829712,1.0175752639770508,-0.8104015588760376
1701865094659840300,4.34084033203125,-1.1769514083862305,0.7284183502197266,-0.6315699815750122
1701865094669432800,4.350432861328125,-1.0886528491973877,0.4373750686645508,-0.38109153509140015
1701865094679026400,4.3600263671875,-0.9019296169281006,0.33068180084228516,-0.07571858167648315
1701865094688619000,4.369618896484375,-0.6919867992401123,0.025754928588867188,0.704498291015625
1701865094698211000,4.379211181640625,-0.6343972682952881,-0.3191556930541992,1.1907187700271606
1701865094707803600,4.3888037109375,-0.6143510341644287,-0.7692089080810547,1.4749276638031006
1701865094717397200,4.398397216796875,-0.7811334133148193,-0.9740085601806641,1.3221019506454468
1701865094726990000,4.407989990234375,-1.0498237609863281,-1.1683473587036133,0.9893708229064941
1701865094736582000,4.417581787109375,-1.0947237014770508,-1.3404254913330078,0.7396761178970337
1701865094746174700,4.4271748046875,-0.9513993263244629,-1.554795265197754,0.22624564170837402
1701865094755768300,4.436768310546875,-0.6914613246917725,-1.8135604858398438,-0.34837430715560913
1701865094765361000,4.44636083984375,-0.5759334564208984,-1.987375259399414,-0.6531394124031067
1701865094774953000,4.455952880859375,-0.5186252593994141,-1.820134162902832,-0.96009361743927
1701865094784545500,4.465545654296875,-0.3333590030670166,-1.3620033264160156,-1.2507587671279907
1701865094794139100,4.47513916015625,-0.13518691062927246,-1.041184425354004,-1.1984236240386963
1701865094803732000,4.48473193359375,-0.010941505432128906,-0.8811702728271484,-0.904393196105957
1701865094813323800,4.49432373046875,0.115142822265625,-0.8290252685546875,-0.4848998486995697
1701865094822916600,4.50391650390625,0.030811309814453125,-0.7175655364990234,-0.07218080759048462
1701865094832510000,4.513510009765625,-0.23410272598266602,-0.6809110641479492,0.177243173122406
1701865094842102800,4.523102783203125,-0.36361145973205566,-0.49207210540771484,0.19928711652755737
1701865094851694600,4.532694580078125,-0.3107571601867676,-0.1989574432373047,-0.0490114688873291
1701865094861287400,4.542287353515625,-0.19116783142089844,0.13155841827392578,-0.39077505469322205
1701865094870881000,4.551881103515625,-0.12041068077087402,0.439971923828125,-0.6259521842002869
1701865094880473600,4.5614736328125,0.03675580024719238,0.7673015594482422,-0.9009515643119812
1701865094890065700,4.571065673828125,0.13983869552612305,1.441335678100586,-1.285915493965149
1701865094899658200,4.580658203125,0.23722577095031738,1.5827531814575195,-1.265714406967163
1701865094909251800,4.590251953125,0.40206170082092285,1.159393310546875,-0.6849637627601624
1701865094918844700,4.5998447265625,0.3268465995788574,0.969970703125,-0.31075718998908997
1701865094928436500,4.6094365234375,0.32849228382110596,0.7651805877685547,-0.03815525770187378
1701865094938029300,4.619029296875,0.4332844018936157,0.6858768463134766,0.09287846088409424
1701865094947623000,4.628622802734375,0.5855644941329956,0.6625461578369141,0.24774324893951416
1701865094957215500,4.638215576171875,0.6471681594848633,0.7043876647949219,0.4042532444000244
1701865094966807300,4.647807373046875,0.6221907138824463,0.7319869995117188,0.5970720052719116
1701865094976400100,4.657400146484375,0.5222495794296265,0.871485710144043,0.6270653009414673
1701865094985993700,4.66699365234375,0.6817760467529297,0.7715511322021484,0.6091562509536743
1701865094995586300,4.67658642578125,0.8347289562225342,0.5355024337768555,0.600566029548645
1701865095005178400,4.686178466796875,0.9099828004837036,0.3522205352783203,0.5224476456642151
1701865095014771200,4.695771240234375,0.8441010117530823,0.08767032623291016,0.3702237606048584
1701865095024364500,4.705364501953125,0.6535321474075317,-0.1770648956298828,0.22267335653305054
1701865095033957400,4.714957275390625,0.39926159381866455,-0.4182147979736328,0.058640122413635254
1701865095043549200,4.724549072265625,0.2800523042678833,-0.6310663223266602,-0.08816581964492798
1701865095053142000,4.73414208984375,0.25965428352355957,-0.6818981170654297,-0.06021958589553833
1701865095062735600,4.743735595703125,0.20682835578918457,-0.7645387649536133,-0.02707427740097046
1701865095072328200,4.753328125,0.2102748155593872,-0.7619132995605469,0.07050609588623047
1701865095081920300,4.762920166015625,0.2884488105773926,-0.6478509902954102,0.17036175727844238
1701865095091512800,4.772512939453125,0.3901492953300476,-0.5084466934204102,0.2703351378440857
1701865095101106400,4.7821064453125,0.4548916816711426,-0.3340587615966797,0.3400292992591858
1701865095110699300,4.79169921875,0.5331626534461975,-0.14385604858398438,0.42322224378585815
1701865095120291000,4.801291015625,0.6150103807449341,0.014404296875,0.55074143409729
1701865095129884000,4.8108837890625,0.721317708492279,0.02392864227294922,0.611070990562439
1701865095139477500,4.8204775390625,0.7137535810470581,-0.02414417266845703,0.6670774817466736
1701865095149070000,4.830070068359375,0.6718224883079529,-0.022197723388671875,0.6595438122749329
1701865095158662100,4.839662109375,0.5889338254928589,0.02249622344970703,0.6442047357559204
1701865095168254700,4.849254638671875,0.48443591594696045,0.10031700134277344,0.5927622318267822
1701865095177848300,4.858848388671875,0.5672873258590698,0.13969135284423828,0.48363691568374634
1701865095187441000,4.86844091796875,0.5618084073066711,0.20526123046875,0.41715872287750244
1701865095197033000,4.878032958984375,0.5418417453765869,0.32086658477783203,0.376197874546051
1701865095206625500,4.88762548828125,0.6354010701179504,0.5079851150512695,0.26284974813461304
1701865095216219100,4.89721923828125,0.7606086730957031,0.7927274703979492,0.17028456926345825
1701865095225812000,4.90681201171875,0.8840625286102295,1.0745811462402344,0.079928457736969
1701865095235403800,4.91640380859375,0.872713565826416,1.293853759765625,-0.028925597667694092
1701865095244996600,4.92599658203125,0.9123311638832092,1.2262277603149414,0.1631438136100769
1701865095254590200,4.935590087890625,1.1523771286010742,0.8317575454711914,0.39608365297317505
1701865095264182800,4.945182861328125,1.362091302871704,0.3260049819946289,0.7627337574958801
1701865095273774800,4.95477490234375,1.3663315773010254,-0.011555671691894531,0.9927868843078613
1701865095283367400,4.964367431640625,1.2019574642181396,-0.06450080871582031,1.0309715270996094
1701865095292961000,4.9739609375,0.981870174407959,0.09227561950683594,0.9479807019233704
1701865095302553600,4.9835537109375,0.6327858567237854,0.2671089172363281,0.8074548244476318
1701865095312145700,4.993145751953125,0.4154549539089203,0.3022756576538086,0.7200256586074829
1701865095321738500,5.002738525390625,0.4172517657279968,0.24594688415527344,0.641191840171814
1701865095331331800,5.012331787109375,0.6213589906692505,0.13436603546142578,0.5461468696594238
1701865095340924700,5.021924560546875,0.5616096258163452,-0.008275032043457031,0.4145098924636841
1701865095350516500,5.0315166015625,0.3710280954837799,-0.25580883026123047,0.4828331470489502
1701865095360109300,5.041109375,0.37785929441452026,-0.5339555740356445,0.5680711269378662
1701865095369703000,5.050702880859375,0.21326422691345215,-0.8307790756225586,0.7192473411560059
1701865095379295500,5.06029541015625,-0.0721544623374939,-1.1104869842529297,0.7898756265640259
1701865095388887600,5.069887451171875,-0.23001039028167725,-1.2799453735351562,0.7039649486541748
1701865095398480100,5.079480224609375,-0.09992894530296326,-1.3417587280273438,0.6935384273529053
1701865095408073700,5.08907373046875,0.06268888711929321,-1.3319578170776367,0.7131233215332031
1701865095417666600,5.09866650390625,0.10111844539642334,-1.2291088104248047,0.7727744579315186
1701865095427258400,5.10825830078125,0.015853703022003174,-0.9496517181396484,0.6830322742462158
1701865095436851200,5.117851318359375,-0.10159549117088318,-0.5439262390136719,0.5776020288467407
1701865095446444800,5.12744482421875,-0.043245673179626465,-0.11235904693603516,0.5055645704269409
1701865095456037400,5.137037353515625,-0.059599995613098145,0.2757530212402344,0.5768674612045288
1701865095465629400,5.14662939453125,-0.002335280179977417,0.5273714065551758,0.7193127870559692
1701865095475222000,5.156221923828125,0.16764508187770844,0.6188364028930664,0.9004329442977905
1701865095484815600,5.165815673828125,0.46780645847320557,0.5766983032226562,1.0999221801757812
1701865095494408200,5.175408203125,0.6134853363037109,0.5708627700805664,1.1459487676620483
1701865095504000300,5.185000244140625,0.5703617930412292,0.5701971054077148,1.1538957357406616
1701865095513593000,5.194593017578125,0.500038206577301,0.4767332077026367,1.2145904302597046
1701865095523186400,5.2041865234375,0.3843224346637726,0.42683982849121094,1.175344705581665
1701865095532779300,5.213779296875,0.4002588987350464,0.37026023864746094,1.1128933429718018
1701865095542371000,5.22337109375,0.40658897161483765,0.3284721374511719,0.9889276027679443
1701865095551964000,5.2329638671875,0.3868832290172577,0.301361083984375,0.881915807723999
1701865095561557500,5.2425576171875,0.35324811935424805,0.28652000427246094,0.7753071784973145
1701865095571150000,5.252150146484375,0.41488322615623474,0.2767763137817383,0.671694278717041
1701865095580742100,5.2617421875,0.43503838777542114,0.3030824661254883,0.6661176681518555
1701865095590334700,5.271334716796875,0.3258736729621887,0.37244701385498047,0.6314141750335693
1701865095599928300,5.28092822265625,0.1913474053144455,0.4918842315673828,0.603252649307251
1701865095609521000,5.29052099609375,0.12080603837966919,0.6158876419067383,0.529078483581543
1701865095619113000,5.300113037109375,0.10735666006803513,0.7444629669189453,0.4115114212036133
1701865095628705800,5.309705810546875,0.11515050381422043,0.7844257354736328,0.2934091091156006
1701865095638299100,5.319299072265625,0.05567094683647156,0.7717657089233398,0.21728551387786865
1701865095647892000,5.32889208984375,0.03417684882879257,0.6635026931762695,0.1652524471282959
1701865095657483800,5.33848388671875,-0.026593409478664398,0.4550132751464844,0.10538351535797119
1701865095667076600,5.34807666015625,-0.01969386637210846,0.2181234359741211,0.04416537284851074
1701865095676670200,5.357670166015625,0.025342151522636414,-0.02086925506591797,0.021729350090026855
1701865095686262800,5.3672626953125,0.06693883240222931,-0.26201438903808594,0.07799339294433594
1701865095695854800,5.376854736328125,0.10230317711830139,-0.4265708923339844,0.17374205589294434
1701865095705447400,5.386447509765625,0.21471244096755981,-0.5744438171386719,0.24893969297409058
1701865095715041000,5.396041015625,0.3424375653266907,-0.6387195587158203,0.25656408071517944
1701865095724633900,5.4056337890625,0.41907355189323425,-0.6242694854736328,0.1787247657775879
1701865095734225700,5.4152255859375,0.43105727434158325,-0.5311870574951172,0.1120826005935669
1701865095743818500,5.424818603515625,0.362723708152771,-0.4311971664428711,0.06710916757583618
1701865095753412000,5.434412109375,0.23406222462654114,-0.39348697662353516,0.034936487674713135
1701865095763004700,5.444004638671875,0.22734493017196655,-0.4059257507324219,0.01324927806854248
1701865095772596700,5.4535966796875,0.39194542169570923,-0.42781543731689453,0.023358941078186035
1701865095782189300,5.463189208984375,0.557252049446106,-0.40186309814453125,0.10062623023986816
1701865095791783000,5.472782958984375,0.577465295791626,-0.37601280212402344,0.21790415048599243
1701865095801375500,5.48237548828125,0.4769916534423828,-0.3765687942504883,0.33153730630874634
1701865095810967600,5.491967529296875,0.3875543177127838,-0.37483787536621094,0.42197179794311523
1701865095820560400,5.501560302734375,0.36357855796813965,-0.3732576370239258,0.4625256061553955
1701865095830153700,5.51115380859375,0.33982229232788086,-0.30735206604003906,0.4701593518257141
1701865095839746600,5.52074658203125,0.32990729808807373,-0.22029590606689453,0.4687160849571228
1701865095849338400,5.53033837890625,0.2973417341709137,-0.07149219512939453,0.3947010040283203
1701865095858931200,5.53993115234375,0.2535679340362549,0.0648651123046875,0.35591840744018555
1701865095868524800,5.54952490234375,0.14841851592063904,0.19121646881103516,0.29295575618743896
1701865095878117400,5.559117431640625,-0.033499062061309814,0.3219776153564453,0.2180580496788025
1701865095887709400,5.56870947265625,-0.15056750178337097,0.33294677734375,0.2502836585044861
1701865095897302000,5.578302001953125,-0.24807105958461761,0.4155302047729492,0.1607508659362793
1701865095906895600,5.5878955078125,-0.2658557891845703,0.4740867614746094,0.10783898830413818
1701865095916488200,5.59748828125,-0.22759981453418732,0.4585380554199219,0.13441920280456543
1701865095926080300,5.607080322265625,-0.19092068076133728,0.5171003341674805,0.13243436813354492
1701865095935673000,5.616673095703125,-0.03192794322967529,0.3891935348510742,0.30867600440979004
1701865095945266400,5.626266357421875,0.02162778377532959,0.3594532012939453,0.30936163663864136
1701865095954859300,5.635859375,0.03424477577209473,0.3464632034301758,0.32406342029571533
1701865095964451000,5.645451171875,-0.011123448610305786,0.36212921142578125,0.3435940742492676
1701865095974044000,5.6550439453125,-0.016025245189666748,0.3036832809448242,0.460696280002594
1701865095983637500,5.664637451171875,-0.049288153648376465,0.26685428619384766,0.45059967041015625
1701865095993230000,5.67422998046875,0.00894397497177124,0.06903934478759766,0.5834565162658691
1701865096002822100,5.683822265625,-0.06047558784484863,0.06049156188964844,0.4806562662124634
1701865096012414700,5.693414794921875,-0.060417354106903076,0.052102088928222656,0.41982394456863403
1701865096022008300,5.70300830078125,-0.07926654815673828,0.06976699829101562,0.3815450072288513
1701865096031601200,5.71260107421875,-0.09072798490524292,0.08013343811035156,0.3682825565338135
1701865096041193000,5.72219287109375,-0.07798206806182861,0.18227100372314453,0.3425285816192627
1701865096050785800,5.731785888671875,-0.10411536693572998,0.1133260726928711,0.4261623024940491
1701865096060379400,5.74137939453125,-0.05529087781906128,0.04796123504638672,0.48478007316589355
1701865096069972000,5.750971923828125,0.029134035110473633,-0.023359298706054688,0.5018420219421387
1701865096079563800,5.760563720703125,0.046618521213531494,-0.008749961853027344,0.41696393489837646
1701865096089156600,5.770156494140625,0.049742043018341064,-0.048572540283203125,0.3894447684288025
1701865096098750200,5.779750244140625,0.07603943347930908,-0.09013652801513672,0.312521755695343
1701865096108342800,5.7893427734375,0.11534225940704346,-0.1569662094116211,0.22245466709136963
1701865096117934800,5.798934814453125,-0.020385146141052246,-0.1920766830444336,0.13405555486679077
1701865096127527400,5.80852734375,-0.0925719141960144,-0.23363208770751953,-0.01132667064666748
1701865096137121000,5.81812109375,-0.0652267336845398,-0.24855518341064453,-0.10855495929718018
1701865096146713900,5.8277138671875,-0.05092436075210571,-0.1948843002319336,-0.20021146535873413
1701865096156305700,5.8373056640625,-0.08518052101135254,-0.1679697036743164,-0.17110484838485718
1701865096165898500,5.8468984375,-0.2373146414756775,-0.12496757507324219,-0.15984368324279785
1701865096175492000,5.8564921875,-0.4194856286048889,-0.08965682983398438,-0.11005693674087524
1701865096185084700,5.866084716796875,-0.623672604560852,-0.007641792297363281,-0.20944833755493164
1701865096194676700,5.8756767578125,-0.738038957118988,0.14151382446289062,-0.3874722123146057
1701865096204269300,5.885269287109375,-0.6476962566375732,-0.15907955169677734,0.019876837730407715
1701865096213863000,5.89486279296875,-0.7187302112579346,-0.1650104522705078,0.07364732027053833
1701865096223455500,5.90445556640625,-0.631447970867157,-0.11426448822021484,0.06282514333724976
1701865096233047600,5.914047607421875,-0.39203912019729614,-0.11614704132080078,0.07799381017684937
1701865096242640100,5.92364013671875,-0.2272358536720276,-0.11336421966552734,0.2520652413368225
1701865096252233700,5.933233642578125,-0.12906527519226074,0.018751144409179688,0.3255389332771301
1701865096261826600,5.94282666015625,0.023617446422576904,0.1414775848388672,0.37264692783355713
1701865096271418400,5.95241845703125,0.1731034517288208,0.31151390075683594,0.25110745429992676
1701865096281011200,5.96201123046875,0.3096987009048462,0.4692497253417969,0.08928787708282471
1701865096290604800,5.971604736328125,0.3797231912612915,0.5325250625610352,-0.08122676610946655
1701865096300197400,5.981197265625,0.31902843713760376,0.5782861709594727,-0.24133551120758057
1701865096309789400,5.99078955078125,0.17796778678894043,0.5692110061645508,-0.410116970539093
1701865096319382000,6.000382080078125,-0.01552438735961914,0.6498937606811523,-0.6432525515556335
1701865096328975600,6.0099755859375,-0.12359941005706787,0.6375484466552734,-0.7095131278038025
1701865096338568200,6.019568115234375,-0.22786521911621094,0.6349086761474609,-0.7417120337486267
1701865096348160300,6.02916015625,-0.31637078523635864,0.5899591445922852,-0.6404571533203125
1701865096357753000,6.038753173828125,-0.18081653118133545,0.6657686233520508,-0.5473790168762207
1701865096367346400,6.048346435546875,-0.5548952221870422,0.7285289764404297,-0.5791963338851929
1701865096376939300,6.057939208984375,-0.5382407307624817,0.780766487121582,-0.46115779876708984
1701865096386531000,6.067531005859375,-0.27496200799942017,0.7943363189697266,-0.34450823068618774
1701865096396124000,6.0771240234375,-0.10670924186706543,0.6803979873657227,-0.2010030746459961
1701865096405717500,6.086717529296875,-0.041293591260910034,0.4740743637084961,-0.131649911403656
1701865096415310000,6.09631005859375,0.02698361873626709,0.16048336029052734,-0.09914922714233398
1701865096424902100,6.105902099609375,0.12191542983055115,-0.10082817077636719,-0.013146072626113892
1701865096434494700,6.11549462890625,0.22729361057281494,-0.28242969512939453,0.05527770519256592
1701865096444088300,6.12508837890625,0.41781336069107056,-0.41388511657714844,0.1753809154033661
1701865096453681000,6.134680908203125,0.5667280554771423,-0.47250843048095703,0.2827187776565552
1701865096463273000,6.14427294921875,0.626548171043396,-0.588958740234375,0.3865944743156433
1701865096472865800,6.15386572265625,0.5845154523849487,-0.566859245300293,0.3249802589416504
1701865096482459100,6.163459228515625,0.4961695671081543,-0.5733242034912109,0.2466590404510498
1701865096492052000,6.173052001953125,0.3033771216869354,-0.6549816131591797,0.09499159455299377
1701865096501643800,6.182643798828125,0.1094517707824707,-0.7140779495239258,-0.023428410291671753
1701865096511236600,6.192236572265625,-0.09952181577682495,-0.6921443939208984,-0.1259351670742035
1701865096520830200,6.201830322265625,-0.2295045405626297,-0.6823873519897461,-0.258064329624176
1701865096530422800,6.2114228515625,-0.29106104373931885,-0.7279386520385742,-0.3875744938850403
1701865096540014800,6.221014892578125,-0.37680232524871826,-0.6779298782348633,-0.45587414503097534
1701865096549607400,6.230607421875,-0.4780367314815521,-0.4513864517211914,-0.6100485324859619
1701865096559201000,6.240200927734375,-0.3459979295730591,-0.5144805908203125,-0.45020270347595215
1701865096568793600,6.249793701171875,-0.35082703828811646,-0.4509410858154297,-0.36890625953674316
1701865096578385700,6.2593857421875,-0.23424944281578064,-0.28016090393066406,-0.27942174673080444
1701865096587978500,6.268978515625,-0.1971554011106491,0.05493736267089844,-0.17630594968795776
1701865096597571800,6.27857177734375,0.026635020971298218,0.14083385467529297,-0.3871898651123047
1701865096607164700,6.28816455078125,0.11531952023506165,0.10708999633789062,-0.1508602499961853
1701865096616756500,6.297756591796875,0.11555415391921997,0.20000743865966797,-0.08218371868133545
1701865096626349300,6.307349365234375,0.16152963042259216,0.2688455581665039,-0.04892539978027344
1701865096635943000,6.31694287109375,0.20247146487236023,0.4235353469848633,-0.13145962357521057
1701865096645535500,6.326535400390625,0.08558502793312073,0.5397024154663086,-0.2095625400543213
1701865096655127600,6.33612744140625,0.07464626431465149,0.5123395919799805,-0.13392221927642822
1701865096664720100,6.34572021484375,0.10556274652481079,0.3345804214477539,0.055061936378479004
1701865096674313700,6.355313720703125,0.005838602781295776,0.2599210739135742,0.0440937876701355
1701865096683906300,6.36490625,-0.0170365571975708,0.22122859954833984,0.005860656499862671
1701865096693498400,6.374498291015625,-0.001651465892791748,0.1682262420654297,0.0214177668094635
1701865096703091200,6.38409130859375,0.032163262367248535,0.1231088638305664,0.10843822360038757
1701865096712684500,6.3936845703125,0.0463104248046875,0.11164283752441406,0.17874455451965332
1701865096722277400,6.40327734375,0.050556033849716187,0.07208633422851562,0.15796008706092834
1701865096731869200,6.412869140625,0.0714796781539917,0.04024791717529297,0.12089693546295166
1701865096741462000,6.4224619140625,0.08999860286712646,-0.014585494995117188,0.11300390958786011
1701865096751055600,6.4320556640625,0.14136344194412231,-0.03316211700439453,0.10824057459831238
1701865096760648200,6.441648193359375,0.1731308251619339,-0.049053192138671875,0.1017274558544159
1701865096770240300,6.451240234375,0.15983301401138306,-0.034049034118652344,0.1452959179878235
1701865096779832800,6.460832763671875,0.11891235411167145,-0.019288063049316406,0.17633602023124695
1701865096789426400,6.470426513671875,0.09777170419692993,-0.023614883422851562,0.21131953597068787
1701865096799019300,6.480019287109375,0.07710987329483032,-0.060863494873046875,0.24972984194755554
1701865096808611000,6.489611083984375,0.059389784932136536,-0.11873245239257812,0.23466241359710693
1701865096818204000,6.499203857421875,0.058579787611961365,-0.18510818481445312,0.18348458409309387
1701865096827797200,6.50879736328125,0.06004886329174042,-0.2551422119140625,0.1557655930519104
1701865096837390000,6.51839013671875,0.08012883365154266,-0.28639888763427734,0.09237301349639893
1701865096846982000,6.52798193359375,0.08096520602703094,-0.2936220169067383,0.032029032707214355
1701865096856574700,6.53757470703125,0.037429600954055786,-0.26776790618896484,0.005640685558319092
1701865096866168300,6.547168212890625,0.019003495573997498,-0.20465946197509766,-0.022440016269683838
1701865096875761000,6.556760986328125,-0.0005071759223937988,-0.12609481811523438,-0.014284610748291016
1701865096885353000,6.56635302734375,0.01398409903049469,-0.05351734161376953,0.0037289857864379883
1701865096894945500,6.575945556640625,0.08958218991756439,0.036705970764160156,-0.0038757920265197754
1701865096904539100,6.5855390625,0.13984614610671997,0.10895442962646484,-0.02031463384628296
1701865096914132000,6.595132080078125,0.1857912242412567,0.177642822265625,-0.005414366722106934
1701865096923723800,6.604723876953125,0.2550058960914612,0.24518299102783203,-0.002063930034637451
1701865096933316600,6.614316650390625,0.35134226083755493,0.32806396484375,-0.07845944166183472
1701865096942910000,6.623909912109375,0.3006076216697693,0.3671741485595703,-0.09449368715286255
1701865096952502800,6.633502685546875,0.21188752353191376,0.3868083953857422,-0.10508769750595093
1701865096962094600,6.643094482421875,0.12842968106269836,0.3661003112792969,-0.1316375732421875
1701865096971687400,6.6526875,0.07188612222671509,0.34340572357177734,-0.15492179989814758
1701865096981281000,6.662281005859375,0.03956945240497589,0.30934810638427734,-0.14427489042282104
1701865096990873600,6.67187353515625,0.010016918182373047,0.2782297134399414,-0.14287233352661133
1701865097000465700,6.681465576171875,0.030253276228904724,0.2594118118286133,-0.11771327257156372
1701865097010058200,6.691058349609375,0.08496476709842682,0.266815185546875,-0.08790892362594604
1701865097019651800,6.70065185546875,0.12380646169185638,0.2599916458129883,-0.05331045389175415
1701865097029244700,6.71024462890625,0.14905914664268494,0.24857807159423828,-0.04707425832748413
1701865097038836500,6.71983642578125,0.13292379677295685,0.20441722869873047,-0.07320421934127808
1701865097048429300,6.72942919921875,0.14457887411117554,0.15866756439208984,-0.1004369854927063
1701865097058023000,6.73902294921875,0.15531747043132782,0.09252643585205078,-0.12628620862960815
1701865097067615500,6.748615478515625,0.13245241343975067,0.06284046173095703,-0.15773123502731323
1701865097077207300,6.758207275390625,0.013766884803771973,0.021933555603027344,-0.18054652214050293
1701865097086800100,6.767800048828125,-0.08759979903697968,-0.055884361267089844,-0.19486436247825623
1701865097096393700,6.777393798828125,-0.16891422867774963,-0.1488199234008789,-0.19656693935394287
1701865097105986300,6.786986328125,-0.18560007214546204,-0.21897506713867188,-0.18394950032234192
1701865097115578400,6.796578369140625,-0.19031387567520142,-0.2738161087036133,-0.15075552463531494
1701865097125171000,6.8061708984375,-0.18111272156238556,-0.25477027893066406,-0.11192163825035095
1701865097134764500,6.8157646484375,-0.13971354067325592,-0.21959781646728516,-0.053777843713760376
1701865097144357400,6.825357421875,-0.10251462459564209,-0.1803598403930664,-0.016914963722229004
1701865097153949200,6.83494921875,-0.055876389145851135,-0.14417648315429688,0.04420042037963867
1701865097163542000,6.8445419921875,-0.0004961490631103516,-0.13219261169433594,0.07971090078353882
1701865097173135600,6.854135498046875,0.0018404722213745117,-0.1392841339111328,0.1186293363571167
1701865097182728200,6.863728271484375,0.0037024766206741333,-0.14393901824951172,0.1540643870830536
1701865097192320300,6.8733203125,0.035371631383895874,-0.12499713897705078,0.17700016498565674
1701865097201912800,6.882912841796875,0.0540800541639328,-0.09226226806640625,0.22767218947410583
1701865097211506400,6.89250634765625,0.04602724313735962,-0.06243705749511719,0.26100730895996094
1701865097221099000,6.90209912109375,0.01435840129852295,-0.016641616821289062,0.3407430648803711
1701865097230691000,6.911691162109375,-0.01440112292766571,-0.0022106170654296875,0.40983515977859497
1701865097240283600,6.92128369140625,-0.0049863457679748535,0.023759841918945312,0.44503432512283325
1701865097249877200,6.930877197265625,0.037039466202259064,0.039887428283691406,0.4492579698562622
1701865097259470000,6.940469970703125,0.08254878968000412,0.036922454833984375,0.4443246126174927
1701865097269062000,6.950061767578125,0.11466614902019501,0.03165245056152344,0.4208550453186035
1701865097278654700,6.95965478515625,0.11477763205766678,0.028827667236328125,0.3744524121284485
1701865097288248300,6.969248291015625,0.08799272030591965,0.04489612579345703,0.32456785440444946
1701865097297841000,6.9788408203125,0.044652290642261505,0.08189868927001953,0.2711411714553833
1701865097307433000,6.988432861328125,0.0159718319773674,0.09006309509277344,0.2356521487236023
1701865097317025500,6.998025634765625,-0.026208937168121338,0.1004800796508789,0.1895543932914734
1701865097326619100,7.007619140625,-0.03907737880945206,0.10604286193847656,0.17057979106903076
1701865097336211700,7.017211669921875,-0.0539766401052475,0.10917949676513672,0.16639310121536255
1701865097345803800,7.0268037109375,-0.040409184992313385,0.12404727935791016,0.15309518575668335
1701865097355396400,7.036396240234375,-0.0014149099588394165,0.1151418685913086,0.13330411911010742
1701865097364990000,7.045989990234375,0.024928204715251923,0.12993621826171875,0.10230213403701782
1701865097374582800,7.055582763671875,0.071687251329422,0.1280069351196289,0.10017889738082886
1701865097384174600,7.065174560546875,0.06318158656358719,0.1072845458984375,0.07713180780410767
1701865097393767400,7.074767333984375,0.05012879520654678,0.06807708740234375,0.049871981143951416
1701865097403361000,7.084361083984375,0.02833878993988037,-0.012848854064941406,0.051317036151885986
1701865097412953600,7.09395361328125,0.002992957830429077,-0.07829856872558594,0.05968886613845825
1701865097422545700,7.103545654296875,-0.0067850276827812195,-0.12619304656982422,0.05569279193878174
1701865097432138200,7.11313818359375,0.024745695292949677,-0.1638936996459961,0.09356880187988281
1701865097441731800,7.12273193359375,0.0356701985001564,-0.1798105239868164,0.11118203401565552
1701865097451324400,7.132324462890625,0.0874314233660698,-0.16724491119384766,0.1253463625907898
1701865097460916500,7.14191650390625,0.10860727727413177,-0.1431560516357422,0.13376390933990479
1701865097470509000,7.151509033203125,0.08548545837402344,-0.1289348602294922,0.13629519939422607
1701865097480102700,7.1611025390625,0.03788056969642639,-0.09615516662597656,0.14974486827850342
1701865097489695500,7.170695556640625,-0.04073648154735565,-0.09456157684326172,0.11047947406768799
1701865097499287300,7.180287353515625,-0.0626029297709465,-0.10479927062988281,0.09717696905136108
1701865097508880100,7.189880126953125,-0.11341330409049988,-0.12196063995361328,0.10481107234954834
1701865097518473700,7.1994736328125,-0.09851629287004471,-0.1318063735961914,0.09548097848892212
1701865097528066300,7.20906640625,-0.052679650485515594,-0.12269401550292969,0.11420130729675293
1701865097537658400,7.218658447265625,-0.01420823484659195,-0.09964370727539062,0.1464952826499939
1701865097547251000,7.2282509765625,0.03054305911064148,-0.06993770599365234,0.1900133490562439
1701865097556844500,7.237844482421875,0.0671311467885971,-0.01720428466796875,0.23515164852142334
1701865097566437000,7.24743701171875,0.05118264630436897,0.03463554382324219,0.26316624879837036
1701865097576029200,7.257029296875,0.06105595827102661,0.09974002838134766,0.27457547187805176
1701865097585621800,7.266621826171875,0.07526331394910812,0.1496572494506836,0.2794216275215149
1701865097595215400,7.27621533203125,0.07954016327857971,0.1752490997314453,0.23814642429351807
1701865097604808200,7.28580810546875,0.05770181864500046,0.1981220245361328,0.2506304383277893
1701865097614400000,7.29539990234375,0.08787339180707932,0.1924152374267578,0.2710191607475281
1701865097623992800,7.304992919921875,0.09150297194719315,0.1844778060913086,0.29412931203842163
1701865097633586400,7.31458642578125,0.12105043977499008,0.20257282257080078,0.3335803151130676
1701865097643179000,7.324178955078125,0.15970399975776672,0.2203378677368164,0.3745126724243164
1701865097652770800,7.333770751953125,0.1508050113916397,0.23541927337646484,0.40030789375305176
1701865097662363600,7.34336376953125,0.17046162486076355,0.2501974105834961,0.3992140293121338
1701865097671957200,7.352957275390625,0.1830008327960968,0.2576007843017578,0.35497140884399414
1701865097681549800,7.3625498046875,0.19324782490730286,0.28129100799560547,0.3130308985710144
1701865097691142000,7.372141845703125,0.21514353156089783,0.2809877395629883,0.256994366645813
1701865097700734500,7.381734375,0.26465317606925964,0.26651763916015625,0.198991060256958
1701865097710328000,7.391328125,0.32956233620643616,0.22871112823486328,0.14859169721603394
1701865097719920600,7.400920654296875,0.32991647720336914,0.19148635864257812,0.10555630922317505
1701865097729512700,7.4105126953125,0.3494890034198761,0.17366790771484375,0.10517823696136475
1701865097739105500,7.42010546875,0.3625263571739197,0.16550159454345703,0.11143463850021362
1701865097748699000,7.429698974609375,0.38606977462768555,0.1974029541015625,0.11456829309463501
1701865097758291700,7.439291748046875,0.4366580843925476,0.22632694244384766,0.14300334453582764
1701865097767883500,7.448883544921875,0.42684200406074524,0.2640829086303711,0.1939641237258911
1701865097777476400,7.458476318359375,0.47078800201416016,0.35523509979248047,0.26227158308029175
1701865097787070000,7.468070068359375,0.5225762128829956,0.4541473388671875,0.3191821575164795
1701865097796662500,7.47766259765625,0.556735634803772,0.5583124160766602,0.3719993233680725
1701865097806254600,7.487254638671875,0.466202974319458,0.6911716461181641,0.38113707304000854
1701865097815847200,7.49684716796875,0.4016372859477997,0.8546133041381836,0.3597724437713623
1701865097825440800,7.506440673828125,0.5031256079673767,0.9869728088378906,0.31852298974990845
1701865097835033300,7.516033447265625,0.6373462677001953,1.1476631164550781,0.25783246755599976
1701865097844625400,7.52562548828125,0.6690393686294556,1.3291196823120117,0.29514169692993164
1701865097854218200,7.53521826171875,0.5838265419006348,1.4932403564453125,0.34560394287109375
1701865097863811600,7.5448115234375,0.4335528314113617,1.6307897567749023,0.40823495388031006
1701865097873404400,7.554404296875,0.344188392162323,1.7445063591003418,0.38141506910324097
1701865097882996200,7.563996337890625,0.23693034052848816,1.7806463241577148,0.32116395235061646
1701865097892589000,7.573589111328125,0.1802106499671936,1.813347339630127,0.2673996090888977
1701865097902182700,7.5831826171875,0.2505186200141907,1.7835693359375,0.27505844831466675
1701865097911775200,7.592775146484375,0.37876981496810913,1.7895426750183105,0.21304184198379517
1701865097921367300,7.6023671875,0.5442565679550171,1.8289694786071777,0.11552369594573975
1701865097930960000,7.6119599609375,0.6360663771629333,1.952108383178711,0.02161306142807007
1701865097940553500,7.621553466796875,0.6970759034156799,2.156456470489502,-0.0708390474319458
1701865097950146000,7.63114599609375,0.8105576038360596,2.279489517211914,-0.06876838207244873
1701865097959738000,7.640738037109375,0.8881955742835999,2.4264755249023438,0.0247841477394104
1701865097969330700,7.65033056640625,0.8355039954185486,2.542302131652832,0.13001209497451782
1701865097978924300,7.65992431640625,0.689825713634491,2.672318458557129,0.2538859248161316
1701865097988517000,7.66951708984375,0.5722016096115112,2.7685484886169434,0.3407999873161316
1701865097998109000,7.67910888671875,0.47674936056137085,2.7257628440856934,0.4971774220466614
1701865098007701800,7.68870166015625,0.4498555660247803,2.570462703704834,0.5245705246925354
1701865098017295400,7.69829541015625,0.4558783173561096,2.3125295639038086,0.3263193368911743
1701865098026888000,7.707887939453125,0.6889902353286743,2.1052675247192383,0.12100434303283691
1701865098036479700,7.717479736328125,1.070403814315796,1.9464125633239746,-0.03577113151550293
1701865098046072600,7.727072509765625,1.38912832736969,1.7904243469238281,-0.03760814666748047
1701865098055666200,7.736666259765625,1.4170321226119995,1.5798707008361816,0.03612160682678223
1701865098065258800,7.7462587890625,1.2016288042068481,1.5538005828857422,-0.18510377407073975
1701865098074850800,7.755850830078125,1.0715632438659668,1.6089792251586914,-0.10828381776809692
1701865098084443400,7.765443359375,0.7940877676010132,1.7858190536499023,-0.37262821197509766
1701865098094037000,7.775037109375,0.6685978174209595,2.0267510414123535,-0.5917861461639404
1701865098103629800,7.7846298828125,0.9303897619247437,2.2480664253234863,-0.6109209060668945
1701865098113221600,7.7942216796875,1.209264874458313,2.3351168632507324,-0.5494691133499146
1701865098122814500,7.803814453125,1.2711396217346191,2.4288177490234375,-0.4533421993255615
1701865098132408000,7.813407958984375,1.131757378578186,2.492919921875,-0.29898524284362793
1701865098142000600,7.823000732421875,0.9282263517379761,2.386127471923828,-0.10658872127532959
1701865098151592700,7.8325927734375,0.7442632913589478,2.1060352325439453,0.0965118408203125
1701865098161185300,7.842185302734375,0.7920939922332764,1.9609947204589844,0.08276331424713135
1701865098170779000,7.85177880859375,0.9814630746841431,1.8838768005371094,-0.02995121479034424
1701865098180371500,7.861371337890625,1.1074687242507935,1.9104704856872559,-0.08073854446411133
1701865098189963500,7.870963623046875,1.182646632194519,1.8662304878234863,0.03249502182006836
1701865098199556000,7.88055615234375,1.2107329368591309,1.928262710571289,0.09130275249481201
1701865098209149700,7.890149658203125,1.2117700576782227,1.9173288345336914,0.2592827081680298
1701865098218742500,7.899742431640625,1.205788254737854,2.0314598083496094,0.27119243144989014
1701865098228334300,7.909334228515625,1.1155565977096558,2.093268394470215,0.14947867393493652
1701865098237927200,7.91892724609375,0.9509485960006714,2.133620262145996,-0.0012739896774291992
1701865098247520800,7.928520751953125,0.9506277441978455,1.9805350303649902,-0.2696887254714966
1701865098257113300,7.93811328125,1.0234150886535645,1.9286632537841797,-0.531096339225769
1701865098266705400,7.947705322265625,1.1795228719711304,1.7107529640197754,-0.5765479803085327
1701865098276298000,7.957298095703125,1.4979939460754395,1.5352158546447754,-0.4292527437210083
1701865098285891600,7.9668916015625,1.717195987701416,1.4219975471496582,-0.12041902542114258
1701865098295484200,7.976484130859375,1.5550365447998047,1.5994329452514648,0.019479751586914062
1701865098305076200,7.986076171875,1.025724172592163,2.0440444946289062,0.30954456329345703
1701865098314668800,7.995668701171875,0.9702821373939514,2.498772144317627,0.32669830322265625
1701865098324262400,8.005262451171875,0.9330295324325562,2.9231061935424805,0.5908498764038086
1701865098333855200,8.014855224609375,0.6473727822303772,2.984729766845703,1.1206111907958984
1701865098343447000,8.024447021484375,0.6014149188995361,2.1818652153015137,1.7299346923828125
1701865098353040000,8.034039794921876,1.0203869342803955,0.627863883972168,2.296083927154541
1701865098362633500,8.043633544921875,1.5216479301452637,-1.9508819580078125,2.714517116546631
1701865098372226000,8.05322607421875,2.031677484512329,-5.420319557189941,2.7871782779693604
1701865098381817900,8.06281787109375,2.1234090328216553,-9.077873229980469,2.948017120361328
1701865098391410700,8.07241064453125,2.806574821472168,-11.785666465759277,2.6385278701782227
1701865098401004300,8.08200439453125,2.9370369911193848,-13.40123462677002,1.3202040195465088
1701865098410596900,8.091596923828124,2.0004968643188477,-15.322469711303711,0.23505926132202148
1701865098420189000,8.10118896484375,3.755565643310547,-12.469130516052246,-1.1058772802352905
1701865098429781500,8.110781494140625,-0.12473201751708984,-10.049920082092285,-1.7077069282531738
1701865098439375000,8.120375,-1.6704740524291992,-7.947473526000977,-2.391204357147217
1701865098448967700,8.1299677734375,-2.084712028503418,-8.28703784942627,-2.465362548828125
1701865098458559700,8.139559814453126,-1.374410629272461,-11.051921844482422,-1.7667585611343384
1701865098468152600,8.149152587890624,-0.703545093536377,-12.111026763916016,-1.3435500860214233
1701865098477746000,8.158745849609375,-0.18776941299438477,-11.279248237609863,-1.3951799869537354
1701865098487338800,8.1683388671875,-0.448577880859375,-10.83765983581543,-1.8634815216064453
1701865098496930600,8.1779306640625,-0.639157772064209,-9.939481735229492,-2.0826363563537598
1701865098506523400,8.1875234375,-0.10649776458740234,-8.257797241210938,-1.5560551881790161
1701865098516117000,8.197116943359376,0.45860910415649414,-6.331241607666016,-0.300757497549057
1701865098525709600,8.20670947265625,0.13347291946411133,-4.489719390869141,1.2706798315048218
1701865098535301600,8.216301513671874,-0.9249730110168457,-3.174189567565918,2.692636251449585
1701865098544894200,8.225894287109375,-1.5066800117492676,-1.210726261138916,3.426071882247925
1701865098554487800,8.23548779296875,-1.6739273071289062,0.9945168495178223,3.448395013809204
1701865098564080400,8.245080322265625,-1.1970634460449219,2.8492207527160645,3.125966787338257
1701865098573672400,8.25467236328125,-0.6882572174072266,3.770634889602661,2.718864679336548
1701865098583265000,8.26426513671875,0.030420303344726562,4.166667938232422,2.652667760848999
1701865098592858600,8.273858642578125,0.20026350021362305,3.9199819564819336,2.6712818145751953
1701865098602451500,8.283451416015625,-0.12690162658691406,3.4289677143096924,2.11566162109375
1701865098612043300,8.293043212890625,1.3365507125854492,3.398487091064453,3.022167444229126
1701865098621636000,8.302635986328125,0.20942926406860352,3.109956979751587,2.6699044704437256
1701865098631229700,8.312229736328124,-0.21336984634399414,2.666828155517578,2.964728832244873
1701865098640822300,8.321822265625,-0.08924579620361328,2.620307207107544,2.647864580154419
1701865098650414000,8.3314140625,-0.5428905487060547,2.268669843673706,2.43179988861084
1701865098660007000,8.3410068359375,-1.0739622116088867,1.9313082695007324,2.0295724868774414
1701865098669600500,8.3506005859375,-1.6860847473144531,1.64546799659729,1.8747985363006592
1701865098679193000,8.360193115234376,-2.1670846939086914,1.1040282249450684,1.4423158168792725
1701865098688785200,8.36978515625,-2.121701240539551,0.4241178035736084,1.176393747329712
1701865098698377700,8.379377685546874,-2.3181943893432617,-0.29996395111083984,0.4201979637145996
1701865098707971300,8.388971435546875,-3.528733253479004,0.2303311824798584,-2.25010347366333
1701865098717564200,8.398564208984375,1.355588436126709,0.6980466842651367,1.7709288597106934
1701865098727156000,8.408156005859375,-1.1787691116333008,-0.23076343536376953,-0.052686452865600586
1701865098736748800,8.417748779296875,-0.9698657989501953,0.05986809730529785,-1.169910192489624
1701865098746342100,8.427342041015624,-0.8260068893432617,-0.034154415130615234,-1.6688272953033447
1701865098755935000,8.43693505859375,-0.6864223480224609,-0.8576228618621826,-1.0106000900268555
1701865098765526800,8.44652685546875,-0.9227447509765625,-1.0847628116607666,-1.3195252418518066
1701865098775119600,8.45611962890625,-0.9836158752441406,-1.2671260833740234,-1.0174884796142578
1701865098784713200,8.465713134765625,-1.0601587295532227,-1.182967185974121,-0.6860990524291992
1701865098794305800,8.475305908203126,-0.8880090713500977,-0.8433741331100464,-0.27425622940063477
1701865098803897900,8.48489794921875,0.18555068969726562,-0.5902724266052246,0.43250012397766113
1701865098813490400,8.494490478515624,1.088956356048584,-0.36656486988067627,0.7764885425567627
1701865098823084000,8.504083984375,0.9739627838134766,-0.1534130573272705,0.44309067726135254
1701865098832676900,8.5136767578125,2.2511582374572754,0.07205712795257568,0.6282613277435303
1701865098842268700,8.5232685546875,2.7748966217041016,0.0936848521232605,0.2423696517944336
1701865098851861500,8.532861572265626,3.0019545555114746,0.33750540018081665,-0.09333229064941406
1701865098861454800,8.542454833984374,3.1766271591186523,0.7352497577667236,-0.1366438865661621
1701865098871047700,8.552047607421875,1.7319860458374023,1.4028396606445312,-0.6658186912536621
1701865098880639500,8.561639404296875,0.6014399528503418,2.103529691696167,-1.235398769378662
1701865098890232300,8.571232421875,-0.4952259063720703,2.7567694187164307,-2.4954800605773926
1701865098899826000,8.580825927734375,-1.0871315002441406,3.222294330596924,-3.070666790008545
1701865098909418500,8.59041845703125,-1.8170185089111328,3.6714446544647217,-3.6597137451171875
1701865098919010600,8.600010498046874,-2.66378116607666,3.84488582611084,-3.726536750793457
1701865098928603100,8.60960302734375,-2.69748592376709,3.978060245513916,-3.721510887145996
1701865098938196700,8.61919677734375,-1.8850727081298828,3.9345040321350098,-2.9614057540893555
1701865098947789300,8.628789306640625,-0.5815544128417969,3.917268991470337,-1.9803752899169922
1701865098957381400,8.63838134765625,0.640678882598877,4.146125316619873,-1.055830955505371
1701865098966974000,8.647973876953126,1.5116019248962402,4.302403926849365,-0.16230535507202148
1701865098976567600,8.657567626953124,2.0500946044921875,4.843055725097656,0.10003805160522461
1701865098986160400,8.667160400390625,1.822070598602295,5.390377044677734,0.00916290283203125
1701865098995752200,8.676752197265625,1.7075753211975098,5.521562576293945,0.2779083251953125
1701865099005345000,8.686344970703125,1.9767165184020996,5.830376625061035,-0.15837621688842773
1701865099014938600,8.695938720703126,2.005526542663574,5.616438388824463,-0.3266477584838867
1701865099024531200,8.70553125,1.809704303741455,5.426406383514404,-0.5925474166870117
1701865099034123000,8.715123046875,1.581923007965088,5.102328300476074,-0.8027305603027344
1701865099043715800,8.7247158203125,1.2657217979431152,4.3759260177612305,-0.3537607192993164
1701865099053309400,8.734309326171875,1.6611347198486328,3.248983860015869,0.8914909362792969
1701865099062902000,8.743902099609375,2.531428337097168,2.4360194206237793,1.492872714996338
1701865099072494000,8.753494140625,2.8691530227661133,2.31527042388916,1.297083854675293
1701865099082086700,8.763086669921876,2.441542148590088,2.526658535003662,1.377751350402832
1701865099091680300,8.77268017578125,1.7488670349121094,2.106412887573242,1.8126850128173828
1701865099101272800,8.78227294921875,1.9869575500488281,0.7951937913894653,2.1254565715789795
1701865099110865000,8.791864990234375,1.7396245002746582,-0.04046821594238281,2.771540403366089
1701865099120457700,8.801457763671875,0.9095630645751953,-0.04775881767272949,2.8383822441101074
1701865099130051000,8.811051025390626,0.4147181510925293,0.0813065767288208,2.9711649417877197
1701865099139644000,8.820643798828126,0.5020618438720703,1.024319052696228,2.460559606552124
1701865099149235700,8.830235595703124,0.6994457244873047,1.6486064195632935,2.560603618621826
1701865099158828500,8.83982861328125,1.3097014427185059,2.4852280616760254,2.1420860290527344
1701865099168422100,8.849422119140625,1.7007555961608887,3.2110495567321777,1.7259364128112793
1701865099178014700,8.8590146484375,1.215446949005127,3.2215192317962646,0.7529640197753906
1701865099187606800,8.868606689453125,0.8610186576843262,1.9377765655517578,-0.2576723098754883
1701865099197199400,8.878199462890626,0.6687655448913574,1.1038823127746582,-0.6476640701293945
1701865099206793000,8.88779296875,0.25161314010620117,0.777275800704956,-0.6698365211486816
1701865099216385500,8.897385498046875,-0.1655726432800293,1.427889347076416,-1.0975022315979004
1701865099225977600,8.9069775390625,-0.3692817687988281,2.080667495727539,-1.3074846267700195
1701865099235570200,8.916570068359375,-0.11623620986938477,2.019036293029785,-0.9504952430725098
1701865099245163800,8.926163818359376,0.17719507217407227,2.036733627319336,-1.0640153884887695
1701865099254756600,8.935756591796874,-0.0692291259765625,2.061856746673584,-1.4656486511230469
1701865099264348400,8.945348388671874,0.14528703689575195,1.9354190826416016,-1.0286121368408203
1701865099273941200,8.954941162109375,0.28641700744628906,1.652021050453186,-0.4057145118713379
1701865099283534800,8.964534912109375,0.21807336807250977,1.513858675956726,-0.37334680557250977
1701865099293127400,8.97412744140625,0.2875399589538574,1.3414459228515625,-0.21191120147705078
1701865099302719200,8.98371923828125,0.3836684226989746,1.1612545251846313,-0.028667926788330078
1701865099312312000,8.99331201171875,0.4170804023742676,0.999258279800415,-0.0070953369140625
1701865099321905700,9.00290576171875,0.47284746170043945,0.8148936629295349,0.3483734130859375
1701865099331498200,9.012498291015625,0.5082254409790039,0.5751311779022217,-0.019150257110595703
1701865099341090300,9.02209033203125,0.8468952178955078,0.20908308029174805,-0.21084880828857422
1701865099350683000,9.031682861328125,1.2402276992797852,-0.1503606140613556,-0.40120744705200195
1701865099360276500,9.0412763671875,1.507840633392334,-0.5407791137695312,-0.6716794967651367
1701865099369869300,9.050869384765624,1.4828109741210938,-0.8517568111419678,-0.959221363067627
1701865099379461000,9.060461181640624,1.0631060600280762,-1.0910730361938477,-1.1867432594299316
1701865099389054000,9.070053955078125,0.6148467063903809,-1.106837511062622,-1.293543815612793
1701865099398647300,9.079647216796875,0.06857633590698242,-1.1430902481079102,-1.1619305610656738
1701865099408240000,9.089240234375,-0.4047870635986328,-1.1632803678512573,-1.115586757659912
1701865099417832000,9.09883203125,-0.8630251884460449,-1.1275851726531982,-1.1629014015197754
1701865099427424800,9.1084248046875,-1.0910005569458008,-1.3207664489746094,-1.120166301727295
1701865099437018400,9.118018310546875,-0.8142108917236328,-1.6528106927871704,-1.4097390174865723
1701865099446611000,9.12761083984375,-0.5338735580444336,-2.0987908840179443,-1.6650300025939941
1701865099456203000,9.137203125,-0.08057546615600586,-2.387385129928589,-1.874959945678711
1701865099465795600,9.146795654296875,0.5181174278259277,-2.518796443939209,-2.0828499794006348
1701865099475389200,9.15638916015625,1.1042194366455078,-2.5991580486297607,-2.1653528213500977
1701865099484982000,9.16598193359375,1.6823749542236328,-2.896092176437378,-1.88466215133667
1701865099494573800,9.17557373046875,2.006880283355713,-3.2595536708831787,-1.2615809440612793
1701865099504166700,9.185166748046875,2.072978973388672,-3.350618362426758,-0.7620186805725098
1701865099513760300,9.19476025390625,1.8801918029785156,-3.190852165222168,-0.4031643867492676
1701865099523352800,9.204352783203126,1.5588836669921875,-3.0143227577209473,-0.14443016052246094
1701865099532944600,9.213944580078126,1.14021635055542,-2.7189321517944336,0.024434566497802734
1701865099542537500,9.223537353515624,0.7836465835571289,-2.364698648452759,0.08068370819091797
1701865099552131000,9.233131103515625,0.5683650970458984,-2.044743061065674,0.1890869140625
1701865099561723600,9.2427236328125,0.5394692420959473,-1.6752780675888062,0.23049068450927734
1701865099571315700,9.252315673828125,0.6163601875305176,-1.2762457132339478,0.15201473236083984
1701865099580908300,9.261908203125,0.7268595695495605,-0.8913998007774353,0.05244255065917969
1701865099590502000,9.271501953125,0.8317122459411621,-0.595893144607544,-0.028805255889892578
1701865099600094700,9.2810947265625,0.8753499984741211,-0.3791520297527313,-0.052643775939941406
1701865099609686500,9.2906865234375,0.8515276908874512,-0.2791057527065277,-0.08437252044677734
1701865099619279400,9.300279296875,0.8075480461120605,-0.2604186534881592,-0.14737510681152344
1701865099628873000,9.309873046875,0.639890193939209,-0.2879473865032196,-0.18358182907104492
1701865099638465500,9.319465576171876,0.430422306060791,-0.34901678562164307,-0.32034730911254883
1701865099648057600,9.3290576171875,0.17130374908447266,-0.3465365469455719,-0.2869453430175781
1701865099657650200,9.338650146484374,-0.1459650993347168,-0.2966485023498535,-0.3213810920715332
1701865099667243800,9.348243896484375,-0.4006004333496094,-0.24820643663406372,-0.3365459442138672
1701865099676836600,9.357836669921875,-0.5753545761108398,-0.211636483669281,-0.39551782608032227
1701865099686428400,9.367428466796875,-0.6250319480895996,-0.11151258647441864,-0.27381134033203125
1701865099696021200,9.377021240234376,-0.6523361206054688,0.10226918756961823,-0.1561279296875
1701865099705614600,9.386614501953124,-0.7037463188171387,0.2273429036140442,-0.19678401947021484
1701865099715207400,9.39620751953125,-0.5357089042663574,0.3477354049682617,-0.008437156677246094
1701865099724799500,9.405799560546875,-0.43769407272338867,0.5308587551116943,0.11222457885742188
1701865099734392000,9.41539208984375,-0.35666465759277344,0.6817631125450134,0.20577335357666016
1701865099743985700,9.424985595703125,-0.3018970489501953,0.8153622150421143,0.2602219581604004
1701865099753578200,9.434578125,-0.21222829818725586,0.9633898735046387,0.48702096939086914
1701865099763170300,9.44417041015625,-0.24336957931518555,1.0292881727218628,0.5016775131225586
1701865099772763100,9.45376318359375,-0.27238035202026367,1.0914053916931152,0.6884660720825195
1701865099782356500,9.4633564453125,-0.34046030044555664,1.0783952474594116,0.7346615791320801
1701865099791949300,9.47294921875,-0.39250659942626953,0.970536470413208,0.8554768562316895
1701865099801541000,9.482541015625,-0.48027992248535156,1.0068296194076538,0.9998154640197754
1701865099811134000,9.492134033203126,-0.5512533187866211,1.0290716886520386,0.986213207244873
1701865099820727600,9.5017275390625,-0.5309443473815918,1.0718748569488525,1.0367307662963867
1701865099830320000,9.511320068359375,-0.5154504776000977,1.0296882390975952,1.0034637451171875
1701865099839912200,9.520912109375,-0.4402599334716797,0.9482994079589844,0.943932056427002
1701865099849505000,9.530505126953125,-0.4008646011352539,0.854209840297699,0.8962478637695312
1701865099859098400,9.540098388671876,-0.40137386322021484,0.7683595418930054,0.8359212875366211
1701865099868691200,9.549691162109376,-0.3043327331542969,0.6941171884536743,0.8046479225158691
1701865099878283300,9.559283203125,-0.34533214569091797,0.516502857208252,0.7749695777893066
1701865099887875800,9.568875732421875,-0.19864606857299805,0.5858978033065796,0.7726445198059082
1701865099897469400,9.578469482421875,-0.16161251068115234,0.5221397876739502,0.6837334632873535
1701865099907062000,9.58806201171875,-0.11751365661621094,0.42545443773269653,0.6379776000976562
1701865099916654000,9.597654052734375,-0.06658172607421875,0.2868470847606659,0.6140327453613281
1701865099926247000,9.607246826171876,-0.044690608978271484,0.08342012763023376,0.5785093307495117
1701865099935840500,9.616840576171874,-0.05669260025024414,-0.036687225103378296,0.5244274139404297
1701865099945433000,9.62643310546875,-0.09320449829101562,-0.12144586443901062,0.4377622604370117
1701865099955025200,9.636025146484375,-0.07707405090332031,-0.44513845443725586,0.4900169372558594
1701865099964617700,9.64561767578125,-0.10091352462768555,-0.466077983379364,0.4175586700439453
1701865099974211300,9.65521142578125,-0.16744422912597656,-0.38674843311309814,0.2520890235900879
1701865099983804200,9.66480419921875,-0.2122802734375,-0.41289570927619934,0.05835580825805664
1701865099993396000,9.67439599609375,-0.24236679077148438,-0.49109965562820435,0.005604267120361328
1701865100002988800,9.68398876953125,-0.28324031829833984,-0.479061484336853,-0.010035037994384766
1701865100012582400,9.69358251953125,-0.281954288482666,-0.43519705533981323,-0.029666423797607422
1701865100022175000,9.703175048828125,-0.23581314086914062,-0.3861776888370514,-0.036977291107177734
1701865100031767000,9.71276708984375,-0.15166711807250977,-0.32222288846969604,-0.020456314086914062
1701865100041359600,9.722359619140626,-0.06269216537475586,-0.2811046242713928,-0.011522293090820312
1701865100050953200,9.731953125,0.024530887603759766,-0.24096150696277618,0.013176441192626953
1701865100060546000,9.741546142578125,0.09595441818237305,-0.22981488704681396,0.04143333435058594
1701865100070137900,9.751137939453125,0.15188264846801758,-0.23517611622810364,0.07779502868652344
1701865100079730700,9.760730712890625,0.21847057342529297,-0.25430136919021606,0.09375238418579102
1701865100089324300,9.77032421875,0.2667088508605957,-0.2798346281051636,0.09445381164550781
1701865100098916900,9.779916748046874,0.29400634765625,-0.2759377956390381,0.08017444610595703
1701865100108509000,9.789509033203124,0.32617807388305664,-0.2763541042804718,0.037093162536621094
1701865100118101800,9.799101806640625,0.3582592010498047,-0.2955513596534729,-0.017841815948486328
1701865100127695400,9.8086953125,0.31636905670166016,-0.16991515457630157,-0.10387849807739258
1701865100137288000,9.818287841796876,0.2936534881591797,-0.15819047391414642,-0.17063140869140625
1701865100146879700,9.827879638671876,0.297391414642334,-0.16224290430545807,-0.21829938888549805
1701865100156472600,9.83747265625,0.26806163787841797,-0.11548545956611633,-0.2614884376525879
1701865100166066200,9.847066162109375,0.23688364028930664,-0.07520419359207153,-0.30983591079711914
1701865100175658800,9.85665869140625,0.21120786666870117,-0.00773194432258606,-0.3372163772583008
1701865100185250800,9.866250732421875,0.17653465270996094,0.039653584361076355,-0.3721771240234375
1701865100194843600,9.87584375,0.16649198532104492,0.0718468576669693,-0.3885841369628906
1701865100204437200,9.885437255859374,0.1572260856628418,0.11275754868984222,-0.4176044464111328
1701865100214029800,9.89502978515625,0.16571569442749023,0.13895654678344727,-0.43077564239501953
1701865100223622000,9.904621826171875,0.1706829071044922,0.16487596929073334,-0.42836523056030273
1701865100233214500,9.91421435546875,0.18178224563598633,0.17419616878032684,-0.4080948829650879
1701865100242808000,9.92380810546875,0.17998456954956055,0.17674729228019714,-0.36530542373657227
1701865100252401000,9.93340087890625,0.17965316772460938,0.16085942089557648,-0.32154130935668945
1701865100261993000,9.942992919921876,0.15920639038085938,0.11932963132858276,-0.2552347183227539
1701865100271585500,9.95258544921875,0.14708995819091797,0.08313137292861938,-0.2091960906982422
1701865100281179100,9.96217919921875,0.13858461380004883,0.0567142516374588,-0.1739034652709961
1701865100290772000,9.97177197265625,0.1498856544494629,0.028037652373313904,-0.14170551300048828
1701865100300363800,9.98136376953125,0.13547849655151367,-0.005510076880455017,-0.11013126373291016
1701865100309956600,9.99095654296875,0.12169361114501953,-0.024972379207611084,-0.08395957946777344
1701865100319550200,10.00055029296875,0.12703800201416016,-0.05672252178192139,-0.06502580642700195
1701865100329142800,10.010142822265625,0.11156034469604492,-0.07818722724914551,-0.02422952651977539
1701865100338734800,10.01973486328125,0.1078481674194336,-0.08806565403938293,0.001983642578125
1701865100348327700,10.02932763671875,0.09452009201049805,-0.10985143482685089,0.03975391387939453
1701865100357921300,10.03892138671875,0.09048986434936523,-0.11485414206981659,0.08897161483764648
1701865100367513900,10.048513916015626,0.08147859573364258,-0.1454872488975525,0.1306166648864746
1701865100377106000,10.05810595703125,0.06025409698486328,-0.15439215302467346,0.14385557174682617
1701865100386698500,10.067698486328124,0.031647682189941406,-0.1535375714302063,0.15749359130859375
1701865100396292000,10.0772919921875,0.014538288116455078,-0.15982823073863983,0.09625482559204102
1701865100405885000,10.086885009765625,-0.023895263671875,-0.12345235049724579,0.16355323791503906
1701865100415476700,10.096476806640625,-0.04815196990966797,-0.08277551829814911,0.12198305130004883
1701865100425069600,10.106069580078126,-0.0632486343383789,-0.08717620372772217,0.08643054962158203
1701865100434663200,10.1156630859375,-0.09507083892822266,-0.0747702419757843,0.0966644287109375
1701865100444256000,10.125256103515625,-0.10113096237182617,-0.05078725516796112,0.07909059524536133
1701865100453847800,10.134847900390625,-0.11699962615966797,-0.026962965726852417,0.0787496566772461
1701865100463440600,10.144440673828125,-0.09526586532592773,-0.005731493234634399,0.08342885971069336
1701865100473034200,10.1540341796875,-0.08607149124145508,0.024873733520507812,0.10489225387573242
1701865100482626800,10.163626708984374,-0.08424997329711914,0.04358482360839844,0.12379789352416992
1701865100492219000,10.173218994140624,-0.059075355529785156,0.04110702872276306,0.1448960304260254
1701865100501811700,10.182811767578125,-0.036672115325927734,0.043455079197883606,0.15858078002929688
1701865100511405300,10.1924052734375,-0.02195119857788086,0.03642328083515167,0.15578508377075195
1701865100520998000,10.201997802734375,-0.016807079315185547,0.03664720058441162,0.14825105667114258
1701865100530590000,10.21158984375,0.0020570755004882812,0.025393754243850708,0.141143798828125
1701865100540182800,10.221182861328124,0.013399124145507812,0.019548237323760986,0.08015298843383789
1701865100549776400,10.2307763671875,-0.021942138671875,0.05939812958240509,0.11147069931030273
1701865100559369000,10.240368896484375,-0.01618194580078125,0.075384721159935,0.052361488342285156
1701865100568961000,10.2499609375,0.027058124542236328,0.039091095328330994,0.017856597900390625
1701865100578553600,10.2595537109375,0.06680011749267578,0.012192308902740479,-0.013346195220947266
1701865100588147200,10.269147216796876,0.0891408920288086,0.006302878260612488,-0.04616260528564453
1701865100597740000,10.278739990234374,0.09664392471313477,0.028052717447280884,-0.06872081756591797
1701865100607332000,10.28833203125,0.1014103889465332,0.03476443886756897,-0.10716485977172852
1701865100616924700,10.297924560546875,0.11559009552001953,0.06459003686904907,-0.12386035919189453
1701865100626518300,10.307518310546875,0.1038823127746582,0.07021874189376831,-0.16640424728393555
1701865100636111000,10.317111083984376,0.10926294326782227,0.07582986354827881,-0.17801475524902344
1701865100645703200,10.326703125,0.09857177734375,0.060401469469070435,-0.17811107635498047
1701865100655295700,10.336295654296874,0.09571170806884766,0.05048239231109619,-0.1763768196105957
1701865100664889300,10.345889404296875,0.09820413589477539,0.02274814248085022,-0.16106891632080078
1701865100674482200,10.355482177734375,0.08225154876708984,0.015079334378242493,-0.1558065414428711
1701865100684074000,10.365073974609375,0.0880122184753418,0.0056441426277160645,-0.1390848159790039
1701865100693667000,10.3746669921875,0.09855985641479492,-0.012590184807777405,-0.1298532485961914
1701865100703260400,10.384260498046874,0.09489059448242188,-0.03523656725883484,-0.1020212173461914
1701865100712853200,10.393853271484375,0.11465883255004883,-0.03624284267425537,-0.08156490325927734
1701865100722445000,10.403445068359375,0.1129903793334961,-0.044537097215652466,-0.05917501449584961
1701865100732038000,10.413037841796875,0.11621809005737305,-0.06485658884048462,-0.046729087829589844
1701865100741631500,10.422631591796875,0.09600973129272461,-0.07581302523612976,-0.03229093551635742
1701865100751224300,10.432224365234376,0.0857992172241211,-0.07756271958351135,-0.01596832275390625
1701865100760816000,10.441816162109374,0.07591629028320312,-0.08478407561779022,-0.01184844970703125
1701865100770409000,10.451408935546874,0.08014965057373047,-0.11143551766872406,-0.033550262451171875
1701865100780002600,10.46100244140625,0.03998756408691406,-0.06762704253196716,0.04596138000488281
1701865100789595400,10.470595458984375,0.033525943756103516,-0.06997939944267273,-0.005412578582763672
1701865100799187200,10.480187255859375,0.04600095748901367,-0.0867265909910202,0.012338638305664062
1701865100808780000,10.489780029296876,0.04632711410522461,-0.06811536848545074,0.01346445083618164
1701865100818373600,10.49937353515625,0.041773319244384766,-0.06158533692359924,0.007658958435058594
1701865100827966500,10.508966552734375,0.04427766799926758,-0.04778455197811127,0.01615428924560547
1701865100837558300,10.518558349609375,0.038912296295166016,-0.028228431940078735,0.036951541900634766
1701865100847151000,10.528151123046875,0.1143031120300293,0.11104266345500946,-0.023087024688720703
1701865100856744700,10.53774462890625,0.12973928451538086,-0.1993761509656906,0.1628251075744629
1701865100866337500,10.547337646484374,0.028379440307617188,0.11142149567604065,-0.07016515731811523
1701865100875929300,10.556929443359374,-0.025835514068603516,0.05358573794364929,-0.008195877075195312
1701865100885522200,10.566522216796875,-0.03927135467529297,0.020918920636177063,-0.027154922485351562
1701865100895115800,10.57611572265625,-0.0007081031799316406,-0.035921767354011536,0.05306720733642578
1701865100904708600,10.58570849609375,-0.01551961898803711,-0.08890804648399353,0.031533241271972656
1701865100914300400,10.595300537109376,-0.03747987747192383,-0.03304925560951233,0.05302619934082031
1701865100923893200,10.604893310546874,-0.00020074844360351562,0.034651875495910645,0.01060342788696289
1701865100933486800,10.61448681640625,-0.015217781066894531,0.06029614806175232,-0.019414424896240234
1701865100943079700,10.62407958984375,0.007984638214111328,0.10672062635421753,-0.002064228057861328
1701865100952671500,10.63367138671875,-0.011278629302978516,0.18805809319019318,0.014795780181884766
1701865100962264300,10.643264404296875,-0.050733089447021484,0.24982468783855438,0.10375642776489258
1701865100971858000,10.65285791015625,0.03289079666137695,0.15534421801567078,-0.011223793029785156
1701865100981450800,10.66245068359375,-0.013625621795654297,0.18505977094173431,-0.007242679595947266
1701865100991042600,10.67204248046875,0.03488779067993164,0.028532594442367554,0.024849414825439453
1701865101000635400,10.681635498046875,0.01777362823486328,0.043408170342445374,-0.02015972137451172
1701865101010229000,10.69122900390625,-0.036661624908447266,0.0456843376159668,-0.015050411224365234
1701865101019821800,10.70082177734375,0.03692770004272461,-0.12406960129737854,-0.03827333450317383
1701865101029414000,10.710413818359376,-0.04104185104370117,-0.24277272820472717,0.03277778625488281
1701865101039006500,10.72000634765625,0.018493175506591797,-0.07730992138385773,-0.024185657501220703
1701865101048600000,10.72960009765625,0.0019283294677734375,-0.052301451563835144,0.039630889892578125
1701865101058193000,10.73919287109375,0.056406497955322266,-0.11628548800945282,0.052786827087402344
1701865101067785000,10.748784912109375,0.08633708953857422,-0.0976506769657135,0.049315452575683594
1701865101077377500,10.75837744140625,0.10869932174682617,-0.05373178422451019,0.029423236846923828
1701865101086971100,10.76797119140625,0.10933351516723633,-0.0459330677986145,0.005303859710693359
1701865101096564000,10.77756396484375,0.10971212387084961,-0.03340502083301544,-0.015832901000976562
1701865101106156000,10.787156005859375,0.0838618278503418,0.005202382802963257,-0.03160524368286133
1701865101115748600,10.79674853515625,0.08653545379638672,0.03185497224330902,-0.07285737991333008
1701865101125342200,10.80634228515625,0.08429622650146484,0.004052475094795227,-0.0661921501159668
1701865101134935000,10.81593505859375,0.07982635498046875,-0.013885080814361572,-0.0550084114074707
1701865101144527000,10.825527099609374,0.05432605743408203,-0.019918635487556458,-0.0487980842590332
1701865101154120000,10.835119873046875,0.05530738830566406,-0.031034335494041443,-0.028721332550048828
1701865101163713500,10.844713623046875,0.07080411911010742,-0.03788118064403534,-0.047027587890625
1701865101173306000,10.85430615234375,0.07232332229614258,-0.03816820681095123,-0.044219017028808594
1701865101182898200,10.863898193359375,0.0693511962890625,-0.02243746817111969,-0.03462409973144531
1701865101192491000,10.873490966796876,0.059447288513183594,-0.021335214376449585,-0.03703784942626953
1701865101202084600,10.883084716796875,0.04735422134399414,-0.003772035241127014,-0.025286197662353516
1701865101211677200,10.89267724609375,0.023777484893798828,0.023148640990257263,-0.030283451080322266
1701865101221269200,10.902269287109375,0.007573127746582031,0.02624468505382538,-0.02334880828857422
1701865101230862000,10.911862060546875,0.008273124694824219,0.002775847911834717,-0.007266044616699219
1701865101240455700,10.92145556640625,0.05627727508544922,-0.03559388220310211,0.020084857940673828
1701865101250048300,10.93104833984375,0.056462764739990234,-0.017748400568962097,0.030420303344726562
1701865101259640300,10.940640380859374,0.04931926727294922,0.0015452653169631958,0.04080629348754883
1701865101269233200,10.950233154296875,0.05137443542480469,0.027346640825271606,0.034838199615478516
1701865101278826800,10.95982666015625,0.04877328872680664,0.024602532386779785,0.024180889129638672
1701865101288419300,10.96941943359375,0.03941011428833008,0.048259735107421875,0.015830516815185547
1701865101298011400,10.979011474609376,0.02120065689086914,0.05275695025920868,0.016658306121826172
1701865101307604200,10.988604248046874,0.03422689437866211,0.03835280239582062,0.02187967300415039
1701865101317197800,10.99819775390625,0.049712181091308594,0.023962602019309998,0.019649505615234375
1701865101326790700,11.007790771484375,0.0439915657043457,-0.018415138125419617,0.012527942657470703
1701865101336382500,11.017382568359375,0.05247354507446289,-0.055415913462638855,-0.00858926773071289
1701865101345975300,11.026975341796875,0.051638126373291016,-0.05857151746749878,-0.015442848205566406
1701865101355569000,11.03656884765625,0.05308246612548828,-0.04477529227733612,-0.01032257080078125
1701865101365161700,11.04616162109375,0.05401611328125,-0.03748233616352081,-0.03542947769165039
1701865101374753500,11.05575341796875,0.07799768447875977,-0.062419578433036804,-0.038471221923828125
1701865101384346400,11.065346435546875,0.0660395622253418,-0.0485139936208725,-0.015336990356445312
1701865101393940000,11.07493994140625,0.04975414276123047,-0.06718949973583221,-0.020987987518310547
1701865101403532800,11.08453271484375,0.06401824951171875,-0.002758428454399109,0.03968191146850586
1701865101413124600,11.09412451171875,0.054259300231933594,-0.0023183971643447876,-0.004004955291748047
1701865101422717400,11.103717529296874,0.06308889389038086,-0.02511182427406311,-0.0395197868347168
1701865101432311000,11.11331103515625,0.05706977844238281,-0.00759357213973999,-0.017419815063476562
1701865101441903900,11.12290380859375,0.04814577102661133,-0.018564075231552124,-0.0162811279296875
1701865101451495700,11.13249560546875,0.0502476692199707,-0.026718348264694214,-0.014341354370117188
1701865101461088500,11.142088623046876,0.0424199104309082,-0.029674142599105835,0.018613338470458984
1701865101470682000,11.15168212890625,0.05802631378173828,-0.018244698643684387,0.018280982971191406
1701865101480275000,11.16127490234375,0.042609214782714844,0.01180480420589447,0.013386726379394531
1701865101489867000,11.170866943359375,0.03198671340942383,0.012787207961082458,0.006364345550537109
1701865101499459800,11.1804599609375,0.04506826400756836,0.00842905044555664,-0.01938009262084961
1701865101509053200,11.19005322265625,0.043625831604003906,-0.010597214102745056,-0.02571868896484375
1701865101518646000,11.19964599609375,0.037487030029296875,-0.046325936913490295,-0.04608297348022461
1701865101528238000,11.209238037109374,0.04061079025268555,-0.02509978413581848,-0.04469442367553711
1701865101537831000,11.218830810546875,0.03628349304199219,0.01201184093952179,-0.06657791137695312
1701865101547424500,11.228424560546875,0.02852010726928711,0.025171592831611633,-0.07999420166015625
1701865101557017000,11.23801708984375,0.00569915771484375,0.029359906911849976,-0.06397056579589844
1701865101566609200,11.247609130859376,-0.01747608184814453,0.014992207288742065,-0.02165842056274414
1701865101576202000,11.257201904296876,-0.02891683578491211,-0.025532767176628113,-0.03149127960205078
1701865101585795600,11.266795654296875,-0.03985881805419922,-0.08758452534675598,0.015026569366455078
1701865101595388200,11.27638818359375,-0.04375791549682617,-0.13813336193561554,0.05383920669555664
1701865101604980200,11.285980224609375,-0.07729959487915039,-0.0715792179107666,-0.05741596221923828
1701865101614573000,11.295572998046875,-0.002768993377685547,0.025230765342712402,0.06956052780151367
1701865101624166700,11.305166748046876,-0.0617527961730957,0.18095512688159943,0.03502511978149414
1701865101633759200,11.31475927734375,0.01328134536743164,0.17605124413967133,0.011825084686279297
1701865101643351300,11.324351318359374,0.021515846252441406,0.12534183263778687,-0.018344879150390625
1701865101652944100,11.333944091796875,0.036794185638427734,0.08096325397491455,-0.017493724822998047
1701865101662537700,11.343537841796875,0.016941070556640625,0.0611238032579422,-0.01939249038696289
1701865101672130600,11.353130615234376,-0.022602081298828125,0.04373688995838165,0.015367984771728516
1701865101681722400,11.362722412109376,-0.02712535858154297,0.032868459820747375,0.03416013717651367
1701865101691315200,11.372315185546874,-0.007477283477783203,0.018539652228355408,0.06859397888183594
1701865101700908800,11.38190869140625,-0.03553295135498047,0.02152213454246521,0.017910480499267578
1701865101710501600,11.391501708984375,-0.02826547622680664,0.010913431644439697,0.013154983520507812
1701865101720093400,11.401093505859375,0.006844043731689453,0.0037352293729782104,0.011042118072509766
1701865101729686300,11.410686279296876,0.0008978843688964844,0.030756786465644836,0.011674880981445312
1701865101739280000,11.42027978515625,-0.0005025863647460938,0.07836797833442688,-0.008669853210449219
1701865101748872700,11.429872802734375,0.005282878875732422,0.08365453779697418,-0.012263774871826172
1701865101758464500,11.439464599609375,0.027988910675048828,0.045327261090278625,-0.0068206787109375
1701865101768057600,11.4490576171875,0.022605419158935547,0.03204859793186188,0.0027904510498046875
1701865101777651000,11.45865087890625,0.005730628967285156,0.057082369923591614,-0.0020384788513183594
1701865101787243800,11.468243896484376,-0.006155490875244141,0.06303319334983826,0.009697914123535156
1701865101796835600,11.477835693359374,0.008034229278564453,0.06373298168182373,-0.01172018051147461
1701865101806428700,11.4874287109375,0.0030422210693359375,0.09394094347953796,-0.025660991668701172
1701865101816022000,11.49702197265625,-0.0019855499267578125,0.08239132165908813,-0.029895305633544922
1701865101825614800,11.50661474609375,0.016669750213623047,0.06084880232810974,-0.027082443237304688
1701865101835207000,11.51620703125,0.009274959564208984,0.03237161040306091,-0.01034402847290039
1701865101844799500,11.525799560546876,0.006550312042236328,0.04217389225959778,-0.03141021728515625
1701865101854393000,11.53539306640625,0.006157875061035156,0.05923473834991455,-0.042639732360839844
1701865101863986000,11.54498583984375,0.010581016540527344,0.018019378185272217,-0.02549123764038086
1701865101873578000,11.554577880859375,0.01451730728149414,-0.11720651388168335,0.010643959045410156
1701865101883170800,11.5641708984375,0.032187461853027344,-0.016220659017562866,-0.0971059799194336
1701865101892764400,11.573764404296876,0.030491352081298828,-0.010621964931488037,-0.042746543884277344
1701865101902357000,11.58335693359375,0.024041175842285156,-0.04718589782714844,-0.038652896881103516
1701865101911949000,11.592948974609374,0.033074378967285156,0.029797732830047607,-0.002773761749267578
1701865101921542000,11.6025419921875,0.004909992218017578,0.07377573847770691,-0.03635883331298828
1701865101931135500,11.612135498046875,0.020285606384277344,0.10558247566223145,-0.032418251037597656
1701865101940728000,11.62172802734375,0.025078773498535156,0.042940109968185425,0.005398273468017578
1701865101950320000,11.631320068359376,0.08471441268920898,-0.07653030753135681,0.020639419555664062
1701865101959913000,11.640912841796874,0.0816044807434082,-0.07470634579658508,0.003101825714111328
1701865101969506600,11.650506591796875,0.11368989944458008,-0.14793336391448975,0.007195949554443359
1701865101979099100,11.66009912109375,0.16649198532104492,-0.1267644166946411,-0.09498786926269531
1701865101988691200,11.669691162109375,0.05307483673095703,-0.1527370810508728,-0.1245126724243164
1701865101998284000,11.679283935546875,0.007208347320556641,-0.2481972873210907,-0.10636711120605469
1701865102007877600,11.688877685546874,-0.007163524627685547,-0.22669339179992676,-0.07468605041503906
1701865102017470500,11.698470458984374,-0.020738601684570312,-0.07933661341667175,-0.048966407775878906
1701865102027062300,11.708062255859375,-0.028956890106201172,0.002459019422531128,-0.05259370803833008
1701865102036655000,11.717655029296875,-0.07677412033081055,0.07774817943572998,-0.047347068786621094
1701865102046248700,11.727248779296875,-0.17644071578979492,0.15760546922683716,-0.0038781166076660156
1701865102055841500,11.736841552734376,-0.28060150146484375,0.20862409472465515,0.07327985763549805
1701865102065433300,11.746433349609376,-0.38042593002319336,0.22364547848701477,0.16090059280395508
1701865102075026200,11.756026123046874,-0.3575935363769531,0.12986579537391663,0.21113061904907227
1701865102084619800,11.765619873046875,-0.4910750389099121,0.3385619819164276,0.3533182144165039
1701865102094212600,11.775212646484375,-0.4408912658691406,0.4562142789363861,0.2792387008666992
1701865102103804400,11.784804443359375,-0.2177586555480957,0.40679991245269775,0.1459975242614746
1701865102113397200,11.794397216796876,0.027913570404052734,0.37951141595840454,-0.0652623176574707
1701865102122990800,11.803990966796874,0.20364904403686523,0.30354055762290955,-0.21175718307495117
1701865102132583700,11.813583740234375,0.28836774826049805,0.22450944781303406,-0.38547372817993164
1701865102142175500,11.823175537109375,0.33502197265625,0.15547579526901245,-0.40665769577026367
1701865102151768300,11.832768310546875,0.25399208068847656,0.22593718767166138,-0.44872474670410156
1701865102161362000,11.84236181640625,0.22884464263916016,0.32620781660079956,-0.5751810073852539
1701865102170954800,11.851954833984376,0.22472190856933594,0.3534611463546753,-0.5414237976074219
1701865102180546800,11.861546875,0.20219039916992188,0.4485231041908264,-0.6315703392028809
1701865102190139400,11.871139404296875,0.24605607986450195,0.34037548303604126,-0.4972681999206543
1701865102199733000,11.88073291015625,0.2944369316101074,0.1775972843170166,-0.286163330078125
1701865102209325800,11.890325927734375,0.4134960174560547,0.010886609554290771,-0.13378047943115234
1701865102218918000,11.89991796875,0.47536277770996094,-0.06687045097351074,-0.08886098861694336
1701865102228510500,11.909510498046876,0.44288015365600586,0.044981539249420166,-0.16114044189453125
1701865102238104000,11.91910400390625,0.465273380279541,0.09462922811508179,-0.31529855728149414
1701865102247697000,11.92869677734375,0.35891199111938477,0.03295630216598511,-0.3861408233642578
1701865102257289000,11.9382890625,0.2515835762023926,-0.0012739300727844238,-0.21594858169555664
1701865102266881500,11.947881591796875,0.27738094329833984,-0.12853729724884033,-0.14075517654418945
1701865102276475400,11.957475341796876,0.14245891571044922,-0.23886311054229736,-0.17321062088012695
1701865102286068000,11.96706787109375,0.20299434661865234,-0.576937198638916,0.09815502166748047
1701865102295660000,11.976659912109374,0.17995214462280273,-1.0553781986236572,0.3823509216308594
1701865102305252600,11.986252685546875,0.2616586685180664,-1.4159868955612183,0.6887049674987793
1701865102314846200,11.99584619140625,0.4160628318786621,-1.180051326751709,0.6541929244995117
1701865102324439000,12.00543896484375,0.28461790084838867,-0.6593082547187805,0.49044084548950195
1701865102334031000,12.015031005859376,0.020263671875,0.001497030258178711,-0.13112258911132812
1701865102343624000,12.0246240234375,0.10085010528564453,0.18017184734344482,-0.3701305389404297
