time,seconds_elapsed,z,y,x
1701713503781575200,0.1025751953125,8.64176082611084,4.49543571472168,1.131996989250183
1701713503791169300,0.112169189453125,8.566747665405273,4.639005661010742,1.1228728294372559
1701713503800763000,0.121762939453125,8.59593391418457,4.585812091827393,1.1183112859725952
1701713503810357200,0.131357177734375,8.625457763671875,4.536867141723633,1.0902738571166992
1701713503819952000,0.1409521484375,8.628860473632812,4.531773090362549,1.084520936012268
1701713503829546500,0.15054638671875,8.61497688293457,4.56180477142334,1.0688782930374146
1701713503839139800,0.160139892578125,8.613903999328613,4.56613826751709,1.0589808225631714
1701713503848734200,0.169734130859375,8.6158447265625,4.561790466308594,1.0619134902954102
1701713503858329000,0.1793291015625,8.615293502807617,4.564807415008545,1.0533933639526367
1701713503867923500,0.18892333984375,8.612229347229004,4.57087516784668,1.052138090133667
1701713503877516800,0.198516845703125,8.604426383972168,4.583502769470215,1.0610072612762451
1701713503887111200,0.208111083984375,8.593806266784668,4.599989891052246,1.075632929801941
1701713503896706300,0.217706298828125,8.583083152770996,4.615818023681641,1.0932941436767578
1701713503906300400,0.227300537109375,8.573041915893555,4.628686904907227,1.1174039840698242
1701713503915894000,0.23689404296875,8.562838554382324,4.640919208526611,1.144575595855713
1701713503925488400,0.24648828125,8.551466941833496,4.65624475479126,1.1671264171600342
1701713503935083300,0.256083251953125,8.5415620803833,4.67008113861084,1.1842477321624756
1701713503944677600,0.265677734375,8.530319213867188,4.686101913452148,1.20187246799469
1701713503954271000,0.27527099609375,8.516249656677246,4.70438814163208,1.2298802137374878
1701713503963865300,0.284865234375,8.50410270690918,4.716911792755127,1.2654590606689453
1701713503973460500,0.29446044921875,8.495882987976074,4.723239421844482,1.2966715097427368
1701713503983054600,0.3040546875,8.493825912475586,4.720566749572754,1.3196834325790405
1701713503992648000,0.31364794921875,8.498274803161621,4.70948600769043,1.3305875062942505
1701713504002242300,0.3232421875,8.501763343811035,4.699106693267822,1.3449187278747559
1701713504011837400,0.33283740234375,8.51229190826416,4.671375274658203,1.3746004104614258
1701713504021431600,0.342431640625,8.532074928283691,4.624859809875488,1.4088126420974731
1701713504031025200,0.352025146484375,8.549906730651855,4.576910495758057,1.4564950466156006
1701713504040619500,0.36161962890625,8.567612648010254,4.533005714416504,1.489382028579712
1701713504050214400,0.37121435546875,8.586584091186523,4.488763332366943,1.5139243602752686
1701713504059808800,0.380808837890625,8.605103492736816,4.443521022796631,1.5419797897338867
1701713504069402000,0.390402099609375,8.620928764343262,4.400456428527832,1.5766886472702026
1701713504078996500,0.39999658203125,8.63198184967041,4.365445613861084,1.6131267547607422
1701713504088591600,0.409591552734375,8.636404991149902,4.341102600097656,1.654604434967041
1701713504098185700,0.419185791015625,8.639162063598633,4.320476055145264,1.6937346458435059
1701713504107779300,0.428779296875,8.638337135314941,4.303685665130615,1.740060806274414
1701713504117373700,0.438373779296875,8.633378028869629,4.290960788726807,1.7952243089675903
1701713504126968600,0.447968505859375,8.61868667602539,4.292640209197998,1.8606103658676147
1701713504136562700,0.457562744140625,8.598567962646484,4.30388069152832,1.926558256149292
1701713504146156300,0.46715625,8.568856239318848,4.331479549407959,1.9958386421203613
1701713504155750700,0.476750732421875,8.527692794799805,4.37745475769043,2.0704400539398193
1701713504165345800,0.486345703125,8.476174354553223,4.436761856079102,2.1540677547454834
1701713504174940000,0.49593994140625,8.415996551513672,4.506967067718506,2.242457389831543
1701713504184533200,0.505533203125,8.346073150634766,4.592139720916748,2.329315185546875
1701713504194127600,0.515127685546875,8.263805389404297,4.689942359924316,2.4257638454437256
1701713504203722800,0.52472265625,8.199603080749512,4.770133972167969,2.486506700515747
1701713504213316900,0.53431689453125,8.152894020080566,4.838236331939697,2.508423328399658
1701713504222910500,0.543910400390625,8.120197296142578,4.893792152404785,2.5067086219787598
1701713504232504800,0.5535048828125,8.097624778747559,4.933932781219482,2.501032590866089
1701713504242099700,0.563099609375,8.082967758178711,4.955123424530029,2.5065412521362305
1701713504251694000,0.572694091796875,8.07320785522461,4.967526435852051,2.5134410858154297
1701713504261287400,0.582287353515625,8.069668769836426,4.974080562591553,2.5118420124053955
1701713504270881800,0.5918818359375,8.074045181274414,4.972054481506348,2.50177001953125
1701713504280477000,0.601476806640625,8.085137367248535,4.957801342010498,2.4942245483398438
1701713504290071000,0.611071044921875,8.090444564819336,4.952728748321533,2.4870827198028564
1701713504299664600,0.62066455078125,8.094101905822754,4.957367420196533,2.465851068496704
1701713504309258800,0.6302587890625,8.108845710754395,4.94810152053833,2.4358363151550293
1701713504318854000,0.63985400390625,8.131988525390625,4.931178569793701,2.392620801925659
1701713504328448000,0.649447998046875,8.157878875732422,4.917019844055176,2.332876682281494
1701713504338041600,0.65904150390625,8.182147026062012,4.909012794494629,2.2637269496917725
1701713504347636000,0.668635986328125,8.20108699798584,4.906711578369141,2.199256420135498
1701713504357230800,0.67823095703125,8.21229362487793,4.911454200744629,2.146214723587036
1701713504366825200,0.6878251953125,8.215485572814941,4.9230780601501465,2.1070075035095215
1701713504376418600,0.69741845703125,8.211777687072754,4.939950942993164,2.0818207263946533
1701713504386013000,0.707012939453125,8.202505111694336,4.962289333343506,2.0651822090148926
1701713504395608000,0.716608154296875,8.189263343811035,4.989623069763184,2.0518271923065186
1701713504405202200,0.7262021484375,8.174583435058594,5.018688201904297,2.0394437313079834
1701713504414795800,0.735795654296875,8.160148620605469,5.046750068664551,2.027972459793091
1701713504424390000,0.745389892578125,8.147128105163574,5.071590423583984,2.018329381942749
1701713504433985000,0.754985107421875,8.13637924194336,5.092422008514404,2.009219169616699
1701713504443579100,0.7645791015625,8.128633499145508,5.107882499694824,2.0013089179992676
1701713504453172700,0.7741728515625,8.124443054199219,5.116934299468994,1.9951943159103394
1701713504462766800,0.783766845703125,8.124163627624512,5.120035648345947,1.988362431526184
1701713504472362000,0.793362060546875,8.127861976623535,5.117890357971191,1.978750467300415
1701713504481956400,0.802956298828125,8.135773658752441,5.110028266906738,1.9665166139602661
1701713504491549700,0.8125498046875,8.146836280822754,5.097462177276611,1.953284740447998
1701713504501144000,0.82214404296875,8.159964561462402,5.081386566162109,1.9403281211853027
1701713504510739200,0.8317392578125,8.174179077148438,5.0629987716674805,1.9285283088684082
1701713504520333300,0.841333251953125,8.18834114074707,5.043806076049805,1.9187196493148804
1701713504529927000,0.850927001953125,8.201777458190918,5.024740695953369,1.9113386869430542
1701713504539521000,0.86052099609375,8.213700294494629,5.007323265075684,1.9058442115783691
1701713504549116200,0.8701162109375,8.223687171936035,4.992844104766846,1.9007550477981567
1701713504558710500,0.87971044921875,8.231645584106445,4.9809651374816895,1.897467851638794
1701713504568303900,0.889303955078125,8.238036155700684,4.970254898071289,1.897822618484497
1701713504577898200,0.898898193359375,8.242656707763672,4.961567401885986,1.9004853963851929
1701713504587493000,0.9084931640625,8.245104789733887,4.955707550048828,1.9051522016525269
1701713504597087500,0.91808740234375,8.244412422180176,4.95469331741333,1.910774827003479
1701713504606680800,0.927680908203125,8.239821434020996,4.960306167602539,1.9160078763961792
1701713504616275200,0.937275146484375,8.230977058410645,4.9731292724609375,1.9207764863967896
1701713504625870300,0.946870361328125,8.218926429748535,4.992025375366211,1.923363447189331
1701713504635464400,0.95646435546875,8.204838752746582,5.0154547691345215,1.9225521087646484
1701713504645058000,0.96605810546875,8.190489768981934,5.040701389312744,1.9177062511444092
1701713504654652200,0.975652099609375,8.177861213684082,5.064790725708008,1.9081099033355713
1701713504664247300,0.985247314453125,8.168108940124512,5.085434436798096,1.8949227333068848
1701713504673841700,0.994841552734375,8.16207218170166,5.101696491241455,1.8771394491195679
1701713504683435000,1.00443505859375,8.160280227661133,5.112282752990723,1.856010913848877
1701713504693029400,1.014029296875,8.162808418273926,5.116260528564453,1.833798885345459
1701713504702624500,1.02362451171875,8.169046401977539,5.114290714263916,1.8113768100738525
1701713504712218600,1.033218505859375,8.177777290344238,5.108382225036621,1.78851318359375
1701713504721812000,1.04281201171875,8.187507629394531,5.100447177886963,1.766502857208252
1701713504731406300,1.05240625,8.197406768798828,5.0915961265563965,1.7460155487060547
1701713504741001500,1.06200146484375,8.20703411102295,5.082581996917725,1.7269482612609863
1701713504750595600,1.071595703125,8.216785430908203,5.073141098022461,1.7082327604293823
1701713504760189200,1.081189208984375,8.226202011108398,5.063758373260498,1.69066321849823
1701713504769783600,1.090783447265625,8.234893798828125,5.054129600524902,1.6771076917648315
1701713504779378400,1.10037841796875,8.242781639099121,5.044485569000244,1.6673643589019775
1701713504788972800,1.109972900390625,8.249608993530273,5.0352044105529785,1.6616419553756714
1701713504798566100,1.119566162109375,8.254664421081543,5.027663230895996,1.6593704223632812
1701713504808160500,1.129160400390625,8.259099960327148,5.0201616287231445,1.6600080728530884
1701713504817755600,1.138755615234375,8.261251449584961,5.015818119049072,1.6624324321746826
1701713504827349800,1.148349853515625,8.260476112365723,5.015382766723633,1.667588710784912
1701713504836943400,1.157943359375,8.255990028381348,5.02004337310791,1.6757622957229614
1701713504846537500,1.167537353515625,8.24788761138916,5.029540538787842,1.6871414184570312
1701713504856132600,1.177132568359375,8.237164497375488,5.04427433013916,1.695522427558899
1701713504865726700,1.186726806640625,8.226436614990234,5.0602288246154785,1.700067162513733
1701713504875320300,1.1963203125,8.215929985046387,5.0769453048706055,1.7010314464569092
1701713504884914700,1.205914794921875,8.205389976501465,5.094470500946045,1.6995128393173218
1701713504894509600,1.215509521484375,8.194975852966309,5.112027645111084,1.6970423460006714
1701713504904104000,1.22510400390625,8.184694290161133,5.129302024841309,1.6945325136184692
1701713504913697300,1.234697265625,8.174737930297852,5.145731449127197,1.692776083946228
1701713504923291600,1.244291748046875,8.165069580078125,5.161294460296631,1.6920623779296875
1701713504932886800,1.25388671875,8.15598201751709,5.175368785858154,1.6928989887237549
1701713504942481000,1.26348095703125,8.147249221801758,5.188660621643066,1.694262981414795
1701713504952074500,1.273074462890625,8.140432357788086,5.198970794677734,1.6954216957092285
1701713504961668600,1.282668701171875,8.135882377624512,5.206240177154541,1.6949533224105835
1701713504971263700,1.292263671875,8.133245468139648,5.211222171783447,1.6922979354858398
1701713504980857900,1.30185791015625,8.132168769836426,5.214385986328125,1.6877186298370361
1701713504990451500,1.311451416015625,8.132718086242676,5.215353012084961,1.6820755004882812
1701713505000045800,1.3210458984375,8.13411808013916,5.214853763580322,1.6768479347229004
1701713505009640700,1.330640625,8.136274337768555,5.212740898132324,1.6729488372802734
1701713505019235000,1.340235107421875,8.139413833618164,5.208148956298828,1.6719765663146973
1701713505028828400,1.349828369140625,8.142580032348633,5.202286720275879,1.6748117208480835
1701713505038422800,1.3594228515625,8.145306587219238,5.195423126220703,1.682839035987854
1701713505048018000,1.369017822265625,8.147313117980957,5.188024997711182,1.6958976984024048
1701713505057612000,1.378612060546875,8.148438453674316,5.180439472198486,1.7135854959487915
1701713505067205600,1.38820556640625,8.147881507873535,5.17472505569458,1.7333918809890747
1701713505076800000,1.397800048828125,8.145047187805176,5.172265529632568,1.75392746925354
1701713505086395000,1.407394775390625,8.140131950378418,5.173238277435303,1.7737629413604736
1701713505095989000,1.416989013671875,8.133583068847656,5.177281856536865,1.791916012763977
1701713505105582600,1.42658251953125,8.125772476196289,5.18355131149292,1.8091449737548828
1701713505115177000,1.436177001953125,8.117094993591309,5.191152095794678,1.826224684715271
1701713505124772000,1.445772216796875,8.10743522644043,5.200104713439941,1.843578577041626
1701713505134366200,1.4553662109375,8.096372604370117,5.21100378036499,1.8613395690917969
1701713505143959600,1.46495947265625,8.08346939086914,5.224409103393555,1.879748821258545
1701713505153554000,1.474553955078125,8.068167686462402,5.240600109100342,1.9003093242645264
1701713505163149000,1.484149169921875,8.050132751464844,5.259533405303955,1.9243345260620117
1701713505172743200,1.4937431640625,8.029218673706055,5.280814170837402,1.9532089233398438
1701713505182336800,1.503336669921875,8.005337715148926,5.3037919998168945,1.9886544942855835
1701713505191931100,1.51293115234375,7.978376865386963,5.328588008880615,2.030280828475952
1701713505201526000,1.522526123046875,7.948492527008057,5.355875492095947,2.0752017498016357
1701713505211120400,1.532120361328125,7.916794776916504,5.385498523712158,2.1192312240600586
1701713505220713700,1.541713623046875,7.8855438232421875,5.416266441345215,2.156996726989746
1701713505230308000,1.55130810546875,7.858100891113281,5.444708824157715,2.1853597164154053
1701713505239903200,1.5609033203125,7.837601661682129,5.4671311378479,2.202923536300659
1701713505249497300,1.570497314453125,7.825715065002441,5.4816083908081055,2.2091948986053467
1701713505259091000,1.580091064453125,7.822625637054443,5.4881367683410645,2.2039248943328857
1701713505268685000,1.58968505859375,7.82918643951416,5.483726978302002,2.19156813621521
1701713505278280200,1.5992802734375,7.842427730560303,5.471890449523926,2.173738479614258
1701713505287874300,1.608874267578125,7.860035419464111,5.454843521118164,2.1528851985931396
1701713505297468000,1.618468017578125,7.880239963531494,5.43433141708374,2.130786657333374
1701713505307062300,1.628062255859375,7.901310443878174,5.411951541900635,2.1096115112304688
1701713505316657200,1.6376572265625,7.9214019775390625,5.39064884185791,2.088702440261841
1701713505326251500,1.64725146484375,7.939459323883057,5.37182092666626,2.0685555934906006
1701713505335844900,1.656844970703125,7.954207420349121,5.35654878616333,2.051427125930786
1701713505345439200,1.666439208984375,7.964789867401123,5.345950603485107,2.037968158721924
1701713505355034400,1.676034423828125,7.9708733558654785,5.340529441833496,2.028376817703247
1701713505364628500,1.68562841796875,7.973109245300293,5.339239120483398,2.022977828979492
1701713505374222000,1.69522216796875,7.97255802154541,5.341063499450684,2.020334243774414
1701713505383816200,1.704816162109375,7.969686031341553,5.3454155921936035,2.0201568603515625
1701713505393411300,1.714411376953125,7.965049743652344,5.35135555267334,2.022709846496582
1701713505403005400,1.72400537109375,7.95927619934082,5.358225345611572,2.027249574661255
1701713505412599000,1.73359912109375,7.9528584480285645,5.365757465362549,2.0325045585632324
1701713505422193400,1.743193359375,7.946170806884766,5.3738203048706055,2.037353515625
1701713505431788300,1.752788330078125,7.939740180969238,5.381978511810303,2.040886640548706
1701713505441382700,1.762382568359375,7.934093475341797,5.389444828033447,2.0431435108184814
1701713505450976000,1.77197607421875,7.929157733917236,5.396297931671143,2.04421329498291
1701713505460570400,1.7815703125,7.924076080322266,5.403393745422363,2.0451769828796387
1701713505470165500,1.79116552734375,7.9183759689331055,5.411520481109619,2.0457653999328613
1701713505479759600,1.800759521484375,7.911614894866943,5.421133518218994,2.0464704036712646
1701713505489353200,1.810353271484375,7.904078006744385,5.4320526123046875,2.0466415882110596
1701713505498947300,1.819947265625,7.896470069885254,5.443303108215332,2.046121120452881
1701713505508542500,1.82954248046875,7.889556407928467,5.453769207000732,2.0449166297912598
1701713505518136600,1.839136474609375,7.883976936340332,5.4626312255859375,2.042783498764038
1701713505527730200,1.848730224609375,7.88084602355957,5.468221664428711,2.0399062633514404
1701713505537324500,1.858324462890625,7.880715847015381,5.469891548156738,2.0359222888946533
1701713505546919400,1.86791943359375,7.883466720581055,5.468378067016602,2.0293304920196533
1701713505556513800,1.877513671875,7.88864278793335,5.464352607727051,2.0200343132019043
1701713505566107100,1.887107177734375,7.8954691886901855,5.458855628967285,2.0081958770751953
1701713505575701500,1.896701416015625,7.902974605560303,5.4526824951171875,1.9954032897949219
1701713505585296600,1.906296630859375,7.910423278808594,5.4459662437438965,1.984197735786438
1701713505594890800,1.915890869140625,7.916891098022461,5.438785552978516,1.9780877828598022
1701713505604484400,1.925484375,7.921838760375977,5.431684970855713,1.9777889251708984
1701713505614078500,1.935078369140625,7.925146579742432,5.424458980560303,1.9843577146530151
1701713505623673600,1.944673583984375,7.927069664001465,5.416913032531738,1.9972487688064575
1701713505633267700,1.954267822265625,7.927523136138916,5.410125732421875,2.013777732849121
1701713505642861300,1.963861328125,7.927102088928223,5.404277324676514,2.0310654640197754
1701713505652455700,1.97345556640625,7.925989627838135,5.400178909301758,2.046250581741333
1701713505662050600,1.983050537109375,7.924134254455566,5.399333953857422,2.055644989013672
1701713505671645000,1.99264501953125,7.921512603759766,5.40213680267334,2.058382749557495
1701713505681238300,2.00223828125,7.917669773101807,5.408462047576904,2.0565569400787354
1701713505690832600,2.01183251953125,7.912019729614258,5.418097972869873,2.0529375076293945
1701713505700427800,2.021427734375,7.9039201736450195,5.431112766265869,2.049741506576538
1701713505710022000,2.03102197265625,7.893287658691406,5.4467692375183105,2.0491714477539062
1701713505719615500,2.040615478515625,7.880551338195801,5.46389627456665,2.052590847015381
1701713505729209900,2.0502099609375,7.866517543792725,5.480766296386719,2.0614304542541504
1701713505738804700,2.0598046875,7.852511405944824,5.495565891265869,2.075382947921753
1701713505748398800,2.06939892578125,7.8397698402404785,5.507749080657959,2.0911920070648193
1701713505757992400,2.078992431640625,7.82948637008667,5.517194747924805,2.1047756671905518
1701713505767586800,2.0885869140625,7.822285175323486,5.524722576141357,2.1117944717407227
1701713505777181700,2.098181640625,7.819424152374268,5.5300421714782715,2.1084649562835693
1701713505786776000,2.107776123046875,7.821437358856201,5.532983779907227,2.0932252407073975
1701713505796369400,2.117369384765625,7.828132629394531,5.5335774421691895,2.066460132598877
1701713505805963800,2.1269638671875,7.838644981384277,5.532135963439941,2.0301480293273926
1701713505815559000,2.136558837890625,7.851738452911377,5.528659343719482,1.9885951280593872
1701713505825153000,2.146153076171875,7.864980220794678,5.524456977844238,1.9475252628326416
1701713505834746600,2.15574658203125,7.876391410827637,5.521058559417725,1.9106942415237427
1701713505844341000,2.165341064453125,7.884599685668945,5.5194411277771,1.8812880516052246
1701713505853935900,2.174935791015625,7.88930082321167,5.519689559936523,1.8607347011566162
1701713505863530000,2.184530029296875,7.890318393707275,5.522708892822266,1.8474195003509521
1701713505873123600,2.19412353515625,7.8878278732299805,5.529612064361572,1.8373732566833496
1701713505882718000,2.203718017578125,7.883151531219482,5.539435386657715,1.8278281688690186
1701713505892312800,2.213312744140625,7.877527713775635,5.55118989944458,1.8163790702819824
1701713505901907200,2.2229072265625,7.872007846832275,5.563807487487793,1.8016436100006104
1701713505911500500,2.23250048828125,7.866274833679199,5.577415943145752,1.7845277786254883
1701713505921095000,2.242094970703125,7.86008358001709,5.5920562744140625,1.7658945322036743
1701713505930690000,2.25168994140625,7.853362083435059,5.607602119445801,1.7463939189910889
1701713505940284200,2.2612841796875,7.846987724304199,5.622896194458008,1.725750207901001
1701713505949877800,2.270877685546875,7.841439247131348,5.637012004852295,1.7047901153564453
1701713505959472000,2.28047216796875,7.836819171905518,5.649032115936279,1.6861457824707031
1701713505969067000,2.29006689453125,7.831974983215332,5.658252716064453,1.6777141094207764
1701713505978661000,2.2996611328125,7.826601982116699,5.667431354522705,1.6717987060546875
1701713505988254700,2.309254638671875,7.819191932678223,5.678740501403809,1.6680899858474731
1701713505997849000,2.31884912109375,7.807740211486816,5.696478366851807,1.6612406969070435
1701713506007444200,2.3284443359375,7.795362949371338,5.7171244621276855,1.6483913660049438
1701713506017038300,2.338038330078125,7.78783655166626,5.73217248916626,1.6316242218017578
1701713506026631700,2.347631591796875,7.787477493286133,5.737784385681152,1.6135095357894897
1701713506036226000,2.35722607421875,7.79325008392334,5.734047889709473,1.5988528728485107
1701713506045821200,2.3668212890625,7.803338527679443,5.721549987792969,1.5944162607192993
1701713506055415300,2.376415283203125,7.815324306488037,5.701630115509033,1.6070195436477661
1701713506065009000,2.3860087890625,7.825702667236328,5.678284168243408,1.6388561725616455
1701713506074603000,2.39560302734375,7.831114768981934,5.656280040740967,1.6883517503738403
1701713506084198100,2.4051982421875,7.829980373382568,5.63906717300415,1.7500618696212769
1701713506093792500,2.41479248046875,7.822944641113281,5.6285200119018555,1.8142986297607422
1701713506103385900,2.4243857421875,7.81084680557251,5.626231670379639,1.8725861310958862
1701713506112980200,2.433980224609375,7.789628028869629,5.636590003967285,1.928971767425537
1701713506122575000,2.4435751953125,7.758054256439209,5.658693790435791,1.9905221462249756
1701713506132169500,2.45316943359375,7.720727443695068,5.685006618499756,2.059481143951416
1701713506141762800,2.4627626953125,7.684887886047363,5.706672191619873,2.132319688796997
1701713506151357200,2.472357177734375,7.654263496398926,5.71870231628418,2.2088632583618164
1701713506160952300,2.481952392578125,7.629051685333252,5.722921371459961,2.283886432647705
1701713506170546400,2.49154638671875,7.6103434562683105,5.722228527069092,2.3471617698669434
1701713506180140000,2.50114013671875,7.599648952484131,5.715444564819336,2.3977930545806885
1701713506189734100,2.510734130859375,7.596903324127197,5.7012200355529785,2.4399869441986084
1701713506199329300,2.520329345703125,7.600065231323242,5.678516864776611,2.48271107673645
1701713506208923600,2.529923583984375,7.607607841491699,5.648979663848877,2.5266010761260986
1701713506218517000,2.53951708984375,7.617691993713379,5.616469383239746,2.5683517456054688
1701713506228111400,2.549111328125,7.627408504486084,5.582918167114258,2.612290382385254
1701713506237706200,2.558706298828125,7.6357598304748535,5.54932975769043,2.659041404724121
1701713506247300600,2.568300537109375,7.643126964569092,5.5157084465026855,2.707388401031494
1701713506256894000,2.57789404296875,7.649322509765625,5.480926990509033,2.760016441345215
1701713506266488300,2.58748828125,7.653600692749023,5.444424629211426,2.8197555541992188
1701713506276083500,2.59708349609375,7.656252384185791,5.40578031539917,2.8861258029937744
1701713506285677600,2.606677490234375,7.657077312469482,5.364620685577393,2.959796905517578
1701713506295271200,2.616271240234375,7.655795097351074,5.32040548324585,3.0417895317077637
1701713506304865300,2.625865234375,7.6516571044921875,5.27341890335083,3.132664680480957
1701713506314460400,2.63546044921875,7.642114162445068,5.22475004196167,3.2358102798461914
1701713506324054500,2.645054443359375,7.624284744262695,5.175491809844971,3.3548409938812256
1701713506333648100,2.654648193359375,7.594406604766846,5.127180099487305,3.493910074234009
1701713506343242500,2.664242431640625,7.550090312957764,5.082329273223877,3.6519112586975098
1701713506352837400,2.67383740234375,7.490056991577148,5.042867183685303,3.8260841369628906
1701713506362431700,2.683431640625,7.412353992462158,5.0095438957214355,4.016448020935059
1701713506372025000,2.693025146484375,7.314444065093994,4.982388019561768,4.2243452072143555
1701713506381619500,2.702619384765625,7.194897651672363,4.959000587463379,4.451084613800049
1701713506391214600,2.712214599609375,7.0482048988342285,4.9351725578308105,4.7050251960754395
1701713506400808700,2.72180859375,6.865049839019775,4.908287048339844,4.995016574859619
1701713506410402300,2.73140234375,6.644137859344482,4.877330303192139,5.3138933181762695
1701713506419996700,2.74099658203125,6.3927693367004395,4.836891174316406,5.648661136627197
1701713506429591600,2.750591552734375,6.114816188812256,4.779263973236084,5.994833946228027
1701713506439185700,2.760185546875,5.811250686645508,4.70168924331665,6.347744941711426
1701713506448779300,2.769779296875,5.486021995544434,4.602640151977539,6.699974060058594
1701713506458373600,2.77937353515625,5.136623382568359,4.481846809387207,7.049718379974365
1701713506467968500,2.788968505859375,4.753818511962891,4.335597038269043,7.40095853805542
1701713506477563000,2.79856298828125,4.34151029586792,4.1599507331848145,7.747031211853027
1701713506487156200,2.80815625,3.9145984649658203,3.950355052947998,8.077190399169922
1701713506496750600,2.81775048828125,3.4903712272644043,3.705488443374634,8.381948471069336
1701713506506345700,2.827345703125,3.087736129760742,3.429475784301758,8.653032302856445
1701713506515939800,2.83693994140625,2.7251086235046387,3.1310603618621826,8.884854316711426
1701713506525533400,2.846533447265625,2.401370048522949,2.8154497146606445,9.081686973571777
1701713506535127600,2.85612744140625,2.106003761291504,2.489731550216675,9.248586654663086
1701713506544722700,2.86572265625,1.8309578895568848,2.160460948944092,9.388843536376953
1701713506554316800,2.87531689453125,1.5768933296203613,1.8292498588562012,9.50461196899414
1701713506563910400,2.884910400390625,1.3597311973571777,1.500015139579773,9.595388412475586
1701713506573504500,2.89450439453125,1.1967508792877197,1.1776002645492554,9.661853790283203
1701713506583099600,2.904099609375,1.0901488065719604,0.8599601984024048,9.707853317260742
1701713506592694000,2.913694091796875,1.0335617065429688,0.5426321029663086,9.736923217773438
1701713506602287400,2.923287353515625,1.009920597076416,0.22103694081306458,9.752004623413086
1701713506611881700,2.9328818359375,0.9952181577682495,-0.10622063279151917,9.755441665649414
1701713506621476900,2.942476806640625,0.9676023125648499,-0.4391096830368042,9.748913764953613
1701713506631071000,2.952071044921875,0.9089713096618652,-0.7773640155792236,9.733440399169922
1701713506640664600,2.96166455078125,0.8106378316879272,-1.1188304424285889,9.708834648132324
1701713506650258700,2.9712587890625,0.6801917552947998,-1.4642822742462158,9.672828674316406
1701713506659853600,2.980853515625,0.5281315445899963,-1.8172986507415771,9.622312545776367
1701713506669447700,2.99044775390625,0.3533497750759125,-2.173065662384033,9.556323051452637
1701713506679041300,3.000041259765625,0.06505236029624939,-2.4958484172821045,9.48350715637207
1701713506688635600,3.0096357421875,-0.31060701608657837,-2.774397373199463,9.400885581970215
1701713506698230500,3.01923046875,-0.6454540491104126,-3.05544114112854,9.296130180358887
1701713506707825000,3.028824951171875,-0.8933693170547485,-3.385685682296753,9.160207748413086
1701713506717418200,3.038418212890625,-1.074613094329834,-3.763070821762085,8.991933822631836
1701713506727012600,3.0480126953125,-1.223759651184082,-4.1422343254089355,8.804242134094238
1701713506736607700,3.057607666015625,-1.4153146743774414,-4.440643310546875,8.628323554992676
1701713506746201900,3.067201904296875,-1.6972545385360718,-4.605175018310547,8.490116119384766
1701713506755795500,3.07679541015625,-1.9522451162338257,-4.8131537437438965,8.31821346282959
1701713506765389600,3.0863896484375,-2.0870256423950195,-5.090742111206055,8.117822647094727
1701713506774984700,3.095984619140625,-2.2053728103637695,-5.383450508117676,7.894630432128906
1701713506784578800,3.105578857421875,-2.365328788757324,-5.621124267578125,7.679749965667725
1701713506794172400,3.11517236328125,-2.536787986755371,-5.7746477127075195,7.50922966003418
1701713506803766800,3.124766845703125,-2.6678619384765625,-5.88731050491333,7.375125885009766
1701713506813361700,3.134361572265625,-2.7327721118927,-5.983395576477051,7.2733283042907715
1701713506822956000,3.1439560546875,-2.7348501682281494,-6.044424533843994,7.221904277801514
1701713506832549400,3.15354931640625,-2.6831183433532715,-6.045487880706787,7.240396499633789
1701713506842143700,3.163143798828125,-2.581986904144287,-5.983114719390869,7.32844352722168
1701713506851739000,3.17273876953125,-2.422163724899292,-5.890988349914551,7.456526279449463
1701713506861333000,3.1823330078125,-2.2042012214660645,-5.80690336227417,7.588923454284668
1701713506870926300,3.19192626953125,-1.9803208112716675,-5.761484622955322,7.684662342071533
1701713506880520700,3.201520751953125,-1.8042854070663452,-5.77581262588501,7.7171831130981445
1701713506890115800,3.21111572265625,-1.6880613565444946,-5.8833770751953125,7.662031173706055
1701713506899710000,3.2207099609375,-1.6373182535171509,-5.968355178833008,7.607121467590332
1701713506909303600,3.230303466796875,-1.6242403984069824,-6.040769577026367,7.5525712966918945
1701713506918897700,3.239897705078125,-1.6505259275436401,-6.162707805633545,7.447629928588867
1701713506928492800,3.249492919921875,-1.6775238513946533,-6.283954620361328,7.339497089385986
1701713506938087200,3.259087158203125,-1.7010198831558228,-6.388174533843994,7.243490219116211
1701713506947680500,3.268680419921875,-1.716190218925476,-6.4710893630981445,7.165897369384766
1701713506957275000,3.27827490234375,-1.7033183574676514,-6.479294300079346,7.1615519523620605
1701713506966869800,3.287869873046875,-1.6494755744934082,-6.351105213165283,7.287871360778809
1701713506976464100,3.297464111328125,-1.5542125701904297,-6.15033483505249,7.478515148162842
1701713506986057500,3.307057373046875,-1.3933790922164917,-5.952764511108398,7.667689323425293
1701713506995651800,3.31665185546875,-1.1945044994354248,-5.780224800109863,7.831510066986084
1701713507005247000,3.3262470703125,-1.028324842453003,-5.616139888763428,7.973199367523193
1701713507014841000,3.335841064453125,-0.8661975264549255,-5.451132774353027,8.105877876281738
1701713507024434700,3.3454345703125,-0.7914758324623108,-5.3076581954956055,8.208088874816895
1701713507034029000,3.355029052734375,-0.7583513855934143,-5.200222969055176,8.279672622680664
1701713507043624000,3.3646240234375,-0.6457442045211792,-5.111848831176758,8.34400463104248
1701713507053218000,3.374218017578125,-0.589486300945282,-5.046107292175293,8.388067245483398
1701713507062811600,3.383811767578125,-0.6008002758026123,-4.981188774108887,8.425982475280762
1701713507072406000,3.393406005859375,-0.6276164054870605,-4.923691272735596,8.457762718200684
1701713507082001000,3.4030009765625,-0.6497648358345032,-4.898843765258789,8.470508575439453
1701713507091595300,3.41259521484375,-0.6742744445800781,-4.904101848602295,8.46554946899414
1701713507101188600,3.422188720703125,-0.7129396200180054,-4.920957565307617,8.452590942382812
1701713507110783000,3.431782958984375,-0.76638263463974,-4.939254283905029,8.437228202819824
1701713507120378000,3.441378173828125,-0.8281542658805847,-4.974107265472412,8.410873413085938
1701713507129972200,3.45097216796875,-0.8887702226638794,-5.031890392303467,8.370218276977539
1701713507139565800,3.46056591796875,-0.9462704658508301,-5.116260051727295,8.312570571899414
1701713507149160000,3.470159912109375,-0.9953975081443787,-5.229323387145996,8.236124992370605
1701713507158755000,3.479755126953125,-1.002182960510254,-5.317310810089111,8.178767204284668
1701713507168349200,3.48934912109375,-0.8632521033287048,-5.3026204109191895,8.204108238220215
1701713507177942800,3.49894287109375,-0.609707236289978,-5.288910865783691,8.235658645629883
1701713507187537200,3.508537109375,-0.3662978708744049,-5.329525470733643,8.223891258239746
1701713507197132000,3.518132080078125,-0.1620180755853653,-5.401392459869385,8.183465003967285
1701713507206726400,3.527726318359375,0.0026147589087486267,-5.435011386871338,8.162782669067383
1701713507216319700,3.53731982421875,0.09284842014312744,-5.4328532218933105,8.16369342803955
1701713507225914000,3.5469140625,0.12320197373628616,-5.429563045501709,8.165478706359863
1701713507235509200,3.55650927734375,0.11913026869297028,-5.4601359367370605,8.145127296447754
1701713507245103400,3.566103271484375,0.08151639997959137,-5.520966529846191,8.104485511779785
1701713507254696700,3.57569677734375,0.015325247310101986,-5.605485916137695,8.046656608581543
1701713507264291000,3.585291015625,-0.06424926966428757,-5.6833696365356445,7.991593837738037
1701713507273886200,3.59488623046875,-0.15777979791164398,-5.748325824737549,7.943691730499268
1701713507283480300,3.604480224609375,-0.2570250630378723,-5.814352989196777,7.892884254455566
1701713507293074000,3.614073974609375,-0.3526816666126251,-5.882523536682129,7.838489532470703
1701713507302668000,3.62366796875,-0.4413270056247711,-5.950684070587158,7.782350540161133
1701713507312263200,3.63326318359375,-0.5345922112464905,-6.024496078491211,7.71945858001709
1701713507321857500,3.642857421875,-0.642327070236206,-6.1123576164245605,7.641785621643066
1701713507331451000,3.652450927734375,-0.763782262802124,-6.2177815437316895,7.544947147369385
1701713507341045200,3.662045166015625,-0.8950119614601135,-6.3401031494140625,7.4278154373168945
1701713507350640000,3.67164013671875,-1.0318412780761719,-6.4659271240234375,7.300512313842773
1701713507360234500,3.681234375,-1.1707934141159058,-6.580617427825928,7.176009178161621
1701713507369827800,3.690827880859375,-1.309194564819336,-6.672077178955078,7.066808223724365
1701713507379422200,3.700422119140625,-1.4378715753555298,-6.738168716430664,6.9785380363464355
1701713507389017300,3.710017333984375,-1.5551302433013916,-6.7860307693481445,6.906643867492676
1701713507398611500,3.719611572265625,-1.6563572883605957,-6.82844877243042,6.840991973876953
1701713507408205000,3.729205078125,-1.728973388671875,-6.871120452880859,6.780025005340576
1701713507417799200,3.738799072265625,-1.7703511714935303,-6.919386386871338,6.719995975494385
1701713507427394300,3.748394287109375,-1.7915053367614746,-6.971844673156738,6.659901142120361
1701713507436988400,3.757988525390625,-1.7773107290267944,-7.027958393096924,6.604495048522949
1701713507446582000,3.76758203125,-1.7446656227111816,-7.10219144821167,6.533407688140869
1701713507456176000,3.777176025390625,-1.7411894798278809,-7.205761432647705,6.419941425323486
1701713507465771300,3.786771240234375,-1.7460075616836548,-7.339834213256836,6.264876365661621
1701713507475365600,3.79636572265625,-1.743583083152771,-7.501834869384766,6.070649147033691
1701713507484959000,3.805958984375,-1.7388073205947876,-7.689478874206543,5.832568168640137
1701713507494553300,3.81555322265625,-1.7124367952346802,-7.898355960845947,5.554630756378174
1701713507504148500,3.8251484375,-1.6340168714523315,-8.12195873260498,5.247299671173096
1701713507513742600,3.83474267578125,-1.4889270067214966,-8.353252410888672,4.916976451873779
1701713507523336200,3.844336181640625,-1.2886028289794922,-8.586491584777832,4.55873441696167
1701713507532930300,3.853930419921875,-1.0692005157470703,-8.80436897277832,4.184528827667236
1701713507542525400,3.863525390625,-0.8657381534576416,-8.985455513000488,3.831770420074463
1701713507552119600,3.87311962890625,-0.7140448093414307,-9.096305847167969,3.594127893447876
1701713507561713200,3.882713134765625,-0.6420409679412842,-9.123871803283691,3.5373904705047607
1701713507571307500,3.8923076171875,-0.6530227065086365,-9.102219581604004,3.590756893157959
1701713507580902400,3.90190234375,-0.7312777042388916,-9.064806938171387,3.6694540977478027
1701713507590496800,3.911496826171875,-0.8524303436279297,-9.02260971069336,3.746502637863159
1701713507600090000,3.921090087890625,-0.9799495339393616,-8.982621192932129,3.8108532428741455
1701713507609684500,3.9306845703125,-1.096832513809204,-8.954522132873535,3.8449814319610596
1701713507619279600,3.940279541015625,-1.196940302848816,-8.944380760192871,3.8387198448181152
1701713507628873700,3.949873779296875,-1.2768667936325073,-8.949479103088379,3.8008978366851807
1701713507638467000,3.959467041015625,-1.340679407119751,-8.956975936889648,3.7610557079315186
1701713507648061400,3.9690615234375,-1.3859812021255493,-8.968920707702637,3.7158985137939453
1701713507657656600,3.978656494140625,-1.4112094640731812,-8.987434387207031,3.6612672805786133
1701713507667250700,3.988250732421875,-1.430019736289978,-9.01121711730957,3.594912528991699
1701713507676844300,3.99784423828125,-1.4365594387054443,-9.032673835754395,3.538006544113159
1701713507686438400,4.0074384765625,-1.4244931936264038,-9.0548095703125,3.4859187602996826
1701713507696033500,4.017033447265625,-1.4002389907836914,-9.080982208251953,3.4271669387817383
1701713507705628000,4.0266279296875,-1.385436773300171,-9.11110782623291,3.3524117469787598
1701713507715221200,4.03622119140625,-1.389900803565979,-9.140413284301758,3.2697713375091553
1701713507724815600,4.045815673828125,-1.392482042312622,-9.166512489318848,3.194749355316162
1701713507734410500,4.055410400390625,-1.377884864807129,-9.194393157958984,3.120088577270508
1701713507744004900,4.0650048828125,-1.3678107261657715,-9.234135627746582,3.005030870437622
1701713507753598200,4.07459814453125,-1.3725075721740723,-9.287490844726562,2.833571434020996
1701713507763192600,4.084192626953125,-1.3741978406906128,-9.346543312072754,2.63136625289917
1701713507772787700,4.09378759765625,-1.3730950355529785,-9.402915954589844,2.422839403152466
1701713507782381800,4.1033818359375,-1.3740997314453125,-9.44904899597168,2.2355549335479736
1701713507791975400,4.112975341796875,-1.3721033334732056,-9.48315143585205,2.0874788761138916
1701713507801569800,4.12256982421875,-1.3379873037338257,-9.50864028930664,1.9914661645889282
1701713507811164700,4.13216455078125,-1.2768253087997437,-9.525901794433594,1.9486665725708008
1701713507820758800,4.1417587890625,-1.2219825983047485,-9.536282539367676,1.9329936504364014
1701713507830352400,4.151352294921875,-1.1651043891906738,-9.548775672912598,1.9062516689300537
1701713507839946800,4.16094677734375,-1.115004062652588,-9.55985164642334,1.880527377128601
1701713507849541600,4.170541748046875,-1.0782712697982788,-9.56853199005127,1.857664704322815
1701713507859136000,4.180135986328125,-1.0614012479782104,-9.57447338104248,1.836651086807251
1701713507868729300,4.189729248046875,-1.058996558189392,-9.578235626220703,1.8183319568634033
1701713507878323700,4.19932373046875,-1.0658490657806396,-9.580282211303711,1.8034874200820923
1701713507887918800,4.2089189453125,-1.0780023336410522,-9.581048011779785,1.7921587228775024
1701713507897513000,4.218512939453125,-1.092210292816162,-9.580921173095703,1.7842103242874146
1701713507907106600,4.2281064453125,-1.1082764863967896,-9.57983112335205,1.7801549434661865
1701713507916700700,4.23770068359375,-1.125124454498291,-9.577834129333496,1.780327320098877
1701713507926295800,4.2472958984375,-1.1384530067443848,-9.575540542602539,1.784191370010376
1701713507935890000,4.256889892578125,-1.1465715169906616,-9.573152542114258,1.7917882204055786
1701713507945483500,4.2664833984375,-1.1481547355651855,-9.571199417114258,1.8011873960494995
1701713507955077600,4.27607763671875,-1.1432178020477295,-9.570027351379395,1.8105255365371704
1701713507964672800,4.2856728515625,-1.1337028741836548,-9.569416999816895,1.819718837738037
1701713507974267100,4.29526708984375,-1.1219985485076904,-9.566776275634766,1.8407338857650757
1701713507983860500,4.304860595703125,-1.1085641384124756,-9.565747261047363,1.8541711568832397
1701713507993454800,4.314454833984375,-1.0771273374557495,-9.564529418945312,1.8788197040557861
1701713508003050000,4.324050048828125,-1.0767165422439575,-9.560564041137695,1.8991307020187378
1701713508012644000,4.33364404296875,-1.088972568511963,-9.556318283081055,1.9134559631347656
1701713508022237700,4.34323779296875,-1.1006512641906738,-9.552640914916992,1.925100326538086
1701713508031831800,4.352831787109375,-1.1061562299728394,-9.549603462219238,1.9369771480560303
1701713508041427000,4.362427001953125,-1.110260248184204,-9.547103881835938,1.9469239711761475
1701713508051021000,4.37202099609375,-1.1149640083312988,-9.545023918151855,1.954423189163208
1701713508060614700,4.38161474609375,-1.1198407411575317,-9.543028831481934,1.9613597393035889
1701713508070209000,4.391208984375,-1.1234761476516724,-9.541203498840332,1.9681544303894043
1701713508079804000,4.400803955078125,-1.1250345706939697,-9.539663314819336,1.9747201204299927
1701713508089398300,4.410398193359375,-1.124436616897583,-9.538372039794922,1.981285572052002
1701713508098991600,4.41999169921875,-1.122586727142334,-9.537246704101562,1.987741231918335
1701713508108586000,4.4295859375,-1.1198978424072266,-9.536232948303223,1.9941104650497437
1701713508118181000,4.43918115234375,-1.1169565916061401,-9.535257339477539,2.0004143714904785
1701713508127775200,4.448775146484375,-1.1137669086456299,-9.53439998626709,2.006272315979004
1701713508137368600,4.45836865234375,-1.1103695631027222,-9.533656120300293,2.011680841445923
1701713508146963000,4.467962890625,-1.10695481300354,-9.533095359802246,2.0162220001220703
1701713508156558000,4.47755810546875,-1.1036056280136108,-9.532796859741211,2.019465208053589
1701713508166152200,4.487152099609375,-1.099868655204773,-9.532837867736816,2.0213069915771484
1701713508175745800,4.496745849609375,-1.095330834388733,-9.533255577087402,2.0218007564544678
1701713508185340000,4.50633984375,-1.090035319328308,-9.533980369567871,2.0212461948394775
1701713508194935000,4.51593505859375,-1.0839159488677979,-9.53492546081543,2.0200793743133545
1701713508204529400,4.525529296875,-1.0772373676300049,-9.536026954650879,2.018446445465088
1701713508214122800,4.535122802734375,-1.070143699645996,-9.537216186523438,2.016603469848633
1701713508223717000,4.544717041015625,-1.0628572702407837,-9.538361549377441,2.0150389671325684
1701713508233312000,4.55431201171875,-1.0555806159973145,-9.539386749267578,2.0140089988708496
1701713508242906400,4.56390625,-1.0485237836837769,-9.540202140808105,2.013833522796631
1701713508252499700,4.573499755859375,-1.0418305397033691,-9.540779113769531,2.0145697593688965
1701713508262094000,4.583093994140625,-1.035820484161377,-9.541104316711426,2.0161309242248535
1701713508271689200,4.592689208984375,-1.030691146850586,-9.541123390197754,2.018670082092285
1701713508281283300,4.602283447265625,-1.0263020992279053,-9.540931701660156,2.021806478500366
1701713508290877000,4.611876953125,-1.0226924419403076,-9.540602684020996,2.025186061859131
1701713508300471300,4.62147119140625,-1.019553780555725,-9.540249824523926,2.028430938720703
1701713508310066200,4.631066162109375,-1.0163936614990234,-9.540008544921875,2.031148910522461
1701713508319660500,4.64066064453125,-1.0126365423202515,-9.53996753692627,2.033219337463379
1701713508329254000,4.65025390625,-1.0084091424942017,-9.540136337280273,2.0345277786254883
1701713508338848300,4.65984814453125,-1.0034124851226807,-9.540587425231934,2.034882068634033
1701713508348443100,4.669443115234375,-0.9969817996025085,-9.541361808776855,2.034410238265991
1701713508358037500,4.67903759765625,-0.9888083338737488,-9.542448043823242,2.0333049297332764
1701713508367630800,4.688630859375,-0.9785622954368591,-9.543817520141602,2.0318381786346436
1701713508377225200,4.69822509765625,-0.9661283493041992,-9.545494079589844,2.0299036502838135
1701713508386820400,4.7078203125,-0.9519029259681702,-9.547423362731934,2.027554750442505
1701713508396414500,4.71741455078125,-0.9359691739082336,-9.54955005645752,2.0249533653259277
1701713508406008000,4.727008056640625,-0.9186298251152039,-9.55180835723877,2.022242784500122
1701713508415602400,4.7366025390625,-0.8998515009880066,-9.5541353225708,2.01969051361084
1701713508425197300,4.746197265625,-0.880380392074585,-9.556479454040527,2.0171830654144287
1701713508434791400,4.75579150390625,-0.860870361328125,-9.55873966217041,2.014892339706421
1701713508444385000,4.765385009765625,-0.8421483635902405,-9.56088638305664,2.0126137733459473
1701713508453979400,4.7749794921875,-0.8248355984687805,-9.56292724609375,2.0100882053375244
1701713508463574500,4.784574462890625,-0.8089730739593506,-9.564888954162598,2.0071983337402344
1701713508473168600,4.794168701171875,-0.7951444387435913,-9.56676197052002,2.0037941932678223
1701713508482762000,4.803761962890625,-0.7832024693489075,-9.5685453414917,1.999980092048645
1701713508492356400,4.8133564453125,-0.7731025218963623,-9.570237159729004,1.9958107471466064
1701713508501951500,4.822951416015625,-0.7645661234855652,-9.57183837890625,1.9914137125015259
1701713508511545600,4.832545654296875,-0.7569969296455383,-9.573249816894531,1.9875210523605347
1701713508521139200,4.84213916015625,-0.7498682737350464,-9.574495315551758,1.98422110080719
1701713508530733300,4.8517333984375,-0.7428602576255798,-9.575528144836426,1.9818705320358276
1701713508540328400,4.861328369140625,-0.7361894249916077,-9.576295852661133,1.9806489944458008
1701713508549922600,4.870922607421875,-0.728843092918396,-9.576903343200684,1.9804277420043945
1701713508559516200,4.88051611328125,-0.7207532525062561,-9.577354431152344,1.9812065362930298
1701713508569110500,4.890110595703125,-0.7121209502220154,-9.577703475952148,1.9826444387435913
1701713508578705700,4.89970556640625,-0.7027685642242432,-9.57795524597168,1.984757900238037
1701713508588299800,4.9092998046875,-0.6932663321495056,-9.578143119812012,1.987192153930664
1701713508597893000,4.91889306640625,-0.683687686920166,-9.578346252441406,1.9895329475402832
1701713508607487500,4.928487548828125,-0.6738582253456116,-9.578557014465332,1.9918668270111084
1701713508617082600,4.93808251953125,-0.6641532182693481,-9.578747749328613,1.9942113161087036
1701713508626676700,4.9476767578125,-0.6548200249671936,-9.578991889953613,1.9961216449737549
1701713508636270300,4.957270263671875,-0.6455166339874268,-9.579290390014648,1.9977189302444458
1701713508645864400,4.966864501953125,-0.636705219745636,-9.579610824584961,1.9990125894546509
1701713508655459600,4.97645947265625,-0.6284691095352173,-9.57996940612793,1.9999010562896729
1701713508665054000,4.986053955078125,-0.620746910572052,-9.580361366271973,2.000432014465332
1701713508674647300,4.995647216796875,-0.6138946413993835,-9.580738067626953,2.0007431507110596
1701713508684241700,5.00524169921875,-0.6075643301010132,-9.581116676330566,2.000859498977661
1701713508693836500,5.01483642578125,-0.6016982197761536,-9.581504821777344,2.000779867172241
1701713508703431000,5.024430908203125,-0.5962549448013306,-9.581854820251465,2.000730037689209
1701713508713024300,5.034024169921875,-0.5912202000617981,-9.582146644592285,2.00083065032959
1701713508722618600,5.04361865234375,-0.5862079858779907,-9.58238410949707,2.0011632442474365
1701713508732213800,5.0532138671875,-0.5815233588218689,-9.582598686218262,2.0015063285827637
1701713508741807900,5.062807861328125,-0.5771352648735046,-9.582780838012695,2.0019075870513916
1701713508751401500,5.0724013671875,-0.5731000900268555,-9.582953453063965,2.0022318363189697
1701713508760995600,5.08199560546875,-0.5693058967590332,-9.583118438720703,2.0025289058685303
1701713508770590700,5.0915908203125,-0.5659146904945374,-9.583264350891113,2.0027878284454346
1701713508780185000,5.10118505859375,-0.5655987858772278,-9.585083961486816,1.9941527843475342
1701713508789778400,5.1107783203125,-0.566153347492218,-9.587085723876953,1.9843506813049316
1701713508799372800,5.120372802734375,-0.567721962928772,-9.589214324951172,1.9735867977142334
1701713508808967700,5.1299677734375,-0.5701414942741394,-9.59140396118164,1.962220549583435
1701713508818562000,5.13956201171875,-0.5730833411216736,-9.59363842010498,1.9503980875015259
1701713508828155400,5.1491552734375,-0.5753378868103027,-9.595885276794434,1.9386450052261353
1701713508837749800,5.158749755859375,-0.5770153999328613,-9.598066329956055,1.927319884300232
1701713508847345000,5.168344970703125,-0.5783271789550781,-9.600110054016113,1.9167170524597168
1701713508856939000,5.17793896484375,-0.5785390138626099,-9.602025985717773,1.9070338010787964
1701713508866532600,5.18753271484375,-0.5775140523910522,-9.603731155395508,1.8987412452697754
1701713508876127000,5.197126953125,-0.5770329833030701,-9.605445861816406,1.890191674232483
1701713508885721900,5.206721923828125,-0.5794504880905151,-9.606800079345703,1.8825554847717285
1701713508895316200,5.216316162109375,-0.5834325551986694,-9.60804557800293,1.874955415725708
1701713508904909600,5.22590966796875,-0.5876917243003845,-9.609326362609863,1.867043375968933
1701713508914504000,5.23550390625,-0.5913380980491638,-9.610641479492188,1.8591041564941406
1701713508924098800,5.245098876953125,-0.593575119972229,-9.611835479736328,1.8522080183029175
1701713508933693200,5.254693115234375,-0.5957106947898865,-9.612841606140137,1.8462913036346436
1701713508943286500,5.26428662109375,-0.5974951386451721,-9.613748550415039,1.8409851789474487
1701713508952881000,5.273880859375,-0.6003193259239197,-9.614368438720703,1.836817979812622
1701713508962476000,5.28347607421875,-0.6037381887435913,-9.614938735961914,1.832714319229126
1701713508972070100,5.293070068359375,-0.6073392033576965,-9.615323066711426,1.8295105695724487
1701713508981663700,5.302663818359375,-0.6110292077064514,-9.615415573120117,1.8277915716171265
1701713508991258000,5.312258056640625,-0.6154119968414307,-9.615297317504883,1.8269387483596802
1701713509000853000,5.32185302734375,-0.6208190321922302,-9.6150541305542,1.826392650604248
1701713509010447400,5.331447265625,-0.6263396143913269,-9.614706993103027,1.826331377029419
1701713509020040700,5.341040771484375,-0.6325212717056274,-9.61412239074707,1.8272807598114014
1701713509029635000,5.350635009765625,-0.638999879360199,-9.613334655761719,1.8291730880737305
1701713509039230200,5.360230224609375,-0.6451049447059631,-9.612404823303223,1.8319154977798462
1701713509048824300,5.36982421875,-0.6505391597747803,-9.611337661743164,1.8355827331542969
1701713509058417700,5.379417724609375,-0.6549713015556335,-9.610045433044434,1.840769648551941
1701713509068012000,5.389011962890625,-0.6585332751274109,-9.60846996307373,1.8477048873901367
1701713509077607200,5.398607177734375,-0.6614320278167725,-9.606690406799316,1.8559060096740723
1701713509087201300,5.408201171875,-0.6634094715118408,-9.604815483093262,1.8648834228515625
1701713509096795000,5.417794921875,-0.6649633049964905,-9.60305404663086,1.873382568359375
1701713509106389200,5.42738916015625,-0.6665869355201721,-9.60141658782959,1.8811862468719482
1701713509115984100,5.436984130859375,-0.6683658957481384,-9.600066184997559,1.8874365091323853
1701713509125578500,5.44657861328125,-0.6708340644836426,-9.598938941955566,1.8922836780548096
1701713509135171800,5.456171875,-0.6749027967453003,-9.597935676574707,1.8959221839904785
1701713509144766200,5.46576611328125,-0.6800157427787781,-9.59695053100586,1.899078130722046
1701713509154361300,5.475361328125,-0.6851537823677063,-9.596028327941895,1.9018917083740234
1701713509163955500,5.48495556640625,-0.6902784109115601,-9.59518051147461,1.904312252998352
1701713509173549000,5.494549072265625,-0.6954835057258606,-9.594383239746094,1.9064372777938843
1701713509183143200,5.50414306640625,-0.7006279826164246,-9.593561172485352,1.908692479133606
1701713509192738300,5.51373828125,-0.7053493857383728,-9.592809677124023,1.9107232093811035
1701713509202332400,5.52333251953125,-0.7090135812759399,-9.592154502868652,1.912656307220459
1701713509211926000,5.532926025390625,-0.7116882801055908,-9.59150505065918,1.9149200916290283
1701713509221520400,5.542520263671875,-0.7132813930511475,-9.590978622436523,1.9169601202011108
1701713509231115300,5.552115234375,-0.714195966720581,-9.590431213378906,1.9193568229675293
1701713509240709600,5.561709716796875,-0.7148001790046692,-9.5899076461792,1.9217529296875
1701713509250303000,5.571302978515625,-0.7152501940727234,-9.589364051818848,1.9242937564849854
1701713509259897300,5.5808974609375,-0.7162052989006042,-9.588947296142578,1.9260157346725464
1701713509269492500,5.590492431640625,-0.7175180315971375,-9.588641166687012,1.9270492792129517
1701713509279086600,5.600086669921875,-0.7197330594062805,-9.588420867919922,1.927320122718811
1701713509288680200,5.60968017578125,-0.7227806448936462,-9.588269233703613,1.9269344806671143
1701713509298274300,5.6192744140625,-0.7265837788581848,-9.588136672973633,1.9261643886566162
1701713509307869400,5.628869384765625,-0.7306117415428162,-9.58797836303711,1.9254227876663208
1701713509317463600,5.638463623046875,-0.7349511384963989,-9.587788581848145,1.924720048904419
1701713509327057200,5.64805712890625,-0.739001989364624,-9.5875244140625,1.9244873523712158
1701713509336651500,5.657651611328125,-0.743550717830658,-9.587159156799316,1.9245548248291016
1701713509346246400,5.667246337890625,-0.7477592825889587,-9.58687686920166,1.9243265390396118
1701713509355840800,5.6768408203125,-0.751646876335144,-9.58659553527832,1.9242117404937744
1701713509365434000,5.68643408203125,-0.7547272443771362,-9.586380004882812,1.924082636833191
1701713509375028500,5.696028564453125,-0.7581529021263123,-9.586127281188965,1.9239962100982666
1701713509384623600,5.70562353515625,-0.7615993618965149,-9.58587646484375,1.9238852262496948
1701713509394217700,5.7152177734375,-0.764725923538208,-9.58565902709961,1.923727035522461
1701713509403811300,5.724811279296875,-0.7681853175163269,-9.585479736328125,1.9232370853424072
1701713509413405400,5.734405517578125,-0.7718408107757568,-9.585272789001465,1.922806739807129
1701713509423000600,5.74400048828125,-0.7754864692687988,-9.585055351257324,1.9224257469177246
1701713509432595000,5.753594970703125,-0.779213547706604,-9.584847450256348,1.921953797340393
1701713509442188300,5.763188232421875,-0.7831306457519531,-9.584527015686035,1.9219566583633423
1701713509451782700,5.77278271484375,-0.7870624661445618,-9.584199905395508,1.921983242034912
1701713509461377500,5.78237744140625,-0.7908405065536499,-9.583969116210938,1.9215881824493408
1701713509470972000,5.791971923828125,-0.7943194508552551,-9.583748817443848,1.9212470054626465
1701713509480565200,5.801565185546875,-0.7974167466163635,-9.583578109741211,1.9208143949508667
1701713509490159600,5.81115966796875,-0.8001497387886047,-9.583532333374023,1.9199082851409912
1701713509499754800,5.820754638671875,-0.8025787472724915,-9.583498001098633,1.9190664291381836
1701713509509348900,5.830348876953125,-0.8048080205917358,-9.58347225189209,1.9182583093643188
1701713509518942500,5.8399423828125,-0.8066762089729309,-9.583425521850586,1.9177089929580688
1701713509528536600,5.84953662109375,-0.808643639087677,-9.583308219909668,1.9174668788909912
1701713509538131700,5.859131591796875,-0.8107956647872925,-9.583227157592773,1.916960597038269
1701713509547726000,5.86872607421875,-0.812663733959198,-9.583169937133789,1.9164615869522095
1701713509557319400,5.8783193359375,-0.8142885565757751,-9.583159446716309,1.9158252477645874
1701713509566913800,5.887913818359375,-0.8164366483688354,-9.58322525024414,1.914578914642334
1701713509576509000,5.897509033203125,-0.8186682462692261,-9.583367347717285,1.912912130355835
1701713509586103000,5.90710302734375,-0.8207581043243408,-9.583609580993652,1.91080641746521
1701713509595696400,5.9166962890625,-0.8224847912788391,-9.58400821685791,1.9080560207366943
1701713509605290800,5.926290771484375,-0.8241767883300781,-9.584357261657715,1.905570149421692
1701713509614886000,5.935885986328125,-0.8259316086769104,-9.584757804870605,1.9027934074401855
1701713509624480000,5.94547998046875,-0.8275735378265381,-9.585166931152344,1.9000240564346313
1701713509634073600,5.955073486328125,-0.8286611437797546,-9.585623741149902,1.8972415924072266
1701713509643668000,5.96466796875,-0.8298588395118713,-9.586016654968262,1.8947268724441528
1701713509653262800,5.974262939453125,-0.8307732343673706,-9.586409568786621,1.8923416137695312
1701713509662857200,5.983857177734375,-0.8309984803199768,-9.58694076538086,1.8895512819290161
1701713509672450600,5.993450439453125,-0.8313645720481873,-9.587444305419922,1.8868294954299927
1701713509682045000,6.003044921875,-0.8315891027450562,-9.587995529174805,1.883926272392273
1701713509691640000,6.01264013671875,-0.8315699100494385,-9.588561058044434,1.8810582160949707
1701713509701234200,6.022234130859375,-0.8318614363670349,-9.589010238647461,1.8786362409591675
1701713509710827800,6.031827880859375,-0.8323483467102051,-9.589412689208984,1.8763678073883057
1701713509720422000,6.041421875,-0.8327261209487915,-9.589743614196777,1.874501347541809
1701713509730017000,6.05101708984375,-0.8327972888946533,-9.59006404876709,1.8728386163711548
1701713509739611100,6.060611083984375,-0.8326950073242188,-9.590353965759277,1.8713960647583008
1701713509749204700,6.070204833984375,-0.8323138356208801,-9.590678215026855,1.8699060678482056
1701713509758799000,6.079799072265625,-0.8318106532096863,-9.590953826904297,1.8687115907669067
1701713509768394000,6.08939404296875,-0.8310158848762512,-9.591182708740234,1.8678929805755615
1701713509777988400,6.09898828125,-0.8303796648979187,-9.591329574584961,1.867419958114624
1701713509787581700,6.108581787109375,-0.8294904232025146,-9.591418266296387,1.8673607110977173
1701713509797176000,6.118176025390625,-0.8283878564834595,-9.591480255126953,1.867527723312378
1701713509806771200,6.127771240234375,-0.8266961574554443,-9.591585159301758,1.8677353858947754
1701713509816365300,6.137365234375,-0.8247840404510498,-9.591737747192383,1.8678007125854492
1701713509825959000,6.146958984375,-0.8230622410774231,-9.59181022644043,1.8681868314743042
1701713509835553300,6.15655322265625,-0.8215529322624207,-9.5919189453125,1.868295669555664
1701713509845148200,6.166148193359375,-0.8200766444206238,-9.592061996459961,1.8682109117507935
1701713509854742500,6.175742431640625,-0.8182898759841919,-9.592120170593262,1.8687013387680054
1701713509864336000,6.1853359375,-0.8158043622970581,-9.592323303222656,1.8687357902526855
1701713509873930200,6.19493017578125,-0.8134260773658752,-9.592598915100098,1.8683569431304932
1701713509883525000,6.204525146484375,-0.8111534714698792,-9.592938423156738,1.8676013946533203
1701713509893119500,6.214119384765625,-0.8087440133094788,-9.5933837890625,1.8663619756698608
1701713509902712800,6.223712890625,-0.8068528771400452,-9.593822479248047,1.8649216890335083
1701713509912307200,6.23330712890625,-0.8052035570144653,-9.594297409057617,1.8631950616836548
1701713509921902300,6.24290234375,-0.8035114407539368,-9.594795227050781,1.8613567352294922
1701713509931496400,6.252496337890625,-0.8019662499427795,-9.59530258178711,1.8594129085540771
1701713509941090000,6.262090087890625,-0.8012399673461914,-9.595797538757324,1.8571711778640747
1701713509950684400,6.271684326171875,-0.8007116317749023,-9.596354484558105,1.8545199632644653
1701713509960279300,6.281279296875,-0.800288736820221,-9.596939086914062,1.8516696691513062
1701713509969873700,6.290873779296875,-0.8001882433891296,-9.597502708435059,1.848788857460022
1701713509979467000,6.300467041015625,-0.8002309799194336,-9.5980224609375,1.8460770845413208
1701713509989061400,6.310061279296875,-0.8004411458969116,-9.598397254943848,1.8440285921096802
1701713509998656500,6.319656494140625,-0.8009206056594849,-9.598706245422363,1.8422138690948486
1701713510008250600,6.329250732421875,-0.80205899477005,-9.59892749786377,1.8405646085739136
1701713510017844200,6.33884423828125,-0.8032048940658569,-9.59910774230957,1.8391261100769043
1701713510027438600,6.3484384765625,-0.8044494390487671,-9.599331855773926,1.8374137878417969
1701713510037033500,6.358033447265625,-0.8056855797767639,-9.599516868591309,1.83589768409729
1701713510046627600,6.367627685546875,-0.8062926530838013,-9.599780082702637,1.8342565298080444
1701713510056221200,6.37722119140625,-0.8074015378952026,-9.600046157836914,1.8323757648468018
1701713510065815600,6.386815673828125,-0.8083337545394897,-9.60035228729248,1.8303580284118652
1701713510075410400,6.396410400390625,-0.8090426325798035,-9.60056209564209,1.8289508819580078
1701713510085004800,6.4060048828125,-0.8099023699760437,-9.60069465637207,1.8278647661209106
1701713510094598100,6.41559814453125,-0.8114554286003113,-9.6006441116333,1.8274495601654053
1701713510104192500,6.425192626953125,-0.8135684728622437,-9.60049819946289,1.8272761106491089
1701713510113787600,6.43478759765625,-0.8157927989959717,-9.600346565246582,1.8270827531814575
1701713510123381800,6.4443818359375,-0.81812983751297,-9.60020637512207,1.8267706632614136
1701713510132975400,6.453975341796875,-0.8203192949295044,-9.600090980529785,1.8263922929763794
1701713510142569700,6.46356982421875,-0.8223558664321899,-9.600046157836914,1.8257163763046265
1701713510152164600,6.47316455078125,-0.8244071006774902,-9.599969863891602,1.825190544128418
1701713510161759000,6.482759033203125,-0.8259944319725037,-9.59996509552002,1.824495553970337
1701713510171352300,6.492352294921875,-0.8272778391838074,-9.599895477294922,1.8242827653884888
1701713510180946700,6.50194677734375,-0.8282682299613953,-9.599817276000977,1.8242440223693848
1701713510190541800,6.511541748046875,-0.8293519616127014,-9.599658966064453,1.8245880603790283
1701713510200136000,6.521135986328125,-0.8305637240409851,-9.599458694458008,1.8250848054885864
1701713510209729300,6.530729248046875,-0.8318281173706055,-9.599312782287598,1.825277328491211
1701713510219323600,6.54032373046875,-0.8331078886985779,-9.599175453186035,1.8254131078720093
1701713510228918800,6.549918701171875,-0.8342636823654175,-9.599059104919434,1.8255037069320679
1701713510238513000,6.559512939453125,-0.835462749004364,-9.59896469116211,1.8254495859146118
1701713510248106500,6.5691064453125,-0.8372529149055481,-9.598755836486816,1.825730562210083
1701713510257700900,6.578700927734375,-0.8391658663749695,-9.598567962646484,1.8258353471755981
1701713510267295700,6.588295654296875,-0.8410485982894897,-9.598355293273926,1.8260854482650757
1701713510276890000,6.59789013671875,-0.8430225849151611,-9.59811782836914,1.8264241218566895
1701713510286483500,6.6074833984375,-0.8451147675514221,-9.597844123840332,1.8268965482711792
1701713510296077800,6.617077880859375,-0.8468356132507324,-9.597611427307129,1.827323317527771
1701713510305673000,6.6266728515625,-0.8480189442634583,-9.597471237182617,1.8275172710418701
1701713510315267000,6.63626708984375,-0.8487322926521301,-9.597270965576172,1.828229308128357
1701713510324860700,6.645860595703125,-0.8494560122489929,-9.597051620483398,1.8290482759475708
1701713510334455000,6.655455078125,-0.8499504923820496,-9.596786499023438,1.8302065134048462
1701713510344050000,6.6650498046875,-0.8502253293991089,-9.59650993347168,1.831531047821045
1701713510353644300,6.674644287109375,-0.8505055904388428,-9.59619140625,1.8330700397491455
1701713510363237600,6.684237548828125,-0.8511699438095093,-9.595839500427246,1.834604263305664
1701713510372832000,6.69383203125,-0.8521777391433716,-9.595535278320312,1.8357254266738892
1701713510382427100,6.70342724609375,-0.8530731797218323,-9.595285415649414,1.8366167545318604
1701713510392021200,6.713021240234375,-0.854427695274353,-9.595048904418945,1.8372191190719604
1701713510401614600,6.722614501953125,-0.8555734157562256,-9.594765663146973,1.838167667388916
1701713510411209000,6.732208984375,-0.8560328483581543,-9.59448528289795,1.8394131660461426
1701713510420804000,6.74180419921875,-0.8570763468742371,-9.594154357910156,1.840658187866211
1701713510430398200,6.751398193359375,-0.8573342561721802,-9.593911170959473,1.8417991399765015
1701713510439991800,6.76099169921875,-0.8568189144134521,-9.593759536743164,1.8428326845169067
1701713510449586200,6.770586181640625,-0.8558597564697266,-9.593642234802246,1.8438807725906372
1701713510459181000,6.78018115234375,-0.8541715145111084,-9.59367847442627,1.8444788455963135
1701713510468775400,6.789775390625,-0.8521143794059753,-9.593774795532227,1.8449302911758423
1701713510478368800,6.79936865234375,-0.8497975468635559,-9.593988418579102,1.8448896408081055
1701713510487963100,6.808963134765625,-0.8471340537071228,-9.594335556030273,1.8443080186843872
1701713510497558300,6.818558349609375,-0.844410240650177,-9.594795227050781,1.8431673049926758
1701713510507152400,6.82815234375,-0.8412419557571411,-9.595425605773926,1.8413317203521729
1701713510516746000,6.83774609375,-0.8380537629127502,-9.596173286437988,1.838889479637146
1701713510526340400,6.84734033203125,-0.8345099091529846,-9.597082138061523,1.835756540298462
1701713510535935200,6.856935302734375,-0.8305642604827881,-9.598116874694824,1.8321282863616943
1701713510545529600,6.866529541015625,-0.8261988162994385,-9.599259376525879,1.8281129598617554
1701713510555123000,6.876123046875,-0.8217419385910034,-9.600536346435547,1.8234137296676636
1701713510564717300,6.88571728515625,-0.816842257976532,-9.60189437866211,1.8184564113616943
1701713510574312400,6.8953125,-0.8118108510971069,-9.603327751159668,1.8131357431411743
1701713510583906600,6.904906494140625,-0.8070207834243774,-9.604769706726074,1.807619571685791
1701713510593500000,6.9145,-0.8021839261054993,-9.606334686279297,1.8014506101608276
1701713510603094300,6.92409423828125,-0.7970830202102661,-9.607945442199707,1.7951173782348633
1701713510612689400,6.933689453125,-0.7917339205741882,-9.609612464904785,1.7885481119155884
1701713510622283500,6.943283447265625,-0.7860403060913086,-9.61125659942627,1.7822091579437256
1701713510631877000,6.952877197265625,-0.7801424860954285,-9.6128511428833,1.7761950492858887
1701713510641471500,6.962471435546875,-0.7741903066635132,-9.61436653137207,1.770587682723999
1701713510651066400,6.97206640625,-0.7678616642951965,-9.615852355957031,1.7652641534805298
1701713510660660700,6.98166064453125,-0.7614471912384033,-9.617338180541992,1.7599409818649292
1701713510670254000,6.991254150390625,-0.7551433444023132,-9.618870735168457,1.754274606704712
1701713510679848400,7.000848388671875,-0.7492815256118774,-9.620444297790527,1.748144507408142
1701713510689443600,7.010443603515625,-0.7430612444877625,-9.622210502624512,1.741066336631775
1701713510699037700,7.02003759765625,-0.7356014251708984,-9.624202728271484,1.7332075834274292
1701713510708631300,7.02963134765625,-0.72798091173172,-9.626455307006836,1.723892331123352
1701713510718225700,7.0392255859375,-0.7206053137779236,-9.628907203674316,1.7132595777511597
1701713510727820500,7.048820556640625,-0.7130222916603088,-9.631495475769043,1.7018471956253052
1701713510737415000,7.058414794921875,-0.7047550082206726,-9.634255409240723,1.689625859260559
1701713510747008300,7.06800830078125,-0.6965985298156738,-9.637036323547363,1.6771010160446167
1701713510756602600,7.0776025390625,-0.6889433264732361,-9.639875411987305,1.6638898849487305
1701713510766197800,7.08719775390625,-0.6809703707695007,-9.642573356628418,1.6514970064163208
1701713510775791900,7.0967919921875,-0.6724381446838379,-9.6450777053833,1.6403331756591797
1701713510785385500,7.106385498046875,-0.6633448004722595,-9.647435188293457,1.630143404006958
1701713510794979600,7.1159794921875,-0.6538589000701904,-9.649674415588379,1.6206927299499512
1701713510804574700,7.12557470703125,-0.6420806646347046,-9.651643753051758,1.6136530637741089
1701713510814168800,7.1351689453125,-0.629356861114502,-9.653524398803711,1.607408881187439
1701713510823762400,7.144762451171875,-0.6146492958068848,-9.65576171875,1.5996438264846802
1701713510833356800,7.154356689453125,-0.5964346528053284,-9.658486366271973,1.5900651216506958
1701713510842951700,7.16395166015625,-0.5745930671691895,-9.661834716796875,1.5777150392532349
1701713510852546000,7.173546142578125,-0.5497289299964905,-9.665674209594727,1.562983751296997
1701713510862139400,7.183139404296875,-0.5217878818511963,-9.669966697692871,1.5459239482879639
1701713510871733800,7.192733642578125,-0.4903797507286072,-9.674589157104492,1.5271681547164917
1701713510881329000,7.202328857421875,-0.455178439617157,-9.679326057434082,1.5079312324523926
1701713510890923000,7.211923095703125,-0.4192782938480377,-9.684070587158203,1.4877409934997559
1701713510900516600,7.2215166015625,-0.38265857100486755,-9.68875789642334,1.466949701309204
1701713510910111000,7.231111083984375,-0.34713536500930786,-9.693245887756348,1.4459846019744873
1701713510919705900,7.240705810546875,-0.31360331177711487,-9.697392463684082,1.4256980419158936
1701713510929300200,7.25030029296875,-0.2811855375766754,-9.701305389404297,1.4057035446166992
1701713510938893600,7.2598935546875,-0.24864616990089417,-9.705198287963867,1.3848026990890503
1701713510948488000,7.269488037109375,-0.21658293902873993,-9.709064483642578,1.3629181385040283
1701713510958083000,7.2790830078125,-0.1857360601425171,-9.712693214416504,1.3414456844329834
1701713510967677200,7.28867724609375,-0.15593744814395905,-9.71613597869873,1.320144534111023
1701713510977270800,7.298270751953125,-0.12664206326007843,-9.7193021774292,1.299812912940979
1701713510986865200,7.307865234375,-0.09821489453315735,-9.72250747680664,1.2781213521957397
1701713510996460000,7.3174599609375,-0.06844344735145569,-9.725536346435547,1.2568421363830566
1701713511006054400,7.327054443359375,-0.038129258900880814,-9.728299140930176,1.236575722694397
1701713511015647700,7.336647705078125,-0.008838651701807976,-9.73073959350586,1.217791199684143
1701713511025242000,7.3462421875,0.02057768404483795,-9.733000755310059,1.199438452720642
1701713511034837000,7.3558369140625,0.0492793507874012,-9.734405517578125,1.1871428489685059
1701713511044431400,7.365431396484375,0.07355471700429916,-9.735247611999512,1.178951382637024
1701713511054024700,7.375024658203125,0.09535178542137146,-9.735539436340332,1.174970269203186
1701713511063619000,7.384619140625,0.11350061744451523,-9.735669136047363,1.1722886562347412
1701713511073214200,7.394214111328125,0.1284480094909668,-9.735902786254883,1.1687989234924316
1701713511082808300,7.403808349609375,0.1418663114309311,-9.736205101013184,1.1647146940231323
1701713511092402000,7.41340185546875,0.15584002435207367,-9.736626625061035,1.1593958139419556
1701713511101996300,7.422996337890625,0.17015479505062103,-9.737208366394043,1.1524779796600342
1701713511111591200,7.432591064453125,0.18358662724494934,-9.738007545471191,1.1436303853988647
1701713511121185500,7.442185546875,0.1962263286113739,-9.738926887512207,1.133660078048706
1701713511130779000,7.45177880859375,0.20707745850086212,-9.739861488342285,1.1236515045166016
1701713511140373200,7.461373291015625,0.21256054937839508,-9.740623474121094,1.115994930267334
1701713511149968400,7.470968505859375,0.2121868133544922,-9.740833282470703,1.1142381429672241
1701713511159562800,7.480562744140625,0.20722585916519165,-9.740580558776855,1.1173843145370483
1701713511169156000,7.490156005859375,0.2027323991060257,-9.739908218383789,1.1240366697311401
1701713511178750500,7.49975048828125,0.200169637799263,-9.738937377929688,1.1328742504119873
1701713511188345300,7.509345458984375,0.1988779455423355,-9.737730026245117,1.1434340476989746
1701713511197939700,7.518939697265625,0.1966111809015274,-9.73629379272461,1.1559900045394897
1701713511207533000,7.528532958984375,0.1961960643529892,-9.734451293945312,1.17147696018219
1701713511217127400,7.53812744140625,0.198994979262352,-9.73189640045166,1.19204580783844
1701713511226722600,7.54772265625,0.20294320583343506,-9.729035377502441,1.2145270109176636
1701713511236316700,7.557316650390625,0.20777690410614014,-9.725587844848633,1.2410235404968262
1701713511245910300,7.56691015625,0.21176402270793915,-9.721546173095703,1.2716408967971802
1701713511255504400,7.57650439453125,0.21427738666534424,-9.716574668884277,1.308679223060608
1701713511265099500,7.586099609375,0.21291273832321167,-9.710712432861328,1.3517029285430908
1701713511274694000,7.59569384765625,0.20791761577129364,-9.704028129577637,1.3996444940567017
1701713511284287200,7.605287353515625,0.203499436378479,-9.69663143157959,1.450621247291565
1701713511293881600,7.614881591796875,0.20028047263622284,-9.688617706298828,1.503653645515442
1701713511303476500,7.6244765625,0.2003093808889389,-9.680160522460938,1.557166337966919
1701713511313070800,7.63407080078125,0.20412227511405945,-9.671050071716309,1.6122997999191284
1701713511322664200,7.643664306640625,0.20763981342315674,-9.661665916442871,1.6671825647354126
1701713511332258600,7.653258544921875,0.20727479457855225,-9.652314186096191,1.7205355167388916
1701713511341853700,7.662853759765625,0.2070634514093399,-9.643207550048828,1.7708892822265625
1701713511351447800,7.67244775390625,0.21257854998111725,-9.633580207824707,1.8219091892242432
1701713511361041400,7.68204150390625,0.2152087539434433,-9.62437915802002,1.8695992231369019
1701713511370635800,7.6916357421875,0.21866506338119507,-9.614824295043945,1.917740821838379
1701713511380230700,7.701230712890625,0.2209869921207428,-9.605327606201172,1.9644914865493774
1701713511389825000,7.710824951171875,0.2185661792755127,-9.596460342407227,2.007626533508301
1701713511399418400,7.72041845703125,0.20670925080776215,-9.588191032409668,2.0479848384857178
1701713511409012700,7.7300126953125,0.1847822666168213,-9.580191612243652,2.0871405601501465
1701713511418607900,7.73960791015625,0.16424883902072906,-9.571088790893555,2.1301798820495605
1701713511428202000,7.749201904296875,0.1480245441198349,-9.560458183288574,2.1785616874694824
1701713511437795600,7.758795654296875,0.13168364763259888,-9.550280570983887,2.223778009414673
1701713511447390000,7.768389892578125,0.11405714601278305,-9.542618751525879,2.257390260696411
1701713511456984800,7.77798486328125,0.09152676165103912,-9.537909507751465,2.278223991394043
1701713511466579200,7.7875791015625,0.058268651366233826,-9.536828994750977,2.2838311195373535
1701713511476172500,7.797172607421875,0.012876849621534348,-9.538283348083496,2.2784557342529297
1701713511485767000,7.806766845703125,-0.045984864234924316,-9.54200267791748,2.262399911880493
1701713511495362000,7.816362060546875,-0.12105237692594528,-9.547536849975586,2.2361247539520264
1701713511504956200,7.8259560546875,-0.2037305384874344,-9.551900863647461,2.2113521099090576
1701713511514549800,7.8355498046875,-0.2873448133468628,-9.55527114868164,2.1873767375946045
1701713511524143900,7.845143798828125,-0.37734511494636536,-9.556625366210938,2.1676924228668213
1701713511533739000,7.854739013671875,-0.4748317301273346,-9.554247856140137,2.1589932441711426
1701713511543333400,7.86433349609375,-0.5805608630180359,-9.546772956848145,2.1662094593048096
1701713511552926700,7.8739267578125,-0.6905033588409424,-9.533796310424805,2.1909613609313965
1701713511562521000,7.88352099609375,-0.8040502071380615,-9.515334129333496,2.232104539871216
1701713511572116200,7.8931162109375,-0.9195979833602905,-9.491301536560059,2.2890892028808594
1701713511581710300,7.90271044921875,-1.037264347076416,-9.461267471313477,2.3619651794433594
1701713511591304000,7.912303955078125,-1.1644463539123535,-9.425237655639648,2.445269823074341
1701713511600898000,7.92189794921875,-1.2980703115463257,-9.384093284606934,2.5346004962921143
1701713511610493200,7.9314931640625,-1.4366523027420044,-9.339269638061523,2.623823642730713
1701713511620087600,7.941087646484375,-1.575773000717163,-9.29190731048584,2.710681676864624
1701713511629681000,7.950680908203125,-1.7124102115631104,-9.242879867553711,2.7941386699676514
1701713511639275300,7.960275146484375,-1.8497060537338257,-9.19296932220459,2.870244026184082
1701713511648870400,7.969870361328125,-1.988377332687378,-9.141557693481445,2.940861463546753
1701713511658464500,7.979464599609375,-2.1255671977996826,-9.087932586669922,3.0102880001068115
1701713511668058000,7.98905810546875,-2.2611196041107178,-9.030904769897461,3.0822856426239014
1701713511677652200,7.99865234375,-2.3966763019561768,-8.969481468200684,3.15828013420105
1701713511687247400,8.008247314453126,-2.5334153175354004,-8.903340339660645,3.237701654434204
1701713511696841500,8.017841552734374,-2.6690871715545654,-8.833651542663574,3.318577289581299
1701713511706435000,8.02743505859375,-2.799384355545044,-8.762489318847656,3.3989145755767822
1701713511716029400,8.037029541015626,-2.9207353591918945,-8.691659927368164,3.4777486324310303
1701713511725624300,8.046624267578125,-3.0329184532165527,-8.621898651123047,3.554525136947632
1701713511735218700,8.05621875,-3.134887218475342,-8.554376602172852,3.6284310817718506
1701713511744812000,8.06581201171875,-3.2244012355804443,-8.490765571594238,3.698716163635254
1701713511754406400,8.075406494140625,-3.301133155822754,-8.431991577148438,3.764894485473633
1701713511764001500,8.08500146484375,-3.3665692806243896,-8.37804126739502,3.8268826007843018
1701713511773595600,8.094595703125,-3.422700881958008,-8.328482627868652,3.8848280906677246
1701713511783189200,8.104189208984375,-3.470719575881958,-8.28325366973877,3.938554525375366
1701713511792783600,8.11378369140625,-3.511139392852783,-8.242558479309082,3.987797260284424
1701713511802378500,8.12337841796875,-3.545367479324341,-8.206317901611328,4.032009601593018
1701713511811972900,8.132972900390625,-3.574338436126709,-8.174517631530762,4.070842266082764
1701713511821566200,8.142566162109375,-3.5975213050842285,-8.147193908691406,4.105052947998047
1701713511831160600,8.15216064453125,-3.614314556121826,-8.124370574951172,4.135422229766846
1701713511840755700,8.161755615234375,-3.6258060932159424,-8.105213165283203,4.162866115570068
1701713511850349800,8.171349853515625,-3.6342198848724365,-8.0900239944458,4.185015678405762
1701713511859943400,8.180943359375,-3.6410229206085205,-8.07888126373291,4.200598239898682
1701713511869537500,8.19053759765625,-3.647244930267334,-8.070459365844727,4.211374759674072
1701713511879132700,8.200132568359376,-3.654299259185791,-8.063394546508789,4.218785762786865
1701713511888726800,8.209726806640624,-3.6636345386505127,-8.056480407714844,4.223894119262695
1701713511898320400,8.2193203125,-3.676572561264038,-8.048626899719238,4.227626323699951
1701713511907914800,8.228914794921875,-3.693439483642578,-8.039067268371582,4.231108665466309
1701713511917510000,8.238510009765625,-3.713648557662964,-8.027762413024902,4.234883785247803
1701713511927104000,8.24810400390625,-3.7366020679473877,-8.014861106872559,4.239127159118652
1701713511936697600,8.257697509765626,-3.761493444442749,-8.000752449035645,4.2437615394592285
1701713511946291700,8.267291748046874,-3.787752628326416,-7.9858574867248535,4.248457908630371
1701713511955886800,8.276886962890625,-3.8143138885498047,-7.970649242401123,4.2532525062561035
1701713511965481000,8.28648095703125,-3.8403453826904297,-7.955555438995361,4.258082866668701
1701713511975074600,8.296074462890624,-3.8654885292053223,-7.940832614898682,4.262813568115234
1701713511984669000,8.3056689453125,-3.890200614929199,-7.926325798034668,4.267326831817627
1701713511994264000,8.31526416015625,-3.9149811267852783,-7.911726951599121,4.271753311157227
1701713512003858200,8.324858154296875,-3.940786361694336,-7.8964009284973145,4.276383399963379
1701713512013451500,8.334451416015625,-3.968303680419922,-7.879830360412598,4.281498432159424
1701713512023046000,8.3440458984375,-3.997514009475708,-7.861673355102539,4.287698745727539
1701713512032641000,8.35364111328125,-4.027851581573486,-7.8417558670043945,4.295773029327393
1701713512042235100,8.363235107421875,-4.058259963989258,-7.820261478424072,4.306324481964111
1701713512051828700,8.372828857421876,-4.087981224060059,-7.797425270080566,4.319601535797119
1701713512061423000,8.382423095703125,-4.116232395172119,-7.773951053619385,4.335054397583008
1701713512071018000,8.39201806640625,-4.1424174308776855,-7.750572204589844,4.351943016052246
1701713512080612400,8.4016123046875,-4.166325092315674,-7.727950096130371,4.3693132400512695
1701713512090205700,8.411205810546875,-4.188323020935059,-7.706167221069336,4.386721611022949
1701713512099800000,8.420800048828125,-4.208369731903076,-7.685576438903809,4.403627395629883
1701713512109395200,8.430395263671874,-4.226489543914795,-7.666339874267578,4.419776439666748
1701713512118989300,8.4399892578125,-4.242547988891602,-7.648892879486084,4.434592247009277
1701713512128583000,8.4495830078125,-4.256968021392822,-7.633315563201904,4.447595596313477
1701713512138177300,8.45917724609375,-4.269533634185791,-7.619633197784424,4.45899772644043
1701713512147772200,8.468772216796875,-4.280276775360107,-7.607913017272949,4.468700408935547
1701713512157366500,8.478366455078126,-4.288974761962891,-7.598241329193115,4.476809024810791
1701713512166959900,8.4879599609375,-4.2959818840026855,-7.590407848358154,4.48337459564209
1701713512176554200,8.49755419921875,-4.301220417022705,-7.584474086761475,4.488389492034912
1701713512186149400,8.5071494140625,-4.304661273956299,-7.580468654632568,4.491856575012207
1701713512195743500,8.516743408203125,-4.3063130378723145,-7.578254699707031,4.494008541107178
1701713512205337000,8.526337158203125,-4.306182384490967,-7.577599048614502,4.495239734649658
1701713512214931500,8.535931396484376,-4.304329872131348,-7.578317165374756,4.495802879333496
1701713512224526300,8.5455263671875,-4.300679683685303,-7.58029317855835,4.495964527130127
1701713512234120400,8.555120361328125,-4.295713901519775,-7.58319616317749,4.495815277099609
1701713512243714000,8.564714111328126,-4.289870262145996,-7.586715221405029,4.495458602905273
1701713512253308400,8.574308349609375,-4.2833147048950195,-7.590851783752441,4.494726181030273
1701713512262903300,8.5839033203125,-4.276644229888916,-7.595198631286621,4.493734836578369
1701713512272497700,8.59349755859375,-4.2701239585876465,-7.599575519561768,4.492537021636963
1701713512282091000,8.603091064453125,-4.264186382293701,-7.603628158569336,4.491318225860596
1701713512291685400,8.612685302734375,-4.259121894836426,-7.607169151306152,4.490127086639404
1701713512301280500,8.622280517578124,-4.25518798828125,-7.610190391540527,4.4887375831604
1701713512310874600,8.63187451171875,-4.252298831939697,-7.612536430358887,4.487497329711914
1701713512320468200,8.64146826171875,-4.250207424163818,-7.614294052124023,4.486497402191162
1701713512330062600,8.6510625,-4.2485504150390625,-7.615487575531006,4.486041069030762
1701713512339657500,8.660657470703125,-4.246631622314453,-7.616369724273682,4.486358642578125
1701713512349251800,8.670251953125,-4.2443928718566895,-7.617035388946533,4.487346172332764
1701713512358845200,8.67984521484375,-4.2417073249816895,-7.617550373077393,4.489013195037842
1701713512368439600,8.689439453125,-4.238563537597656,-7.618054389953613,4.491126537322998
1701713512378034700,8.69903466796875,-4.234909534454346,-7.61863374710083,4.493590354919434
1701713512387628800,8.70862890625,-4.230879783630371,-7.619250297546387,4.496338367462158
1701713512397222400,8.718222412109375,-4.226589202880859,-7.620012283325195,4.499081611633301
1701713512406816800,8.727816650390626,-4.221925735473633,-7.621010780334473,4.501768589019775
1701713512416411600,8.73741162109375,-4.217490196228027,-7.6221513748168945,4.503995895385742
1701713512426006000,8.747006103515625,-4.213141918182373,-7.623534202575684,4.505722522735596
1701713512435599400,8.756599365234376,-4.20871639251709,-7.6251959800720215,4.507047653198242
1701713512445193700,8.76619384765625,-4.204196453094482,-7.627155303955078,4.507949352264404
1701713512454788900,8.775788818359375,-4.202150344848633,-7.626091480255127,4.511654853820801
1701713512464383000,8.785383056640624,-4.200519561767578,-7.625247955322266,4.514599323272705
1701713512473976600,8.7949765625,-4.198756694793701,-7.624638557434082,4.517268657684326
1701713512483570700,8.80457080078125,-4.197073936462402,-7.624338150024414,4.519339084625244
1701713512493165800,8.814165771484374,-4.195852279663086,-7.624161243438721,4.520771503448486
1701713512502760200,8.82376025390625,-4.19401741027832,-7.6241350173950195,4.522519588470459
1701713512512353500,8.833353515625,-4.19184684753418,-7.624506950378418,4.523904323577881
1701713512521948000,8.842947998046874,-4.189431667327881,-7.625002384185791,4.525304794311523
1701713512531542800,8.852542724609375,-4.187478065490723,-7.6258063316345215,4.525758743286133
1701713512541137200,8.86213720703125,-4.186030864715576,-7.626546382904053,4.525852203369141
1701713512550730500,8.87173046875,-4.185370445251465,-7.627001762390137,4.525691986083984
1701713512560324900,8.881324951171875,-4.185451984405518,-7.627010822296143,4.525602340698242
1701713512569920000,8.890919921875,-4.1863112449646,-7.62657356262207,4.525547027587891
1701713512579514000,8.90051416015625,-4.187768459320068,-7.625782489776611,4.525531768798828
1701713512589107700,8.910107666015625,-4.189830303192139,-7.62473726272583,4.525381565093994
1701713512598702000,8.9197021484375,-4.192368507385254,-7.6235175132751465,4.525087356567383
1701713512608297000,8.929296875,-4.195289134979248,-7.622165203094482,4.524658679962158
1701713512617891300,8.938891357421875,-4.198647499084473,-7.6209893226623535,4.523524284362793
1701713512627484700,8.948484619140626,-4.202940464019775,-7.619489669799805,4.522062301635742
1701713512637079000,8.9580791015625,-4.208036422729492,-7.617705345153809,4.520328044891357
1701713512646674200,8.967674072265625,-4.213120937347412,-7.615721225738525,4.518937110900879
1701713512656268300,8.977268310546876,-4.218254566192627,-7.613630294799805,4.517671585083008
1701713512665862000,8.98686181640625,-4.2232489585876465,-7.611551284790039,4.51650857925415
1701713512675456000,8.9964560546875,-4.227977275848389,-7.609530448913574,4.515488624572754
1701713512685051100,9.006051025390626,-4.232378959655762,-7.607572078704834,4.514665126800537
1701713512694645500,9.0156455078125,-4.235648155212402,-7.605879306793213,4.514449119567871
1701713512704238800,9.02523876953125,-4.237422466278076,-7.604464530944824,4.515169143676758
1701713512713833200,9.034833251953126,-4.237936019897461,-7.603266716003418,4.516704082489014
1701713512723428400,9.044428466796875,-4.237554550170898,-7.602827548980713,4.517801284790039
1701713512733022500,9.0540224609375,-4.236865043640137,-7.602754592895508,4.518570899963379
1701713512742616000,9.063615966796876,-4.236176013946533,-7.602720737457275,4.519275188446045
1701713512752210200,9.073210205078125,-4.236080646514893,-7.602653980255127,4.519476413726807
1701713512761805300,9.082805419921876,-4.23729133605957,-7.6021647453308105,4.519163608551025
1701713512771399700,9.092399658203124,-4.239585876464844,-7.601313591003418,4.518442630767822
1701713512780993000,9.101992919921875,-4.242743492126465,-7.600200176239014,4.517353057861328
1701713512790587400,9.11158740234375,-4.246140956878662,-7.599147319793701,4.515931129455566
1701713512800182300,9.121182373046874,-4.249943256378174,-7.598428249359131,4.513563632965088
1701713512809776600,9.130776611328125,-4.254319190979004,-7.597618103027344,4.510804653167725
1701713512819370000,9.140369873046875,-4.259155750274658,-7.596653461456299,4.507864952087402
1701713512828964400,9.14996435546875,-4.264064788818359,-7.595742702484131,4.504756450653076
1701713512838559500,9.1595595703125,-4.268667697906494,-7.594917297363281,4.501786231994629
1701713512848153600,9.169153564453126,-4.272819519042969,-7.593990802764893,4.499410629272461
1701713512857747200,9.178747314453124,-4.27635383605957,-7.593104839324951,4.4975481033325195
1701713512867341600,9.188341552734375,-4.279090881347656,-7.592368125915527,4.496191024780273
1701713512876936400,9.1979365234375,-4.2815775871276855,-7.591615200042725,4.495092391967773
1701713512886530800,9.20753076171875,-4.284156322479248,-7.59099817276001,4.49367618560791
1701713512896124200,9.217124267578125,-4.287229061126709,-7.590210914611816,4.492077350616455
1701713512905718500,9.226718505859376,-4.290889739990234,-7.5893096923828125,4.490104675292969
1701713512915313700,9.236313720703125,-4.295367240905762,-7.588124752044678,4.487825393676758
1701713512924907800,9.24590771484375,-4.3008198738098145,-7.586559772491455,4.485247611999512
1701713512934501400,9.25550146484375,-4.307204246520996,-7.584815502166748,4.4820709228515625
1701713512944095500,9.265095458984375,-4.314473628997803,-7.5826826095581055,4.478686809539795
1701713512953690600,9.274690673828125,-4.322787284851074,-7.580037593841553,4.47514533996582
1701713512963285000,9.284284912109374,-4.332066535949707,-7.576631546020508,4.4719390869140625
1701713512972878300,9.29387841796875,-4.341691970825195,-7.572502136230469,4.469599723815918
1701713512982472700,9.30347265625,-4.3508710861206055,-7.567654132843018,4.468883037567139
1701713512992067800,9.31306787109375,-4.359373569488525,-7.562501907348633,4.46931791305542
1701713513001662000,9.322661865234375,-4.366999626159668,-7.557329177856445,4.4706244468688965
1701713513011255300,9.33225537109375,-4.374021530151367,-7.552262306213379,4.4723219871521
1701713513020849700,9.341849609375,-4.380974769592285,-7.5472869873046875,4.473913669586182
1701713513030444800,9.35144482421875,-4.388348579406738,-7.542416095733643,4.474902153015137
1701713513040039000,9.361038818359376,-4.396471977233887,-7.537368297576904,4.47543478012085
1701713513049632500,9.370632568359374,-4.405063152313232,-7.532223701477051,4.475648403167725
1701713513059227000,9.380226806640625,-4.414153575897217,-7.526935577392578,4.475587844848633
1701713513068821800,9.38982177734375,-4.423657417297363,-7.521389007568359,4.475526332855225
1701713513078416100,9.399416015625,-4.433557987213135,-7.515707492828369,4.47527551651001
1701713513088009500,9.409009521484375,-4.443395137786865,-7.510170936584473,4.474813938140869
1701713513097603800,9.418603759765626,-4.453714847564697,-7.504323482513428,4.474365234375
1701713513107199000,9.428198974609375,-4.464498043060303,-7.498458385467529,4.473452091217041
1701713513116793000,9.43779296875,-4.475515365600586,-7.492617607116699,4.472229480743408
1701713513126386700,9.44738671875,-4.486547470092773,-7.486715793609619,4.471057891845703
1701713513135980800,9.456980712890624,-4.497480392456055,-7.480842590332031,4.469906330108643
1701713513145576000,9.466575927734375,-4.508382797241211,-7.474786758422852,4.469053268432617
1701713513155170300,9.47617041015625,-4.519346714019775,-7.468626022338867,4.468278408050537
1701713513164763600,9.485763671875,-4.530487060546875,-7.462221622467041,4.467698574066162
1701713513174358000,9.49535791015625,-4.541528701782227,-7.456040859222412,4.466805458068848
1701713513183953200,9.504953125,-4.552649021148682,-7.449800968170166,4.465897083282471
1701713513193547300,9.51454736328125,-4.563545227050781,-7.443663597106934,4.465010166168213
1701713513203140900,9.524140869140625,-4.574340343475342,-7.437378883361816,4.464437007904053
1701713513212735000,9.53373486328125,-4.584834575653076,-7.431039333343506,4.464229583740234
1701713513222330000,9.543330078125,-4.594045162200928,-7.424863338470459,4.465036869049072
1701713513231924200,9.55292431640625,-4.601333141326904,-7.418776988983154,4.467647552490234
1701713513241517800,9.562517822265624,-4.606377601623535,-7.413106441497803,4.471858978271484
1701713513251112200,9.5721123046875,-4.6093831062316895,-7.408231735229492,4.476838111877441
1701713513260707000,9.58170703125,-4.611408233642578,-7.4039764404296875,4.481789588928223
1701713513270301400,9.591301513671874,-4.613024711608887,-7.400279998779297,4.486229419708252
1701713513279894800,9.600894775390625,-4.614906311035156,-7.397268772125244,4.489260196685791
1701713513289489200,9.6104892578125,-4.617156982421875,-7.394811153411865,4.490992069244385
1701713513299084300,9.620084228515625,-4.620110511779785,-7.3927130699157715,4.491408348083496
1701713513308678400,9.629678466796875,-4.623648643493652,-7.39084529876709,4.490841865539551
1701713513318272000,9.63927197265625,-4.627871036529541,-7.388686180114746,4.490045070648193
1701713513327866000,9.6488662109375,-4.632233619689941,-7.386582374572754,4.489007949829102
1701713513337461200,9.658461181640625,-4.637065887451172,-7.384270668029785,4.487822532653809
1701713513347055600,9.6680556640625,-4.641836643218994,-7.381995677947998,4.48663330078125
1701713513356649000,9.67764892578125,-4.646578311920166,-7.3796563148498535,4.4855732917785645
1701713513366243300,9.687243408203125,-4.651151657104492,-7.377284049987793,4.484735012054443
1701713513375838500,9.69683837890625,-4.656109809875488,-7.37465763092041,4.48391056060791
1701713513385432600,9.7064326171875,-4.661165237426758,-7.372042655944824,4.482957363128662
1701713513395026000,9.71602587890625,-4.665865421295166,-7.369791030883789,4.4817705154418945
1701713513404620300,9.725620361328126,-4.670238971710205,-7.367959976196289,4.480226039886475
1701713513414215400,9.73521533203125,-4.673715114593506,-7.366610050201416,4.478821754455566
1701713513423809500,9.7448095703125,-4.6767072677612305,-7.365485191345215,4.477546215057373
1701713513433403100,9.754403076171876,-4.679540157318115,-7.364656925201416,4.475949287414551
1701713513442997500,9.76399755859375,-4.682136058807373,-7.364051342010498,4.4742302894592285
1701713513452592400,9.77359228515625,-4.684412956237793,-7.363718032836914,4.472394943237305
1701713513462186800,9.783186767578124,-4.686159133911133,-7.363343238830566,4.471182823181152
1701713513471780000,9.792780029296875,-4.6872358322143555,-7.36342716217041,4.469915390014648
1701713513481374500,9.80237451171875,-4.687539100646973,-7.363797187805176,4.468989372253418
1701713513490969600,9.811969482421874,-4.687538146972656,-7.364410877227783,4.467978000640869
1701713513500563700,9.821563720703125,-4.687131404876709,-7.365175724029541,4.4671430587768555
1701713513510157300,9.8311572265625,-4.686291694641113,-7.365980625152588,4.466697692871094
1701713513519751400,9.84075146484375,-4.685431957244873,-7.3669281005859375,4.466034889221191
1701713513529346600,9.8503466796875,-4.684457302093506,-7.367719650268555,4.465752124786377
1701713513538940700,9.859940673828126,-4.683682441711426,-7.368134021759033,4.465882778167725
1701713513548534300,9.8695341796875,-4.683296203613281,-7.368166446685791,4.4662346839904785
1701713513558128600,9.879128662109375,-4.683081150054932,-7.367948532104492,4.466818332672119
1701713513567723500,9.8887236328125,-4.683188438415527,-7.367595195770264,4.467288970947266
1701713513577318000,9.89831787109375,-4.6832427978515625,-7.367320537567139,4.467686176300049
1701713513586911200,9.9079111328125,-4.683457374572754,-7.36704158782959,4.46791934967041
1701713513596505600,9.917505615234376,-4.683930397033691,-7.366900444030762,4.46765661239624
1701713513606100700,9.927100830078125,-4.684264183044434,-7.366935729980469,4.467248916625977
1701713513615694800,9.93669482421875,-4.684480667114258,-7.366981506347656,4.466946125030518
1701713513625288400,9.946288330078126,-4.684525012969971,-7.367005348205566,4.466859817504883
1701713513634882600,9.955882568359375,-4.684008598327637,-7.36729097366333,4.466929912567139
1701713513644477700,9.965477783203125,-4.68361234664917,-7.367386341094971,4.467188835144043
1701713513654072000,9.975072021484374,-4.6829633712768555,-7.367352485656738,4.467926025390625
1701713513663665400,9.98466552734375,-4.682157516479492,-7.367215156555176,4.468994617462158
1701713513673259800,9.994259765625,-4.681203365325928,-7.366814613342285,4.4706573486328125
1701713513682854700,10.003854736328124,-4.679837703704834,-7.36633825302124,4.472870826721191
1701713513692449000,10.013448974609375,-4.678452968597412,-7.366007328033447,4.474863529205322
1701713513702042400,10.02304248046875,-4.676844596862793,-7.365746974945068,4.476973056793213
1701713513711636700,10.03263671875,-4.675291538238525,-7.365571975708008,4.478883266448975
1701713513721232000,10.04223193359375,-4.673933029174805,-7.365426540374756,4.4805402755737305
1701713513730826000,10.051825927734376,-4.672555923461914,-7.365267753601074,4.482235908508301
1701713513740419600,10.061419677734374,-4.6712188720703125,-7.365062713623047,4.483967304229736
1701713513750014000,10.071013916015625,-4.669896602630615,-7.36475133895874,4.485855579376221
1701713513759608800,10.08060888671875,-4.6686224937438965,-7.364365577697754,4.487813472747803
1701713513769203200,10.090203125,-4.667405128479004,-7.3639373779296875,4.489782333374023
1701713513778796500,10.099796630859375,-4.666119575500488,-7.363593101501465,4.491682052612305
1701713513788391000,10.109390869140626,-4.6654462814331055,-7.362977981567383,4.493391513824463
1701713513797986000,10.118986083984375,-4.665082931518555,-7.362392425537109,4.49472713470459
1701713513807580200,10.128580078125,-4.665192127227783,-7.361520767211914,4.496041774749756
1701713513817173800,10.138173828125,-4.6653733253479,-7.360633850097656,4.4973063468933105
1701713513826768000,10.147767822265624,-4.665807247161865,-7.359878063201904,4.498090744018555
1701713513836363000,10.157363037109375,-4.666536808013916,-7.358919620513916,4.498903274536133
1701713513845957000,10.16695703125,-4.667627811431885,-7.357810974121094,4.499584197998047
1701713513855550700,10.17655078125,-4.669069290161133,-7.35638952255249,4.500412464141846
1701713513865145000,10.18614501953125,-4.671258449554443,-7.354405403137207,4.501384735107422
1701713513874740000,10.195739990234374,-4.673801898956299,-7.352117538452148,4.5024800300598145
1701713513884334300,10.205334228515625,-4.676702499389648,-7.349286079406738,4.504090309143066
1701713513893927700,10.214927734375,-4.680125713348389,-7.346057415008545,4.505802631378174
1701713513903522000,10.22452197265625,-4.683596611022949,-7.342975616455078,4.5072174072265625
1701713513913117200,10.2341171875,-4.687807559967041,-7.339593410491943,4.508349418640137
1701713513922711300,10.243711181640625,-4.692570209503174,-7.335933208465576,4.509354114532471
1701713513932305000,10.253304931640624,-4.698052883148193,-7.331903457641602,4.510198593139648
1701713513941899000,10.26289892578125,-4.70447301864624,-7.327059268951416,4.511376857757568
1701713513951494100,10.272494140625,-4.711170196533203,-7.321938991546631,4.512701988220215
1701713513961088300,10.282088134765624,-4.7183332443237305,-7.316100597381592,4.5146870613098145
1701713513970681900,10.291681884765625,-4.726397514343262,-7.308803558349609,4.518069267272949
1701713513980276200,10.301276123046875,-4.735785007476807,-7.299407482147217,4.523425102233887
1701713513989871000,10.31087109375,-4.745519161224365,-7.290641784667969,4.527358531951904
1701713513999465500,10.320465576171875,-4.756067276000977,-7.2821125984191895,4.53001594543457
1701713514009058800,10.330058837890626,-4.767984867095947,-7.272454738616943,4.533002853393555
1701713514018653200,10.339653076171874,-4.781961441040039,-7.260875701904297,4.536839962005615
1701713514028248300,10.349248291015625,-4.7976837158203125,-7.247532844543457,4.5415730476379395
1701713514037842400,10.358842529296876,-4.814697742462158,-7.233171463012695,4.546460151672363
1701713514047436000,10.36843603515625,-4.832726955413818,-7.217830657958984,4.55171012878418
1701713514057030400,10.378030517578125,-4.851627826690674,-7.2010498046875,4.558177471160889
1701713514066625300,10.387625244140626,-4.870975494384766,-7.183734893798828,4.564859390258789
1701713514076219400,10.397219482421875,-4.890118598937988,-7.167486667633057,4.569930076599121
1701713514085813000,10.40681298828125,-4.90960168838501,-7.150465965270996,4.57570219039917
1701713514095407400,10.416407470703126,-4.928560256958008,-7.134954452514648,4.579530239105225
1701713514105002500,10.42600244140625,-4.947192192077637,-7.119459629058838,4.583554744720459
1701713514114596600,10.4355966796875,-4.964509010314941,-7.105288028717041,4.586820125579834
1701713514124190000,10.44518994140625,-4.980556488037109,-7.092672348022461,4.588947296142578
1701713514133784300,10.454784423828125,-4.994690418243408,-7.081910610198975,4.590208053588867
1701713514143379500,10.46437939453125,-5.007501602172852,-7.072322845458984,4.591032028198242
1701713514152973600,10.4739736328125,-5.018977642059326,-7.064013481140137,4.591292381286621
1701713514162567200,10.483567138671875,-5.029062271118164,-7.057097911834717,4.590892314910889
1701713514172161500,10.49316162109375,-5.037898063659668,-7.051620960235596,4.589621543884277
1701713514181756400,10.50275634765625,-5.045466423034668,-7.047226428985596,4.588057518005371
1701713514191350500,10.5123505859375,-5.05157470703125,-7.04384183883667,4.586532115936279
1701713514200944000,10.521944091796875,-5.056490898132324,-7.041141033172607,4.585262298583984
1701713514210538500,10.53153857421875,-5.060393810272217,-7.038910388946533,4.584381580352783
1701713514220133600,10.541133544921875,-5.0633649826049805,-7.0372467041015625,4.583653926849365
1701713514229727700,10.550727783203126,-5.065674304962158,-7.036003589630127,4.583009719848633
1701713514239321000,10.560321044921874,-5.066983699798584,-7.0354156494140625,4.582466125488281
1701713514248915500,10.56991552734375,-5.067317485809326,-7.035440444946289,4.582059383392334
1701713514258510600,10.579510498046876,-5.066524028778076,-7.036229133605957,4.581725120544434
1701713514268104700,10.589104736328125,-5.064525604248047,-7.037635803222656,4.58177375793457
1701713514277698300,10.5986982421875,-5.061866760253906,-7.039572238922119,4.5817365646362305
1701713514287292700,10.608292724609376,-5.058483123779297,-7.042001247406006,4.58173942565918
1701713514296887600,10.617887451171875,-5.05485725402832,-7.044660568237305,4.581655979156494
1701713514306482000,10.62748193359375,-5.050624847412109,-7.047398567199707,4.58211088180542
1701713514316075300,10.6370751953125,-5.046072006225586,-7.050195693969727,4.58282470703125
1701713514325669600,10.646669677734375,-5.0413641929626465,-7.052683353424072,4.5841779708862305
1701713514335264800,10.6562646484375,-5.036462306976318,-7.055072784423828,4.5858893394470215
1701713514344859000,10.66585888671875,-5.0317182540893555,-7.0572829246521,4.587696552276611
1701713514354452200,10.6754521484375,-5.027313232421875,-7.059230327606201,4.5895280838012695
1701713514364046600,10.685046630859375,-5.023505687713623,-7.060854434967041,4.59119987487793
1701713514373641700,10.694641845703124,-5.020232200622559,-7.062348365783691,4.592480182647705
1701713514383235800,10.70423583984375,-5.017670631408691,-7.063450813293457,4.593585968017578
1701713514392829400,10.713829345703125,-5.015929698944092,-7.06423807144165,4.594277858734131
1701713514402423600,10.723423583984374,-5.0145063400268555,-7.064869403839111,4.594859600067139
1701713514412018700,10.733018798828125,-5.013369083404541,-7.065255641937256,4.595508575439453
1701713514421613000,10.742613037109376,-5.012696266174316,-7.065311431884766,4.596154689788818
1701713514431206400,10.752206298828124,-5.012311935424805,-7.065150260925293,4.5968217849731445
1701713514440800800,10.76180078125,-5.011847972869873,-7.065139293670654,4.597344398498535
1701713514450395600,10.771395751953126,-5.01136589050293,-7.065240383148193,4.597714424133301
1701713514459990000,10.780989990234374,-5.010605335235596,-7.06557035446167,4.59803581237793
1701713514469583400,10.790583251953125,-5.00958776473999,-7.065985202789307,4.598507881164551
1701713514479177700,10.800177734375,-5.007933139801025,-7.066573619842529,4.599405765533447
1701713514488772900,10.80977294921875,-5.005566120147705,-7.067499160766602,4.600561141967773
1701713514498367000,10.819366943359375,-5.002786159515381,-7.068866729736328,4.601484298706055
1701713514507960600,10.828960693359376,-5.000043869018555,-7.070432662963867,4.602057456970215
1701713514517555000,10.838554931640624,-4.997509956359863,-7.072134494781494,4.602194786071777
1701713514527149800,10.84814990234375,-4.99522066116333,-7.073896408081055,4.601973056793213
1701713514536744200,10.857744140625,-4.993314266204834,-7.0756120681762695,4.601402282714844
1701713514546337500,10.867337646484375,-4.991743087768555,-7.077066898345947,4.600870132446289
1701713514555932000,10.876931884765625,-4.99075984954834,-7.078295707702637,4.6000471115112305
1701713514565526800,10.88652685546875,-4.990057468414307,-7.079264163970947,4.599318981170654
1701713514575121200,10.89612109375,-4.989347457885742,-7.08010196685791,4.598799705505371
1701713514584714500,10.905714599609375,-4.988362789154053,-7.0810866355896,4.59835147857666
1701713514594308900,10.915308837890626,-4.987305164337158,-7.081965446472168,4.598145484924316
1701713514603904000,10.924904052734375,-4.986035346984863,-7.082971096038818,4.5979719161987305
1701713514613498000,10.934498046875,-4.984243869781494,-7.084179878234863,4.598053455352783
1701713514623091700,10.944091796875,-4.982248306274414,-7.085506916046143,4.598172187805176
1701713514632686000,10.95368603515625,-4.979934215545654,-7.086615562438965,4.598969459533691
1701713514642281000,10.963281005859375,-4.977494716644287,-7.087863445281982,4.599686622619629
1701713514651875000,10.972875,-4.974721431732178,-7.0893073081970215,4.600461959838867
1701713514661468700,10.98246875,-4.972426414489746,-7.090349197387695,4.601337909698486
1701713514671063000,10.99206298828125,-4.970274925231934,-7.09124755859375,4.602277755737305
1701713514680658200,11.001658203125,-4.968398571014404,-7.091964244842529,4.603199005126953
1701713514690252300,11.011252197265625,-4.966464042663574,-7.092689037322998,4.604170799255371
1701713514699845600,11.020845703125,-4.965090274810791,-7.093033313751221,4.605123043060303
1701713514709440000,11.03043994140625,-4.963967800140381,-7.093376159667969,4.6058030128479
1701713514719035100,11.04003515625,-4.962949275970459,-7.093670845031738,4.606446743011475
1701713514728629200,11.049629150390626,-4.962333679199219,-7.0937910079956055,4.6069254875183105
1701713514738222800,11.059222900390624,-4.96183967590332,-7.093849182128906,4.607367038726807
1701713514747817000,11.06881689453125,-4.961249351501465,-7.093963146209717,4.6078290939331055
1701713514757412000,11.078412109375,-4.960542678833008,-7.093984603881836,4.608556747436523
1701713514767006200,11.088006103515625,-4.959912300109863,-7.09376859664917,4.609566688537598
1701713514776599800,11.097599853515625,-4.959498405456543,-7.093449592590332,4.610503196716309
1701713514786194000,11.10719384765625,-4.95935583114624,-7.092865943908691,4.6115546226501465
1701713514795789000,11.1167890625,-4.959369659423828,-7.092134952545166,4.612663269042969
1701713514805383400,11.126383544921875,-4.959219932556152,-7.091344833374023,4.614038944244385
1701713514814976800,11.135976806640626,-4.959324359893799,-7.0907111167907715,4.614901542663574
1701713514824571100,11.145571044921875,-4.959467887878418,-7.090203285217285,4.6155266761779785
1701713514834166300,11.155166259765625,-4.959590911865234,-7.08969259262085,4.6161789894104
1701713514843760400,11.164760498046874,-4.959672927856445,-7.089311599731445,4.616674423217773
1701713514853354000,11.17435400390625,-4.959828853607178,-7.088705539703369,4.617439270019531
1701713514862948000,11.183947998046875,-4.960377216339111,-7.08800745010376,4.617921829223633
1701713514872543200,11.193543212890624,-4.961508750915527,-7.087038040161133,4.618192672729492
1701713514882137300,11.203137451171875,-4.9628095626831055,-7.085942268371582,4.618478298187256
1701713514891731000,11.21273095703125,-4.964023590087891,-7.085021018981934,4.618585586547852
1701713514901325300,11.2223251953125,-4.965331077575684,-7.084253787994385,4.618356704711914
1701713514910920200,11.231920166015625,-4.966538429260254,-7.083675861358643,4.617944717407227
1701713514920514600,11.2415146484375,-4.967833518981934,-7.083168029785156,4.617331027984619
1701713514930108000,11.25110791015625,-4.969099521636963,-7.082902908325195,4.616374492645264
1701713514939702300,11.260702392578125,-4.970265865325928,-7.082473278045654,4.615780830383301
1701713514949297400,11.27029736328125,-4.971211910247803,-7.082211971282959,4.6151604652404785
1701713514958891500,11.2798916015625,-4.972370147705078,-7.081703186035156,4.614692687988281
1701713514968484900,11.28948486328125,-4.973298072814941,-7.081284999847412,4.6143364906311035
1701713514978079200,11.299079345703126,-4.974377155303955,-7.0808563232421875,4.613831520080566
1701713514987674400,11.30867431640625,-4.975287437438965,-7.0806474685668945,4.613170623779297
1701713514997268500,11.3182685546875,-4.976086139678955,-7.080561637878418,4.6124396324157715
1701713515006862000,11.327862060546876,-4.976930618286133,-7.080424785614014,4.611737251281738
1701713515016456400,11.33745654296875,-4.9774346351623535,-7.080330848693848,4.611339092254639
1701713515026051300,11.34705126953125,-4.977749824523926,-7.080160617828369,4.611259937286377
1701713515035645700,11.356645751953126,-4.977931976318359,-7.079811096191406,4.611598968505859
1701713515045239000,11.366239013671875,-4.97800350189209,-7.079400539398193,4.612154483795166
1701713515054833400,11.37583349609375,-4.9780097007751465,-7.078948974609375,4.61284065246582
1701713515064428500,11.385428466796874,-4.977758407592773,-7.07849645614624,4.613804340362549
1701713515074022700,11.395022705078125,-4.977856636047363,-7.077843189239502,4.614700794219971
1701713515083616000,11.404615966796875,-4.977965831756592,-7.077451229095459,4.615184783935547
1701713515093210400,11.41421044921875,-4.9778151512146,-7.077004909515381,4.616031169891357
1701713515102805500,11.423805419921875,-4.977897644042969,-7.076525688171387,4.616676330566406
1701713515112399600,11.433399658203125,-4.977372646331787,-7.076351165771484,4.617509841918945
1701713515121993200,11.4429931640625,-4.9769062995910645,-7.076343059539795,4.6180267333984375
1701713515131587300,11.45258740234375,-4.976072788238525,-7.07665491104126,4.618444919586182
1701713515141182500,11.462182373046875,-4.97539758682251,-7.076842308044434,4.618885517120361
1701713515150776600,11.471776611328124,-4.974713325500488,-7.077013969421387,4.61936092376709
1701713515160370200,11.4813701171875,-4.974240779876709,-7.077193260192871,4.619594097137451
1701713515169964300,11.49096435546875,-4.973856449127197,-7.077423095703125,4.619655609130859
1701713515179559400,11.500559326171874,-4.973190784454346,-7.077767848968506,4.619845390319824
1701713515189153800,11.51015380859375,-4.972314357757568,-7.077897071838379,4.620589733123779
1701713515198747100,11.5197470703125,-4.971443176269531,-7.077996730804443,4.621373653411865
1701713515208341500,11.529341552734374,-4.970447063446045,-7.078212261199951,4.622115612030029
1701713515217936600,11.5389365234375,-4.969600677490234,-7.078553676605225,4.622503280639648
1701713515227530800,11.54853076171875,-4.968743324279785,-7.07883358001709,4.6229963302612305
1701713515237124400,11.558124267578124,-4.967986106872559,-7.079158782958984,4.623310565948486
1701713515246718500,11.567718505859375,-4.96766471862793,-7.079415321350098,4.623264789581299
1701713515256313600,11.577313720703126,-4.967480659484863,-7.079668045043945,4.623075485229492
1701713515265907700,11.58690771484375,-4.967527866363525,-7.080122470855713,4.62232780456543
1701713515275501300,11.596501220703125,-4.967653274536133,-7.080708980560303,4.6212968826293945
1701713515285095700,11.606095703125,-4.968037128448486,-7.081270694732666,4.620020866394043
1701713515294690600,11.615690673828125,-4.968486309051514,-7.081910610198975,4.618557929992676
1701713515304285000,11.625284912109375,-4.968954563140869,-7.0826640129089355,4.616898059844971
1701713515313878300,11.634878173828126,-4.9696502685546875,-7.083064556121826,4.615533828735352
1701713515323472600,11.64447265625,-4.970742225646973,-7.083071708679199,4.614347457885742
1701713515333067500,11.654067626953125,-4.971939563751221,-7.082888603210449,4.613338947296143
1701713515342662000,11.663661865234374,-4.973373889923096,-7.082409858703613,4.6125288009643555
1701713515352255200,11.673255126953125,-4.975348949432373,-7.081511974334717,4.611774444580078
1701713515361849600,11.682849609375,-4.977501392364502,-7.0805745124816895,4.610893249511719
1701713515371444700,11.69244482421875,-4.979503154754639,-7.079703330993652,4.610067844390869
1701713515381038800,11.702038818359375,-4.9810471534729,-7.079003810882568,4.6094746589660645
1701713515390632400,11.711632568359375,-4.982667922973633,-7.078513145446777,4.608477592468262
1701713515400226800,11.721226806640624,-4.98421573638916,-7.0780863761901855,4.607458591461182
1701713515409821700,11.73082177734375,-4.98550271987915,-7.077706813812256,4.606649398803711
1701713515419415800,11.740415771484376,-4.986242294311523,-7.077545642852783,4.606097221374512
1701713515429009400,11.750009521484374,-4.987021446228027,-7.077274799346924,4.605670928955078
1701713515438603800,11.759603759765625,-4.987427234649658,-7.07715368270874,4.605415344238281
1701713515448198700,11.76919873046875,-4.987634181976318,-7.077178955078125,4.605151176452637
1701713515457793000,11.77879296875,-4.987697601318359,-7.077273368835449,4.604938983917236
1701713515467386400,11.788386474609375,-4.987546920776367,-7.077630996704102,4.60455322265625
1701713515476980700,11.797980712890626,-4.987307071685791,-7.078105926513672,4.604083061218262
1701713515486575900,11.807575927734375,-4.986935138702393,-7.078906536102295,4.603252410888672
1701713515496170000,11.817169921875,-4.986310005187988,-7.0800580978393555,4.602160453796387
1701713515505763600,11.826763671875,-4.985313892364502,-7.081507205963135,4.601009845733643
1701713515515357700,11.836357666015624,-4.9835052490234375,-7.0830183029174805,4.600643157958984
1701713515524952800,11.845952880859375,-4.981832504272461,-7.084173679351807,4.600675106048584
1701713515534547000,11.855546875,-4.980040550231934,-7.085506916046143,4.6005635261535645
1701713515544140500,11.865140625,-4.97816801071167,-7.0868754386901855,4.6004815101623535
1701713515553735000,11.87473486328125,-4.97661828994751,-7.0880208015441895,4.600393772125244
1701713515563329800,11.884329833984374,-4.975010395050049,-7.089072227478027,4.600512504577637
1701713515572924200,11.893924072265625,-4.972955703735352,-7.0901198387146,4.601118564605713
1701713515582517500,11.903517578125,-4.971068859100342,-7.091100215911865,4.601648330688477
1701713515592111900,11.91311181640625,-4.96929931640625,-7.092034339904785,4.602118015289307
1701713515601707000,11.92270703125,-4.9668755531311035,-7.093371391296387,4.60267448425293
1701713515611301000,11.932301025390625,-4.963630676269531,-7.0954976081848145,4.602897644042969
1701713515620894500,11.94189453125,-4.960161209106445,-7.098097324371338,4.602630615234375
1701713515630488800,11.95148876953125,-4.95662784576416,-7.100861072540283,4.602170944213867
1701713515640084000,11.961083984375,-4.953414440155029,-7.103686809539795,4.601271629333496
1701713515649678000,11.970677978515624,-4.950734615325928,-7.1062116622924805,4.6002583503723145
1701713515659271700,11.980271728515625,-4.948367118835449,-7.108424663543701,4.599384784698486
1701713515668865800,11.98986572265625,-4.946303844451904,-7.110541820526123,4.598331451416016
1701713515678461000,11.9994609375,-4.944237232208252,-7.112747669219971,4.597143650054932
1701713515688055000,12.009054931640625,-4.941956996917725,-7.115041255950928,4.596046447753906
1701713515697648600,12.018648681640625,-4.939948558807373,-7.1173906326293945,4.59456729888916
1701713515707243000,12.028242919921874,-4.937830924987793,-7.119843006134033,4.593043327331543
1701713515716838000,12.037837890625,-4.936463832855225,-7.121923923492432,4.591287136077881
1701713515726432300,12.047432373046876,-4.935467720031738,-7.123518466949463,4.589884281158447
1701713515736025600,12.057025634765624,-4.934637069702148,-7.124915599822998,4.588608264923096
1701713515745620000,12.066619873046875,-4.934876441955566,-7.1256208419799805,4.587255001068115
1701713515755215000,12.076215087890626,-4.936133861541748,-7.125750541687012,4.585700511932373
1701713515764809200,12.085809326171875,-4.93828821182251,-7.125359535217285,4.583989143371582
1701713515774402600,12.095402587890625,-4.941464424133301,-7.12412166595459,4.582489967346191
1701713515783997000,12.104996826171876,-4.94521427154541,-7.122314929962158,4.581252574920654
1701713515793592000,12.114592041015625,-4.949283123016357,-7.120211601257324,4.5801286697387695
1701713515803186200,12.124186279296875,-4.952519416809082,-7.1182541847229,4.579672336578369
1701713515812779800,12.13377978515625,-4.955979347229004,-7.116040229797363,4.579370021820068
1701713515822374100,12.1433740234375,-4.958354949951172,-7.1141357421875,4.579758167266846
1701713515831969000,12.152968994140625,-4.95997428894043,-7.112685680389404,4.58025598526001
1701713515841563100,12.162563232421874,-4.961064338684082,-7.111347675323486,4.581151962280273
1701713515851156700,12.17215673828125,-4.961137771606445,-7.110511779785156,4.582371234893799
1701713515860751000,12.181751220703125,-4.96051025390625,-7.109934329986572,4.583946228027344
1701713515870346200,12.19134619140625,-4.959865093231201,-7.109139442443848,4.585875988006592
1701713515879940400,12.2009404296875,-4.958676815032959,-7.108603477478027,4.5879926681518555
1701713515889533700,12.21053369140625,-4.957498073577881,-7.108263969421387,4.589791774749756
1701713515899128000,12.220128173828124,-4.956094741821289,-7.108196258544922,4.591411113739014
1701713515908723200,12.22972314453125,-4.954273223876953,-7.108514785766602,4.592884540557861
1701713515918317300,12.2393173828125,-4.952432155609131,-7.109315872192383,4.593629360198975
1701713515927911000,12.248910888671874,-4.950724124908447,-7.110463619232178,4.593693256378174
1701713515937505000,12.258505126953125,-4.949338436126709,-7.111671447753906,4.593317985534668
1701713515947100200,12.26810009765625,-4.9485182762146,-7.1128034591674805,4.5924482345581055
1701713515956694300,12.2776943359375,-4.948037147521973,-7.113938331604004,4.591209888458252
1701713515966288000,12.287287841796875,-4.9481635093688965,-7.11492919921875,4.589537620544434
1701713515975882200,12.29688232421875,-4.948582649230957,-7.115914821624756,4.5875563621521
1701713515985477000,12.30647705078125,-4.948888301849365,-7.116897106170654,4.585700511932373
1701713515995071500,12.316071533203125,-4.949191570281982,-7.117851257324219,4.583895206451416
1701713516004664800,12.325664794921876,-4.949459552764893,-7.118704319000244,4.582280158996582
1701713516014259200,12.33525927734375,-4.9496941566467285,-7.119480609893799,4.580820560455322
1701713516023854300,12.344854248046875,-4.948729038238525,-7.12082052230835,4.579779624938965
1701713516033448400,12.354448486328126,-4.9476728439331055,-7.122608184814453,4.578141212463379
1701713516043041800,12.364041748046875,-4.948457717895508,-7.12335729598999,4.576126575469971
1701713516052636200,12.37363623046875,-4.9495768547058105,-7.123875617980957,4.574109077453613
1701713516062231300,12.383231201171874,-4.950434684753418,-7.124363422393799,4.572421073913574
1701713516071825400,12.392825439453125,-4.949362754821777,-7.126255512237549,4.570631504058838
1701713516081419000,12.4024189453125,-4.951250076293945,-7.125999927520752,4.568985462188721
1701713516091013400,12.412013427734376,-4.952026844024658,-7.12654447555542,4.567296028137207
1701713516100608300,12.421608154296875,-4.950127601623535,-7.128167152404785,4.566822052001953
