time,seconds_elapsed,z,y,x
1701881168974989000,0.244989013671875,-0.6329560279846191,0.32925939559936523,-0.5285742282867432
1701881168984581400,0.254581298828125,-0.8043575286865234,0.24472618103027344,-0.3538229465484619
1701881168994174700,0.2641748046875,-0.8773665428161621,0.2114391326904297,-0.32521939277648926
1701881169003767000,0.27376708984375,-0.8549003601074219,0.2396836280822754,-0.2640080451965332
1701881169013358800,0.28335888671875,-0.697418212890625,0.30367612838745117,-0.2141404151916504
1701881169022951400,0.292951416015625,-0.6532425880432129,0.3190135955810547,-0.15573501586914062
1701881169032544500,0.30254443359375,-0.7002935409545898,0.2997097969055176,-0.10311174392700195
1701881169042136800,0.31213671875,-0.5967936515808105,0.3670334815979004,-0.23613452911376953
1701881169051728600,0.321728759765625,-0.45150327682495117,0.3365654945373535,-0.3452582359313965
1701881169061321200,0.3313212890625,-0.37100982666015625,0.0791478157043457,-0.5134768486022949
1701881169070914300,0.340914306640625,-0.054058074951171875,0.201002836227417,-0.8742444515228271
1701881169080506600,0.350506591796875,0.2741384506225586,0.38554978370666504,-1.3356564044952393
1701881169090098400,0.360098388671875,0.5359363555908203,0.3266770839691162,-1.2104573249816895
1701881169099691000,0.36969091796875,0.5886726379394531,0.1490333080291748,-0.7910628318786621
1701881169109284000,0.3792841796875,0.5057296752929688,0.2089557647705078,-0.5696752071380615
1701881169118876400,0.38887646484375,0.2811884880065918,0.34634876251220703,-0.5940797328948975
1701881169128468200,0.39846826171875,0.03222179412841797,0.44971704483032227,-0.8108077049255371
1701881169138060800,0.408060791015625,-0.0601353645324707,0.500150203704834,-1.0605907440185547
1701881169147654000,0.41765380859375,-0.10387563705444336,0.4754495620727539,-1.2604866027832031
1701881169157246200,0.42724609375,-0.009413719177246094,0.32530879974365234,-1.211660623550415
1701881169166838000,0.436838134765625,0.2367691993713379,0.2813534736633301,-1.1506378650665283
1701881169176430600,0.4464306640625,0.3659834861755371,0.30250024795532227,-1.2587289810180664
1701881169186023700,0.456023681640625,0.5344953536987305,0.21589994430541992,-1.1112556457519531
1701881169195616000,0.465615966796875,0.7421293258666992,0.18852806091308594,-0.666053295135498
1701881169205207800,0.475207763671875,0.8652949333190918,0.20354843139648438,-0.2573518753051758
1701881169214800400,0.48480029296875,0.9602761268615723,0.20004749298095703,0.1021580696105957
1701881169224393500,0.4943935546875,1.1036734580993652,0.20304584503173828,0.3297123908996582
1701881169233985800,0.50398583984375,1.1724905967712402,0.16261672973632812,0.3884572982788086
1701881169243577600,0.51357763671875,1.081038475036621,0.1267094612121582,0.3448810577392578
1701881169253170200,0.523170166015625,0.9294958114624023,0.09095048904418945,0.1467905044555664
1701881169262763300,0.53276318359375,0.8599123954772949,0.06280803680419922,0.03565835952758789
1701881169272355600,0.54235546875,0.7161502838134766,0.049698591232299805,-0.007959365844726562
1701881169281947400,0.551947509765625,0.5341100692749023,-0.03963351249694824,-0.005546092987060547
1701881169291540000,0.5615400390625,0.5510392189025879,-0.1805133819580078,-0.0363469123840332
1701881169301133000,0.571133056640625,0.7539787292480469,-0.2940216064453125,-0.03737354278564453
1701881169310725400,0.580725341796875,0.8027868270874023,-0.33106207847595215,-0.10253190994262695
1701881169320317200,0.590317138671875,0.7417154312133789,-0.3126070499420166,-0.07972288131713867
1701881169329909800,0.59990966796875,0.5978889465332031,-0.283001184463501,-0.10110712051391602
1701881169339502800,0.6095029296875,0.45805883407592773,-0.2317945957183838,-0.1310291290283203
1701881169349095200,0.61909521484375,0.3268122673034668,-0.2126626968383789,-0.23328614234924316
1701881169358687000,0.62868701171875,0.15078210830688477,-0.21469545364379883,-0.27528977394104004
1701881169368279300,0.638279296875,-0.10032176971435547,-0.19921016693115234,-0.14314699172973633
1701881169377872600,0.64787255859375,-0.2092452049255371,-0.1853940486907959,0.07713460922241211
1701881169387465000,0.65746484375,-0.34955596923828125,-0.20126080513000488,0.32834720611572266
1701881169397056800,0.667056884765625,-0.4985184669494629,-0.13995838165283203,0.3910098075866699
1701881169406649000,0.676649169921875,-0.46265411376953125,-0.12234711647033691,0.445223331451416
1701881169416242400,0.686242431640625,-0.42496299743652344,-0.07230901718139648,0.530916690826416
1701881169425834800,0.695834716796875,-0.4452090263366699,-0.04526495933532715,0.5354523658752441
1701881169435426600,0.705426513671875,-0.414764404296875,-0.00083160400390625,0.4430513381958008
1701881169445019000,0.715018798828125,-0.37758588790893555,0.03743338584899902,0.3183112144470215
1701881169454612200,0.7246123046875,-0.27443838119506836,0.04762625694274902,0.2745981216430664
1701881169464204500,0.73420458984375,-0.035582542419433594,0.05414843559265137,0.33542633056640625
1701881169473796400,0.74379638671875,0.05826377868652344,0.046326398849487305,0.4028482437133789
1701881169483388700,0.753388671875,-0.018467426300048828,0.06973528861999512,0.4916725158691406
1701881169492982000,0.76298193359375,-0.15210914611816406,0.06647729873657227,0.4437270164489746
1701881169502574300,0.77257421875,-0.2401885986328125,0.04057192802429199,0.37170886993408203
1701881169512166100,0.782166259765625,-0.2165536880493164,-0.0046579837799072266,0.3341193199157715
1701881169521758500,0.791758544921875,-0.15616464614868164,-0.021761655807495117,0.30928897857666016
1701881169531351800,0.801351806640625,-0.1084747314453125,-0.0745842456817627,0.2840151786804199
1701881169540944100,0.810944091796875,-0.018353939056396484,-0.09918904304504395,0.27150964736938477
1701881169550536000,0.820535888671875,0.0030336380004882812,-0.08454751968383789,0.23839378356933594
1701881169560128300,0.830128173828125,0.06888055801391602,-0.09301376342773438,0.19268274307250977
1701881169569721600,0.8397216796875,0.19967317581176758,-0.09254693984985352,0.1296534538269043
1701881169579314000,0.84931396484375,0.3260512351989746,-0.08913421630859375,0.03960275650024414
1701881169588905700,0.85890576171875,0.4141254425048828,-0.1403050422668457,-0.07878637313842773
1701881169598498000,0.868498046875,0.49880266189575195,-0.16336607933044434,-0.17483854293823242
1701881169608091400,0.87809130859375,0.5741791725158691,-0.15948176383972168,-0.17692327499389648
1701881169617683700,0.88768359375,0.5038595199584961,-0.09345364570617676,-0.19099855422973633
1701881169627275500,0.897275634765625,0.41483211517333984,-0.08851313591003418,-0.07755088806152344
1701881169636867800,0.906867919921875,0.21575355529785156,-0.09300541877746582,0.04099321365356445
1701881169646461200,0.916461181640625,-0.11189603805541992,-0.08031129837036133,0.08756685256958008
1701881169656053500,0.926053466796875,-0.5136075019836426,-0.04476571083068848,0.1349802017211914
1701881169665645300,0.935645263671875,-0.8000783920288086,0.011577129364013672,0.17618942260742188
1701881169675237600,0.945237548828125,-0.8583011627197266,-0.021973609924316406,0.31909942626953125
1701881169684831000,0.9548310546875,-0.611112117767334,-0.028359413146972656,0.4960474967956543
1701881169694423300,0.96442333984375,-0.20508337020874023,-0.04645586013793945,0.5506644248962402
1701881169704015000,0.97401513671875,0.20697975158691406,-0.1379861831665039,0.49166202545166016
1701881169713607400,0.983607421875,0.5460586547851562,-0.21668791770935059,0.35168886184692383
1701881169723200800,0.99320068359375,0.819307804107666,-0.24373102188110352,0.22841691970825195
1701881169732793000,1.00279296875,0.9709954261779785,-0.2726726531982422,0.07806968688964844
1701881169742385000,1.012385009765625,1.0109076499938965,-0.2801778316497803,-0.006061077117919922
1701881169751977200,1.021977294921875,0.8736038208007812,-0.2114880084991455,-0.029098987579345703
1701881169761570600,1.031570556640625,0.6882381439208984,-0.11846351623535156,0.0015840530395507812
1701881169771163000,1.041162841796875,0.4629049301147461,-0.05452728271484375,-0.011892318725585938
1701881169780754700,1.050754638671875,0.3388829231262207,0.007946014404296875,0.014952659606933594
1701881169790347000,1.060346923828125,0.25847721099853516,-0.01581406593322754,0.11025524139404297
1701881169799940400,1.0699404296875,0.26796531677246094,0.014559030532836914,0.22092485427856445
1701881169809532700,1.07953271484375,0.46431779861450195,0.028883695602416992,0.27664613723754883
1701881169819124500,1.08912451171875,0.7990880012512207,-0.09725356101989746,0.33187007904052734
1701881169828716800,1.098716796875,1.063563346862793,-0.17361068725585938,0.31944799423217773
1701881169838310100,1.10831005859375,1.2005681991577148,-0.18805313110351562,0.2410135269165039
1701881169847902500,1.11790234375,1.2694902420043945,-0.23912262916564941,0.20612192153930664
1701881169857494300,1.127494384765625,1.3073639869689941,-0.29573559761047363,0.21642112731933594
1701881169867086600,1.137086669921875,1.258000373840332,-0.34456944465637207,0.11828947067260742
1701881169876680000,1.146679931640625,1.1022276878356934,-0.4187328815460205,0.018601417541503906
1701881169886272300,1.156272216796875,0.9367737770080566,-0.498607873916626,-0.07474040985107422
1701881169895864000,1.165864013671875,0.7588820457458496,-0.6016323566436768,-0.1693401336669922
1701881169905456400,1.175456298828125,0.5075540542602539,-0.5365316867828369,-0.3867192268371582
1701881169915049700,1.1850498046875,0.06305503845214844,-0.3421761989593506,-0.4623737335205078
1701881169924642000,1.19464208984375,-0.4672102928161621,-0.2574899196624756,-0.3542637825012207
1701881169934233900,1.20423388671875,-0.9487385749816895,-0.26383399963378906,-0.1575455665588379
1701881169943826200,1.213826171875,-1.1628656387329102,-0.2500321865081787,-0.12710094451904297
1701881169953419500,1.22341943359375,-1.3313288688659668,-0.2613222599029541,-0.25942182540893555
1701881169963011800,1.23301171875,-1.5286951065063477,-0.35218095779418945,-0.3147416114807129
1701881169972603600,1.242603759765625,-1.5888638496398926,-0.40522050857543945,-0.5042314529418945
1701881169982196000,1.252196044921875,-1.4129514694213867,-0.46290040016174316,-0.3687868118286133
1701881169991789300,1.261789306640625,-0.7944879531860352,-0.5186657905578613,0.02898120880126953
1701881170001381600,1.271381591796875,0.11433601379394531,-0.4982001781463623,0.7052145004272461
1701881170010973400,1.280973388671875,0.3803219795227051,-0.3370029926300049,0.03870820999145508
1701881170020565800,1.290565673828125,0.20582962036132812,-0.3952617645263672,0.20480108261108398
1701881170030159000,1.3001591796875,0.15288972854614258,-0.46196889877319336,0.17174291610717773
1701881170039751400,1.30975146484375,0.09619903564453125,-0.5598597526550293,-0.17008209228515625
1701881170049343200,1.31934326171875,-0.15170907974243164,-0.600909948348999,-0.6626057624816895
1701881170058935600,1.328935546875,-0.363278865814209,-0.5489108562469482,-1.2878236770629883
1701881170068529000,1.33852880859375,-0.4376678466796875,-0.5582981109619141,-1.830780029296875
1701881170078121200,1.348121337890625,-0.49116039276123047,-0.6339309215545654,-2.136107921600342
1701881170087712800,1.357712646484375,-0.4750509262084961,-0.6794593334197998,-2.257408618927002
1701881170097305300,1.367305419921875,-0.34969186782836914,-0.8541598320007324,-2.185987949371338
1701881170106898700,1.376898681640625,-0.38671064376831055,-0.9212484359741211,-1.8908038139343262
1701881170116491000,1.386490966796875,-0.5537099838256836,-0.7628707885742188,-1.4317231178283691
1701881170126082600,1.39608251953125,-0.6587185859680176,-0.5339570045471191,-0.9577779769897461
1701881170135675100,1.405675048828125,-0.7070841789245605,-0.3694343566894531,-0.3841414451599121
1701881170145268500,1.4152685546875,-0.48515987396240234,-0.4040663242340088,0.13105440139770508
1701881170154860800,1.42486083984375,0.02521657943725586,-0.4947659969329834,0.38640642166137695
1701881170164452400,1.434452392578125,0.23245811462402344,-0.27741098403930664,0.7032804489135742
1701881170174045000,1.444044921875,-0.0821390151977539,-0.42600536346435547,1.4679336547851562
1701881170183638300,1.45363818359375,-0.7192413806915283,-0.3413581848144531,1.5942449569702148
1701881170193230600,1.463230712890625,-1.2404813766479492,-0.1556103229522705,1.4616317749023438
1701881170202822100,1.472822265625,-1.4969682693481445,-0.030622243881225586,1.6211986541748047
1701881170212414700,1.482414794921875,-1.5347378253936768,0.1502213478088379,1.6474952697753906
1701881170222008000,1.492008056640625,-1.4920902252197266,0.3381631374359131,1.4972515106201172
1701881170231600400,1.501600341796875,-1.4226689338684082,0.4256575107574463,1.338505744934082
1701881170241192000,1.51119189453125,-1.1342976093292236,0.39429521560668945,1.1593103408813477
1701881170250784500,1.520784423828125,-0.801332950592041,0.35199451446533203,1.0270624160766602
1701881170260377900,1.5303779296875,-0.49742722511291504,0.2883870601654053,0.9795866012573242
1701881170269970200,1.53997021484375,-0.1956787109375,0.18465161323547363,1.0547447204589844
1701881170279561700,1.549561767578125,0.10866451263427734,0.09624648094177246,1.0857572555541992
1701881170289154300,1.559154296875,0.3544893264770508,0.002114534378051758,1.0242385864257812
1701881170298747600,1.56874755859375,0.49028921127319336,-0.17949700355529785,0.9360599517822266
1701881170308340000,1.578340087890625,0.5682902336120605,-0.34936583042144775,1.0144681930541992
1701881170317931500,1.587931640625,0.7445268630981445,-0.4192103147506714,1.1937685012817383
1701881170327524000,1.597524169921875,0.9573140144348145,-0.4230560064315796,1.121999740600586
1701881170337117400,1.607117431640625,0.8942961692810059,-0.4002683162689209,1.0826826095581055
1701881170346709800,1.616709716796875,0.5298810005187988,-0.29547691345214844,0.8890361785888672
1701881170356301300,1.62630126953125,0.09318685531616211,-0.18221306800842285,0.5748510360717773
1701881170365894000,1.635893798828125,-0.2436542510986328,-0.10151124000549316,0.12734317779541016
1701881170375487200,1.6454873046875,-0.2775404453277588,-0.12266719341278076,-0.31876277923583984
1701881170385079600,1.65507958984375,-0.24083518981933594,-0.23889052867889404,-0.3566017150878906
1701881170394671000,1.664671142578125,-0.16095256805419922,-0.3323007822036743,-0.1515045166015625
1701881170404263700,1.674263671875,0.10186100006103516,-0.3536444902420044,0.09533405303955078
1701881170413857000,1.68385693359375,0.3340458869934082,-0.3097567558288574,0.6277637481689453
1701881170423449300,1.693449462890625,0.44712066650390625,-0.28497254848480225,1.0096731185913086
1701881170433041000,1.703041015625,0.3966641426086426,-0.27292168140411377,1.1553936004638672
1701881170442633500,1.712633544921875,0.1974496841430664,-0.26114511489868164,1.111572265625
1701881170452226800,1.722226806640625,-0.1633167266845703,-0.23738229274749756,0.9713668823242188
1701881170461819100,1.731819091796875,-0.5643293857574463,-0.06528031826019287,0.6434764862060547
1701881170471410700,1.74141064453125,-0.9669501781463623,0.20770668983459473,0.36247825622558594
1701881170481003300,1.751003173828125,-1.4901659488677979,0.3732594847679138,0.19185161590576172
1701881170490596600,1.7605966796875,-1.8766982555389404,0.5147674679756165,-0.0034151077270507812
1701881170500189000,1.77018896484375,-1.888866662979126,0.48067885637283325,-0.09103870391845703
1701881170509780500,1.779780517578125,-1.6895554065704346,0.2764476537704468,-0.12535476684570312
1701881170519373000,1.789373046875,-1.2961747646331787,0.041250526905059814,-0.1994028091430664
1701881170528966400,1.79896630859375,-0.6791651248931885,-0.044615209102630615,-0.29026317596435547
1701881170538558700,1.808558837890625,-0.05867958068847656,0.03524160385131836,-0.46494579315185547
1701881170548150300,1.818150390625,0.2414417266845703,-0.016924738883972168,-0.5256900787353516
1701881170557742800,1.827742919921875,0.31195497512817383,-0.07502210140228271,-0.6557331085205078
1701881170567336200,1.837336181640625,0.3325505256652832,-0.2760932147502899,-0.5353050231933594
1701881170576928500,1.846928466796875,0.36510705947875977,-0.337485134601593,-0.31054210662841797
1701881170586520000,1.85652001953125,0.41324806213378906,-0.3585889935493469,-0.03485393524169922
1701881170596112600,1.866112548828125,0.33200502395629883,-0.279579222202301,0.19391632080078125
1701881170605706000,1.8757060546875,0.4606442451477051,-0.22530131042003632,0.40796756744384766
1701881170615298300,1.88529833984375,0.553123950958252,-0.11241219937801361,0.39758968353271484
1701881170624889900,1.894889892578125,0.4529709815979004,0.014063835144042969,0.21127033233642578
1701881170634482400,1.904482421875,0.5697221755981445,0.03933044150471687,-0.0020656585693359375
1701881170644075800,1.91407568359375,1.088770866394043,-0.040050674229860306,-0.1251373291015625
1701881170653668000,1.923668212890625,1.5584297180175781,-0.13100150227546692,-0.013652801513671875
1701881170663259600,1.933259765625,1.6113667488098145,-0.1723196655511856,-0.06602001190185547
1701881170672852200,1.942852294921875,1.6287555694580078,-0.10105790197849274,-0.3933286666870117
1701881170682445600,1.952445556640625,1.6026611328125,-0.16853390634059906,-0.5112628936767578
1701881170692038000,1.962037841796875,1.4873647689819336,-0.09026262164115906,-0.6821746826171875
1701881170701629400,1.97162939453125,1.2675457000732422,-0.14096295833587646,-0.6831560134887695
1701881170711222000,1.981221923828125,1.2941603660583496,-0.1249217689037323,-0.7636804580688477
1701881170720815400,1.9908154296875,1.4372096061706543,-0.07549110054969788,-0.6630706787109375
1701881170730407700,2.00040771484375,1.3233442306518555,0.022446632385253906,-0.62493896484375
1701881170739999200,2.009999267578125,1.0462441444396973,0.14120817184448242,-0.6061573028564453
1701881170749591800,2.019591796875,0.7175641059875488,0.2944467067718506,-0.8312349319458008
1701881170759185200,2.02918505859375,0.23598933219909668,0.21210673451423645,-0.6968975067138672
1701881170768777500,2.038777587890625,-0.4331519603729248,0.2507403492927551,-0.5641069412231445
1701881170778369000,2.048369140625,-0.9884774684906006,0.3023209571838379,-0.4262399673461914
1701881170787961600,2.057961669921875,-1.3326846361160278,0.37476539611816406,-0.4196176528930664
1701881170797555000,2.067554931640625,-1.4126601219177246,0.4103088080883026,-0.4998502731323242
1701881170807147300,2.077147216796875,-1.452600359916687,0.40174442529678345,-0.46884632110595703
1701881170816738800,2.08673876953125,-1.6713316440582275,0.33790016174316406,-0.2718524932861328
1701881170826331400,2.096331298828125,-1.8383283615112305,0.19003921747207642,-0.028595924377441406
1701881170835924700,2.1059248046875,-1.721025824546814,0.14445054531097412,0.3262462615966797
1701881170845517000,2.11551708984375,-1.5075256824493408,0.21175968647003174,0.6521110534667969
1701881170855108600,2.125108642578125,-1.171904444694519,0.271744966506958,0.7945585250854492
1701881170864701200,2.134701171875,-0.8889666795730591,0.2257556915283203,0.7124662399291992
1701881170874294500,2.14429443359375,-0.6363494396209717,0.07054853439331055,0.4752388000488281
1701881170883886800,2.153886962890625,-0.34392261505126953,-0.1130756139755249,0.12813091278076172
1701881170893478400,2.163478515625,-0.11833786964416504,-0.30260181427001953,-0.30068492889404297
1701881170903071000,2.173071044921875,0.11230158805847168,-0.49352550506591797,-0.7102594375610352
1701881170912664300,2.182664306640625,0.27628612518310547,-0.6912494897842407,-0.8816280364990234
1701881170922256600,2.192256591796875,0.4284954071044922,-0.7349730730056763,-0.9713191986083984
1701881170931848200,2.20184814453125,0.7013578414916992,-0.7910209894180298,-1.018254280090332
1701881170941440800,2.211440673828125,0.9695279598236084,-0.8584902286529541,-0.9285497665405273
1701881170951034000,2.2210341796875,0.9752874374389648,-0.9644238948822021,-0.9110965728759766
1701881170960626400,2.23062646484375,0.9007596969604492,-1.053828477859497,-0.9058084487915039
1701881170970218000,2.240218017578125,0.7990548610687256,-0.9604307413101196,-0.7133455276489258
1701881170979810600,2.249810546875,0.5762534141540527,-0.6513323783874512,-0.5104293823242188
1701881170989404000,2.25940380859375,0.3032228946685791,-0.30519556999206543,-0.3997344970703125
1701881170998996200,2.268996337890625,-0.07898163795471191,0.01862168312072754,-0.1917276382446289
1701881171008587800,2.278587890625,-0.5550835132598877,0.11338448524475098,0.0107269287109375
1701881171018180400,2.288180419921875,-0.9022080898284912,-0.05792856216430664,-0.24571514129638672
1701881171027773700,2.297773681640625,-0.8880553245544434,-0.0951002836227417,-0.5727758407592773
1701881171037366000,2.307365966796875,-0.600482702255249,0.0023899078369140625,-0.9826869964599609
1701881171046957600,2.31695751953125,-0.1228029727935791,-0.040604352951049805,-1.4597806930541992
1701881171056550100,2.326550048828125,0.32007288932800293,-0.08646249771118164,-1.514267921447754
1701881171066143500,2.3361435546875,0.6149334907531738,-0.04682135581970215,-1.4964427947998047
1701881171075735800,2.34573583984375,0.8734207153320312,-0.054639577865600586,-1.7727055549621582
1701881171085327400,2.355327392578125,1.2238991260528564,-0.09252166748046875,-1.873133659362793
1701881171094920000,2.364919921875,1.5433592796325684,-0.10089826583862305,-1.9115371704101562
1701881171104513300,2.37451318359375,1.7981164455413818,-0.10485959053039551,-2.0946860313415527
1701881171114105600,2.384105712890625,1.9700956344604492,-0.12446379661560059,-1.969034194946289
1701881171123697200,2.393697265625,1.821882963180542,-0.24639415740966797,-1.9613823890686035
1701881171133289700,2.403289794921875,1.5032708644866943,-0.5418651103973389,-2.022275924682617
1701881171142883000,2.412883056640625,1.238602876663208,-0.6536016464233398,-1.667473316192627
1701881171152475400,2.422475341796875,0.9599118232727051,-0.6428956985473633,-1.444528579711914
1701881171162067000,2.43206689453125,0.5043877363204956,-0.6945934295654297,-1.1688165664672852
1701881171171659500,2.441659423828125,0.21399283409118652,-0.6136555671691895,-0.8141508102416992
1701881171181252900,2.4512529296875,0.04234480857849121,-0.5041177272796631,-0.4455537796020508
1701881171190845200,2.46084521484375,-0.19290590286254883,-0.563960075378418,-0.186981201171875
1701881171200436700,2.470436767578125,-0.32508206367492676,-0.7075729370117188,-0.3547372817993164
1701881171210029300,2.480029296875,-0.36615514755249023,-0.8942828178405762,-0.6160097122192383
1701881171219622700,2.48962255859375,-0.5507429242134094,-1.1776671409606934,-0.4687776565551758
1701881171229215000,2.499215087890625,-0.49735742807388306,-1.2681612968444824,0.18913555145263672
1701881171238806500,2.508806640625,-0.3109016418457031,-1.2075920104980469,0.7274341583251953
1701881171248399000,2.518399169921875,-0.402901291847229,-1.0992074012756348,0.970423698425293
1701881171257992400,2.527992431640625,-0.5966285467147827,-1.125901222229004,1.3494939804077148
1701881171267584800,2.537584716796875,-0.6731031537055969,-1.0638794898986816,1.6937274932861328
1701881171277176300,2.54717626953125,-0.959568202495575,-0.942753791809082,1.6533994674682617
1701881171286769000,2.556768798828125,-1.4135432243347168,-0.7505655288696289,1.33135986328125
1701881171296362000,2.566362060546875,-1.811299204826355,-0.593470573425293,1.1153278350830078
1701881171305954600,2.57595458984375,-2.2232179641723633,-0.42087554931640625,1.1002874374389648
1701881171315546000,2.585546142578125,-2.5772507190704346,-0.1840229034423828,0.978215217590332
1701881171325138700,2.595138671875,-2.983576774597168,0.028405189514160156,1.1107454299926758
1701881171334731800,2.604731689453125,-4.038087368011475,0.12163686752319336,1.3058128356933594
1701881171344324400,2.614324462890625,-4.524334907531738,0.25238704681396484,0.35984039306640625
1701881171353916000,2.623916015625,-4.832082748413086,0.11760616302490234,-0.7097878456115723
1701881171363508500,2.633508544921875,-4.84097957611084,-0.18317270278930664,-1.440791130065918
1701881171373101600,2.6431015625,-4.791536808013916,-0.5391077995300293,-1.9871273040771484
1701881171382694100,2.652694091796875,-3.5405073165893555,-0.21370220184326172,-2.569392681121826
1701881171392285700,2.66228564453125,-1.7881187200546265,0.03700590133666992,-2.878246307373047
1701881171401878300,2.671878173828125,-0.22896963357925415,-0.49187564849853516,-3.055276393890381
1701881171411471400,2.681471435546875,0.6617631912231445,-1.152350902557373,-3.2177605628967285
1701881171421064000,2.69106396484375,1.0245606899261475,-1.5541000366210938,-3.4133081436157227
1701881171430655500,2.700655517578125,1.1340957880020142,-1.9418511390686035,-4.002643585205078
1701881171440248000,2.710248046875,0.900065004825592,-2.2503304481506348,-4.230525970458984
1701881171449841200,2.719841064453125,1.4560928344726562,-3.124096393585205,-1.4613256454467773
1701881171459433700,2.729433837890625,11.209239959716797,-8.672615051269531,19.660537719726562
1701881171469025300,2.739025390625,10.083867073059082,-3.7771692276000977,12.238709449768066
1701881171478617900,2.748617919921875,4.401744365692139,2.360179901123047,-1.3236083984375
1701881171488211000,2.7582109375,-8.297650337219238,1.1027684211730957,-0.5971903800964355
1701881171497803500,2.767803466796875,-15.436484336853027,-1.4616312980651855,0.5468430519104004
1701881171507395000,2.77739501953125,-3.535055637359619,1.2563071250915527,1.4855265617370605
1701881171516987600,2.786987548828125,1.84395170211792,2.2231431007385254,0.4322218894958496
1701881171526580700,2.796580810546875,-0.491058349609375,1.170515537261963,-2.3422117233276367
1701881171536173300,2.80617333984375,-0.9499009847640991,-0.15069818496704102,-1.5131096839904785
1701881171545764900,2.815764892578125,-1.1074135303497314,-0.6825966835021973,-1.5096373558044434
1701881171555357400,2.825357421875,-0.23627150058746338,-1.4667320251464844,-2.6349027156829834
1701881171564950500,2.834950439453125,2.376807928085327,-4.274377346038818,-2.9862704277038574
1701881171574543000,2.844543212890625,6.795736312866211,-4.246897220611572,0.07458925247192383
1701881171584134700,2.854134765625,0.6280238628387451,0.11516094207763672,-2.7765212059020996
1701881171593727200,2.863727294921875,0.9228994846343994,1.5112833976745605,-0.8828191757202148
1701881171603320300,2.8733203125,0.3415248990058899,1.3864736557006836,1.9115843772888184
1701881171612913000,2.882912841796875,-0.026562154293060303,2.1328463554382324,0.9392638206481934
1701881171622504400,2.89250439453125,-1.2884666919708252,2.581676483154297,-0.8989772796630859
1701881171632097000,2.902096923828125,-2.313790798187256,2.166079044342041,-1.6325066089630127
1701881171641690000,2.911690185546875,-1.6703064441680908,1.5262246131896973,-1.6325328350067139
1701881171651282700,2.92128271484375,-0.33563852310180664,0.6574549674987793,0.09634637832641602
1701881171660874200,2.930874267578125,2.0555942058563232,0.33364295959472656,0.7945647239685059
1701881171670466800,2.940466796875,3.0385661125183105,0.3232574462890625,0.3628096580505371
1701881171680060000,2.950059814453125,2.5963144302368164,-0.4265623092651367,0.03946256637573242
1701881171689652500,2.959652587890625,1.5193265676498413,-0.6634531021118164,0.06604862213134766
1701881171699244000,2.969244140625,-0.5767591595649719,-0.4184093475341797,0.18709564208984375
1701881171708836600,2.978836669921875,-2.3112709522247314,-0.06620025634765625,-0.043276309967041016
1701881171718429700,2.9884296875,-3.178314447402954,0.15547657012939453,-0.6894063949584961
1701881171728022300,2.998022216796875,-1.376937747001648,-0.05427265167236328,-0.6630940437316895
1701881171737613800,3.00761376953125,0.53922438621521,-0.36100101470947266,-0.253204345703125
1701881171747206400,3.017206298828125,1.236085295677185,-0.5533361434936523,0.01059722900390625
1701881171756799500,3.026799560546875,1.4301784038543701,-0.8366260528564453,0.07081913948059082
1701881171766392000,3.03639208984375,0.4227994978427887,-1.3864631652832031,0.13774490356445312
1701881171775983600,3.045983642578125,0.511387288570404,-1.4213371276855469,0.34984683990478516
1701881171785576200,3.055576171875,-0.27097785472869873,-1.1138639450073242,0.3063545227050781
1701881171795169300,3.065169189453125,0.10516950488090515,-1.8117589950561523,-0.33751630783081055
1701881171804761900,3.074761962890625,-0.45316216349601746,-2.7970046997070312,-0.15270400047302246
1701881171814353400,3.084353515625,-0.37283772230148315,-3.439335823059082,0.4469177722930908
1701881171823946000,3.093946044921875,1.7588930130004883,-2.322202682495117,-0.3176155090332031
1701881171833539000,3.1035390625,-0.26310551166534424,0.2678184509277344,-2.357184410095215
1701881171843131400,3.11313134765625,-1.4313477277755737,0.8678922653198242,-2.2153725624084473
1701881171852723200,3.12272314453125,-1.502453327178955,0.4661521911621094,-0.6744401454925537
1701881171862315500,3.1323154296875,-1.826987624168396,2.279026508331299,2.1070752143859863
1701881171871908900,3.141908935546875,-0.44480419158935547,3.95875883102417,1.3409638404846191
1701881171881501200,3.151501220703125,0.8254216909408569,4.5628156661987305,-0.11194038391113281
1701881171891093000,3.161093017578125,1.6624040603637695,4.598289489746094,-0.15496015548706055
1701881171900685600,3.170685546875,0.37188130617141724,4.470823764801025,0.19744229316711426
1701881171910278700,3.180278564453125,0.8281974792480469,4.149199962615967,-0.016336917877197266
1701881171919871000,3.18987109375,2.4017248153686523,3.858922004699707,-0.09557580947875977
1701881171929462800,3.199462890625,2.566523551940918,3.235421657562256,0.12287306785583496
1701881171939055400,3.209055419921875,2.2809598445892334,2.9731225967407227,-0.05880141258239746
1701881171948648400,3.2186484375,1.7339859008789062,2.2114453315734863,-0.3888874053955078
1701881171958240800,3.22824072265625,-0.03712427616119385,0.3617897033691406,-1.1796770095825195
1701881171967832600,3.23783251953125,-3.413336753845215,-1.7686758041381836,-1.9632861614227295
1701881171977425200,3.247425048828125,-5.502917766571045,-2.107752799987793,-0.9852700233459473
1701881171987018200,3.257018310546875,-4.147700309753418,-1.3355255126953125,-1.8387610912322998
1701881171996610600,3.266610595703125,-4.947573661804199,-3.2792558670043945,-1.7043404579162598
1701881172006202400,3.276202392578125,-4.345691680908203,-3.945021629333496,-0.7862715721130371
1701881172015795000,3.285794921875,-1.1477069854736328,-3.1908979415893555,0.31945228576660156
1701881172025388000,3.295387939453125,0.0851222574710846,-1.6520185470581055,-0.6713894605636597
1701881172034980400,3.30498046875,0.8511196970939636,-1.546072006225586,-2.050041675567627
1701881172044572200,3.314572265625,1.3521088361740112,-3.683051109313965,-2.842759847640991
1701881172054164700,3.324164794921875,1.58029043674469,-6.789059638977051,-2.2243595123291016
1701881172063757800,3.3337578125,2.369974374771118,-10.621848106384277,-0.5579490661621094
1701881172073350100,3.34335009765625,2.964414119720459,-13.988903045654297,3.2343251705169678
1701881172082942000,3.35294189453125,3.1509857177734375,-9.142614364624023,7.352882385253906
1701881172092534500,3.362534423828125,1.3414145708084106,-0.9936294555664062,3.6637930870056152
1701881172102127600,3.372127685546875,-0.44587522745132446,1.956777572631836,-1.6185007095336914
1701881172111720000,3.381719970703125,-1.381136178970337,1.2634773254394531,-2.075850486755371
1701881172121311700,3.391311767578125,-1.0227168798446655,0.09716606140136719,-0.6121839284896851
1701881172130904300,3.400904296875,-0.6233969926834106,0.26808929443359375,0.06457316875457764
1701881172140497400,3.410497314453125,-0.06815233826637268,0.25895214080810547,0.16877758502960205
1701881172150089700,3.42008984375,0.02401140332221985,0.12071609497070312,-0.13669157028198242
1701881172159681500,3.429681640625,-0.06196609139442444,0.061636924743652344,-0.24565398693084717
1701881172169274000,3.439274169921875,-0.13857680559158325,-0.04041290283203125,-0.15467453002929688
1701881172178867200,3.4488671875,-0.0195675790309906,-0.24281978607177734,-0.008772730827331543
1701881172188459500,3.45845947265625,0.16272249817848206,-0.40461254119873047,0.10736954212188721
1701881172198051300,3.46805126953125,0.25314390659332275,-0.4065380096435547,0.10807061195373535
1701881172207644000,3.477643798828125,0.20063570141792297,-0.2727985382080078,0.05680489540100098
1701881172217237000,3.487237060546875,0.07068070769309998,-0.1588897705078125,0.040227651596069336
1701881172226829300,3.496829345703125,-0.07856595516204834,-0.06475830078125,0.0751570463180542
1701881172236421000,3.506421142578125,-0.106087327003479,0.014521598815917969,0.028403401374816895
1701881172246013700,3.516013671875,-0.03688240051269531,0.01946258544921875,0.024970531463623047
1701881172255606800,3.525606689453125,0.019501030445098877,-0.0353240966796875,0.029526472091674805
1701881172265199000,3.53519921875,-0.005089282989501953,-0.058974266052246094,0.06616830825805664
1701881172274791000,3.544791015625,-0.17393940687179565,-0.053992271423339844,0.044347524642944336
1701881172284383500,3.554383544921875,-0.2080320119857788,-0.01561737060546875,-0.025954723358154297
1701881172293976600,3.5639765625,-0.18144619464874268,0.03221702575683594,-0.13309931755065918
1701881172303569000,3.57356884765625,0.11988198757171631,0.07083892822265625,-0.11584913730621338
1701881172313160700,3.58316064453125,0.24540579319000244,0.1362619400024414,-0.0768439769744873
1701881172322753300,3.592753173828125,-0.177997887134552,-0.04939746856689453,-0.04792654514312744
1701881172332346400,3.602346435546875,-0.2934446930885315,0.035317420959472656,-0.13662981986999512
1701881172341938700,3.611938720703125,0.026172339916229248,1.0864171981811523,-0.7610791921615601
1701881172351530500,3.621530517578125,1.1058303117752075,2.206800937652588,-1.7350666522979736
1701881172361123000,3.631123046875,1.5967800617218018,2.3864731788635254,-1.901742696762085
1701881172370716200,3.640716064453125,-0.5538405776023865,0.018242835998535156,-1.529963493347168
1701881172380308500,3.65030859375,-0.655795156955719,-2.802933692932129,2.420738697052002
1701881172389900300,3.659900390625,0.8141041398048401,-2.472461700439453,2.184891700744629
1701881172399492900,3.669492919921875,-0.02334761619567871,-0.5300092697143555,0.17019379138946533
1701881172409086000,3.6790859375,-0.3482203483581543,0.34082603454589844,-0.29801785945892334
1701881172418678300,3.68867822265625,-0.29703807830810547,0.2832012176513672,-0.41945481300354004
1701881172428270000,3.69827001953125,-0.10390233993530273,0.34288787841796875,-0.7038588523864746
1701881172437862700,3.707862548828125,0.31450504064559937,0.0849151611328125,-0.614086389541626
1701881172447455700,3.717455810546875,0.38317060470581055,-0.0815114974975586,-0.6003701686859131
1701881172457048000,3.727048095703125,0.38882535696029663,-0.1302623748779297,-0.6336468458175659
1701881172466640000,3.736639892578125,0.3948987126350403,-0.09262943267822266,-0.7045023441314697
1701881172476232400,3.746232421875,0.5222756266593933,-0.21012210845947266,-0.5989639759063721
1701881172485825500,3.755825439453125,0.36531198024749756,-0.13849163055419922,-0.68963623046875
1701881172495418000,3.765418212890625,0.27188557386398315,-0.04537773132324219,-0.7081204652786255
1701881172505009700,3.775009765625,0.26583802700042725,0.02154254913330078,-0.7183330059051514
1701881172514602000,3.78460205078125,0.24193954467773438,0.10061454772949219,-0.7008236646652222
1701881172524195300,3.7941953125,0.22670060396194458,0.12731075286865234,-0.631798267364502
1701881172533787600,3.80378759765625,0.21291005611419678,0.12082481384277344,-0.5975866317749023
1701881172543379500,3.81337939453125,0.1529853343963623,0.11699104309082031,-0.5410341024398804
1701881172552971800,3.8229716796875,0.18055427074432373,0.0011014938354492188,-0.44836103916168213
1701881172562565000,3.832565185546875,0.20262718200683594,-0.006825447082519531,-0.4505876302719116
1701881172572157400,3.842157470703125,0.23134392499923706,-0.0025663375854492188,-0.43265604972839355
1701881172581749200,3.851749267578125,0.293205201625824,-0.05783557891845703,-0.3684746026992798
1701881172591341600,3.861341552734375,0.3237859606742859,-0.11039924621582031,-0.3345212936401367
1701881172600935000,3.870934814453125,0.3278049826622009,-0.1579303741455078,-0.2808809280395508
1701881172610527200,3.88052734375,0.3006899356842041,-0.2531108856201172,-0.1914973258972168
1701881172620119000,3.890119140625,0.2855464220046997,-0.33140087127685547,-0.17417478561401367
1701881172629711400,3.89971142578125,0.25154680013656616,-0.4072427749633789,-0.14541304111480713
1701881172639304700,3.9093046875,0.1872314214706421,-0.5380620956420898,-0.11995887756347656
1701881172648897000,3.91889697265625,0.1697790026664734,-0.6019992828369141,-0.1050788164138794
1701881172658488800,3.92848876953125,0.1371448040008545,-0.6398496627807617,-0.14386224746704102
1701881172668081200,3.9380810546875,0.1183198094367981,-0.6803445816040039,-0.18360912799835205
1701881172677674500,3.947674560546875,0.10647225379943848,-0.6900386810302734,-0.2026994228363037
1701881172687267000,3.95726708984375,0.08036869764328003,-0.5996284484863281,-0.2816765308380127
1701881172696858600,3.966858642578125,0.10682052373886108,-0.6005687713623047,-0.22304177284240723
1701881172706451000,3.976450927734375,0.12029075622558594,-0.5707912445068359,-0.22542738914489746
1701881172716044300,3.986044189453125,0.12015736103057861,-0.4984865188598633,-0.16020476818084717
1701881172725636600,3.99563671875,0.078757643699646,-0.25943565368652344,-0.16815543174743652
1701881172735228400,4.005228515625,0.38313889503479004,-0.17162799835205078,-0.04348182678222656
1701881172744820700,4.01482080078125,0.19690018892288208,-0.03166675567626953,-0.072837233543396
1701881172754414000,4.0244140625,0.12996363639831543,0.0791473388671875,-0.016960859298706055
1701881172764006400,4.03400634765625,0.060378074645996094,0.3115692138671875,-0.06354737281799316
1701881172773598200,4.04359814453125,0.09578108787536621,0.543701171875,-0.13967061042785645
1701881172783190500,4.0531904296875,0.1850816011428833,0.5125741958618164,0.020650267601013184
1701881172792784000,4.062783935546875,0.08924072980880737,0.6344308853149414,0.011082649230957031
1701881172802376200,4.072376220703125,0.022876739501953125,0.6820716857910156,0.04702925682067871
1701881172811968000,4.081968017578125,0.06666779518127441,0.7130527496337891,0.0975027084350586
1701881172821560300,4.091560302734375,-0.03482556343078613,0.7632780075073242,0.02667856216430664
1701881172831153700,4.101153564453125,0.05262482166290283,0.7274589538574219,0.10143470764160156
1701881172840746000,4.11074609375,0.0009918212890625,0.5125494003295898,0.23480844497680664
1701881172850337800,4.120337890625,-0.04294389486312866,0.4534435272216797,0.1862504482269287
1701881172859930000,4.12993017578125,-0.08593288064002991,0.34216976165771484,0.11247062683105469
1701881172869523500,4.1395234375,-0.04138386249542236,0.13881206512451172,0.08711743354797363
1701881172879115800,4.14911572265625,0.055360883474349976,-0.14552783966064453,0.15108799934387207
1701881172888707600,4.15870751953125,0.1658557653427124,-0.4506196975708008,0.2701284885406494
1701881172898300000,4.1682998046875,0.2974054217338562,-0.7314720153808594,0.40070223808288574
1701881172907893200,4.177893310546875,0.39807453751564026,-0.9155807495117188,0.4576122760772705
1701881172917485600,4.187485595703125,0.43128424882888794,-0.990534782409668,0.5194177627563477
1701881172927077400,4.197077392578125,0.45018714666366577,-0.9181222915649414,0.4966592788696289
1701881172936669700,4.206669677734375,0.4150967001914978,-0.7078666687011719,0.4472215175628662
1701881172946263000,4.216262939453125,0.42582088708877563,-0.42319488525390625,0.348358154296875
1701881172955855400,4.22585546875,0.457811176776886,-0.1407003402709961,0.25491929054260254
1701881172965447200,4.235447265625,0.4619333744049072,0.09740734100341797,0.13452792167663574
1701881172975039500,4.24503955078125,0.37754735350608826,0.32474708557128906,-0.03391838073730469
1701881172984632800,4.2546328125,0.4392932653427124,0.2680654525756836,0.007652759552001953
1701881172994225200,4.26422509765625,0.3995407819747925,0.36055946350097656,-0.18924272060394287
1701881173003817000,4.27381689453125,0.3255150616168976,0.3807096481323242,-0.2938656806945801
1701881173013409300,4.2834091796875,0.3327663838863373,0.3508930206298828,-0.41379618644714355
1701881173023002600,4.293002685546875,0.3476945757865906,0.2877330780029297,-0.5044933557510376
1701881173032595000,4.302594970703125,0.303435742855072,0.1790323257446289,-0.5939056873321533
1701881173042186800,4.312186767578125,0.29778558015823364,0.09419727325439453,-0.6699624061584473
1701881173051779000,4.321779052734375,0.3255642354488373,-0.04813957214355469,-0.7165406942367554
1701881173061372400,4.331372314453125,0.41106927394866943,-0.18578052520751953,-0.7434977293014526
1701881173070964700,4.34096484375,0.39442765712738037,-0.28051280975341797,-0.8081773519515991
1701881173080556500,4.350556640625,0.3883359730243683,-0.33713817596435547,-0.8647482395172119
1701881173090148900,4.36014892578125,0.36189401149749756,-0.3963155746459961,-0.8796601295471191
1701881173099742200,4.3697421875,0.3745262026786804,-0.47722816467285156,-0.8439048528671265
1701881173109334500,4.37933447265625,0.39035171270370483,-0.5940780639648438,-0.8432353734970093
1701881173118926300,4.38892626953125,0.3332258462905884,-0.4624176025390625,-0.86002516746521
1701881173128519000,4.398518798828125,0.284848690032959,-0.41473388671875,-0.8532702922821045
1701881173138112000,4.408112060546875,0.23132939636707306,-0.3910226821899414,-0.8608641624450684
1701881173147704600,4.41770458984375,0.21095845103263855,-0.35536861419677734,-0.8659133911132812
1701881173157296000,4.427296142578125,0.24741634726524353,-0.33167362213134766,-0.8946759700775146
1701881173166888700,4.436888671875,0.25437790155410767,-0.3246431350708008,-0.9086580276489258
1701881173176481800,4.446481689453125,0.32470569014549255,-0.2912321090698242,-0.8982335329055786
1701881173186074400,4.456074462890625,0.30430105328559875,-0.25309085845947266,-0.8781063556671143
1701881173195666000,4.465666015625,0.23915281891822815,-0.2245502471923828,-0.7957795858383179
1701881173205258500,4.475258544921875,0.06261938810348511,-0.21752262115478516,-0.7731828689575195
1701881173214851600,4.4848515625,-0.06781928241252899,-0.22476863861083984,-0.757483959197998
1701881173224444200,4.494444091796875,-0.0004948079586029053,-0.2342548370361328,-0.769726037979126
1701881173234035700,4.50403564453125,0.06774318218231201,-0.19339561462402344,-0.728356122970581
1701881173243628300,4.513628173828125,0.1365911066532135,-0.1692218780517578,-0.612173318862915
1701881173253221400,4.523221435546875,0.1130923330783844,-0.1952219009399414,-0.5651253461837769
1701881173262814000,4.53281396484375,0.035298556089401245,-0.19253921508789062,-0.5396039485931396
1701881173272405500,4.542405517578125,0.005987793207168579,-0.14922523498535156,-0.5136213302612305
1701881173281998000,4.551998046875,0.0012234747409820557,-0.11796855926513672,-0.4635263681411743
1701881173291591200,4.561591064453125,-0.2551133930683136,-0.15130615234375,-0.5329488515853882
1701881173301183700,4.571183837890625,-0.43221306800842285,-0.1893329620361328,-0.6784729957580566
1701881173310775300,4.580775390625,-0.4198044240474701,-0.2295846939086914,-0.7277559041976929
1701881173320367900,4.590367919921875,-0.3970834016799927,-0.2552061080932617,-0.7019408941268921
1701881173329961000,4.5999609375,-0.3613443076610565,-0.3258504867553711,-0.677263617515564
1701881173339553500,4.609553466796875,-0.2614303231239319,-0.39522743225097656,-0.6284726858139038
1701881173349145000,4.61914501953125,-0.24889199435710907,-0.42326927185058594,-0.6246414184570312
1701881173358737700,4.628737548828125,-0.20199628174304962,-0.530792236328125,-0.6112229824066162
1701881173368330800,4.638330810546875,-0.04120439291000366,-0.6200189590454102,-0.5628740787506104
1701881173377923300,4.64792333984375,0.05755779147148132,-0.6230058670043945,-0.47797155380249023
1701881173387515000,4.657514892578125,0.004357039928436279,-0.5223817825317383,-0.3763071298599243
1701881173397107500,4.667107421875,-0.05849900841712952,-0.3622322082519531,-0.3477203845977783
1701881173406700500,4.676700439453125,-0.022744745016098022,-0.1624298095703125,-0.31115782260894775
1701881173416293000,4.686293212890625,0.07436951994895935,0.008031845092773438,-0.3470320701599121
1701881173425884700,4.695884765625,0.12322935461997986,0.11902046203613281,-0.421187162399292
1701881173435477200,4.705477294921875,0.1239783763885498,0.1621227264404297,-0.5162818431854248
1701881173445070300,4.7150703125,0.09276869893074036,0.126739501953125,-0.5797010660171509
1701881173454663000,4.724662841796875,0.08289417624473572,0.07540225982666016,-0.606921911239624
1701881173464254500,4.73425439453125,0.08071291446685791,0.005976676940917969,-0.5632319450378418
1701881173473847000,4.743846923828125,0.0668880045413971,-0.010609626770019531,-0.5063121318817139
1701881173483440400,4.7534404296875,0.0859023928642273,0.01529693603515625,-0.3942224979400635
1701881173493032700,4.76303271484375,0.14193862676620483,0.08541297912597656,-0.28404831886291504
1701881173502624300,4.772624267578125,0.19001245498657227,0.18486690521240234,-0.1782296895980835
1701881173512216800,4.782216796875,0.19321048259735107,0.2873353958129883,-0.10941493511199951
1701881173521810200,4.79181005859375,0.2751321792602539,0.3174886703491211,-0.08146286010742188
1701881173531402500,4.801402587890625,0.2892884612083435,0.3071775436401367,-0.11948764324188232
1701881173540994000,4.810994140625,0.2704584002494812,0.25479888916015625,-0.1231921911239624
1701881173550586600,4.820586669921875,0.2408747673034668,0.1657562255859375,-0.13329052925109863
1701881173560180000,4.830179931640625,0.18922358751296997,0.07598114013671875,-0.14735138416290283
1701881173569772300,4.839772216796875,0.11149349808692932,-0.019283294677734375,-0.12564754486083984
1701881173579364000,4.849364013671875,0.0501750111579895,-0.10589122772216797,-0.09266424179077148
1701881173588956400,4.858956298828125,0.025207489728927612,-0.16519832611083984,-0.0580906867980957
1701881173598549800,4.8685498046875,0.021004825830459595,-0.19068145751953125,-0.06701338291168213
1701881173608142000,4.87814208984375,0.03681892156600952,-0.1758108139038086,-0.08786535263061523
1701881173617734000,4.88773388671875,0.03693002462387085,-0.14243030548095703,-0.12504732608795166
1701881173627326200,4.897326171875,0.02933138608932495,-0.09783077239990234,-0.15677452087402344
1701881173636919600,4.90691943359375,0.030725061893463135,-0.04921913146972656,-0.14994752407073975
1701881173646511900,4.916511962890625,0.024709373712539673,-0.024885177612304688,-0.10980236530303955
1701881173656103700,4.926103759765625,0.042420804500579834,0.0038537979125976562,-0.05093681812286377
1701881173665696000,4.935696044921875,0.05054435133934021,0.01577472686767578,-0.025234580039978027
1701881173675289300,4.945289306640625,0.0771501362323761,-0.017101287841796875,0.019649386405944824
1701881173684881700,4.954881591796875,0.07930737733840942,-0.042263031005859375,0.05974471569061279
1701881173694473500,4.964473388671875,0.045571982860565186,-0.05281829833984375,0.08785629272460938
1701881173704065800,4.974065673828125,-0.0279063880443573,-0.06783199310302734,0.08301019668579102
1701881173713659100,4.9836591796875,-0.10691793262958527,-0.08487892150878906,0.04799163341522217
1701881173723251500,4.99325146484375,-0.13693471252918243,-0.08981609344482422,-0.03094959259033203
1701881173732843300,5.00284326171875,-0.12816758453845978,-0.11346721649169922,-0.08963668346405029
1701881173742435600,5.012435546875,-0.14230240881443024,-0.1343088150024414,-0.13299167156219482
1701881173752029000,5.02202880859375,-0.13217778503894806,-0.14774799346923828,-0.12157714366912842
1701881173761621500,5.03162158203125,-0.08920066058635712,-0.1492290496826172,-0.14115822315216064
1701881173771213000,5.041213134765625,-0.05862708389759064,-0.11307334899902344,-0.14895927906036377
1701881173780805600,5.0508056640625,-0.05668999254703522,-0.08702945709228516,-0.1477644443511963
1701881173790398700,5.060398681640625,-0.0385434627532959,-0.05440235137939453,-0.1397339105606079
1701881173799991300,5.0699912109375,-0.01592370867729187,-0.024749755859375,-0.1252228021621704
1701881173809582800,5.079582763671875,0.017872780561447144,-0.007427215576171875,-0.1112966537475586
1701881173819175400,5.089175537109375,0.006043910980224609,0.0072002410888671875,-0.08841359615325928
1701881173828768500,5.0987685546875,-0.010593265295028687,0.030956268310546875,-0.09673070907592773
1701881173838361000,5.108361083984375,-0.03171154856681824,0.05431556701660156,-0.1072537899017334
1701881173847952600,5.11795263671875,-0.04571165144443512,0.07959365844726562,-0.10133731365203857
1701881173857545200,5.127545166015625,-0.06685717403888702,0.0690908432006836,-0.0886683464050293
1701881173867138300,5.13713818359375,-0.07378439605236053,0.07757186889648438,-0.08338069915771484
1701881173876731000,5.14673095703125,-0.06452704966068268,0.04826831817626953,-0.06854379177093506
1701881173886322400,5.156322509765625,-0.050954923033714294,0.028898239135742188,-0.04432570934295654
1701881173895915000,5.1659150390625,-0.030975937843322754,-0.0018596649169921875,0.024652600288391113
1701881173905508400,5.17550830078125,0.0070912837982177734,-0.02733898162841797,0.05053818225860596
1701881173915100700,5.1851005859375,0.034675538539886475,-0.040617942810058594,0.09021341800689697
1701881173924692200,5.194692138671875,0.05204498767852783,-0.037174224853515625,0.08471190929412842
1701881173934284800,5.204284912109375,0.04550999402999878,-0.005488395690917969,0.08668696880340576
1701881173943878100,5.213878173828125,0.02287331223487854,0.016312599182128906,0.07247090339660645
1701881173953470500,5.223470458984375,-0.0036160945892333984,0.011900901794433594,0.07047057151794434
1701881173963062300,5.233062255859375,0.0014754235744476318,0.007628440856933594,0.04056251049041748
1701881173972654600,5.242654541015625,0.02771204710006714,0.008188247680664062,0.020885944366455078
1701881173982248000,5.252248046875,0.027601271867752075,0.0181884765625,0.018230319023132324
1701881173991840300,5.26184033203125,0.0035574138164520264,0.004425048828125,0.0342174768447876
1701881174001432000,5.27143212890625,0.007696181535720825,-0.02795886993408203,0.012278079986572266
1701881174011024400,5.2810244140625,0.004290729761123657,-0.050403594970703125,0.014244318008422852
1701881174020617700,5.29061767578125,0.007422000169754028,-0.06072425842285156,0.013833165168762207
1701881174030210300,5.300210205078125,0.0005207061767578125,-0.05204200744628906,-0.012347221374511719
1701881174039801900,5.3098017578125,-0.0017413496971130371,-0.048224449157714844,-0.02867603302001953
1701881174049394200,5.319394287109375,0.0008039176464080811,-0.016223907470703125,-0.04709136486053467
1701881174058987500,5.328987548828125,0.017530113458633423,-0.0035734176635742188,-0.03684890270233154
1701881174068579800,5.338579833984375,-0.0010641515254974365,-0.012338638305664062,-0.033956170082092285
1701881174078171600,5.348171630859375,-0.037719935178756714,0.000209808349609375,-0.02427196502685547
1701881174087764200,5.35776416015625,-0.06153246760368347,0.012543678283691406,-0.038401007652282715
1701881174097357300,5.367357421875,-0.06812113523483276,0.02939319610595703,-0.059354186058044434
1701881174106950000,5.376949951171875,-0.06269028782844543,0.029481887817382812,-0.04935634136199951
1701881174116541400,5.38654150390625,-0.06898251175880432,0.036667823791503906,-0.03223681449890137
1701881174126134000,5.396134033203125,-0.07539194822311401,0.04843425750732422,-0.022462844848632812
1701881174135727000,5.40572705078125,-0.08715251088142395,0.07410144805908203,-0.0010613203048706055
1701881174145319700,5.415319580078125,-0.06438064575195312,0.11111164093017578,0.015522480010986328
1701881174154911200,5.4249111328125,-0.06409862637519836,0.14281082153320312,0.010992646217346191
1701881174164503800,5.43450390625,-0.0857643187046051,0.1434316635131836,0.02593839168548584
1701881174174097000,5.444096923828125,-0.09810861945152283,0.13941192626953125,0.024818778038024902
1701881174183689500,5.453689453125,-0.10370105504989624,0.10966968536376953,0.05048966407775879
1701881174193281000,5.463281005859375,-0.10278663039207458,0.08519649505615234,0.0810931921005249
1701881174202873600,5.47287353515625,-0.11423081159591675,0.0635519027709961,0.09066104888916016
1701881174212467000,5.482467041015625,-0.10011649131774902,0.063507080078125,0.11711597442626953
1701881174222059300,5.492059326171875,-0.11512911319732666,0.032886505126953125,0.13416528701782227
1701881174231650800,5.50165087890625,-0.13028854131698608,-0.011348724365234375,0.1323164701461792
1701881174241243400,5.511243408203125,-0.12427663803100586,-0.03600788116455078,0.14013230800628662
1701881174250836700,5.520836669921875,-0.1349034607410431,-0.04379844665527344,0.1360405683517456
1701881174260429000,5.530428955078125,-0.1429431438446045,-0.05147361755371094,0.13907146453857422
1701881174270020900,5.540020751953125,-0.1621895730495453,-0.06140899658203125,0.14886701107025146
1701881174279613200,5.54961328125,-0.16200155019760132,-0.052379608154296875,0.1629711389541626
1701881174289206500,5.55920654296875,-0.1240314245223999,-0.045917510986328125,0.1694045066833496
1701881174298798800,5.568798828125,-0.0423184335231781,-0.018476486206054688,0.18937146663665771
1701881174308390700,5.578390625,-0.01187443733215332,0.02254199981689453,0.21098899841308594
1701881174317983000,5.58798291015625,0.013029694557189941,0.07454586029052734,0.2199784517288208
1701881174327576300,5.597576416015625,0.008748948574066162,0.11615180969238281,0.23066115379333496
1701881174337168600,5.607168701171875,0.006457626819610596,0.14519786834716797,0.21723437309265137
1701881174346760400,5.616760498046875,-0.006104111671447754,0.1689310073852539,0.18716037273406982
1701881174356353000,5.62635302734375,-0.014901399612426758,0.1426839828491211,0.18303334712982178
1701881174365946000,5.635946044921875,-0.043359577655792236,0.12383079528808594,0.1787729263305664
1701881174375538700,5.64553857421875,-0.07703930139541626,0.10752201080322266,0.15308642387390137
1701881174385130200,5.655130126953125,-0.11279958486557007,0.09141349792480469,0.1252741813659668
1701881174394722800,5.664722900390625,-0.12260162830352783,0.05195045471191406,0.11892271041870117
1701881174404316000,5.67431591796875,-0.11618131399154663,0.015417098999023438,0.11955094337463379
1701881174413908500,5.683908447265625,-0.13134413957595825,-0.020610809326171875,0.1338716745376587
1701881174423500000,5.6935,-0.11350321769714355,-0.020792007446289062,0.16425549983978271
1701881174433092600,5.703092529296875,-0.06561505794525146,0.004881858825683594,0.1564878225326538
1701881174442686000,5.71268603515625,-0.0494045615196228,0.05362510681152344,0.18419349193572998
1701881174452278300,5.7222783203125,-0.07351261377334595,0.08741569519042969,0.20686650276184082
1701881174461869800,5.731869873046875,-0.11344915628433228,0.07590103149414062,0.2597651481628418
1701881174471462400,5.74146240234375,-0.12407875061035156,0.08342456817626953,0.26714789867401123
1701881174481055700,5.7510556640625,-0.085238516330719,0.060237884521484375,0.26540911197662354
1701881174490648000,5.76064794921875,-0.031116485595703125,0.049223899841308594,0.24312841892242432
1701881174500240000,5.770239990234375,-0.011178135871887207,0.064300537109375,0.2805745601654053
1701881174509832400,5.77983251953125,0.027115225791931152,0.14039325714111328,0.32756662368774414
1701881174519425500,5.789425537109375,0.028956830501556396,0.21058177947998047,0.29012465476989746
1701881174529017900,5.799017822265625,0.05347377061843872,0.2607288360595703,0.35977303981781006
1701881174538609700,5.808609619140625,0.06449198722839355,0.28165626525878906,0.41198480129241943
1701881174548202200,5.8182021484375,0.059493422508239746,0.3044157028198242,0.3788093328475952
1701881174557795300,5.82779541015625,0.09020060300827026,0.2959737777709961,0.32287824153900146
1701881174567388000,5.837387939453125,0.13243257999420166,0.2474203109741211,0.28936994075775146
1701881174576979500,5.8469794921875,0.16543924808502197,0.23482131958007812,0.28986167907714844
1701881174586572000,5.856572021484375,0.13773763179779053,0.25054264068603516,0.2557027339935303
1701881174596165000,5.8661650390625,0.13505685329437256,0.2516794204711914,0.26015567779541016
1701881174605757700,5.8757578125,0.13120174407958984,0.21488094329833984,0.3187025785446167
1701881174615349200,5.885349365234375,0.11024582386016846,0.192626953125,0.3386411666870117
1701881174624941800,5.89494189453125,0.036206841468811035,0.1730499267578125,0.3817552328109741
1701881174634535200,5.90453515625,-0.09386062622070312,0.13265323638916016,0.3979986906051636
1701881174644127500,5.91412744140625,-0.26211464405059814,0.08122062683105469,0.40386128425598145
1701881174653719000,5.923718994140625,-0.2947503328323364,0.0023221969604492188,0.4299194812774658
1701881174663311600,5.9333115234375,-0.22998738288879395,-0.04008007049560547,0.3911712169647217
1701881174672905000,5.942905029296875,-0.2626076936721802,-0.03942680358886719,0.22368872165679932
1701881174682497300,5.952497314453125,-0.07031393051147461,-0.01748371124267578,0.1679311990737915
1701881174692089000,5.962089111328125,0.06132519245147705,-0.09455299377441406,0.10689830780029297
1701881174701681700,5.971681640625,0.022394537925720215,-0.08057689666748047,-0.012632489204406738
1701881174711274800,5.981274658203125,-0.07336997985839844,-0.05228137969970703,-0.07365906238555908
1701881174720867000,5.9908671875,-0.2165309190750122,-0.028409957885742188,-0.23156499862670898
1701881174730459000,6.000458984375,-0.24061882495880127,-0.015707969665527344,-0.4013805389404297
1701881174740051500,6.010051513671875,-0.07710635662078857,-0.07284164428710938,-0.5848793387413025
1701881174749644500,6.01964453125,0.14277994632720947,-0.1375141143798828,-0.9080425500869751
1701881174759237000,6.029237060546875,0.2055414915084839,-0.16267871856689453,-1.2129172086715698
1701881174768828700,6.03882861328125,0.12319660186767578,-0.16318511962890625,-1.4499964714050293
1701881174778421200,6.048421142578125,-0.09057295322418213,-0.23334884643554688,-1.7769267559051514
1701881174788014300,6.058014404296875,-0.41665494441986084,-0.3124122619628906,-2.144171953201294
1701881174797607000,6.06760693359375,-0.7646937966346741,-0.40106678009033203,-2.4282047748565674
1701881174807198500,6.077198486328125,-1.0188716650009155,-0.35584449768066406,-2.503559112548828
1701881174816791000,6.086791015625,-1.1017128229141235,0.023283004760742188,-2.567159652709961
1701881174826384400,6.09638427734375,-1.1517999172210693,0.5892515182495117,-2.6258726119995117
1701881174835976700,6.105976806640625,-0.9532421231269836,1.223649024963379,-2.384096145629883
1701881174845568500,6.115568603515625,-0.8710339069366455,1.8968863487243652,-2.1247732639312744
1701881174855160800,6.125160888671875,-0.7200644016265869,2.651190757751465,-1.6425200700759888
1701881174864754200,6.134754150390625,-0.9003956913948059,3.555108070373535,-0.5109042525291443
1701881174874346500,6.144346435546875,-1.4096884727478027,4.5076470375061035,0.22790734469890594
1701881174883938300,6.153938232421875,-1.4421229362487793,4.901538848876953,0.44603845477104187
1701881174893531000,6.16353076171875,-0.724307656288147,5.045682430267334,0.44476863741874695
1701881174903124000,6.1731240234375,0.36712586879730225,5.241457462310791,0.17289802432060242
1701881174912716500,6.182716552734375,1.1454795598983765,5.594000816345215,0.543087363243103
1701881174922308000,6.19230810546875,1.8974509239196777,5.971706867218018,1.327708125114441
1701881174931900700,6.201900634765625,2.2819223403930664,6.596890449523926,1.5368452072143555
1701881174941493800,6.21149365234375,2.282721996307373,7.466932773590088,1.12849760055542
1701881174951086300,6.22108642578125,2.135803699493408,8.90881633758545,0.40137040615081787
1701881174960678000,6.230677978515625,1.9180165529251099,10.181095123291016,0.3329429030418396
1701881174970270500,6.2402705078125,1.7095774412155151,10.931581497192383,-0.40007174015045166
1701881174979863800,6.24986376953125,2.2271196842193604,10.670147895812988,-0.9500260353088379
1701881174989456100,6.2594560546875,2.835235834121704,8.352465629577637,-0.4069017767906189
1701881174999048000,6.2690478515625,3.8664679527282715,6.015386581420898,0.3316940665245056
1701881175008640300,6.27864013671875,4.754593849182129,3.312596321105957,0.3909332752227783
1701881175018233600,6.288233642578125,6.904390335083008,-0.026538848876953125,0.2685422897338867
1701881175027826000,6.297825927734375,9.371683120727539,-3.5742435455322266,0.9429378509521484
1701881175037417700,6.307417724609375,9.583152770996094,-5.914388656616211,3.64182710647583
1701881175047010300,6.31701025390625,6.6816301345825195,-4.494574546813965,7.6203389167785645
1701881175056603400,6.326603271484375,4.546175956726074,-4.717048645019531,10.368572235107422
1701881175066196000,6.336196044921875,3.027277708053589,-4.812949180603027,9.188164710998535
1701881175075787500,6.34578759765625,2.8057310581207275,-4.33981990814209,6.747652053833008
1701881175085380000,6.355380126953125,3.6029815673828125,-2.74407958984375,5.7657575607299805
1701881175094973200,6.36497314453125,2.900752544403076,0.5146417617797852,5.048989772796631
1701881175104565800,6.374565673828125,1.0778260231018066,3.929987907409668,2.883932113647461
1701881175114157300,6.3841572265625,0.6832184791564941,6.277264595031738,1.0793471336364746
1701881175123750000,6.39375,0.8269690275192261,7.472159385681152,0.07879233360290527
1701881175133343200,6.40334326171875,0.7733680009841919,7.509794235229492,-0.34662842750549316
1701881175142935600,6.412935546875,1.2219440937042236,7.064783096313477,-0.21092796325683594
1701881175152527400,6.42252734375,1.4957753419876099,6.006775379180908,0.8926608562469482
1701881175162120000,6.432119873046875,1.9957549571990967,4.554180145263672,2.4160261154174805
1701881175171713000,6.441713134765625,2.9518423080444336,2.800283432006836,3.9319283962249756
1701881175181305600,6.4513056640625,3.860872507095337,0.6362686157226562,5.168152809143066
1701881175190897200,6.460897216796875,3.9721546173095703,-1.5775575637817383,5.675918102264404
1701881175200489700,6.47048974609375,3.112060546875,-4.398645401000977,6.702821731567383
1701881175210083000,6.4800830078125,1.4268851280212402,-7.259084701538086,6.102536201477051
1701881175219675400,6.48967529296875,-0.6229596138000488,-8.286303520202637,2.8363466262817383
1701881175229267000,6.499266845703125,-0.7151336669921875,-8.399744987487793,-0.49991118907928467
1701881175238859500,6.508859619140625,0.49043703079223633,-10.280491828918457,-2.330065965652466
1701881175248452900,6.518452880859375,2.1284749507904053,-11.096826553344727,-2.7650318145751953
1701881175258045200,6.528045166015625,-1.0292563438415527,-9.49482250213623,-3.2192044258117676
1701881175267637000,6.537636962890625,-1.5542573928833008,-7.740171432495117,-2.635918140411377
1701881175277229300,6.547229248046875,-1.1980276107788086,-8.68591022491455,-1.7369940280914307
1701881175286822700,6.55682275390625,-1.6571016311645508,-10.042764663696289,-1.1621052026748657
1701881175296415000,6.5664150390625,2.598154306411743,-11.033238410949707,-0.42695578932762146
1701881175306006800,6.5760068359375,-0.6098847389221191,-11.9034423828125,-2.1496472358703613
1701881175315599400,6.585599365234375,-0.4184837341308594,-11.154101371765137,-4.257832050323486
1701881175325192400,6.5951923828125,-0.6836452484130859,-8.82345199584961,-6.856565475463867
1701881175334785000,6.604784912109375,-2.0602293014526367,-7.0579657554626465,-6.0575270652771
1701881175344376600,6.61437646484375,-2.5187387466430664,-4.7155046463012695,-4.122687339782715
1701881175353969200,6.62396923828125,-2.4571990966796875,-3.854548931121826,-1.1043586730957031
1701881175363562500,6.6335625,-2.2217459678649902,-3.386204242706299,1.6719245910644531
1701881175373154800,6.64315478515625,-2.310995101928711,-2.663829803466797,3.6834959983825684
1701881175382746600,6.65274658203125,-2.649852752685547,-1.5581912994384766,5.007375717163086
1701881175392339000,6.6623388671875,-4.282843112945557,-0.2856316566467285,4.872267246246338
1701881175401932300,6.671932373046875,-4.835383892059326,0.964632511138916,4.565930366516113
1701881175411524600,6.681524658203125,-5.065581798553467,1.6688206195831299,4.323986053466797
1701881175421116400,6.691116455078125,-4.8568010330200195,1.893198013305664,4.221515655517578
1701881175430709000,6.700708984375,-4.067228317260742,1.7113378047943115,5.192501544952393
1701881175440302000,6.710302001953125,-3.6012392044067383,1.5162994861602783,6.178908348083496
1701881175449894700,6.719894775390625,-3.1187076568603516,0.9278004169464111,6.8475236892700195
1701881175459486200,6.729486328125,-2.109816551208496,0.622239351272583,6.442410469055176
1701881175469078800,6.739078857421875,-2.1091089248657227,1.0524189472198486,4.393932342529297
1701881175478672100,6.748672119140625,-2.149937629699707,1.5764116048812866,2.490541458129883
1701881175488264400,6.758264404296875,-2.65802001953125,2.000537633895874,0.9392142295837402
1701881175497856300,6.767856201171875,-3.070021629333496,3.20145845413208,0.39241981506347656
1701881175507448600,6.777448486328125,-3.532285690307617,4.647543430328369,0.27175331115722656
1701881175517042000,6.7870419921875,-4.51802921295166,5.683150768280029,-1.0742111206054688
1701881175526634200,6.79663427734375,-5.077300071716309,6.121268272399902,-2.036961078643799
1701881175536226000,6.80622607421875,-3.8834428787231445,5.64499044418335,-1.8865323066711426
1701881175545818600,6.815818603515625,-2.618044853210449,4.721122741699219,-1.0921306610107422
1701881175555411700,6.82541162109375,-1.9381961822509766,4.171993255615234,-0.6906213760375977
1701881175565004300,6.83500439453125,-0.9037265777587891,3.6025607585906982,-0.8235969543457031
1701881175574595800,6.844595947265625,-0.40850830078125,3.5151147842407227,-1.2441110610961914
1701881175584188400,6.8541884765625,-0.42704010009765625,3.558048725128174,-1.2970390319824219
1701881175593781800,6.86378173828125,-0.6698122024536133,3.481778860092163,-1.0288901329040527
1701881175603374000,6.8733740234375,-0.5698585510253906,3.031430959701538,-0.1904888153076172
1701881175612966000,6.8829658203125,-0.0462346076965332,2.6414084434509277,0.6729245185852051
1701881175622558200,6.89255810546875,0.6456923484802246,2.7608702182769775,1.0374794006347656
1701881175632151600,6.902151611328125,0.8836979866027832,3.275538444519043,1.1274003982543945
1701881175641744000,6.911743896484375,1.0718226432800293,4.120759963989258,1.0817303657531738
1701881175651335700,6.921335693359375,1.1331610679626465,4.747872352600098,1.1406731605529785
1701881175660928300,6.93092822265625,1.361593246459961,4.998079299926758,1.0608820915222168
1701881175670521300,6.940521240234375,2.475391387939453,5.191227912902832,1.124244213104248
1701881175680114000,6.950114013671875,3.028514862060547,5.052461624145508,1.4028968811035156
1701881175689705500,6.95970556640625,3.2306275367736816,4.642617702484131,1.92692232131958
1701881175699298000,6.969298095703125,3.3634696006774902,4.130940914154053,2.6490678787231445
1701881175708891400,6.978891357421875,3.30527400970459,3.983581066131592,2.597808837890625
1701881175718483700,6.988483642578125,3.0630292892456055,4.190160751342773,1.8731470108032227
1701881175728075500,6.998075439453125,2.829793691635132,4.457002639770508,0.9503598213195801
1701881175737668000,7.007668212890625,2.6442017555236816,4.473997592926025,0.04879617691040039
1701881175747261200,7.01726123046875,2.6574819087982178,4.136480808258057,-0.3053464889526367
1701881175756853500,7.026853515625,2.4061901569366455,3.441124200820923,-0.2618122100830078
1701881175766445300,7.0364453125,2.179255247116089,2.7013611793518066,-0.15915441513061523
1701881175776038000,7.046037841796875,2.211717367172241,1.9618661403656006,0.12704086303710938
1701881175785631200,7.05563134765625,2.4795727729797363,1.520727276802063,0.21481800079345703
1701881175795223600,7.0652236328125,2.7831103801727295,1.2723157405853271,0.2734222412109375
1701881175804815400,7.0748154296875,2.9362893104553223,1.0465853214263916,0.3152799606323242
1701881175814407700,7.08440771484375,3.00638484954834,0.8595414161682129,0.45559215545654297
1701881175824001000,7.0940009765625,2.937124490737915,0.5361014604568481,0.5307998657226562
1701881175833593300,7.10359326171875,2.7600183486938477,0.3910130262374878,0.35013771057128906
1701881175843185200,7.11318505859375,2.396059513092041,-0.05528455972671509,0.1712350845336914
1701881175852777700,7.12277783203125,2.2682695388793945,-0.9427601099014282,-0.1106710433959961
1701881175862370800,7.132370849609375,2.3081111907958984,-1.378119945526123,-0.5734348297119141
1701881175871963400,7.14196337890625,2.3208229541778564,-1.9296623468399048,-0.7956829071044922
1701881175881555000,7.151554931640625,2.5316426753997803,-2.4689698219299316,-0.8330450057983398
1701881175891147500,7.1611474609375,2.2773125171661377,-2.75667405128479,-0.8037452697753906
1701881175900740900,7.170740966796875,1.926692008972168,-2.844353199005127,-0.5551691055297852
1701881175910333200,7.180333251953125,1.4296107292175293,-2.349874496459961,-0.4674816131591797
1701881175919925000,7.189925048828125,1.392993450164795,-1.8266721963882446,-0.30750083923339844
1701881175929517300,7.199517333984375,0.9092960357666016,-1.3659453392028809,-0.5296440124511719
1701881175939110700,7.209110595703125,0.5762763023376465,-0.8563302755355835,-0.8865833282470703
1701881175948703000,7.218702880859375,0.28289246559143066,-0.5619145035743713,-1.3976068496704102
1701881175958294800,7.228294677734375,0.16370010375976562,-0.6109665036201477,-1.6342649459838867
1701881175967887400,7.237887451171875,0.31317806243896484,-0.7819328904151917,-1.7443370819091797
1701881175977480700,7.247480712890625,-0.08958125114440918,-0.32868605852127075,-1.9551057815551758
1701881175987073000,7.257072998046875,-0.07499265670776367,-0.03330338001251221,-1.7985858917236328
1701881175996664800,7.266664794921875,-0.07809925079345703,0.065329909324646,-1.493311882019043
1701881176006257200,7.276257080078125,-0.06635475158691406,-0.24428582191467285,-0.754852294921875
1701881176015850500,7.2858505859375,0.058789730072021484,-0.4075561761856079,-0.11758232116699219
1701881176025442800,7.29544287109375,-0.05031156539916992,-0.3413604497909546,0.554835319519043
1701881176035034600,7.30503466796875,0.11019468307495117,-0.3954942226409912,1.3850069046020508
1701881176044627200,7.314627197265625,0.5157232284545898,-0.7418532371520996,2.1038379669189453
1701881176054220300,7.32422021484375,0.16776251792907715,-0.19760680198669434,1.8553719520568848
1701881176063812900,7.333812744140625,-0.24941754341125488,0.6409765481948853,0.8390636444091797
1701881176073404400,7.343404296875,-0.3219566345214844,0.8982504606246948,1.0140371322631836
1701881176082997000,7.3529970703125,0.8160877227783203,0.41281282901763916,1.8677067756652832
1701881176092590300,7.36259033203125,1.2406091690063477,0.19384312629699707,1.1982078552246094
1701881176102182700,7.3721826171875,1.5115618705749512,1.189087986946106,-0.3049945831298828
1701881176111774500,7.3817744140625,2.0906949043273926,1.5624027252197266,-2.168720245361328
1701881176121366800,7.39136669921875,2.4384782314300537,1.24448561668396,-3.4891204833984375
1701881176130960100,7.400960205078125,1.8449996709823608,0.29868602752685547,-4.200222015380859
1701881176140552700,7.410552734375,1.480141282081604,-0.8057477474212646,-3.8882389068603516
1701881176150144300,7.420144287109375,0.8975327014923096,-1.0974524021148682,-3.701399803161621
1701881176159736800,7.42973681640625,0.08786463737487793,-1.3324458599090576,-3.6197891235351562
1701881176169330200,7.439330078125,-0.7235860824584961,-1.6408331394195557,-3.4531936645507812
1701881176178922500,7.448922607421875,-1.038196086883545,-2.113809585571289,-3.082098960876465
1701881176188514300,7.458514404296875,-1.4278745651245117,-2.3270535469055176,-2.489469528198242
1701881176198106600,7.468106689453125,-1.6989936828613281,-2.2071783542633057,-1.7526769638061523
1701881176207700000,7.477699951171875,-1.5671405792236328,-1.9973480701446533,-1.0035066604614258
1701881176217292500,7.48729248046875,-0.9918875694274902,-1.623988389968872,-0.231964111328125
1701881176226884000,7.496884033203125,-0.4367246627807617,-1.1204895973205566,0.49549293518066406
1701881176236476700,7.5064765625,0.1531352996826172,-0.698836088180542,0.7162742614746094
1701881176246069800,7.51606982421875,0.966275691986084,-0.29567229747772217,1.0420918464660645
1701881176255662300,7.525662353515625,1.4531993865966797,-0.1045912504196167,1.2530651092529297
1701881176265254000,7.53525390625,1.9598052501678467,0.05328166484832764,1.4945836067199707
1701881176274846500,7.544846435546875,2.0291595458984375,0.12373220920562744,1.930459976196289
1701881176284439800,7.554439697265625,1.7391293048858643,0.18578791618347168,2.2809648513793945
1701881176294032100,7.5640322265625,1.200695276260376,0.14735829830169678,2.3610901832580566
1701881176303624000,7.5736240234375,0.5943574905395508,-0.21367859840393066,2.4354968070983887
1701881176313216500,7.583216552734375,0.07188653945922852,-0.7042462825775146,2.3791589736938477
1701881176322809600,7.5928095703125,-0.3267645835876465,-1.146411418914795,2.413419723510742
1701881176332402200,7.602402099609375,-0.5706057548522949,-1.3707947731018066,2.2486572265625
1701881176341993700,7.61199365234375,-0.831324577331543,-1.4129612445831299,1.9018521308898926
1701881176351586300,7.62158642578125,-1.1225485801696777,-1.2790577411651611,1.6152763366699219
1701881176361179600,7.6311796875,-1.278989315032959,-0.9871563911437988,1.3158302307128906
1701881176370772200,7.640772216796875,-1.2122621536254883,-0.9319334030151367,1.1594676971435547
1701881176380363800,7.65036376953125,-1.0011649131774902,-0.7551789283752441,0.9281282424926758
1701881176389956400,7.659956298828125,-0.8256478309631348,-0.49925923347473145,0.7347011566162109
1701881176399549400,7.669549560546875,-0.6184296607971191,-0.1928563117980957,0.5113954544067383
1701881176409142000,7.67914208984375,-0.5120763778686523,0.09946036338806152,0.31673622131347656
1701881176418733600,7.688733642578125,-0.37686681747436523,0.24143707752227783,0.13077640533447266
1701881176428326100,7.698326171875,-0.20438289642333984,0.18710088729858398,-0.02472686767578125
1701881176437919500,7.70791943359375,-0.10667133331298828,0.14482629299163818,-0.14631366729736328
1701881176447511800,7.71751171875,-0.09247159957885742,0.1376814842224121,-0.31171512603759766
1701881176457103600,7.727103515625,-0.16597366333007812,0.1651219129562378,-0.40259456634521484
1701881176466696200,7.7366962890625,-0.2637953758239746,0.21446573734283447,-0.4445333480834961
1701881176476289300,7.746289306640625,-0.3724832534790039,0.2698582410812378,-0.5060625076293945
1701881176485881900,7.7558818359375,-0.44791412353515625,0.30951714515686035,-0.3011007308959961
1701881176495473400,7.765473388671875,-0.4779853820800781,0.42532646656036377,-0.2791280746459961
1701881176505066000,7.77506591796875,-0.4548835754394531,0.49474215507507324,-0.1128082275390625
1701881176514659300,7.784659423828125,-0.3267812728881836,0.4943828582763672,0.1224050521850586
1701881176524251600,7.794251708984375,-0.17182111740112305,0.5064128637313843,0.3397026062011719
1701881176533843500,7.803843505859375,-0.01300048828125,0.4818536043167114,0.5479240417480469
1701881176543436000,7.81343603515625,0.08813047409057617,0.5008012056350708,0.7083425521850586
1701881176553029000,7.823029052734375,0.1743488311767578,0.45663881301879883,0.7756938934326172
1701881176562621700,7.83262158203125,0.1951298713684082,0.46880996227264404,0.760014533996582
1701881176572213200,7.842213134765625,0.21201372146606445,0.4318147897720337,0.7049312591552734
1701881176581805800,7.851805908203125,0.2172260284423828,0.37644195556640625,0.5846738815307617
1701881176591399200,7.861399169921875,0.1986856460571289,0.3307065963745117,0.4474010467529297
1701881176600991500,7.870991455078125,0.15229177474975586,0.2838928699493408,0.3193397521972656
1701881176610583300,7.880583251953125,0.09676456451416016,0.20410728454589844,0.16745948791503906
1701881176620176000,7.89017578125,0.03225374221801758,0.12413620948791504,0.05400562286376953
1701881176629769000,7.89976904296875,-0.038767337799072266,0.045795321464538574,-0.05445384979248047
1701881176639361500,7.909361572265625,-0.12838172912597656,-0.04835939407348633,-0.13379669189453125
1701881176648953000,7.918953125,-0.17211103439331055,-0.13232600688934326,-0.15533733367919922
1701881176658545700,7.928545654296875,-0.18921375274658203,-0.24204504489898682,-0.09767818450927734
1701881176668139000,7.938138916015625,-0.15359830856323242,-0.32733893394470215,-0.03020191192626953
1701881176677731300,7.9477314453125,-0.10384368896484375,-0.364068865776062,0.05667686462402344
1701881176687323100,7.9573232421875,-0.023554325103759766,-0.40924525260925293,0.14147281646728516
1701881176696915700,7.966915771484375,0.03911304473876953,-0.4483513832092285,0.23148536682128906
1701881176706508800,7.9765087890625,0.10567331314086914,-0.44283759593963623,0.3409595489501953
1701881176716101400,7.986101318359375,0.12840747833251953,-0.4308178424835205,0.38379859924316406
1701881176725693000,7.99569287109375,0.1361832618713379,-0.4193720817565918,0.40308094024658203
1701881176735285500,8.005285400390624,0.11722183227539062,-0.3773059844970703,0.4298067092895508
1701881176744878800,8.01487890625,0.10263442993164062,-0.3451937437057495,0.4281139373779297
1701881176754471200,8.02447119140625,0.07812833786010742,-0.3015228509902954,0.4505882263183594
1701881176764063000,8.03406298828125,0.06997442245483398,-0.28666579723358154,0.4469718933105469
1701881176773655600,8.043655517578125,0.0758204460144043,-0.25512468814849854,0.44115638732910156
1701881176783248600,8.05324853515625,0.06936168670654297,-0.20932865142822266,0.4307594299316406
1701881176792841200,8.06284130859375,0.05278635025024414,-0.16370058059692383,0.3920459747314453
1701881176802432800,8.072432861328124,0.02631998062133789,-0.1396327018737793,0.35839176177978516
1701881176812025300,8.082025390625,-0.005013942718505859,-0.09672749042510986,0.28673648834228516
1701881176821618700,8.09161865234375,-0.043265342712402344,-0.07070493698120117,0.23667240142822266
1701881176831211000,8.1012109375,-0.08580303192138672,-0.052123427391052246,0.16269207000732422
1701881176840802800,8.110802734375,-0.11427783966064453,-0.026005983352661133,0.11803340911865234
1701881176850395400,8.1203955078125,-0.15340805053710938,-0.016808032989501953,0.06672096252441406
1701881176859988500,8.129988525390624,-0.13462305068969727,-0.012329936027526855,0.04172801971435547
1701881176869581000,8.1395810546875,-0.10381603240966797,-0.02897191047668457,0.05919837951660156
1701881176879172600,8.149172607421875,-0.07827615737915039,-0.07288634777069092,0.09978294372558594
1701881176888765200,8.15876513671875,-0.010854721069335938,-0.11531674861907959,0.16074371337890625
1701881176898358500,8.168358642578125,0.0338444709777832,-0.158339262008667,0.2088909149169922
1701881176907950800,8.177950927734376,0.07493448257446289,-0.19468367099761963,0.24444580078125
1701881176917542700,8.187542724609376,0.09552288055419922,-0.20352435111999512,0.27733325958251953
1701881176927135200,8.19713525390625,0.10806512832641602,-0.20661234855651855,0.26271533966064453
1701881176936728300,8.206728271484375,0.11303901672363281,-0.1807042360305786,0.2436199188232422
1701881176946321000,8.21632080078125,0.09912109375,-0.15674209594726562,0.21521282196044922
1701881176955912700,8.22591259765625,0.0880880355834961,-0.1394500732421875,0.1963481903076172
1701881176965505000,8.235505126953125,0.08475208282470703,-0.11468648910522461,0.16797924041748047
1701881176975098400,8.245098388671876,0.084228515625,-0.10601615905761719,0.16086578369140625
1701881176984691000,8.25469091796875,0.09120893478393555,-0.09438300132751465,0.1840648651123047
1701881176994282500,8.264282470703124,0.07987260818481445,-0.07286858558654785,0.19696712493896484
1701881177003875000,8.273875,0.09971475601196289,-0.05566048622131348,0.19513797760009766
1701881177013468400,8.283468505859375,0.08209037780761719,-0.05229926109313965,0.17879199981689453
1701881177023060700,8.293060791015625,0.05567216873168945,-0.05765080451965332,0.14351844787597656
1701881177032652500,8.302652587890625,-0.0029463768005371094,-0.07698273658752441,0.11099433898925781
1701881177042244900,8.312244873046875,-0.04595470428466797,-0.13175511360168457,0.050594329833984375
1701881177051838200,8.321838134765626,-0.09921741485595703,-0.17254304885864258,0.028699874877929688
1701881177061430500,8.331430419921874,-0.12033557891845703,-0.21881818771362305,0.016594886779785156
1701881177071022300,8.341022216796874,-0.1099390983581543,-0.2845158576965332,0.014147758483886719
1701881177080615000,8.350614990234375,-0.08507919311523438,-0.3124120235443115,0.01641368865966797
1701881177090208300,8.360208251953125,-0.043984413146972656,-0.34285950660705566,0.04696369171142578
1701881177099800600,8.369800537109375,-0.0010733604431152344,-0.35222434997558594,0.07707595825195312
1701881177109392400,8.379392333984375,0.03185415267944336,-0.32652831077575684,0.08551788330078125
1701881177118984700,8.388984619140626,0.050182342529296875,-0.2944514751434326,0.08442306518554688
1701881177128578000,8.398578125,0.08002614974975586,-0.2536954879760742,0.06688880920410156
1701881177138170600,8.408170654296875,0.08337736129760742,-0.2115612030029297,0.052124977111816406
1701881177147762200,8.41776220703125,0.07696056365966797,-0.15159249305725098,0.049605369567871094
1701881177157354800,8.427354736328125,0.07523632049560547,-0.10238289833068848,0.04963207244873047
1701881177166948000,8.436947998046875,0.07564687728881836,-0.05899381637573242,0.04279899597167969
1701881177176540700,8.446540771484376,0.0780324935913086,-0.021275758743286133,0.052814483642578125
1701881177186132200,8.45613232421875,0.08969402313232422,0.0015981197357177734,0.07921981811523438
1701881177195724800,8.465724853515624,0.09142017364501953,-0.00870966911315918,0.08647823333740234
1701881177205318000,8.47531787109375,0.1141519546508789,0.02158188819885254,0.11948490142822266
1701881177214910500,8.484910400390625,0.1198725700378418,0.018815040588378906,0.13073062896728516
1701881177224502000,8.494501953125,0.1234588623046875,0.030470848083496094,0.1415567398071289
1701881177234094600,8.504094482421875,0.1084451675415039,0.03486919403076172,0.12379837036132812
1701881177243688000,8.51368798828125,0.07281351089477539,0.029922008514404297,0.11319255828857422
1701881177253280300,8.5232802734375,0.06656694412231445,0.0038640499114990234,0.0930643081665039
1701881177262872000,8.5328720703125,0.018561840057373047,-0.012296676635742188,0.09888553619384766
1701881177272464600,8.542464599609374,-0.025990962982177734,-0.035455942153930664,0.09508800506591797
1701881177282058000,8.55205810546875,-0.05299949645996094,-0.04210495948791504,0.1101083755493164
1701881177291650300,8.561650390625,-0.10071706771850586,-0.0773475170135498,0.11791515350341797
1701881177301242000,8.5712421875,-0.13814306259155273,-0.10794878005981445,0.14219951629638672
1701881177310834700,8.580834716796875,-0.12326669692993164,-0.11995983123779297,0.1686878204345703
1701881177320427800,8.590427734375,-0.1420302391052246,-0.08038687705993652,0.18565082550048828
1701881177330020400,8.600020263671874,-0.1187143325805664,-0.13854312896728516,0.19573211669921875
1701881177339612000,8.60961181640625,-0.07984256744384766,-0.14668989181518555,0.2248668670654297
1701881177349204500,8.61920458984375,-0.051764488220214844,-0.1503891944885254,0.2163400650024414
1701881177358797800,8.6287978515625,-0.04141569137573242,-0.1496121883392334,0.22257137298583984
1701881177368390100,8.63839013671875,-0.020345687866210938,-0.14207816123962402,0.2080545425415039
1701881177377982000,8.64798193359375,-0.033170223236083984,-0.12544679641723633,0.20355796813964844
1701881177387574500,8.657574462890626,-0.04624223709106445,-0.12572121620178223,0.19235992431640625
1701881177397167600,8.667167724609374,-0.03851318359375,-0.12379193305969238,0.1934804916381836
1701881177406760200,8.67676025390625,-0.03149271011352539,-0.12455224990844727,0.18790721893310547
1701881177416351700,8.686351806640625,-0.04162168502807617,-0.0904386043548584,0.1875457763671875
1701881177425944300,8.6959443359375,-0.01692056655883789,-0.06656742095947266,0.1828937530517578
1701881177435537700,8.70553759765625,-0.02369403839111328,-0.07415032386779785,0.19515705108642578
1701881177445130200,8.715130126953126,-0.007270336151123047,-0.037034034729003906,0.1698284149169922
1701881177454721800,8.7247216796875,0.003927707672119141,-0.035948753356933594,0.16155052185058594
1701881177464314400,8.734314453125,-0.006371021270751953,-0.030227184295654297,0.16760730743408203
1701881177473907700,8.74390771484375,0.0022602081298828125,-0.024551868438720703,0.15239810943603516
1701881177483500000,8.7535,0.024699687957763672,-0.0305938720703125,0.13984203338623047
1701881177493091800,8.763091796875,-0.00022554397583007812,-0.00366973876953125,0.14629554748535156
1701881177502684400,8.772684326171875,-0.0012955665588378906,0.003975391387939453,0.15033435821533203
1701881177512277500,8.782277587890626,0.00191497802734375,0.00453639030456543,0.12154483795166016
1701881177521870000,8.7918701171875,0.018555641174316406,0.009902477264404297,0.12413883209228516
1701881177531461600,8.801461669921874,-0.0055522918701171875,-0.0008924007415771484,0.12680912017822266
1701881177541054200,8.81105419921875,-0.003543376922607422,-0.003889799118041992,0.10818767547607422
1701881177550647600,8.8206474609375,-0.025270938873291016,-0.015254974365234375,0.09204673767089844
1701881177560240000,8.830240234375,-0.02776336669921875,-0.01601576805114746,0.07353496551513672
1701881177569831700,8.839831787109375,-0.04172563552856445,0.03587675094604492,0.045554161071777344
1701881177579424300,8.84942431640625,-0.04553413391113281,0.026441097259521484,0.0010995864868164062
1701881177589017600,8.859017578125,-0.05340909957885742,0.032181739807128906,-0.012543678283691406
1701881177598610000,8.86860986328125,-0.04181241989135742,0.03641223907470703,-0.042946815490722656
1701881177608201700,8.87820166015625,-0.03699016571044922,0.0509791374206543,-0.07335090637207031
1701881177617794000,8.8877939453125,-0.03887653350830078,0.05667853355407715,-0.10132503509521484
1701881177627387400,8.897387451171875,-0.04478645324707031,0.05576586723327637,-0.11047935485839844
1701881177636980000,8.90697998046875,-0.08772897720336914,0.0809626579284668,-0.11510372161865234
1701881177646571500,8.916571533203125,-0.09618949890136719,0.07734036445617676,-0.12473678588867188
1701881177656164000,8.9261640625,-0.11328744888305664,0.1014394760131836,-0.10848808288574219
1701881177665757400,8.93575732421875,-0.08737659454345703,0.06990480422973633,-0.06180286407470703
1701881177675349800,8.945349853515625,-0.05512666702270508,0.031142473220825195,-0.0037965774536132812
1701881177684941600,8.954941650390625,-0.007524013519287109,-0.012075424194335938,0.01126861572265625
1701881177694534100,8.9645341796875,0.012898445129394531,-0.024164915084838867,0.040508270263671875
1701881177704127200,8.974127197265625,0.02557086944580078,-0.045566558837890625,0.07181739807128906
1701881177713719800,8.9837197265625,0.049555301666259766,-0.09231042861938477,0.09796619415283203
1701881177723311400,8.993311279296876,0.07041788101196289,-0.1052699089050293,0.10030937194824219
1701881177732904000,9.002904052734374,0.09294509887695312,-0.13684940338134766,0.09572219848632812
1701881177742497300,9.012497314453125,0.11233186721801758,-0.15412664413452148,0.08444404602050781
1701881177752089600,9.022089599609375,0.1406259536743164,-0.17151498794555664,0.08296489715576172
1701881177761681400,9.031681396484375,0.1425623893737793,-0.18449854850769043,0.07223987579345703
1701881177771274000,9.04127392578125,0.151611328125,-0.19780802726745605,0.054726600646972656
1701881177780867300,9.050867431640626,0.16066360473632812,-0.2064831256866455,0.035147666931152344
1701881177790459600,9.060459716796874,0.1387958526611328,-0.19171667098999023,0.016036033630371094
1701881177800051500,9.070051513671874,0.12426185607910156,-0.20554351806640625,-0.016813278198242188
1701881177809644000,9.07964404296875,0.10041284561157227,-0.19324111938476562,-0.041991233825683594
1701881177819237000,9.089237060546875,0.06276798248291016,-0.16451311111450195,-0.04792499542236328
1701881177828829700,9.09882958984375,0.04419565200805664,-0.1710810661315918,-0.04664039611816406
1701881177838421500,9.10842138671875,0.006756782531738281,-0.1745896339416504,-0.057143211364746094
1701881177848013800,9.118013916015625,-0.032761573791503906,-0.1582174301147461,-0.015773773193359375
1701881177857607200,9.127607177734374,-0.05549764633178711,-0.10316872596740723,0.0035457611083984375
1701881177867199700,9.13719970703125,-0.07856369018554688,-0.04746365547180176,0.04365253448486328
1701881177876791300,9.146791259765624,-0.10657215118408203,0.0226132869720459,0.0642404556274414
1701881177886383900,9.1563837890625,-0.13697147369384766,0.09970736503601074,0.14798450469970703
1701881177895977200,9.165977294921875,-0.1580066680908203,0.17172765731811523,0.1973896026611328
1701881177905569800,9.17556982421875,-0.18604183197021484,0.24547052383422852,0.2506580352783203
1701881177915161300,9.185161376953126,-0.17647600173950195,0.2522389888763428,0.2702827453613281
1701881177924754000,9.19475390625,-0.17671871185302734,0.2443525791168213,0.30156517028808594
1701881177934347000,9.204346923828124,-0.15633535385131836,0.1889035701751709,0.29979801177978516
1701881177943939600,9.213939697265625,-0.13632917404174805,0.16638541221618652,0.2747821807861328
1701881177953531400,9.223531494140625,-0.13278865814208984,0.14776062965393066,0.24326229095458984
1701881177963123700,9.233123779296875,-0.13866472244262695,0.10266304016113281,0.1912822723388672
1701881177972717000,9.242717041015625,-0.14881515502929688,0.10711908340454102,0.1001443862915039
1701881177982309600,9.2523095703125,-0.16755342483520508,0.11346888542175293,0.029134750366210938
1701881177991901200,9.261901123046876,-0.12877464294433594,0.07038021087646484,-0.01752758026123047
1701881178001493800,9.27149365234375,-0.08503389358520508,0.06127309799194336,-0.08983516693115234
1701881178011087000,9.281087158203125,-0.08072090148925781,0.10162115097045898,-0.14741802215576172
1701881178020679700,9.2906796875,-0.059178829193115234,0.10859131813049316,-0.18567943572998047
1701881178030271200,9.300271240234375,-0.0023260116577148438,0.07553267478942871,-0.1834859848022461
1701881178039863800,9.30986376953125,0.0373835563659668,0.06888580322265625,-0.16027545928955078
1701881178049457000,9.319456787109376,0.0696268081665039,0.06236147880554199,-0.14699935913085938
1701881178059049500,9.329049560546874,0.08741188049316406,0.04643821716308594,-0.10577106475830078
1701881178068641300,9.338641357421874,0.12646484375,0.026127338409423828,-0.06778430938720703
1701881178078233600,9.348233642578125,0.13693833351135254,0.003951072692871094,-0.04239940643310547
1701881178087827000,9.357826904296875,0.15702056884765625,-0.029382705688476562,-0.029456138610839844
1701881178097419500,9.36741943359375,0.18198752403259277,-0.04308915138244629,-0.03352069854736328
1701881178107011000,9.377010986328125,0.16239643096923828,-0.05801200866699219,-0.06159496307373047
1701881178116603600,9.386603759765626,0.09776043891906738,-0.07567977905273438,-0.11403369903564453
1701881178126197000,9.396197021484374,0.01808452606201172,-0.14913058280944824,-0.1817913055419922
1701881178135789600,9.40578955078125,-0.09171676635742188,-0.2557027339935303,-0.22765254974365234
1701881178145381000,9.415381103515625,-0.1017303466796875,-0.35368824005126953,-0.24760150909423828
1701881178154973700,9.4249736328125,-0.11951875686645508,-0.4210493564605713,-0.3177661895751953
1701881178164567000,9.434567138671875,-0.0823812484741211,-0.4061882495880127,-0.3475494384765625
1701881178174159400,9.444159423828125,-0.046282291412353516,-0.40786004066467285,-0.3558683395385742
1701881178183751200,9.453751220703126,-0.8400344848632812,-0.44963693618774414,-0.32027149200439453
1701881178193343700,9.46334375,-0.14804458618164062,-0.0030999183654785156,0.03860282897949219
1701881178202936800,9.472936767578124,1.2813174724578857,-0.3252115249633789,-0.6246099472045898
1701881178212529400,9.482529296875,0.1905670166015625,-0.26416468620300293,-0.10657024383544922
1701881178222121000,9.492120849609375,0.4428842067718506,-0.07360649108886719,-0.0044384002685546875
1701881178231713500,9.501713623046875,0.2781081199645996,0.13429880142211914,-0.025571823120117188
1701881178241307000,9.511306884765625,0.1923656463623047,0.25195837020874023,0.08477401733398438
1701881178250899200,9.520899169921876,0.271942138671875,0.37818050384521484,0.1792163848876953
1701881178260491000,9.530490966796876,0.2975010871887207,0.3795185089111328,0.3048677444458008
1701881178270083600,9.54008349609375,0.31346797943115234,0.24976444244384766,0.5002870559692383
1701881178279677000,9.549677001953125,0.34110569953918457,0.05378246307373047,0.639103889465332
1701881178289269200,9.559269287109375,0.28664302825927734,-0.11409235000610352,0.7238421440124512
1701881178298861000,9.568861083984375,0.15744876861572266,-0.1824026107788086,0.754307746887207
1701881178308453600,9.57845361328125,0.09386539459228516,-0.21079063415527344,0.6486153602600098
1701881178318047000,9.588046875,0.07870721817016602,-0.29787659645080566,0.5144634246826172
1701881178327639300,9.597639404296874,-0.08590269088745117,-0.28247666358947754,0.4990386962890625
1701881178337230800,9.60723095703125,-0.026021480560302734,-0.17360258102416992,0.3182039260864258
1701881178346823400,9.616823486328125,-0.10888910293579102,-0.1429424285888672,0.15076923370361328
1701881178356416800,9.626416748046875,-0.21268892288208008,-0.037580251693725586,0.11616706848144531
1701881178366009300,9.63600927734375,-0.06743812561035156,0.007025241851806641,-0.2074441909790039
1701881178375601000,9.645600830078125,-0.12505388259887695,0.10690569877624512,-0.25108909606933594
1701881178385193500,9.655193359375,-0.0936117172241211,0.15059471130371094,-0.37442874908447266
1701881178394786800,9.664786865234374,-0.0902395248413086,0.17218542098999023,-0.43244457244873047
1701881178404379400,9.67437939453125,-0.14284801483154297,0.160322904586792,-0.43088626861572266
1701881178413971000,9.683970947265625,-0.13585186004638672,0.09928011894226074,-0.3916435241699219
1701881178423563500,9.6935634765625,-0.1689281463623047,0.036960601806640625,-0.31544017791748047
1701881178433156900,9.703156982421875,-0.15681934356689453,-0.0008680820465087891,-0.22865772247314453
1701881178442749200,9.712749267578126,-0.14997482299804688,-0.0052013397216796875,-0.15017127990722656
1701881178452341000,9.722341064453126,-0.1080927848815918,0.0020673274993896484,-0.0704793930053711
1701881178461933600,9.73193359375,-0.04375314712524414,-0.00005459785461425781,-0.010801315307617188
1701881178471526700,9.741526611328124,0.028801441192626953,0.012470245361328125,0.038367271423339844
1701881178481119200,9.751119140625,0.06489753723144531,0.03920292854309082,0.0818777084350586
1701881178490711000,9.7607109375,0.07946014404296875,0.0657808780670166,0.10089111328125
1701881178500303400,9.770303466796875,0.08526182174682617,0.09662461280822754,0.0838165283203125
1701881178509896700,9.779896728515626,0.015750885009765625,0.1783592700958252,0.1600666046142578
1701881178519489300,9.7894892578125,0.1289219856262207,0.13018083572387695,0.02272510528564453
1701881178529080800,9.799080810546876,-0.006089210510253906,0.14185452461242676,0.018985748291015625
1701881178538673400,9.80867333984375,-0.020757198333740234,0.12051796913146973,0.0032892227172851562
1701881178548266800,9.818266845703125,-0.04437589645385742,0.09021472930908203,-0.012294769287109375
1701881178557859000,9.827859130859375,-0.05083513259887695,0.06992363929748535,-0.008968353271484375
1701881178567451000,9.837450927734375,-0.048123836517333984,0.017148256301879883,-0.0032167434692382812
1701881178577043500,9.84704345703125,-0.02026653289794922,-0.07919859886169434,0.02388763427734375
1701881178586636800,9.85663671875,0.013644695281982422,-0.11206412315368652,0.031752586364746094
1701881178596229000,9.86622900390625,0.032828330993652344,-0.11080026626586914,0.06518173217773438
1701881178605821000,9.875821044921874,0.03291606903076172,0.04159283638000488,0.10726737976074219
1701881178615413500,9.88541357421875,0.01655101776123047,-0.0394129753112793,0.0027189254760742188
1701881178625006600,9.895006591796875,0.10825681686401367,-0.08316373825073242,0.017663955688476562
1701881178634599200,9.90459912109375,-0.03047323226928711,-0.05565500259399414,0.02089691162109375
1701881178644191000,9.91419091796875,-0.05917024612426758,-0.0010361671447753906,-0.0012969970703125
1701881178653783300,9.923783203125,-0.09500360488891602,0.053560733795166016,-0.057646751403808594
1701881178663376600,9.933376708984374,-0.06984233856201172,0.028342008590698242,-0.07454681396484375
1701881178672969200,9.94296923828125,-0.06427955627441406,0.028666973114013672,-0.06717872619628906
1701881178682560800,9.952560791015625,-0.06351327896118164,0.047384023666381836,-0.05507659912109375
1701881178692153300,9.9621533203125,-0.05267333984375,0.11268210411071777,-0.026976585388183594
1701881178701746700,9.97174658203125,0.030736923217773438,0.0824439525604248,-0.057984352111816406
1701881178711339300,9.98133935546875,0.02783489227294922,0.0810694694519043,-0.031925201416015625
1701881178720930800,9.990930908203126,-0.00077056884765625,0.13671398162841797,-0.03715324401855469
1701881178730523400,10.0005234375,-0.017147064208984375,0.11433768272399902,-0.047199249267578125
1701881178740116700,10.01011669921875,-0.01466512680053711,0.06732726097106934,-0.017240524291992188
1701881178749709000,10.019708984375,-0.04030466079711914,0.0030524730682373047,0.028333663940429688
1701881178759300900,10.02930078125,-0.02041339874267578,0.008650779724121094,0.06334781646728516
1701881178768893400,10.0388935546875,-0.058696746826171875,0.08747243881225586,0.02179431915283203
1701881178778486500,10.048486572265626,0.05512094497680664,0.005976438522338867,0.09784507751464844
1701881178788079000,10.0580791015625,-0.01903247833251953,-0.05384516716003418,0.08116436004638672
1701881178797671000,10.0676708984375,0.024911880493164062,-0.033551931381225586,0.098480224609375
1701881178807263500,10.077263427734374,0.01977252960205078,-0.04982590675354004,0.04586219787597656
1701881178816856600,10.086856689453125,0.023069381713867188,-0.019905567169189453,0.061004638671875
1701881178826449200,10.09644921875,0.01072549819946289,-0.029709339141845703,0.041896820068359375
1701881178836040700,10.106040771484375,0.0070285797119140625,-0.04821372032165527,0.05014991760253906
1701881178845633300,10.11563330078125,0.005056858062744141,-0.02583456039428711,0.05455493927001953
1701881178855226600,10.1252265625,-0.008594989776611328,0.020755767822265625,0.07579898834228516
1701881178864819200,10.134819091796874,-0.009360790252685547,0.12353920936584473,0.08276939392089844
1701881178874410800,10.14441064453125,-0.00003147125244140625,0.14916706085205078,0.09956073760986328
1701881178884003300,10.15400341796875,-0.0021605491638183594,0.200059175491333,0.10023880004882812
1701881178893596700,10.1635966796875,-0.004109859466552734,0.23783564567565918,0.07120513916015625
1701881178903189000,10.17318896484375,-0.029755592346191406,0.2108757495880127,0.0625600814819336
1701881178912780800,10.18278076171875,-0.024547100067138672,0.1801745891571045,0.04061412811279297
1701881178922373400,10.192373291015626,0.006683349609375,0.11919498443603516,0.03070831298828125
1701881178931966500,10.201966552734374,-0.06396102905273438,0.025924205780029297,-0.014215469360351562
1701881178941559000,10.21155908203125,-0.029839515686035156,-0.06537055969238281,-0.03033161163330078
1701881178951150800,10.22115087890625,0.0037183761596679688,-0.1394808292388916,-0.03261280059814453
1701881178960743400,10.230743408203125,0.01811981201171875,-0.20052671432495117,-0.04052162170410156
1701881178970336500,10.24033642578125,0.030397415161132812,-0.18737077713012695,-0.05646991729736328
1701881178979929000,10.24992919921875,0.024048328399658203,-0.1841275691986084,-0.08483409881591797
1701881178989520600,10.259520751953126,0.03717994689941406,-0.18150734901428223,-0.08770370483398438
1701881178999113200,10.26911328125,0.043734073638916016,-0.15187931060791016,-0.1383523941040039
1701881179008706600,10.27870654296875,0.062493324279785156,-0.0913231372833252,-0.19341754913330078
1701881179018299100,10.288299072265625,0.07197093963623047,-0.04301786422729492,-0.2503213882446289
1701881179027890700,10.297890625,0.07206535339355469,0.00482177734375,-0.2617607116699219
1701881179037483300,10.307483154296875,0.08418703079223633,0.030774354934692383,-0.25198841094970703
1701881179047076600,10.31707666015625,0.07514572143554688,0.03751182556152344,-0.21661758422851562
1701881179056669200,10.326669189453124,0.035943031311035156,0.048752784729003906,-0.18195724487304688
1701881179066260700,10.3362607421875,0.012102127075195312,0.050392866134643555,-0.11757278442382812
1701881179075853300,10.345853271484375,-0.015561580657958984,0.005021572113037109,-0.03335762023925781
1701881179085446700,10.35544677734375,-0.04224395751953125,-0.04886174201965332,0.04207324981689453
1701881179095039000,10.3650390625,-0.049035072326660156,-0.09468555450439453,0.09941959381103516
1701881179104630800,10.374630859375,-0.038718223571777344,-0.12787508964538574,0.16492652893066406
1701881179114223400,10.384223388671876,-0.016642093658447266,-0.14388585090637207,0.200958251953125
1701881179123816400,10.39381640625,-0.004384517669677734,-0.13839077949523926,0.23167800903320312
1701881179133409000,10.403408935546874,0.012118339538574219,-0.11621403694152832,0.2454395294189453
1701881179143000800,10.413000732421875,0.004322528839111328,-0.09396719932556152,0.24259471893310547
1701881179152593200,10.42259326171875,-0.029720783233642578,-0.05517220497131348,0.21871280670166016
1701881179162186500,10.4321865234375,-0.05425548553466797,-0.054102420806884766,0.19292831420898438
1701881179171779000,10.441779052734375,-0.09511423110961914,-0.04525637626647949,0.16275691986083984
1701881179181370600,10.45137060546875,-0.13090133666992188,-0.014592170715332031,0.11652183532714844
1701881179190963200,10.460963134765626,-0.1570892333984375,-0.011911392211914062,0.10632991790771484
1701881179200556500,10.470556640625,-0.15284156799316406,0.02201056480407715,0.0563812255859375
1701881179210149000,10.480149169921875,-0.18926334381103516,0.02269768714904785,0.05455493927001953
1701881179219740700,10.48974072265625,-0.1647038459777832,0.02567887306213379,0.0696878433227539
1701881179229333200,10.499333251953125,-0.12510251998901367,0.011835336685180664,0.0710744857788086
1701881179238926600,10.508926513671875,-0.07993555068969727,0.028435468673706055,0.07064533233642578
1701881179248519000,10.518518798828126,-0.06925106048583984,0.0350956916809082,0.06364154815673828
1701881179258110700,10.52811083984375,-0.047360897064208984,0.046202898025512695,0.04758644104003906
1701881179267703300,10.537703369140624,-0.030802249908447266,0.05010819435119629,0.03898048400878906
1701881179277296600,10.547296630859375,-0.02148580551147461,0.06110692024230957,0.0163116455078125
1701881179286889000,10.556888916015625,-0.021580219268798828,0.05078411102294922,0.005690574645996094
1701881179296480800,10.566480712890625,-0.026317119598388672,0.024300098419189453,-0.018959999084472656
1701881179306073300,10.5760732421875,-0.004886627197265625,0.012478113174438477,-0.019789695739746094
1701881179315666400,10.58566650390625,-0.01667642593383789,-0.006016969680786133,-0.03248786926269531
1701881179325259000,10.595259033203124,-0.002277851104736328,-0.01704549789428711,-0.028577804565429688
1701881179334850800,10.604850830078124,0.028263092041015625,-0.025536537170410156,-0.036454200744628906
1701881179344443100,10.614443115234375,0.05597114562988281,-0.04561042785644531,-0.023042678833007812
1701881179354036500,10.624036376953125,0.08308649063110352,-0.06554603576660156,-0.023850440979003906
1701881179363629000,10.633629150390625,0.1144552230834961,-0.05724072456359863,-0.0009918212890625
1701881179373220600,10.643220703125,0.14765214920043945,-0.051865339279174805,-0.006625175476074219
1701881179382813200,10.652813232421876,0.1755523681640625,-0.02587580680847168,-0.007283210754394531
1701881179392406500,10.662406494140624,0.1772146224975586,-0.0009031295776367188,-0.01486968994140625
1701881179401999000,10.6719990234375,0.1788768768310547,0.009041786193847656,-0.02219104766845703
1701881179411590700,10.681590576171875,0.15721607208251953,0.0014650821685791016,-0.017465591430664062
1701881179421183200,10.691183349609375,0.14093637466430664,0.019181013107299805,-0.043351173400878906
1701881179430776600,10.700776611328125,0.12291479110717773,0.016891956329345703,-0.06163978576660156
1701881179440369200,10.710369140625,0.11972522735595703,0.006848812103271484,-0.07018280029296875
1701881179449960700,10.719960693359376,0.098388671875,-0.005916118621826172,-0.09286785125732422
1701881179459553300,10.72955322265625,0.07575559616088867,-0.004489898681640625,-0.13196849822998047
1701881179469146600,10.739146728515625,0.06120872497558594,-0.01898503303527832,-0.1426858901977539
1701881179478739000,10.748739013671875,0.021670818328857422,-0.041051626205444336,-0.1517181396484375
1701881179488330800,10.758330810546875,-0.05233001708984375,-0.10254979133605957,-0.16622257232666016
1701881179497923300,10.76792333984375,-0.10869073867797852,-0.1675114631652832,-0.1600780487060547
1701881179507516400,10.777516357421876,-0.1666240692138672,-0.20394587516784668,-0.14267635345458984
1701881179517109000,10.78710888671875,-0.15807008743286133,-0.25774192810058594,-0.07149410247802734
1701881179526700800,10.79670068359375,-0.15964174270629883,-0.29167628288269043,0.012867927551269531
1701881179536293400,10.80629345703125,-0.13611507415771484,-0.2805755138397217,0.08455181121826172
1701881179545886500,10.815886474609375,-0.1332993507385254,-0.2356877326965332,0.151519775390625
1701881179555479000,10.82547900390625,-0.23839569091796875,-0.030338287353515625,0.08727836608886719
1701881179565070800,10.83507080078125,-0.3214688301086426,-0.089599609375,0.1986522674560547
1701881179574663400,10.844663330078125,0.10107278823852539,-0.20732808113098145,0.5007648468017578
1701881179584256500,10.854256591796876,-0.1118474006652832,-0.06438350677490234,0.4524965286254883
1701881179593849000,10.86384912109375,0.016154766082763672,-0.034737348556518555,0.4447345733642578
1701881179603440600,10.873440673828124,0.004658222198486328,-0.05569648742675781,0.43340587615966797
1701881179613033200,10.883033203125,0.01739645004272461,-0.10262441635131836,0.3935585021972656
1701881179622626600,10.89262646484375,0.0937814712524414,-0.08499956130981445,0.1996603012084961
1701881179632219100,10.90221923828125,0.10811805725097656,0.12903499603271484,-0.1536235809326172
1701881179641810700,10.911810791015625,0.04084062576293945,0.1418907642364502,-0.1762542724609375
1701881179651403300,10.9214033203125,0.06306028366088867,0.15042591094970703,-0.27113819122314453
1701881179660996600,10.93099658203125,0.06980419158935547,0.13903236389160156,-0.2859773635864258
1701881179670589200,10.940589111328125,0.029734134674072266,0.20637917518615723,-0.3050203323364258
1701881179680180700,10.9501806640625,0.05005311965942383,0.31151604652404785,-0.33091163635253906
1701881179689773300,10.959773193359375,0.05936717987060547,0.38861846923828125,-0.34268951416015625
1701881179699366700,10.96936669921875,0.07420110702514648,0.3441321849822998,-0.3005399703979492
1701881179708959000,10.978958984375,0.09883642196655273,0.24153709411621094,-0.2594175338745117
1701881179718550800,10.98855078125,0.10267448425292969,0.15934443473815918,-0.2075672149658203
1701881179728143400,10.998143310546874,0.07954835891723633,0.10005688667297363,-0.14323139190673828
1701881179737736700,11.00773681640625,0.09544038772583008,0.0532989501953125,-0.1510009765625
1701881179747329000,11.0173291015625,0.11367273330688477,-0.07407569885253906,-0.09714889526367188
1701881179756920800,11.0269208984375,0.1295151710510254,-0.15086793899536133,-0.03932476043701172
1701881179766513400,11.036513427734375,0.13030147552490234,-0.11237144470214844,-0.01890850067138672
1701881179776106500,11.0461064453125,0.15662765502929688,-0.03444504737854004,-0.02878856658935547
1701881179785699000,11.055698974609374,0.15907669067382812,0.06496572494506836,-0.06208610534667969
1701881179795291000,11.065290771484374,0.16259479522705078,0.16489267349243164,-0.08376789093017578
1701881179804883200,11.07488330078125,0.1324467658996582,0.19427490234375,-0.06596660614013672
1701881179814476500,11.0844765625,0.11772680282592773,0.13176965713500977,-0.015588760375976562
1701881179824069000,11.094069091796875,0.047597408294677734,0.024875402450561523,0.028975486755371094
1701881179833660700,11.10366064453125,-0.07730531692504883,-0.03518223762512207,0.020830154418945312
1701881179843253200,11.113253173828125,-0.09699487686157227,0.05222630500793457,-0.07162857055664062
1701881179852846600,11.1228466796875,-0.08789348602294922,0.038602352142333984,-0.03812980651855469
1701881179862439200,11.132439208984374,-0.04673624038696289,0.018752098083496094,0.035732269287109375
1701881179872030700,11.14203076171875,-0.028054237365722656,0.014647483825683594,0.0642557144165039
1701881179881623300,11.151623291015625,-0.059073448181152344,-0.0065937042236328125,0.0807180404663086
1701881179891216600,11.161216552734375,-0.0427861213684082,-0.034635305404663086,0.09707355499267578
1701881179900809200,11.170809326171875,-0.04369354248046875,-0.08162617683410645,0.10648918151855469
1701881179910400800,11.18040087890625,-0.0259857177734375,-0.12424993515014648,0.12561988830566406
1701881179919993300,11.189993408203126,0.0031452178955078125,-0.18651843070983887,0.17081451416015625
1701881179929586700,11.199586669921874,0.05457115173339844,-0.16869783401489258,0.14531707763671875
1701881179939179300,11.20917919921875,0.09236288070678711,-0.09728860855102539,0.0949392318725586
1701881179948770800,11.218770751953125,0.10506343841552734,-0.05028080940246582,0.07166099548339844
1701881179958363400,11.22836328125,0.10290384292602539,0.06082487106323242,0.006255149841308594
1701881179967956700,11.237956787109376,0.035367488861083984,0.1859736442565918,-0.023557662963867188
1701881179977549000,11.247549072265626,-0.004323005676269531,0.23013615608215332,-0.03246498107910156
1701881179987140900,11.257140869140626,-0.07431173324584961,0.16106724739074707,-0.023584365844726562
1701881179996733400,11.2667333984375,-0.09308290481567383,0.10963797569274902,0.0071353912353515625
1701881180006326500,11.276326416015625,-0.12424468994140625,0.12411189079284668,0.023851394653320312
1701881180015919000,11.285919189453125,-0.14059209823608398,0.1526186466217041,0.05013847351074219
1701881180025511000,11.295510986328125,-0.1094217300415039,0.16011762619018555,0.050322532653808594
1701881180035103500,11.305103515625,-0.0559239387512207,0.21870112419128418,-0.0904531478881836
1701881180044696600,11.314696533203126,0.013058185577392578,0.27811217308044434,-0.20180320739746094
1701881180054289200,11.3242890625,0.06061077117919922,0.2820298671722412,-0.26709556579589844
1701881180063880700,11.333880615234374,0.03916740417480469,0.19412851333618164,-0.32443904876708984
1701881180073473300,11.343473388671875,0.01544952392578125,0.12346816062927246,-0.31339454650878906
1701881180083066600,11.353066650390625,0.3104548454284668,-0.36824607849121094,-0.014622688293457031
1701881180092659200,11.3626591796875,0.19595956802368164,-0.3142850399017334,-0.04260444641113281
1701881180102250800,11.372250732421875,0.22549772262573242,-0.9489667415618896,0.6817097663879395
1701881180111843300,11.38184326171875,0.15000534057617188,-0.8954741954803467,0.6719937324523926
1701881180121436700,11.391436767578124,-0.3952479362487793,0.010468244552612305,-0.06299686431884766
1701881180131029200,11.401029296875,-0.05586385726928711,0.9400742053985596,-0.6331644058227539
1701881180140620800,11.410620849609375,-0.4104328155517578,0.44078993797302246,-0.29575538635253906
1701881180150213400,11.42021337890625,0.02334451675415039,-0.34627199172973633,0.09598541259765625
1701881180159806700,11.429806640625,0.12984609603881836,-0.7060461044311523,-0.07846450805664062
1701881180169399300,11.4393994140625,-0.05178070068359375,-0.5536355972290039,-0.009271621704101562
1701881180178990800,11.448990966796876,-0.04666852951049805,-0.5126030445098877,-0.014180183410644531
1701881180188583400,11.45858349609375,-0.0810098648071289,-0.4118058681488037,0.22678852081298828
1701881180198176800,11.4681767578125,-0.11912870407104492,-0.3645014762878418,0.5006332397460938
1701881180207769000,11.47776904296875,-0.2774620056152344,0.0635077953338623,0.3229331970214844
1701881180217361000,11.48736083984375,-0.18288040161132812,0.22945499420166016,0.2327098846435547
1701881180226953500,11.496953369140625,0.007572650909423828,0.3448143005371094,0.08955669403076172
1701881180236546800,11.506546875,0.16592645645141602,0.4392678737640381,0.03235816955566406
1701881180246139100,11.51613916015625,0.2121725082397461,0.4466133117675781,-0.023273468017578125
1701881180255731000,11.52573095703125,0.23272180557250977,0.35860228538513184,-0.07819175720214844
1701881180265323500,11.535323486328124,0.21308279037475586,0.2571401596069336,-0.08732128143310547
1701881180274916600,11.54491650390625,0.1751852035522461,0.19092011451721191,-0.0835275650024414
1701881180284509200,11.55450927734375,0.053845882415771484,0.16911816596984863,-0.11269950866699219
1701881180294100700,11.564100830078125,-0.0004725456237792969,0.10677719116210938,0.07569026947021484
1701881180303693600,11.573693603515625,0.00891256332397461,0.13606715202331543,-0.1405315399169922
1701881180313286700,11.58328662109375,-0.11272525787353516,0.18880367279052734,-0.3266010284423828
1701881180322879200,11.592879150390624,-0.14600038528442383,0.02140069007873535,-0.21712303161621094
1701881180332471000,11.602470947265624,-0.09149408340454102,0.1365063190460205,-0.26714611053466797
1701881180342063400,11.6120634765625,-0.06370067596435547,-0.17919421195983887,-0.042891502380371094
1701881180351656700,11.62165673828125,0.037842750549316406,-0.11725187301635742,-0.1088104248046875
1701881180361249300,11.631249267578125,-0.06776905059814453,0.06659483909606934,-0.04867267608642578
1701881180370840800,11.6408408203125,-0.04992103576660156,-0.11051130294799805,0.04482746124267578
1701881180380433400,11.650433349609376,0.02829456329345703,0.25818395614624023,-0.12160968780517578
1701881180390026800,11.66002685546875,-0.007675647735595703,0.01812124252319336,0.08260631561279297
1701881180399619300,11.669619384765625,0.02991962432861328,-0.1591789722442627,0.28107643127441406
1701881180409211000,11.6792109375,0.00412750244140625,0.13219070434570312,0.14295101165771484
1701881180418803500,11.688803466796875,0.010430335998535156,-0.1412065029144287,0.24625587463378906
1701881180428396800,11.698396728515625,0.0492854118347168,-0.12904810905456543,0.215667724609375
1701881180437989400,11.7079892578125,0.019876956939697266,-0.26848840713500977,0.25037097930908203
1701881180447581000,11.717580810546876,-0.0047740936279296875,-0.29699182510375977,0.28700733184814453
1701881180457173500,11.727173583984374,0.05298280715942383,-0.3139786720275879,0.23329734802246094
1701881180466766800,11.736766845703125,0.022550582885742188,-0.22073793411254883,0.2680959701538086
1701881180476359400,11.746359375,0.02149057388305664,-0.04197812080383301,0.2205181121826172
1701881180485951000,11.755950927734375,0.0028243064880371094,-0.03404831886291504,0.031970977783203125
1701881180495543600,11.76554345703125,-0.04723834991455078,0.029412031173706055,0.08714580535888672
1701881180505137000,11.775136962890626,0.053850650787353516,-0.022273778915405273,0.046344757080078125
1701881180514729200,11.784729248046874,-0.025324344635009766,-0.018156766891479492,-0.06650543212890625
1701881180524321000,11.794321044921874,0.0288238525390625,-0.002820730209350586,-0.04327392578125
1701881180533913600,11.80391357421875,0.14739608764648438,-0.023815155029296875,0.030246734619140625
1701881180543506700,11.813506591796875,0.01358938217163086,0.011182785034179688,-0.06315135955810547
1701881180553099300,11.823099365234375,-0.030323505401611328,0.037195682525634766,-0.06948375701904297
1701881180562691000,11.832691162109375,-0.08392477035522461,0.051386356353759766,-0.05168914794921875
1701881180572283600,11.84228369140625,-0.08098316192626953,0.00008130073547363281,-0.022119522094726562
1701881180581876700,11.851876708984374,-0.07516670227050781,-0.18964767456054688,0.21389198303222656
1701881180591469300,11.86146923828125,-0.08026885986328125,0.040590763092041016,-0.11731624603271484
1701881180601061000,11.87106103515625,-0.03567028045654297,0.05088162422180176,-0.0006885528564453125
1701881180610653700,11.88065380859375,-0.02846050262451172,0.05528593063354492,0.021860122680664062
1701881180620246800,11.890246826171875,-0.060393333435058594,-0.13440632820129395,0.25558996200561523
1701881180629839400,11.89983935546875,0.034236907958984375,0.34751057624816895,-0.7043838500976562
1701881180639431000,11.909430908203126,-0.09516572952270508,0.48261380195617676,0.0034732818603515625
1701881180649023500,11.9190234375,0.11098814010620117,0.15541648864746094,-0.07795858383178711
1701881180658616800,11.928616943359375,0.10169506072998047,-0.018855810165405273,-0.04557323455810547
1701881180668209400,11.93820947265625,0.032745361328125,-0.07733798027038574,0.08018732070922852
1701881180677801000,11.947801025390625,0.03464317321777344,-0.06175041198730469,0.036364078521728516
1701881180687393500,11.9573935546875,0.025589942932128906,-0.0038976669311523438,-0.03879547119140625
1701881180696987000,11.96698681640625,-0.008906841278076172,0.05040693283081055,-0.05396461486816406
1701881180706579500,11.976579345703126,-0.059093475341796875,0.0843815803527832,-0.16223955154418945
1701881180716171000,11.9861708984375,-0.07284021377563477,-0.12436342239379883,-0.10021829605102539
1701881180725763600,11.995763671875,-0.014125823974609375,-0.20368146896362305,-0.11519432067871094
1701881180735357000,12.00535693359375,-0.10801124572753906,-0.19833827018737793,-0.1830282211303711
1701881180744949500,12.014949462890625,-0.15005207061767578,-0.11580324172973633,-0.19922351837158203
1701881180754541000,12.024541015625,-0.1474165916442871,-0.04341864585876465,-0.1583871841430664
1701881180764133600,12.034133544921875,-0.09058094024658203,0.020842552185058594,-0.11834526062011719
1701881180773727000,12.04372705078125,-0.05227184295654297,0.02703118324279785,-0.053709983825683594
1701881180783319300,12.0533193359375,-0.02190256118774414,0.07474923133850098,-0.005375862121582031
