time,seconds_elapsed,z,y,x
1697701678818460200,0.126460205078125,0.1948602795600891,-0.5645755529403687,0.730573296546936
1697701678828053200,0.13605322265625,-0.10934165865182877,0.5117372870445251,-0.2530434727668762
1697701678837647000,0.145647216796875,-0.10078980028629303,0.8941276669502258,-0.3495573401451111
1697701678847240000,0.155239990234375,-0.08002099394798279,1.1934428215026855,-0.39231663942337036
1697701678856832300,0.164832275390625,-0.04947862774133682,1.4157912731170654,-0.3715478479862213
1697701678866425600,0.174425537109375,-0.0397050715982914,1.7089979648590088,-0.30191126465797424
1697701678876019500,0.18401953125,-0.015271181240677834,1.9449377059936523,-0.20906247198581696
1697701678885612300,0.1936123046875,-0.0018325417768210173,1.9119518995285034,-0.19440214335918427
1697701678895204600,0.20320458984375,-0.07391251623630524,1.611262321472168,-0.30435463786125183
1697701678904798000,0.2127978515625,-0.20096874237060547,1.2850699424743652,-0.4399627447128296
1697701678914391800,0.222391845703125,-0.29259583353996277,1.0419527292251587,-0.5609105229377747
1697701678923984600,0.231984619140625,-0.2877090573310852,0.8758022785186768,-0.6598677635192871
1697701678933577000,0.241576904296875,-0.19363857805728912,0.8330429196357727,-0.6989619731903076
1697701678943170000,0.251170166015625,-0.08368607610464096,0.7915053367614746,-0.6610894203186035
1697701678952764200,0.26076416015625,-0.016492875292897224,0.5606050491333008,-0.538919985294342
1697701678962357000,0.27035693359375,0.015271181240677834,0.20753535628318787,-0.3446705639362335
1697701678971949300,0.27994921875,0.05803048983216286,-0.21394924819469452,-0.11743538826704025
1697701678981542400,0.28954248046875,0.15087927877902985,-0.6635328531265259,0.10491301864385605
1697701678991136300,0.29913623046875,0.2608317732810974,-0.9481876492500305,0.31382277607917786
1697701679000729300,0.308729248046875,0.3390202224254608,-1.0886825323104858,0.4825693368911743
1697701679010321700,0.31832177734375,0.34757208824157715,-1.030041217803955,0.6120689511299133
1697701679019914800,0.327914794921875,0.26816195249557495,-0.4937172830104828,0.6707102656364441
1697701679029508600,0.337508544921875,0.14721418917179108,-0.2420482337474823,0.6939224600791931
1697701679039101700,0.347101806640625,0.06291726976633072,-0.2701472043991089,0.6878139972686768
1697701679048694000,0.356694091796875,0.05925218388438225,-0.42041563987731934,0.684148907661438
1697701679058287000,0.366287109375,0.12522368133068085,-0.5108210444450378,0.6963658928871155
1697701679067881000,0.375880859375,0.17775654792785645,-0.5572454333305359,0.7110261917114258
1697701679077474000,0.38547412109375,0.17775654792785645,-0.6109999418258667,0.7195780873298645
1697701679087066400,0.39506640625,0.17531315982341766,-0.6623111367225647,0.7000309824943542
1697701679096659500,0.404659423828125,0.183865025639534,-0.6671979427337646,0.6377245187759399
1697701679106253300,0.41425341796875,0.16065283119678497,-0.6061131954193115,0.5534276366233826
1697701679115846400,0.423846435546875,0.11545012891292572,-0.49616068601608276,0.448361873626709
1697701679125438700,0.433438720703125,0.0787992998957634,-0.41797223687171936,0.32970482110977173
1697701679135031800,0.44303173828125,0.07146912813186646,-0.39231663942337036,0.20753535628318787
1697701679144625700,0.452625732421875,0.09712471067905426,-0.37887802720069885,0.0988045409321785
1697701679154218800,0.46221875,0.08490777015686035,-0.3336753249168396,-0.06001574173569679
1697701679163811000,0.47181103515625,0.04947862774133682,-0.337340384721756,-0.2786990702152252
1697701679173404200,0.481404052734375,0.07024743407964706,-0.388651579618454,-0.5267030596733093
1697701679182998000,0.490998046875,0.16676130890846252,-0.39231663942337036,-0.7368345260620117
1697701679192591000,0.500591064453125,0.27060532569885254,-0.32756683230400085,-0.885881245136261
1697701679202183200,0.51018310546875,0.3426853120326996,-0.19928891956806183,-0.9347490072250366
1697701679211776500,0.519776611328125,0.3915531039237976,-0.07834116369485855,-0.8785510659217834
1697701679221370400,0.529370361328125,0.39888325333595276,-0.023364907130599022,-0.7527165412902832
1697701679230963200,0.538963134765625,0.34757208824157715,0.03161134570837021,-0.5804576277732849
1697701679240555500,0.548555419921875,0.2473931461572647,0.0584886260330677,-0.39353835582733154
1697701679250148900,0.55814892578125,0.13377554714679718,0.014507622458040714,-0.24693500995635986
1697701679259742500,0.567742431640625,0.055587101727724075,-0.08322793990373611,-0.1626380831003189
1697701679269335600,0.57733544921875,0.033596597611904144,-0.18096350133419037,-0.11621369421482086
1697701679278928000,0.586927978515625,0.05803048983216286,-0.24937839806079865,-0.072232685983181
1697701679288521000,0.59652099609375,0.1178935244679451,-0.282364159822464,-0.03680354729294777
1697701679298114800,0.60611474609375,0.1973036676645279,-0.2591519355773926,-0.013591351918876171
1697701679307708000,0.6157080078125,0.28160059452056885,-0.19684553146362305,-0.001374406274408102
1697701679317300200,0.62530029296875,0.3414636254310608,-0.1247655525803566,-0.008704573847353458
1697701679326893300,0.634893310546875,0.37567105889320374,-0.12232216447591782,-0.05268557742238045
1697701679336487200,0.644487060546875,0.3671191930770874,-0.2151709496974945,-0.12110047042369843
1697701679346080300,0.654080322265625,0.31825143098831177,-0.3190149664878845,-0.1895153671503067
1697701679355672600,0.663672607421875,0.28282228112220764,-0.35200074315071106,-0.25060009956359863
1697701679365265700,0.673265625,0.2852656841278076,-0.2579302489757538,-0.2848075330257416
1697701679374859500,0.682859619140625,0.30725616216659546,-0.10155335813760757,-0.29091599583625793
1697701679384452600,0.69245263671875,0.3170297145843506,0.013285927474498749,-0.2921377122402191
1697701679394044700,0.702044677734375,0.30481278896331787,0.059710320085287094,-0.2921377122402191
1697701679403638000,0.711637939453125,0.2718270421028137,0.05360184609889984,-0.28969430923461914
1697701679413231900,0.72123193359375,0.23028941452503204,0.05726693198084831,-0.28969430923461914
1697701679422824700,0.73082470703125,0.1960819661617279,0.35169529914855957,-0.38132140040397644
1697701679432417000,0.7404169921875,0.15210096538066864,0.8574768304824829,-0.5816792845726013
1697701679442010000,0.750010009765625,0.1056765764951706,0.8623636364936829,-0.5474718809127808
1697701679451604000,0.75960400390625,0.09834641218185425,0.6632274389266968,-0.48394373059272766
1697701679461197000,0.769197021484375,0.12278030067682266,0.4225535988807678,-0.4558447599411011
1697701679470789400,0.778789306640625,0.15087927877902985,0.23196925222873688,-0.3837648034095764
1697701679480382500,0.788382568359375,0.14965757727622986,0.07559234648942947,-0.28725093603134155
1697701679489976300,0.797976318359375,0.12033691257238388,-0.06001574173569679,-0.18707197904586792
1697701679499569400,0.8075693359375,0.08368607610464096,-0.14797775447368622,-0.09910997003316879
1697701679509161700,0.81716162109375,0.06047387793660164,-0.17485502362251282,-0.05024218559265137
1697701679518754600,0.826754638671875,0.06169557198882103,-0.14064757525920868,-0.04291202127933502
1697701679528348700,0.8363486328125,0.08979454636573792,-0.06612421572208405,-0.06856760382652283
1697701679537941500,0.84594140625,0.13621893525123596,0.01572931744158268,-0.1113269105553627
1697701679547533800,0.855533935546875,0.18142163753509521,0.06459710001945496,-0.16141638159751892
1697701679557127000,0.865126953125,0.20585553348064423,0.05482354015111923,-0.20784078538417816
1697701679566720800,0.874720703125,0.20707722008228302,-0.0038177953101694584,-0.24815669655799866
1697701679576313900,0.88431396484375,0.1960819661617279,-0.0844496339559555,-0.2689255177974701
1697701679585906200,0.89390625,0.183865025639534,-0.15408621728420258,-0.26159533858299255
1697701679595499300,0.903499267578125,0.17286977171897888,-0.22250111401081085,-0.23227466642856598
1697701679605093000,0.913093017578125,0.15943112969398499,-0.279920756816864,-0.18585027754306793
1697701679614686200,0.922686279296875,0.1447708010673523,-0.31534990668296814,-0.12720894813537598
1697701679624278500,0.932278564453125,0.1423274129629135,-0.305576354265213,-0.05757235363125801
1697701679633871600,0.94187158203125,0.14965757727622986,-0.2579302489757538,0.007177455350756645
1697701679643465500,0.951465576171875,0.16065283119678497,-0.20051060616970062,0.05482354015111923
1697701679653058300,0.961058349609375,0.1716480851173401,-0.14675605297088623,0.07314895838499069
1697701679662650600,0.970650634765625,0.18875180184841156,-0.10766182839870453,0.05604523420333862
1697701679672244000,0.980243896484375,0.21318569779396057,-0.0856713280081749,0.01817270554602146
1697701679681837600,0.989837646484375,0.24128466844558716,-0.08322793990373611,-0.030695075169205666
1697701679691430700,0.9994306640625,0.26816195249557495,-0.10155335813760757,-0.07834116369485855
1697701679701023000,1.00902294921875,0.288930743932724,-0.15408621728420258,-0.11621369421482086
1697701679710616000,1.018615966796875,0.29259583353996277,-0.24571330845355988,-0.12354385852813721
1697701679720210000,1.0282099609375,0.265718549489975,-0.3312319219112396,-0.07834116369485855
1697701679729803000,1.037802978515625,0.22540263831615448,-0.3605526089668274,0.012064233422279358
1697701679739395000,1.04739501953125,0.19241689145565033,-0.3446705639362335,0.10613471269607544
1697701679748988400,1.056988525390625,0.1850867122411728,-0.30068957805633545,0.16844113171100616
1697701679758582300,1.066582275390625,0.20096874237060547,-0.2677038013935089,0.18310146033763885
1697701679768175000,1.076175048828125,0.22906772792339325,-0.2652604281902313,0.1525591015815735
1697701679777767400,1.085767333984375,0.2583884000778198,-0.2848075330257416,0.09025268256664276
1697701679787360500,1.095360595703125,0.27915719151496887,-0.305576354265213,0.008399149402976036
1697701679796954400,1.104954345703125,0.2767138183116913,-0.3471139669418335,-0.07711946964263916
1697701679806547500,1.11454736328125,0.29259583353996277,-0.4424061179161072,-0.14064757525920868
1697701679816139800,1.124139892578125,0.33291175961494446,-0.5364766120910645,-0.15530791878700256
1697701679825732900,1.13373291015625,0.3390202224254608,-0.5120427012443542,-0.13209572434425354
1697701679835326700,1.14332666015625,0.34512871503829956,-0.4424061179161072,-0.10644013434648514
1697701679844919600,1.15291943359375,0.3365768492221832,-0.2689255177974701,-0.06368082761764526
1697701679854511900,1.162511962890625,0.3414636254310608,-0.10521844029426575,-0.029473381116986275
1697701679864105200,1.172105224609375,0.363454133272171,0.010842538438737392,-0.029473381116986275
1697701679873699000,1.181698974609375,0.3830012381076813,0.08658760040998459,-0.06001574173569679
1697701679883292000,1.1912919921875,0.40010493993759155,0.13545538485050201,-0.10155335813760757
1697701679892884200,1.20088427734375,0.4172086715698242,0.17332790791988373,-0.13331741094589233
1697701679902477300,1.210477294921875,0.42576053738594055,0.19654010236263275,-0.15530791878700256
1697701679912071200,1.2200712890625,0.4196520745754242,0.23196925222873688,-0.16874656081199646
1697701679921664300,1.229664306640625,0.41476529836654663,0.2832804024219513,-0.1760767251253128
1697701679931256300,1.23925634765625,0.4172086715698242,0.31626617908477783,-0.16996824741363525
1697701679940849700,1.248849609375,0.4196520745754242,0.3101576864719391,-0.1516428291797638
1697701679950443500,1.258443603515625,0.4196520745754242,0.27839362621307373,-0.12232216447591782
1697701679960036400,1.268036376953125,0.41232189536094666,0.2551814317703247,-0.0856713280081749
1697701679969628700,1.277628662109375,0.40132665634155273,0.23441264033317566,-0.05757235363125801
1697701679979221800,1.2872216796875,0.3939964771270752,0.20020519196987152,-0.045355409383773804
1697701679988815600,1.296815673828125,0.39643988013267517,0.1769929975271225,-0.047798797488212585
1697701679998408700,1.30640869140625,0.4049917459487915,0.14889401197433472,-0.06734590977430344
1697701680008001000,1.3160009765625,0.4159869849681854,0.111021488904953,-0.09300149232149124
1697701680017594000,1.325593994140625,0.4159869849681854,0.08170082420110703,-0.11254860460758209
1697701680027188000,1.33518798828125,0.4049917459487915,0.07070557028055191,-0.12110047042369843
1697701680036780800,1.34478076171875,0.3927747905254364,0.06704048812389374,-0.11743538826704025
1697701680046373000,1.354373046875,0.3915531039237976,0.07559234648942947,-0.11010521650314331
1697701680055966200,1.36396630859375,0.4049917459487915,0.0975828468799591,-0.0978882759809494
1697701680065560000,1.37356005859375,0.4220954477787018,0.11346487700939178,-0.07834116369485855
1697701680075153200,1.383153076171875,0.4343124032020569,0.11835165321826935,-0.05268557742238045
1697701680084745500,1.392745361328125,0.4294256269931793,0.10613471269607544,-0.030695075169205666
1697701680094338300,1.40233837890625,0.4220954477787018,0.08658760040998459,-0.013591351918876171
1697701680103932400,1.411932373046875,0.4196520745754242,0.06948387622833252,-0.00015271181473508477
1697701680113525200,1.421525146484375,0.41354358196258545,0.05238015204668045,0.009620844386518002
1697701680123117600,1.43111767578125,0.3939964771270752,0.03649812191724777,0.01695101149380207
1697701680132710700,1.440710693359375,0.3683409094810486,0.027946261689066887,0.026724567636847496
1697701680142304500,1.450304443359375,0.337798535823822,0.03161134570837021,0.03894151374697685
1697701680151897600,1.459897705078125,0.31092125177383423,0.04871506989002228,0.0584886260330677
1697701680161490000,1.469489990234375,0.29626092314720154,0.07070557028055191,0.07803573459386826
1697701680171082800,1.479082763671875,0.29503923654556274,0.09636115282773972,0.09025268256664276
1697701680180676900,1.4886767578125,0.3023693859577179,0.10369132459163666,0.09147437661886215
1697701680190269700,1.498269775390625,0.3158080279827118,0.07803573459386826,0.0719272643327713
1697701680199862000,1.507862060546875,0.3280249834060669,0.041384901851415634,0.03771981969475746
1697701680209455000,1.517455078125,0.32191649079322815,0.009620844386518002,0.005955760832875967
1697701680219049000,1.527049072265625,0.30481278896331787,-0.013591351918876171,-0.01969982497394085
1697701680228642000,1.53664208984375,0.28160059452056885,-0.02214321307837963,-0.03802524134516716
1697701680238234400,1.546234375,0.2632751762866974,-0.02092151902616024,-0.051463883370161057
1697701680247827500,1.555827392578125,0.2498365342617035,-0.008704573847353458,-0.06368082761764526
1697701680257421300,1.56542138671875,0.24006296694278717,0.009620844386518002,-0.06734590977430344
1697701680267014100,1.57501416015625,0.2339545041322708,0.03894151374697685,-0.0587940476834774
1697701680276606500,1.5846064453125,0.2376195788383484,0.0853659063577652,-0.047798797488212585
1697701680286199600,1.594199462890625,0.24617144465446472,0.13056860864162445,-0.03802524134516716
1697701680295793400,1.60379345703125,0.25350162386894226,0.14889401197433472,-0.03680354729294777
1697701680305386500,1.613386474609375,0.25472331047058105,0.14278554916381836,-0.04291202127933502
1697701680314978600,1.622978515625,0.2498365342617035,0.12323843687772751,-0.05268557742238045
1697701680324571600,1.632571533203125,0.23884128034114838,0.09636115282773972,-0.05635065957903862
1697701680334165500,1.64216552734375,0.23151111602783203,0.06337540596723557,-0.051463883370161057
1697701680343758600,1.651758544921875,0.2351761907339096,0.014507622458040714,-0.04046862944960594
1697701680353351000,1.661350830078125,0.2486148327589035,-0.03924693539738655,-0.030695075169205666
1697701680362944000,1.670944091796875,0.2632751762866974,-0.07834116369485855,-0.02214321307837963
1697701680372537900,1.680537841796875,0.2754921019077301,-0.07956285774707794,-0.013591351918876171
1697701680382131000,1.690130859375,0.2754921019077301,-0.049020491540431976,-0.00259610079228878
1697701680391723000,1.699722900390625,0.2730487287044525,-0.01847812905907631,0.008399149402976036
1697701680401316000,1.709316162109375,0.288930743932724,0.007177455350756645,0.014507622458040714
1697701680410910000,1.718909912109375,0.32191649079322815,0.024281177669763565,0.012064233422279358
1697701680420503000,1.7285029296875,0.3524588644504547,0.01695101149380207,0.0035123717971146107
1697701680430095400,1.738095458984375,0.37200596928596497,-0.025808297097682953,-0.001374406274408102
1697701680439688400,1.7476884765625,0.3793361485004425,-0.0978882759809494,-0.00015271181473508477
1697701680449282300,1.7572822265625,0.37078428268432617,-0.2017323076725006,0.010842538438737392
1697701680458875100,1.766875244140625,0.34512871503829956,-0.3080197274684906,0.041384901851415634
1697701680468467500,1.776467529296875,0.31825143098831177,-0.39476004242897034,0.08780929446220398
1697701680478060500,1.786060546875,0.2987042963504791,-0.4509579837322235,0.1378987729549408
1697701680487654400,1.795654296875,0.3023693859577179,-0.47172680497169495,0.1782146841287613
1697701680497247500,1.80524755859375,0.32313820719718933,-0.435075968503952,0.19898349046707153
1697701680506839600,1.814839599609375,0.337798535823822,-0.3361186981201172,0.2026485800743103
1697701680516433000,1.824432861328125,0.3243598937988281,-0.22616620361804962,0.18798823654651642
1697701680526026500,1.834026611328125,0.2877090573310852,-0.15897299349308014,0.1635543555021286
1697701680535619600,1.84361962890625,0.25594499707221985,-0.13087402284145355,0.1391204595565796
1697701680545212000,1.8532119140625,0.23151111602783203,-0.13453911244869232,0.11590826511383057
1697701680554805000,1.862804931640625,0.208298921585083,-0.1650814712047577,0.09025268256664276
1697701680564398800,1.87239892578125,0.18753011524677277,-0.19195875525474548,0.06337540596723557
1697701680573992000,1.881991943359375,0.1704263836145401,-0.22005772590637207,0.042606595903635025
1697701680583584000,1.891583984375,0.16065283119678497,-0.2530434727668762,0.024281177669763565
1697701680593177000,1.901177001953125,0.15332266688346863,-0.2835858464241028,0.004734066314995289
1697701680602771000,1.91077099609375,0.14110571146011353,-0.3104631304740906,-0.01969982497394085
1697701680612364000,1.920364013671875,0.11178504675626755,-0.3092414140701294,-0.03802524134516716
1697701680621956400,1.929956298828125,0.05803048983216286,-0.27625566720962524,-0.05024218559265137
1697701680631549400,1.939549560546875,-0.007941014133393764,-0.2408265322446823,-0.06612421572208405
1697701680641143000,1.94914306640625,-0.06291726976633072,-0.21394924819469452,-0.09055810421705246
1697701680650736000,1.958736083984375,-0.09590301662683487,-0.21272756159305573,-0.11987877637147903
1697701680660328400,1.968328369140625,-0.10934165865182877,-0.23105297982692719,-0.15530791878700256
1697701680669921500,1.977921630859375,-0.10689827054738998,-0.256708562374115,-0.1882936656475067
1697701680679515400,1.987515380859375,-0.09712471067905426,-0.2921377122402191,-0.22127941250801086
1697701680689108500,1.9971083984375,-0.08490777015686035,-0.3312319219112396,-0.25060009956359863
1697701680698700500,2.006700439453125,-0.07391251623630524,-0.3434488773345947,-0.2664821147918701
1697701680708293600,2.016293701171875,-0.07269082218408585,-0.3202366828918457,-0.256708562374115
1697701680717887500,2.025887451171875,-0.08857285231351852,-0.2677038013935089,-0.22738789021968842
1697701680727480600,2.03548046875,-0.10934165865182877,-0.19928891956806183,-0.19684553146362305
1697701680737073000,2.045072998046875,-0.12155860662460327,-0.1382041871547699,-0.17363333702087402
1697701680746666000,2.054666015625,-0.12155860662460327,-0.10399674624204636,-0.1626380831003189
1697701680756259800,2.064259765625,-0.12155860662460327,-0.10155335813760757,-0.16141638159751892
1697701680765852700,2.073852783203125,-0.12766708433628082,-0.12965233623981476,-0.17241163551807404
1697701680775445000,2.083445068359375,-0.13499724864959717,-0.1638597846031189,-0.18462859094142914
1697701680785038000,2.0930380859375,-0.13621893525123596,-0.18585027754306793,-0.19806721806526184
1697701680794632000,2.1026318359375,-0.13988402485847473,-0.2041756957769394,-0.21883602440357208
1697701680804225000,2.11222509765625,-0.1447708010673523,-0.20539739727973938,-0.24571330845355988
1697701680813817000,2.121817138671875,-0.1435490995645523,-0.18462859094142914,-0.2677038013935089
1697701680823410200,2.13141015625,-0.13866232335567474,-0.15408621728420258,-0.2786990702152252
1697701680833004000,2.141004150390625,-0.13499724864959717,-0.12354385852813721,-0.279920756816864
1697701680842597000,2.15059716796875,-0.12766708433628082,-0.09422318637371063,-0.27747735381126404
1697701680852189400,2.160189453125,-0.11545012891292572,-0.08078455179929733,-0.2713688910007477
1697701680861782300,2.1697822265625,-0.09345962852239609,-0.09177979826927185,-0.26281702518463135
1697701680871376100,2.179376220703125,-0.07391251623630524,-0.11987877637147903,-0.2591519355773926
1697701680880969200,2.18896923828125,-0.06413896381855011,-0.16752485930919647,-0.2591519355773926
1697701680890561500,2.1985615234375,-0.06047387793660164,-0.23716144263744354,-0.26037365198135376
1697701680900154600,2.208154541015625,-0.06413896381855011,-0.305576354265213,-0.254265159368515
1697701680909748500,2.21774853515625,-0.07146912813186646,-0.3581092059612274,-0.24815669655799866
1697701680919341300,2.22734130859375,-0.08612946420907974,-0.3837648034095764,-0.23716144263744354
1697701680928933600,2.23693359375,-0.0910162404179573,-0.36788275837898254,-0.22250111401081085
1697701680938526700,2.246526611328125,-0.08368607610464096,-0.3361186981201172,-0.20906247198581696
1697701680948120600,2.25612060546875,-0.06780404597520828,-0.30435463786125183,-0.21028417348861694
1697701680957713700,2.265713623046875,-0.04703523963689804,-0.2811424434185028,-0.22005772590637207
1697701680967305700,2.2753056640625,-0.021379653364419937,-0.2689255177974701,-0.2286095917224884
1697701680976899000,2.284899169921875,0.004275931045413017,-0.2664821147918701,-0.22616620361804962
1697701680986492700,2.29449267578125,0.02870982140302658,-0.2786990702152252,-0.21028417348861694
1697701680996085800,2.304085693359375,0.06291726976633072,-0.3092414140701294,-0.17974179983139038
1697701681005678000,2.313677978515625,0.09712471067905426,-0.3642176687717438,-0.15530791878700256
1697701681015271000,2.32327099609375,0.12155860662460327,-0.4387410581111908,-0.15408621728420258
1697701681024864800,2.33286474609375,0.14843589067459106,-0.5083776116371155,-0.1772984117269516
1697701681034457900,2.342457763671875,0.1704263836145401,-0.575570821762085,-0.2176143378019333
1697701681044050200,2.35205029296875,0.18630841374397278,-0.6439857482910156,-0.2664821147918701
1697701681053643300,2.361643310546875,0.20096874237060547,-0.7062921524047852,-0.29946786165237427
1697701681063237000,2.371237060546875,0.18997350335121155,-0.7649334669113159,-0.2945810854434967
1697701681072830000,2.380829833984375,0.16187451779842377,-0.8125795722007751,-0.2579302489757538
1697701681082422300,2.39042236328125,0.14110571146011353,-0.834570050239563,-0.20051060616970062
1697701681092015400,2.400015380859375,0.1435490995645523,-0.8357917666435242,-0.12843063473701477
1697701681101609200,2.409609130859375,0.17286977171897888,-0.8162446618080139,-0.0587940476834774
1697701681111202000,2.4192021484375,0.21318569779396057,-0.7783721089363098,-0.012369656935334206
1697701681120794400,2.42879443359375,0.24250635504722595,-0.7490514516830444,-0.00259610079228878
1697701681130387500,2.438387451171875,0.2596100866794586,-0.7368345260620117,-0.03558185324072838
1697701681139981300,2.447981201171875,0.27060532569885254,-0.733169436454773,-0.12110047042369843
1697701681149574400,2.457574462890625,0.2852656841278076,-0.7429429888725281,-0.26281702518463135
1697701681159166500,2.46716650390625,0.31092125177383423,-0.7918107509613037,-0.4265241026878357
1697701681168759600,2.476759521484375,0.314586341381073,-0.8638907074928284,-0.5657972693443298
1697701681178353400,2.486353515625,0.30603447556495667,-0.8980981707572937,-0.6488724946975708
1697701681187946500,2.495946533203125,0.30725616216659546,-0.9054283499717712,-0.6647545099258423
1697701681197538600,2.50553857421875,0.3268032968044281,-0.9200887084007263,-0.621995210647583
1697701681207132000,2.5151318359375,0.37567105889320374,-0.9298622608184814,-0.5340332388877869
1697701681216725500,2.5247255859375,0.4477510452270508,-0.8944330811500549,-0.435075968503952
1697701681226318600,2.534318603515625,0.5137225389480591,-0.8761076927185059,-0.3605526089668274
1697701681235911000,2.543910888671875,0.5418215394020081,-0.9188669919967651,-0.33001023530960083
1697701681245503700,2.553503662109375,0.5308262705802917,-0.9970554113388062,-0.3593308925628662
1697701681255097900,2.563097900390625,0.48806697130203247,-1.0666919946670532,-0.4656183123588562
1697701681264690700,2.572690673828125,0.42576053738594055,-1.1070079803466797,-0.6415423154830933
1697701681274283000,2.582282958984375,0.3683409094810486,-1.1192249059677124,-0.8382351398468018
1697701681283876000,2.5918759765625,0.312142938375473,-1.1289983987808228,-1.000720500946045
1697701681293470000,2.601469970703125,0.2608317732810974,-1.0837957859039307,-1.055696725845337
1697701681303062800,2.611062744140625,0.2376195788383484,-0.932305634021759,-0.964069664478302
1697701681312655000,2.620655029296875,0.22906772792339325,-0.7673768401145935,-0.7612683773040771
1697701681322248200,2.630248291015625,0.23273280262947083,-0.6293253898620605,-0.5144860744476318
1697701681331842000,2.639842041015625,0.2522799074649811,-0.49982577562332153,-0.30435463786125183
1697701681341435000,2.649434814453125,0.25716668367385864,-0.40697699785232544,-0.20906247198581696
1697701681351027200,2.659027099609375,0.23884128034114838,-0.3605526089668274,-0.23838314414024353
1697701681360620300,2.668620361328125,0.20463383197784424,-0.3703261613845825,-0.3642176687717438
1697701681370214100,2.678214111328125,0.1704263836145401,-0.44607120752334595,-0.5425850749015808
1697701681379807000,2.687806884765625,0.1447708010673523,-0.5474718809127808,-0.7124006152153015
1697701681389399300,2.6973994140625,0.12522368133068085,-0.6329904794692993,-0.8211314082145691
1697701681398992400,2.706992431640625,0.1178935244679451,-0.6708629727363586,-0.8394568562507629
1697701681408586200,2.716586181640625,0.11667182296514511,-0.6549809575080872,-0.7771504521369934
1697701681418179000,2.726178955078125,0.1056765764951706,-0.5963396430015564,-0.6769714951515198
1697701681427771400,2.735771484375,0.09345962852239609,-0.5230379700660706,-0.6024481058120728
1697701681437364500,2.745364501953125,0.07635590434074402,-0.4778352677822113,-0.6036698222160339
1697701681446958300,2.754958251953125,0.06902574002742767,-0.4534013867378235,-0.6659762263298035
1697701681456551200,2.76455126953125,0.09590301662683487,-0.44729289412498474,-0.7527165412902832
1697701681466143500,2.7741435546875,0.11911521852016449,-0.47172680497169495,-0.826018214225769
1697701681475736600,2.783736572265625,0.11545012891292572,-0.5218162536621094,-0.8712208867073059
1697701681485330400,2.793330322265625,0.09956810623407364,-0.5743491649627686,-0.8846595287322998
1697701681494923300,2.80292333984375,0.08246438205242157,-0.5963396430015564,-0.8492304086685181
1697701681504515600,2.812515625,0.07024743407964706,-0.5719057321548462,-0.7649334669113159
1697701681514108700,2.822108642578125,0.06047387793660164,-0.5059342384338379,-0.6427640318870544
1697701681523702500,2.83170263671875,0.053143709897994995,-0.40575528144836426,-0.520594596862793
1697701681533295400,2.84129541015625,0.05925218388438225,-0.3067980408668518,-0.43018919229507446
1697701681542887700,2.8508876953125,0.06902574002742767,-0.2432699203491211,-0.3837648034095764
1697701681552480800,2.860480712890625,0.0653606578707695,-0.23593975603580475,-0.38254308700561523
1697701681562074400,2.870074462890625,0.02993151545524597,-0.28602921962738037,-0.3984251320362091
1697701681571667500,2.87966748046875,-0.02870982140302658,-0.3214583694934845,-0.4143071472644806
1697701681581259800,2.889259765625,-0.08612946420907974,-0.27747735381126404,-0.43141087889671326
1697701681590852600,2.8988525390625,-0.10323318839073181,-0.10644013434648514,-0.44607120752334595
1697701681600446500,2.908446533203125,-0.06413896381855011,0.13301199674606323,-0.48638713359832764
1697701681610039600,2.91803955078125,-0.006719320081174374,0.35169529914855957,-0.5694623589515686
1697701681619631900,2.9276318359375,0.031153209507465363,0.5288410186767578,-0.6671979427337646
1697701681629224700,2.937224609375,0.02504473738372326,0.61313796043396,-0.756381630897522
1697701681638818600,2.946818603515625,-0.012827792204916477,0.6009209752082825,-0.826018214225769
1697701681648411600,2.95641162109375,-0.08002099394798279,0.530062735080719,-0.8480086922645569
1697701681658003700,2.966003662109375,-0.18753011524677277,0.3846810758113861,-0.8138012886047363
1697701681667596800,2.9755966796875,-0.3402419090270996,0.14645062386989594,-0.7209524512290955
1697701681677190700,2.985190673828125,-0.5027272701263428,-0.15530791878700256,-0.538919985294342
1697701681686783700,2.99478369140625,-0.6578825116157532,-0.4766135811805725,-0.2713688910007477
1697701681696375800,3.004375732421875,-0.7727217674255371,-0.7918107509613037,0.023059483617544174
1697701681705969000,3.013968994140625,-0.8350282311439514,-1.0923476219177246,0.2564031481742859
1697701681715562800,3.023562744140625,-0.8594620823860168,-1.3892194032669067,0.365286648273468
1697701681725155600,3.033155517578125,-0.8240329623222351,-1.6323366165161133,0.34818294644355774
1697701681734748000,3.042747802734375,-0.7140804529190063,-1.8192558288574219,0.2295258641242981
1697701681744341000,3.052341064453125,-0.6444438695907593,-1.7801616191864014,0.0584886260330677
1697701681753934800,3.061934814453125,-0.5454866290092468,-1.4735163450241089,-0.11377029865980148
1697701681763527700,3.071527587890625,-0.37444937229156494,-1.1008994579315186,-0.25060009956359863
1697701681773120000,3.0811201171875,-0.10201149433851242,-0.8565605878829956,-0.35444411635398865
1697701681782712800,3.090712890625,0.2351761907339096,-0.6916317939758301,-0.4375193417072296
1697701681792306700,3.100306640625,0.2486148327589035,-0.5633538961410522,-0.45950984954833984
1697701681801899800,3.109899658203125,0.034818295389413834,-0.5218162536621094,-0.4485146105289459
1697701681811491800,3.119491943359375,-0.22784602642059326,-0.5829010009765625,-0.42163732647895813
1697701681821085000,3.1290849609375,-0.4416425824165344,-0.8443436026573181,-0.3874298632144928
1697701681830678800,3.1386787109375,-0.5906893014907837,-1.2499462366104126,-0.3507790267467499
1697701681840272000,3.14827197265625,-0.6786513328552246,-1.6506620645523071,-0.31412819027900696
1697701681849864000,3.157864013671875,-0.7055285573005676,-1.9230998754501343,-0.28602921962738037
1697701681859457000,3.16745703125,-0.6505523324012756,-2.064816474914551,-0.26403874158859253
1697701681869051000,3.17705078125,-0.5308262705802917,-2.094137191772461,-0.23716144263744354
1697701681878643700,3.186643798828125,-0.37689274549484253,-2.0086185932159424,-0.2017323076725006
1697701681888236000,3.196236083984375,-0.2241809368133545,-1.8534632921218872,-0.15530791878700256
1697701681897829000,3.2058291015625,-0.1044548824429512,-1.7105250358581543,-0.09544488787651062
1697701681907423000,3.215423095703125,-0.02626643143594265,-1.6017942428588867,-0.0331384651362896
1697701681917015800,3.225015869140625,0.0030542362947016954,-1.4979501962661743,0.020616095513105392
1697701681926608100,3.234608154296875,-0.004275931045413017,-1.4014363288879395,0.059710320085287094
1697701681936201000,3.244200927734375,-0.014049487188458443,-1.3317997455596924,0.07437065243721008
1697701681945794800,3.253794921875,-0.015271181240677834,-1.297592282295227,0.03771981969475746
1697701681955387600,3.2633876953125,0.017714571207761765,-1.3354648351669312,-0.05512896552681923
1697701681964980000,3.27297998046875,0.20096874237060547,-1.4857332706451416,-0.16019469499588013
1697701681974573000,3.282572998046875,0.45508119463920593,-1.6188979148864746,-0.25060009956359863
1697701681984167000,3.2921669921875,0.7324058413505554,-1.7410674095153809,-0.30068957805633545
1697701681993759700,3.301759765625,1.0720369815826416,-1.9108829498291016,-0.2982461750507355
1697701682003352000,3.31135205078125,1.299272060394287,-2.0318307876586914,-0.34222719073295593
1697701682012945000,3.32094482421875,1.378682255744934,-2.252957344055176,-0.38254308700561523
1697701682022538800,3.330538818359375,1.349361538887024,-2.3885655403137207,-0.5193728804588318
1697701682032131800,3.3401318359375,1.3017154932022095,-2.5058481693267822,-0.7136223316192627
1697701682041724000,3.349723876953125,1.395785927772522,-2.6915457248687744,-0.917645275592804
1697701682051317000,3.35931689453125,1.7512991428375244,-2.985974073410034,-1.061805248260498
1697701682060910800,3.368910888671875,2.3207614421844482,-3.2156527042388916,-1.1448805332183838
1697701682070503700,3.378503662109375,2.9316086769104004,-3.246195077896118,-1.181531310081482
1697701682080096000,3.388095947265625,3.4642674922943115,-3.040950298309326,-1.1803096532821655
1697701682089688800,3.397688720703125,3.928511381149292,-2.6939890384674072,-1.1375503540039062
1697701682099282700,3.40728271484375,4.319453716278076,-2.426438093185425,-1.0202676057815552
1697701682108875300,3.416875244140625,4.547910690307617,-2.0574862957000732,-0.8333483934402466
1697701682118467300,3.42646728515625,4.557683944702148,-1.6274497509002686,-0.6024481058120728
1697701682128060400,3.436060302734375,4.411080837249756,-1.4332003593444824,-0.31168481707572937
1697701682137654300,3.445654296875,4.208279609680176,-1.4441956281661987,0.0462716780602932
1697701682147247000,3.4552470703125,3.9126293659210205,-1.3696722984313965,0.46668729186058044
1697701682156839400,3.46483935546875,3.4373903274536133,-1.1008994579315186,1.226581335067749
1697701682166432300,3.474432373046875,2.953599214553833,-1.1570974588394165,2.273573398590088
1697701682176026000,3.484026123046875,2.5272278785705566,-1.4881765842437744,3.20816969871521
1697701682185619200,3.493619140625,2.0898611545562744,-1.4270919561386108,4.060912609100342
1697701682195211300,3.503211181640625,1.7012096643447876,-1.1998567581176758,4.648547649383545
1697701682204804400,3.512804443359375,1.4886348247528076,-1.0056072473526,4.863565921783447
1697701682214398200,3.522398193359375,1.5411676168441772,-0.8406785130500793,4.819584846496582
1697701682223991000,3.531990966796875,1.6743323802947998,-0.6354338526725769,4.629000663757324
1697701682233583400,3.541583251953125,1.748855710029602,-0.2652604281902313,4.395657062530518
1697701682243176200,3.55117626953125,1.6987662315368652,0.22219568490982056,4.225841522216797
1697701682252770000,3.56077001953125,1.536280870437622,0.3981196880340576,4.119554042816162
1697701682262363000,3.57036279296875,1.3383663892745972,0.26006820797920227,4.047473907470703
1697701682271955200,3.579955078125,1.1209046840667725,0.18676654994487762,4.051138877868652
1697701682281548000,3.589548095703125,0.8985562920570374,0.3052709102630615,4.1268839836120605
1697701682291142000,3.599141845703125,0.6639909744262695,0.5398362874984741,4.219732761383057
1697701682300735000,3.60873486328125,0.40010493993759155,0.8220477104187012,4.285704135894775
1697701682310327000,3.6183271484375,0.1435490995645523,0.9710944294929504,4.2514967918396
1697701682319920000,3.627920166015625,-0.04825693368911743,1.0798252820968628,4.04503059387207
1697701682329514000,3.637513916015625,-0.16309621930122375,1.217876672744751,3.6980693340301514
1697701682339106800,3.64710693359375,-0.2376195788383484,1.2752963304519653,3.3107922077178955
1697701682348699100,3.65669921875,-0.29381752014160156,1.2752963304519653,2.941840410232544
1697701682358292000,3.6662919921875,-0.3402419090270996,1.2826265096664429,2.6364166736602783
1697701682367885800,3.6758857421875,-0.3939964771270752,1.1726740598678589,2.404294729232788
1697701682377478700,3.685478759765625,-0.4599680006504059,0.9210049510002136,2.271130084991455
1697701682387071000,3.695071044921875,-0.5247178077697754,0.5263976454734802,2.233257532119751
1697701682396664000,3.7046640625,-0.5882459282875061,-0.051463883370161057,2.0781023502349854
1697701682406257700,3.714257568359375,-0.6859814524650574,-0.7698202729225159,1.462368369102478
1697701682415850800,3.723850830078125,-0.7189671993255615,-1.3317997455596924,0.41293275356292725
1697701682425442800,3.73344287109375,-0.5809157490730286,-1.5492613315582275,-0.4888305068016052
1697701682435036000,3.743035888671875,-0.42453885078430176,-1.6372233629226685,-0.8235748410224915
1697701682444629800,3.752629638671875,-0.3915531039237976,-1.8986660242080688,-0.7771504521369934
1697701682454222600,3.76222265625,-0.37200596928596497,-2.3531363010406494,-0.5657972693443298
1697701682463814700,3.771814697265625,-0.3035911023616791,-2.7697341442108154,-0.32878854870796204
1697701682473407700,3.78140771484375,-0.17653486132621765,-2.9432148933410645,-0.16019469499588013
1697701682483001600,3.791001708984375,-0.023823043331503868,-2.84670090675354,-0.10277505218982697
1697701682492594400,3.800594482421875,0.04825693368911743,-2.76484751701355,-0.2029540091753006
1697701682502186800,3.810186767578125,-0.0397050715982914,-2.7721774578094482,-0.4424061179161072
1697701682511779600,3.819779541015625,-0.3035911023616791,-2.8271539211273193,-0.751494824886322
1697701682521373400,3.82937353515625,-0.7091936469078064,-2.825932025909424,-1.0056072473526
1697701682530966300,3.83896630859375,-1.0830321311950684,-2.800276517868042,-1.1289983987808228
1697701682540558600,3.84855859375,-1.372573733329773,-2.7843945026397705,-1.11678147315979
1697701682550151400,3.8581513671875,-1.6181343793869019,-2.7733993530273438,-0.9823951125144958
1697701682559745300,3.867745361328125,-1.7586292028427124,-2.791724681854248,-0.7502731680870056
1697701682569338000,3.877338134765625,-1.835595965385437,-2.777064323425293,-0.4656183123588562
1697701682578930400,3.886930419921875,-1.9247796535491943,-2.6133573055267334,-0.22372281551361084
1697701682588523500,3.8965234375,-2.02740216255188,-2.394674062728882,-0.11743538826704025
1697701682598117000,3.9061171875,-2.042062282562256,-2.0733683109283447,-0.16019469499588013
1697701682607710200,3.915710205078125,-2.013963460922241,-1.8827840089797974,-0.2518217861652374
1697701682617302300,3.92530224609375,-2.0469491481781006,-1.8534632921218872,-0.3642176687717438
1697701682626895400,3.934895263671875,-2.1507933139801025,-1.737402319908142,-0.44607120752334595
1697701682636489000,3.944489013671875,-2.0640528202056885,-1.4820681810379028,-0.3984251320362091
1697701682646082000,3.95408203125,-1.692657709121704,-1.3501251935958862,-0.2151709496974945
1697701682655674000,3.963674072265625,-1.1233481168746948,-1.289040446281433,-0.031916771084070206
1697701682665267200,3.97326708984375,-0.46485477685928345,-1.1131163835525513,0.08047912269830704
1697701682674860800,3.98286083984375,0.11911521852016449,-0.7551599144935608,0.01817270554602146
1697701682684454000,3.992453857421875,0.6114581227302551,-0.24571330845355988,-0.18462859094142914
1697701682694046000,4.0020458984375,1.0231691598892212,0.14034216105937958,-0.4485146105289459
1697701682703639000,4.01163916015625,1.3799039125442505,0.26128992438316345,-0.7111788988113403
1697701682713233000,4.02123291015625,1.7244218587875366,0.32848310470581055,-1.0056072473526
1697701682722825700,4.03082568359375,2.219360828399658,0.2038702666759491,-1.3195828199386597
1697701682732417800,4.040417724609375,2.947490692138672,-0.0050394898280501366,-1.5761386156082153
1697701682742011000,4.050010986328125,3.6499650478363037,0.08292251825332642,-1.6506620645523071
1697701682751604700,4.059604736328125,4.1349778175354,0.6583406329154968,-1.4075448513031006
1697701682761197600,4.069197509765625,4.339000701904297,1.407239317893982,-0.8932114243507385
1697701682770789600,4.07878955078125,4.191175937652588,1.8472020626068115,-0.31290650367736816
1697701682780382700,4.0883828125,3.7562525272369385,1.7346534729003906,0.1525591015815735
1697701682789976600,4.0979765625,3.254136085510254,1.288735032081604,0.3921639323234558
1697701682799569400,4.1075693359375,2.879075765609741,0.6815528273582458,0.3799470067024231
1697701682809161500,4.117161376953125,2.763014793395996,0.10491301864385605,0.16844113171100616
1697701682818754600,4.126754638671875,2.9780330657958984,-0.3495573401451111,-0.07956285774707794
1697701682828348400,4.136348388671875,3.459380626678467,-0.5877877473831177,-0.22616620361804962
1697701682837941200,4.145941162109375,4.216831207275391,-0.520594596862793,-0.37887802720069885
1697701682847533300,4.155533203125,5.144097328186035,-0.28847262263298035,-0.5352548956871033
1697701682857126400,4.16512646484375,6.0823588371276855,-0.007482878863811493,-0.5890094637870789
1697701682866720300,4.17472021484375,6.812932014465332,0.28816720843315125,-0.520594596862793
1697701682876313000,4.18431298828125,7.07804012298584,0.4017847776412964,-0.4106420576572418
1697701682885905200,4.1939052734375,6.743295669555664,0.3480302393436432,-0.35322242975234985
1697701682895498200,4.203498291015625,5.892996311187744,0.4518742561340332,-0.4509579837322235
1697701682905091800,4.213091796875,4.568679332733154,0.5007420182228088,-0.7966975569725037
1697701682914685000,4.222684814453125,3.0207924842834473,0.0010689827613532543,-1.5370444059371948
1697701682924277000,4.232277099609375,1.6535634994506836,-0.2786990702152252,-2.3238155841827393
1697701682933870000,4.2418701171875,0.6505523324012756,0.4237752854824066,-2.4374332427978516
1697701682943463700,4.251463623046875,0.21440738439559937,1.029735803604126,-1.9194347858428955
1697701682953056800,4.261056884765625,0.04214845970273018,1.1580137014389038,-1.1118947267532349
1697701682962648800,4.27064892578125,-0.08857285231351852,0.9491039514541626,-0.3067980408668518
1697701682972242000,4.280241943359375,-0.08735115826129913,0.6241331696510315,0.3542914092540741
1697701682981835500,4.28983544921875,0.04459185153245926,0.4653128981590271,0.864959716796875
1697701682991428600,4.2994287109375,0.22906772792339325,0.4653128981590271,1.2375766038894653
1697701683001020700,4.309020751953125,0.3536805510520935,0.44332239031791687,1.502684235572815
1697701683010613500,4.318613525390625,0.4489727318286896,0.3211529552936554,1.6786082983016968
1697701683020207400,4.328207275390625,0.555260181427002,0.09147437661886215,1.7348061800003052
1697701683029800200,4.33780029296875,0.7165238261222839,-0.13942588865756989,1.6321839094161987
1697701683039392500,4.347392578125,0.9840749502182007,-0.4534013867378235,1.368297815322876
1697701683048985300,4.3569853515625,1.326149344444275,-0.9567395448684692,1.045770525932312
1697701683058579200,4.3665791015625,1.687770962715149,-1.4429739713668823,0.7171346545219421
1697701683068172000,4.376172119140625,1.9870861768722534,-1.7117466926574707,0.3701734244823456
1697701683077764400,4.385764404296875,2.160719394683838,-1.8094823360443115,0.010842538438737392
1697701683087357200,4.395357177734375,2.1130733489990234,-1.8583500385284424,-0.30435463786125183
1697701683096951000,4.404950927734375,1.836817741394043,-1.6323366165161133,-0.4766135811805725
1697701683106543900,4.4145439453125,1.4080029726028442,-0.9762866497039795,-0.46073153614997864
1697701683116136200,4.42413623046875,0.860683798789978,-0.33856210112571716,-0.30191126465797424
1697701683125729000,4.43372900390625,0.3683409094810486,-0.029473381116986275,-0.07956285774707794
1697701683135323000,4.443322998046875,0.14965757727622986,-0.05390727147459984,0.09391776472330093
1697701683144915700,4.452915771484375,0.4709632396697998,-0.17485502362251282,0.18554484844207764
1697701683154507800,4.4625078125,1.0146173238754272,-0.13209572434425354,0.23563432693481445
1697701683164100900,4.472100830078125,1.3334795236587524,-0.0587940476834774,0.13056860864162445
1697701683173694500,4.481694580078125,1.5509412288665771,-0.11377029865980148,-0.027029991149902344
1697701683183287600,4.49128759765625,1.740303874015808,-0.2945810854434967,-0.20539739727973938
1697701683192879600,4.500879638671875,1.882020354270935,-0.5572454333305359,-0.411863774061203
1697701683202472700,4.51047265625,1.915006160736084,-0.7368345260620117,-0.6195518374443054
1697701683212066300,4.52006640625,1.6657804250717163,-0.6708629727363586,-0.8186880350112915
1697701683221659100,4.5296591796875,0.9730796813964844,-0.35322242975234985,-0.9604045748710632
1697701683231251500,4.53925146484375,-0.016492875292897224,0.13056860864162445,-0.9970554113388062
1697701683240844300,4.54884423828125,-0.8179244995117188,0.48486000299453735,-0.9103151559829712
1697701683250438100,4.558438232421875,-0.8912261724472046,0.2539597451686859,-0.6598677635192871
1697701683260031000,4.568031005859375,-0.6652126908302307,-0.12720894813537598,-0.48272204399108887
1697701683269623000,4.577623046875,-0.5760289430618286,-0.4008685052394867,-0.5291464328765869
1697701683279216000,4.587216064453125,-0.4844018816947937,-0.9298622608184814,-0.5584670901298523
1697701683288810000,4.59681005859375,-0.2217375487089157,-1.2462811470031738,-0.733169436454773
1697701683298402800,4.60640283203125,0.3170297145843506,-1.0275977849960327,-1.3183610439300537
1697701683307995000,4.615994873046875,0.6505523324012756,0.20509196817874908,-1.4270919561386108
1697701683317588000,4.625587890625,0.7898254990577698,1.7163281440734863,-1.4393088817596436
1697701683327181600,4.635181640625,0.8448017835617065,2.172172784805298,-1.3476817607879639
1697701683336774400,4.6447744140625,0.9107732772827148,1.408461093902588,-0.9982771277427673
1697701683346366700,4.65436669921875,1.0915840864181519,0.15866757929325104,-0.5254813432693481
1697701683355959600,4.66395947265625,1.3628002405166626,-0.9261971712112427,0.007177455350756645
1697701683365553400,4.673553466796875,1.6633371114730835,-1.4429739713668823,0.44103172421455383
1697701683375146200,4.683146240234375,1.8441479206085205,-1.3879976272583008,0.6255075931549072
1697701683384738300,4.69273828125,1.7842848300933838,-1.0654703378677368,0.5070032477378845
1697701683394331400,4.702331298828125,1.5558279752731323,-0.681858241558075,0.030389651656150818
1697701683403925200,4.71192529296875,1.4031161069869995,-0.4387410581111908,-0.668419599533081
1697701683413518000,4.72151806640625,1.3518049716949463,-0.7453863620758057,-1.3464601039886475
1697701683423110100,4.731110107421875,1.2479609251022339,-1.3171393871307373,-1.7569494247436523
1697701683432703200,4.740703125,1.2333005666732788,-1.4625210762023926,-1.7422890663146973
1697701683442296800,4.750296875,1.4263283014297485,-1.061805248260498,-1.3220261335372925
1697701683451889700,4.7598896484375,1.7696244716644287,-0.8492304086685181,-0.6928535103797913
1697701683461482000,4.76948193359375,2.073979139328003,-0.5926745533943176,-0.05635065957903862
1697701683471074800,4.77907470703125,2.4026150703430176,-0.23349636793136597,0.5900784730911255
1697701683480668700,4.788668701171875,2.6823830604553223,0.019394399598240852,1.1215155124664307
1697701683490261500,4.798261474609375,2.9658162593841553,0.40789327025413513,1.1606098413467407
1697701683499853600,4.807853515625,3.158843994140625,0.6791094541549683,0.7110261917114258
1697701683509446700,4.81744677734375,2.5064589977264404,0.4152234196662903,-0.1516428291797638
1697701683519040500,4.82704052734375,1.6584503650665283,-0.4680617153644562,-1.0349279642105103
1697701683528633300,4.83663330078125,1.166107416152954,-1.5040587186813354,-1.2096302509307861
1697701683538225400,4.846225341796875,0.8411366939544678,-1.4686294794082642,-0.7136223316192627
1697701683547818200,4.855818359375,0.5931326746940613,-0.4656183123588562,-0.05024218559265137
1697701683557412000,4.865412109375,0.48806697130203247,0.2588465213775635,0.4178195297718048
1697701683567005000,4.8750048828125,0.38788801431655884,0.23807771503925323,0.6939224600791931
1697701683576597200,4.88459716796875,0.09834641218185425,0.021837789565324783,0.8893936276435852
1697701683586190000,4.894190185546875,0.06413896381855011,0.16111096739768982,0.9236010313034058
1697701683595784000,4.903783935546875,0.08490777015686035,0.4677563011646271,0.7134696245193481
1697701683605376800,4.913376708984375,0.17286977171897888,0.9161182045936584,0.2441861927509308
1697701683614968800,4.92296875,0.265718549489975,0.7414158582687378,-0.150421142578125
1697701683624562000,4.93256201171875,0.312142938375473,0.06337540596723557,-0.26281702518463135
1697701683634155500,4.942155517578125,0.3243598937988281,-0.4411844313144684,-0.20784078538417816
1697701683643748400,4.951748291015625,0.27060532569885254,-0.7539382576942444,-0.150421142578125
1697701683653340700,4.961340576171875,0.21318569779396057,-0.9726215600967407,-0.1760767251253128
1697701683662933500,4.97093359375,0.16676130890846252,-1.102121114730835,-0.3067980408668518
1697701683672527400,4.98052734375,0.10201149433851242,-0.9237537384033203,-0.5938962697982788
1697701683682120200,4.9901201171875,-0.033596597611904144,-0.43141087889671326,-1.032484531402588
1697701683691712300,4.999712158203125,-0.28404396772384644,0.08170082420110703,-1.5297142267227173
1697701683701305300,5.009305419921875,-0.6163448691368103,-0.006261184345930815,-1.6225630044937134
1697701683710899000,5.01889892578125,-0.846023440361023,-0.3361186981201172,-0.9542961120605469
1697701683720492000,5.028491943359375,-1.0549331903457642,0.22097399830818176,-0.45828816294670105
1697701683730084000,5.038083984375,-1.1013575792312622,0.3736858069896698,-0.06612421572208405
1697701683739677000,5.047677001953125,-0.754396378993988,-0.00259610079228878,0.2148655205965042
1697701683749270800,5.057270751953125,-0.265718549489975,-0.4778352677822113,0.3187095522880554
1697701683758863600,5.066863525390625,-0.20096874237060547,-0.7698202729225159,0.4446968138217926
1697701683768456000,5.0764560546875,-0.2095206081867218,-0.7185090780258179,0.5143333673477173
1697701683778048800,5.086048828125,-0.26694026589393616,-0.49616068601608276,0.4850127100944519
1697701683787642400,5.095642333984375,-0.3549022674560547,-0.20051060616970062,0.3787252902984619
1697701683797235500,5.1052353515625,-0.3781144618988037,0.10246963053941727,0.2551814317703247
1697701683806827500,5.11482763671875,-0.38666632771492004,0.32848310470581055,0.13301199674606323
1697701683816420400,5.12442041015625,-0.43919917941093445,0.4396573007106781,0.0022906772792339325
1697701683826014200,5.13401416015625,-0.46729815006256104,0.3370349705219269,-0.05268557742238045
1697701683835607000,5.14360693359375,-0.518609344959259,0.2576248347759247,-0.01725643500685692
1697701683845199400,5.153199462890625,-0.5454866290092468,0.2160872220993042,0.07803573459386826
1697701683854792200,5.162792236328125,-0.5467082858085632,0.18432316184043884,0.1916533261537552
1697701683864385800,5.1723857421875,-0.5479300022125244,0.21242213249206543,0.22219568490982056
1697701683873979000,5.181978759765625,-0.5454866290092468,0.266176700592041,0.21120044589042664
1697701683883571000,5.191571044921875,-0.5125008225440979,0.2820587158203125,0.21364383399486542
1697701683893163800,5.201163818359375,-0.45019441843032837,0.26373329758644104,0.23563432693481445
1697701683902757600,5.210757568359375,-0.3646758198738098,0.2160872220993042,0.2673983871936798
1697701683912350500,5.2203505859375,-0.2864873707294464,0.1501157134771347,0.31382277607917786
1697701683921942800,5.22994287109375,-0.2107423096895218,0.13056860864162445,0.3396310806274414
1697701683931535600,5.23953564453125,-0.12522368133068085,0.09636115282773972,0.3823903799057007
1697701683941129500,5.24912939453125,-0.02993151545524597,0.03405473381280899,0.45324867963790894
1697701683950722300,5.258722412109375,0.036039989441633224,-0.00992626789957285,0.5351021885871887
1697701683960314400,5.268314453125,0.04703523963689804,-0.001374406274408102,0.6096255779266357
1697701683969907200,5.2779072265625,0.06169557198882103,0.05238015204668045,0.6584933400154114
1697701683979501000,5.2875009765625,0.08490777015686035,0.12323843687772751,0.6719319820404053
1697701683989094000,5.297093994140625,0.09468132257461548,0.15378080308437347,0.6658235192298889
1697701683998686200,5.306686279296875,0.09590301662683487,0.14645062386989594,0.6511631608009338
1697701684008279000,5.316279052734375,0.09590301662683487,0.14645062386989594,0.6352811455726624
1697701684017873000,5.325872802734375,0.08857285231351852,0.15866757929325104,0.6218425035476685
1697701684027465700,5.3354658203125,0.07513421028852463,0.1904316395521164,0.6145123243331909
1697701684037057800,5.345057861328125,0.07146912813186646,0.26373329758644104,0.6132906675338745
1697701684046651000,5.35465087890625,0.07635590434074402,0.37857258319854736,0.6255075931549072
1697701684056244500,5.364244384765625,0.07391251623630524,0.5141806602478027,0.6536065936088562
1697701684065837300,5.37383740234375,0.06413896381855011,0.6485670804977417,0.6865923404693604
1697701684075429600,5.3834296875,0.04703523963689804,0.7463026642799377,0.7195780873298645
1697701684085022500,5.3930224609375,0.021379653364419937,0.7792884111404419,0.7379034757614136
1697701684094616300,5.4026162109375,-0.0006108472589403391,0.7780666947364807,0.7342383861541748
1697701684104209200,5.412209228515625,-0.022601349279284477,0.7389724850654602,0.7098045349121094
1697701684113801200,5.42180126953125,-0.034818295389413834,0.71453857421875,0.6988092660903931
1697701684123394000,5.43139404296875,-0.04581354558467865,0.7206470370292664,0.7342383861541748
1697701684132988000,5.44098779296875,-0.05070032179355621,0.7157602906227112,0.7977665066719055
1697701684142580700,5.450580810546875,-0.03237490355968475,0.659562349319458,0.7733326554298401
1697701684152173000,5.460173095703125,-0.004275931045413017,0.5728220343589783,0.5986303091049194
1697701684161766000,5.469765869140625,0.018936265259981155,0.5373928546905518,0.3518480062484741
1697701684171359500,5.479359375,0.02504473738372326,0.7243121266365051,0.15744587779045105
1697701684180952600,5.48895263671875,0.016492875292897224,0.9710944294929504,0.15866757929325104
1697701684190544600,5.498544677734375,-0.021379653364419937,0.9576557874679565,0.27472856640815735
1697701684200137500,5.508137451171875,-0.04092676565051079,0.6607840061187744,0.31137940287590027
1697701684209731300,5.5177314453125,-0.03237490355968475,0.32970482110977173,0.20753535628318787
1697701684219324200,5.52732421875,-0.04703523963689804,0.08903098851442337,-0.014813045971095562
1697701684228916500,5.53691650390625,-0.1435490995645523,-0.09910997003316879,-0.2530434727668762
1697701684238509300,5.54650927734375,-0.3512371778488159,-0.29946786165237427,-0.4106420576572418
1697701684248103200,5.556103271484375,-0.5955760478973389,-0.4228590130805969,-0.4020902216434479
1697701684257696000,5.565696044921875,-0.8814526200294495,-0.19440214335918427,-0.305576354265213
1697701684267288000,5.5752880859375,-1.2406307458877563,0.2551814317703247,-0.30191126465797424
1697701684276881000,5.584880859375,-1.5375025272369385,0.6180247068405151,-0.4815003573894501
1697701684286474800,5.594474853515625,-1.4507622718811035,0.8354863524436951,-0.774707019329071
1697701684296067600,5.604067626953125,-1.0390511751174927,0.7182036638259888,-0.9738432168960571
1697701684305659600,5.61365966796875,-0.578472375869751,0.28938889503479004,-0.968956470489502
1697701684315252700,5.623252685546875,-0.25594499707221985,-0.08200624585151672,-0.7869240045547485
1697701684324846300,5.632846435546875,-0.2987042963504791,-0.149199441075325,-0.5010474920272827
1697701684334439400,5.642439453125,-0.18997350335121155,-0.5315898060798645,-0.027029991149902344
1697701684344031500,5.652031494140625,-0.02748812735080719,-1.0776872634887695,0.14889401197433472
1697701684353624300,5.661624267578125,-0.18753011524677277,-0.28725093603134155,0.10124793648719788
1697701684363218200,5.67121826171875,0.004275931045413017,0.0022906772792339325,0.43614494800567627
1697701684372811000,5.68081103515625,0.12033691257238388,0.062153708189725876,0.6633801460266113
1697701684382403300,5.6904033203125,0.2608317732810974,-0.08689302206039429,0.8124268651008606
1697701684391996200,5.69999609375,0.3402419090270996,-0.305576354265213,0.8845068216323853
1697701684401589800,5.70958984375,0.3817795515060425,-0.3471139669418335,0.8771766424179077
1697701684411182800,5.719182861328125,0.3939964771270752,-0.03680354729294777,0.7464553713798523
1697701684420775000,5.72877490234375,0.42331716418266296,0.5422796607017517,0.4679090082645416
1697701684430367700,5.73836767578125,0.47707170248031616,1.0492829084396362,0.08903098851442337
1697701684439961600,5.747961669921875,0.4868452548980713,1.1372449398040771,-0.2420482337474823
1697701684449554400,5.757554443359375,0.4282039403915405,0.8098307251930237,-0.4362976551055908
1697701684459146500,5.767146484375,0.33413344621658325,0.24662958085536957,-0.5095993280410767
1697701684468739600,5.776739501953125,0.21685077250003815,-0.32756683230400085,-0.5328115224838257
1697701684478333400,5.78633349609375,0.07513421028852463,-0.7233958840370178,-0.5584670901298523
1697701684487926300,5.79592626953125,-0.08490777015686035,-0.8492304086685181,-0.5853443741798401
1697701684497518300,5.805518310546875,-0.24250635504722595,-0.7075138092041016,-0.5719057321548462
1697701684507111200,5.815111083984375,-0.37200596928596497,-0.3972034156322479,-0.49860408902168274
1697701684516705000,5.824705078125,-0.46485477685928345,-0.07467607408761978,-0.3972034156322479
1697701684526297900,5.8342978515625,-0.5137225389480591,0.13056860864162445,-0.32634514570236206
1697701684535890000,5.843889892578125,-0.5222744345664978,0.20753535628318787,-0.2848075330257416
1697701684545483000,5.85348291015625,-0.4990622103214264,0.17332790791988373,-0.24815669655799866
1697701684555076600,5.86307666015625,-0.43797749280929565,0.07559234648942947,-0.21394924819469452
1697701684564669400,5.87266943359375,-0.3549022674560547,-0.016034740954637527,-0.1626380831003189
1697701684574261800,5.88226171875,-0.2718270421028137,-0.028251685202121735,-0.1113269105553627
1697701684583854600,5.8918544921875,-0.1948602795600891,0.042606595903635025,-0.08689302206039429
1697701684593448400,5.901448486328125,-0.10689827054738998,0.14156384766101837,-0.11010521650314331
1697701684603041300,5.911041259765625,-0.004275931045413017,0.2515163719654083,-0.17363333702087402
1697701684612633300,5.92063330078125,0.0653606578707695,0.323596328496933,-0.23471805453300476
1697701684622226400,5.930226318359375,0.10201149433851242,0.3199312388896942,-0.27503398060798645
1697701684631820000,5.939820068359375,0.12400199472904205,0.26128992438316345,-0.30068957805633545
1697701684641413000,5.9494130859375,0.12278030067682266,0.21853061020374298,-0.305576354265213
1697701684651005200,5.959005126953125,0.07269082218408585,0.2283041626214981,-0.2982461750507355
1697701684660598000,5.968597900390625,-0.016492875292897224,0.2283041626214981,-0.32878854870796204
1697701684670191900,5.97819189453125,-0.1178935244679451,0.19409671425819397,-0.4240806996822357
1697701684679784700,5.98778466796875,-0.22051586210727692,0.1782146841287613,-0.5706840753555298
1697701684689376800,5.997376708984375,-0.32191649079322815,0.1892099380493164,-0.719730794429779
1697701684698969900,6.006969970703125,-0.43919917941093445,0.19898349046707153,-0.8186880350112915
1697701684708563500,6.0165634765625,-0.5601469278335571,0.22586077451705933,-0.8394568562507629
1697701684718156500,6.026156494140625,-0.6676560640335083,0.2845021188259125,-0.7979192137718201
1697701684727748600,6.03574853515625,-0.754396378993988,0.3333698809146881,-0.7209524512290955
1697701684737341400,6.045341552734375,-0.8276980519294739,0.26006820797920227,-0.6171084642410278
1697701684746935300,6.054935302734375,-0.9400939345359802,-0.09666658192873001,-0.5144860744476318
1697701684756528000,6.064528076171875,-1.0989142656326294,-0.6207735538482666,-0.4558447599411011
1697701684766120200,6.0741201171875,-1.276059865951538,-1.0495883226394653,-0.42041563987731934
1697701684775713300,6.08371337890625,-1.3933426141738892,-1.0495883226394653,-0.32878854870796204
1697701684785307100,6.09330712890625,-1.4299933910369873,-0.3898732662200928,-0.13209572434425354
1697701684794900000,6.10289990234375,-1.4642008543014526,0.631463348865509,0.10246963053941727
1697701684804492000,6.112491943359375,-1.4861913919448853,1.3192774057388306,0.26251161098480225
1697701684814084900,6.1220849609375,-1.4055595397949219,1.430451512336731,0.2820587158203125
1697701684823678700,6.1316787109375,-1.252847671508789,1.1885560750961304,0.16599774360656738
1697701684833271600,6.141271484375,-1.0842539072036743,0.8305995464324951,-0.03436015918850899
1697701684842863600,6.150863525390625,-0.9022213816642761,0.45676103234291077,-0.24937839806079865
1697701684852456700,6.160456787109375,-0.6859814524650574,0.07437065243721008,-0.4277457892894745
1697701684862050300,6.17005029296875,-0.4489727318286896,-0.3177932798862457,-0.5108210444450378
1697701684871643400,6.179643310546875,-0.24128466844558716,-0.6940752267837524,-0.47539186477661133
1697701684881235500,6.1892353515625,-0.11422843486070633,-0.9933903813362122,-0.3617742955684662
1697701684890828300,6.198828369140625,-0.04825693368911743,-1.118003249168396,-0.22127941250801086
1697701684900422100,6.208422119140625,0.006719320081174374,-0.9958337545394897,-0.08933641016483307
1697701684910015000,6.218014892578125,0.06169557198882103,-0.668419599533081,0.027946261689066887
1697701684919607300,6.227607177734375,0.12400199472904205,-0.2677038013935089,0.1244601309299469
1697701684929200000,6.2372001953125,0.1985253542661667,0.06581879407167435,0.20509196817874908
1697701684938793700,6.246793701171875,0.2901524603366852,0.2918322682380676,0.27350685000419617
1697701684948386800,6.25638671875,0.4282039403915405,0.4543176591396332,0.32848310470581055
1697701684957979000,6.265978759765625,0.6175665855407715,0.5887040495872498,0.3542914092540741
1697701684967571700,6.27557177734375,0.8411366939544678,0.691326379776001,0.33596599102020264
1697701684977165600,6.28516552734375,1.0659284591674805,0.7120952010154724,0.2954973578453064
1697701684986758400,6.29475830078125,1.2675080299377441,0.6339067220687866,0.2673983871936798
1697701684996350700,6.304350830078125,1.4238849878311157,0.4775298535823822,0.24907296895980835
1697701685005943600,6.313943603515625,1.513068675994873,0.2527380585670471,0.2539597451686859
1697701685015537400,6.323537353515625,1.5118470191955566,-0.04169032722711563,0.3187095522880554
1697701685025130200,6.333130126953125,1.4043378829956055,-0.40819868445396423,0.45202696323394775
1697701685034722300,6.342722412109375,1.2174185514450073,-0.8003626465797424,0.6108472347259521
1697701685044315100,6.352315185546875,1.018282413482666,-1.053253412246704,0.7183563709259033
1697701685053909000,6.361908935546875,0.8643488883972168,-0.9946120381355286,0.735460102558136
1697701685063501800,6.371501708984375,0.7385143637657166,-0.6232169270515442,0.6707102656364441
1697701685073094100,6.38109423828125,0.6420004963874817,-0.045355409383773804,0.5717530250549316
1697701685082687000,6.39068701171875,0.5760289430618286,0.476308137178421,0.47890424728393555
1697701685092280800,6.40028076171875,0.5027272701263428,0.6998782753944397,0.42392799258232117
1697701685101873700,6.409873779296875,0.37200596928596497,0.6668924689292908,0.4337015450000763
1697701685111465700,6.4194658203125,0.182643324136734,0.631463348865509,0.5192201733589172
1697701685121058600,6.42905859375,-0.01038440316915512,0.668114185333252,0.6255075931549072
1697701685130652400,6.43865234375,-0.18753011524677277,0.659562349319458,0.6963658928871155
1697701685140245200,6.448245361328125,-0.33169007301330566,0.5544965863227844,0.7476770281791687
1697701685149837600,6.457837646484375,-0.4416425824165344,0.36879903078079224,0.7293516397476196
1697701685159430400,6.467430419921875,-0.4831801950931549,0.2551814317703247,0.45202696323394775
1697701685169024300,6.477024169921875,-0.46607646346092224,0.3736858069896698,0.025502873584628105
1697701685178617000,6.4866171875,-0.3011476993560791,0.6497887969017029,-0.05757235363125801
1697701685188209200,6.496209228515625,0.10078980028629303,0.8305995464324951,0.2283041626214981
1697701685197802200,6.50580224609375,0.4599680006504059,0.5447230339050293,0.499673068523407
1697701685207395800,6.515395751953125,0.5234960913658142,-0.08689302206039429,0.4031592011451721
1697701685216988700,6.52498876953125,0.46241137385368347,-0.6378772258758545,-0.014813045971095562
1697701685226581000,6.5345810546875,0.42698222398757935,-1.0544750690460205,-0.49982577562332153
1697701685236173800,6.544173828125,0.41354358196258545,-1.3953278064727783,-0.8907679915428162
1697701685245767700,6.553767578125,0.30847787857055664,-1.4246485233306885,-1.1106730699539185
1697701685255360500,6.563360595703125,0.053143709897994995,-0.9261971712112427,-1.0508099794387817
1697701685264952600,6.57295263671875,-0.265718549489975,-0.06734590977430344,-0.5572454333305359
1697701685274545700,6.582545654296875,-0.6236750483512878,0.71453857421875,-0.02214321307837963
1697701685284139300,6.59213916015625,-0.8313631415367126,1.0798252820968628,0.16966283321380615
1697701685293732000,6.601732177734375,-0.7299624681472778,0.9295567870140076,0.08658760040998459
1697701685303324400,6.611324462890625,-0.5418215394020081,0.5056288242340088,-0.06368082761764526
1697701685312917200,6.620917236328125,-0.42576053738594055,0.22341738641262054,-0.10399674624204636
1697701685322511000,6.630510986328125,-0.3023693859577179,0.08292251825332642,-0.0050394898280501366
1697701685332104000,6.64010400390625,-0.10201149433851242,-0.09910997003316879,0.11835165321826935
1697701685341696000,6.649696044921875,0.011606098152697086,-0.36543938517570496,0.19409671425819397
1697701685351289000,6.6592890625,0.0653606578707695,-0.5731274485588074,0.2295258641242981
1697701685360882700,6.668882568359375,0.13866232335567474,-0.5841227173805237,0.23196925222873688
1697701685370475500,6.6784755859375,0.19974705576896667,-0.4411844313144684,0.21242213249206543
1697701685380067800,6.68806787109375,0.18997350335121155,-0.28602921962738037,0.20631365478038788
1697701685389660700,6.69766064453125,0.15210096538066864,-0.18707197904586792,0.22097399830818176
1697701685399254500,6.707254638671875,0.1459924876689911,-0.1247655525803566,0.26251161098480225
1697701685408847400,6.716847412109375,0.1569877415895462,-0.09544488787651062,0.30404922366142273
1697701685418439400,6.726439453125,0.17897824943065643,-0.14797775447368622,0.31382277607917786
1697701685428032300,6.7360322265625,0.20463383197784424,-0.23838314414024353,0.28816720843315125
1697701685437626000,6.745626220703125,0.20341213047504425,-0.27381229400634766,0.22097399830818176
1697701685447219000,6.755218994140625,0.18630841374397278,-0.2017323076725006,0.11468657106161118
1697701685456811300,6.764811279296875,0.182643324136734,-0.06978929787874222,-0.024586603045463562
1697701685466404000,6.774404052734375,0.183865025639534,0.05238015204668045,-0.16630317270755768
1697701685475998000,6.783998046875,0.14843589067459106,0.10491301864385605,-0.2591519355773926
1697701685485590800,6.7935908203125,0.07757759839296341,0.11590826511383057,-0.2811424434185028
1697701685495182800,6.803182861328125,-0.004275931045413017,0.13179029524326324,-0.26159533858299255
1697701685504776000,6.81277587890625,-0.08246438205242157,0.14400723576545715,-0.22738789021968842
1697701685514369500,6.82236962890625,-0.14721418917179108,0.12934690713882446,-0.19318044185638428
1697701685523962400,6.83196240234375,-0.20341213047504425,0.06459710001945496,-0.17118994891643524
1697701685533554700,6.8415546875,-0.2620534598827362,-0.031916771084070206,-0.18096350133419037
1697701685543147500,6.8511474609375,-0.2999260127544403,-0.09300149232149124,-0.21883602440357208
1697701685552741000,6.8607412109375,-0.314586341381073,-0.05635065957903862,-0.2591519355773926
1697701685562334200,6.870334228515625,-0.3133646547794342,0.04993676394224167,-0.29091599583625793
1697701685571926300,6.87992626953125,-0.3133646547794342,0.1635543555021286,-0.30313295125961304
1697701685581519000,6.88951904296875,-0.3243598937988281,0.217308908700943,-0.31168481707572937
1697701685591113000,6.899113037109375,-0.3512371778488159,0.2038702666759491,-0.3348970115184784
1697701685600705800,6.908705810546875,-0.38422292470932007,0.17943638563156128,-0.3849864900112152
1697701685610297900,6.9182978515625,-0.42576053738594055,0.27839362621307373,-0.4778352677822113
1697701685619891000,6.927890869140625,-0.4563029110431671,0.5202891230583191,-0.5743491649627686
1697701685629484500,6.937484619140625,-0.46363306045532227,0.7536327838897705,-0.6232169270515442
1697701685639077600,6.94707763671875,-0.47585001587867737,0.8574768304824829,-0.6134433746337891
1697701685648669700,6.956669677734375,-0.4978405237197876,0.8049439787864685,-0.5767925381660461
1697701685658262500,6.966262451171875,-0.5454866290092468,0.6473453640937805,-0.5951179265975952
1697701685667856400,6.9758564453125,-0.6468872427940369,0.37002071738243103,-0.7539382576942444
1697701685677449200,6.98544921875,-0.7763868570327759,0.027946261689066887,-1.030041217803955
1697701685687041300,6.995041259765625,-0.9376505613327026,-0.305576354265213,-1.2780451774597168
1697701685696634400,7.00463427734375,-1.129456639289856,-0.4643966257572174,-1.3220261335372925
1697701685706228000,7.01422802734375,-1.271173119544983,-0.337340384721756,-1.0923476219177246
1697701685715820800,7.02382080078125,-1.364021897315979,-0.15286453068256378,-0.7478297352790833
1697701685725413000,7.0334130859375,-1.4678659439086914,-0.2432699203491211,-0.4619532525539398
1697701685735006000,7.043005859375,-1.5423892736434937,-0.5047125220298767,-0.2786990702152252
1697701685744599800,7.052599853515625,-1.4764177799224854,-0.5499152541160583,-0.15652960538864136
1697701685754192600,7.062192626953125,-1.3163758516311646,-0.23227466642856598,-0.05512896552681923
1697701685763784700,7.07178466796875,-1.1636639833450317,0.3883461356163025,0.059710320085287094
1697701685773377500,7.08137744140625,-1.0390511751174927,1.0553913116455078,0.17088451981544495
1697701685782971400,7.090971435546875,-0.8936695456504822,1.3095037937164307,0.20142687857151031
1697701685792564200,7.100564208984375,-0.6920899152755737,1.084712028503418,0.13179029524326324
1697701685802156300,7.11015625,-0.46363306045532227,0.6461237072944641,0.009620844386518002
1697701685811749400,7.119749267578125,-0.2596100866794586,0.1782146841287613,-0.07834116369485855
1697701685821343000,7.129343017578125,-0.08857285231351852,-0.27625566720962524,-0.07589777559041977
1697701685830935800,7.138935791015625,0.07269082218408585,-0.681858241558075,0.03405473381280899
1697701685840528100,7.148528076171875,0.2229592502117157,-0.9897252917289734,0.20142687857151031
1697701685850121000,7.158120849609375,0.37444937229156494,-1.139993667602539,0.37383851408958435
1697701685859714800,7.16771484375,0.5222744345664978,-1.0886825323104858,0.5204418897628784
1697701685869307600,7.1773076171875,0.6468872427940369,-0.8467870354652405,0.6230642199516296
1697701685878899700,7.186899658203125,0.7556180357933044,-0.5047125220298767,0.6682668924331665
1697701685888492500,7.196492431640625,0.860683798789978,-0.11987877637147903,0.652384877204895
1697701685898086400,7.20608642578125,0.9779664874076843,0.26495498418807983,0.5876350402832031
1697701685907679200,7.21567919921875,1.1086877584457397,0.561826765537262,0.5094466209411621
1697701685917271300,7.225271240234375,1.2320789098739624,0.7316423058509827,0.4593571424484253
1697701685926864400,7.234864501953125,1.342031478881836,0.7511894106864929,0.4679090082645416
1697701685936458000,7.2444580078125,1.428771734237671,0.60825115442276,0.5436540842056274
1697701685946050800,7.25405078125,1.458092451095581,0.35413870215415955,0.6145123243331909
1697701685955643100,7.26364306640625,1.387234091758728,0.06459710001945496,0.6365028619766235
1697701685965236000,7.273236083984375,1.2052016258239746,-0.19684553146362305,0.6572716236114502
1697701685974829800,7.282829833984375,0.9633061289787292,-0.3874298632144928,0.7232431769371033
1697701685984422700,7.292422607421875,0.7666133046150208,-0.45950984954833984,0.8222004175186157
1697701685994014700,7.3020146484375,0.6652126908302307,-0.35566580295562744,0.8771766424179077
1697701686003607600,7.311607666015625,0.6065713167190552,-0.0587940476834774,0.8441908955574036
1697701686013201400,7.321201416015625,0.5454866290092468,0.36757734417915344,0.7525638341903687
1697701686022794200,7.330794189453125,0.45385950803756714,0.7805100679397583,0.6829272508621216
1697701686032386300,7.34038623046875,0.33535513281822205,1.0541696548461914,0.6927008032798767
1697701686041979400,7.3499794921875,0.20219044387340546,1.0773818492889404,0.7708892226219177
1697701686051573000,7.359572998046875,0.12766708433628082,0.8305995464324951,0.8625163435935974
1697701686061165800,7.369165771484375,0.10934165865182877,0.39323291182518005,0.9040539264678955
1697701686070758000,7.3787578125,-0.0006108472589403391,0.043828289955854416,0.8038749694824219
1697701686080351000,7.38835107421875,-0.13988402485847473,0.14034216105937958,0.5839699506759644
1697701686089944600,7.397944580078125,-0.16431790590286255,0.5593833923339844,0.3530697226524353
1697701686099537400,7.407537353515625,-0.08124268800020218,0.7524111270904541,0.11590826511383057
1697701686109129700,7.417129638671875,-0.021379653364419937,0.5092939138412476,-0.15775130689144135
1697701686118722600,7.42672265625,-0.023823043331503868,0.04016320779919624,-0.44484952092170715
1697701686128316400,7.43631640625,-0.08246438205242157,-0.492495596408844,-0.7160657048225403
1697701686137909200,7.4459091796875,-0.16798299551010132,-0.9457442760467529,-0.9078717231750488
1697701686147501300,7.455501220703125,-0.24494975805282593,-1.12655508518219,-0.9652913808822632
1697701686157094100,7.46509423828125,-0.22784602642059326,-0.9457442760467529,-0.7966975569725037
1697701686166688000,7.47468798828125,-0.15210096538066864,-0.5535803437232971,-0.435075968503952
1697701686176280800,7.48428076171875,-0.182643324136734,-0.1882936656475067,-0.11377029865980148
1697701686185873000,7.493872802734375,-0.29259583353996277,0.11835165321826935,0.010842538438737392
1697701686195466000,7.503466064453125,-0.34879377484321594,0.3712424337863922,-0.06123743951320648
1697701686205059600,7.5130595703125,-0.291374146938324,0.5606050491333008,-0.18462859094142914
1697701686214652400,7.52265234375,-0.19974705576896667,0.6302416324615479,-0.2408265322446823
1697701686224244500,7.532244384765625,-0.11300674080848694,0.5581616759300232,-0.2176143378019333
1697701686233837600,7.541837646484375,-0.023823043331503868,0.36635565757751465,-0.11987877637147903
1697701686243431200,7.55143115234375,0.06047387793660164,0.0328330397605896,0.041384901851415634
1697701686253024000,7.56102392578125,0.11056335270404816,-0.388651579618454,0.20875705778598785
1697701686262616000,7.570615966796875,0.11545012891292572,-0.7014053463935852,0.34818294644355774
1697701686272209200,7.580209228515625,0.09834641218185425,-0.779593825340271,0.4300364851951599
1697701686281802800,7.589802734375,0.055587101727724075,-0.6537593007087708,0.4471401870250702
1697701686291395600,7.5993955078125,0.015271181240677834,-0.4143071472644806,0.4214846193790436
1697701686300988000,7.60898779296875,0.015271181240677834,-0.19440214335918427,0.35917818546295166
1697701686310580700,7.618580810546875,0.037261683493852615,-0.045355409383773804,0.2722851634025574
1697701686320174300,7.62817431640625,0.051922015845775604,0.05115845799446106,0.20142687857151031
1697701686329767400,7.637767333984375,0.054365407675504684,0.12323843687772751,0.14400723576545715
1697701686339359500,7.647359375,0.05925218388438225,0.1501157134771347,0.07070557028055191
1697701686348952300,7.656952392578125,0.06658235192298889,0.08047912269830704,-0.04046862944960594
1697701686358546200,7.666546142578125,0.055587101727724075,-0.09300149232149124,-0.16874656081199646
1697701686368139000,7.676138916015625,0.004275931045413017,-0.2835858464241028,-0.2664821147918701
1697701686377731000,7.68573095703125,-0.09712471067905426,-0.40331190824508667,-0.3092414140701294
1697701686387324000,7.695323974609375,-0.24006296694278717,-0.4411844313144684,-0.2933593988418579
1697701686396917800,7.704917724609375,-0.38788801431655884,-0.40819868445396423,-0.23349636793136597
1697701686406510600,7.714510498046875,-0.49173203110694885,-0.34100547432899475,-0.1626380831003189
1697701686416102700,7.7241025390625,-0.5210527181625366,-0.24571330845355988,-0.11743538826704025
1697701686425695500,7.733695556640625,-0.4611896872520447,-0.12720894813537598,-0.10888352245092392
1697701686435289300,7.743289306640625,-0.3292466700077057,0.0022906772792339325,-0.12354385852813721
1697701686444882200,7.752882080078125,-0.1960819661617279,0.13179029524326324,-0.1382041871547699
1697701686454474200,7.76247412109375,-0.10201149433851242,0.217308908700943,-0.15897299349308014
1697701686464067000,7.772067138671875,-0.034818295389413834,0.26495498418807983,-0.2029540091753006
1697701686473661000,7.781660888671875,0.022601349279284477,0.28694549202919006,-0.26281702518463135
1697701686483253800,7.791253662109375,0.06047387793660164,0.26495498418807983,-0.30068957805633545
1697701686492845800,7.800845703125,0.05803048983216286,0.1892099380493164,-0.31168481707572937
1697701686502438700,7.810438720703125,0.017714571207761765,0.14034216105937958,-0.3471139669418335
1697701686512032500,7.820032470703125,-0.0397050715982914,0.23196925222873688,-0.43141087889671326
1697701686521625300,7.829625244140625,-0.10811996459960938,0.43232715129852295,-0.5425850749015808
1697701686531217400,7.839217529296875,-0.20707722008228302,0.5935907959938049,-0.6427640318870544
1697701686540810500,7.848810546875,-0.3573456406593323,0.6045860648155212,-0.7124006152153015
1697701686550404000,7.858404052734375,-0.5381564497947693,0.5092939138412476,-0.7539382576942444
1697701686559997000,7.867996826171875,-0.70308518409729,0.44820916652679443,-0.7881456613540649
1697701686569589000,7.877589111328125,-0.8289197087287903,0.4274403750896454,-0.8394568562507629
1697701686579182000,7.88718212890625,-0.9278770089149475,0.3358132839202881,-0.8907679915428162
1697701686588775700,7.896775634765625,-1.0085088014602661,0.16599774360656738,-0.9127585291862488
1697701686598368500,7.906368408203125,-1.106244444847107,0.009620844386518002,-0.8687775135040283
1697701686607960800,7.9159609375,-1.2381874322891235,-0.07345438003540039,-0.7490514516830444
1697701686617553700,7.9255537109375,-1.3359229564666748,-0.05512896552681923,-0.5877877473831177
1697701686627147300,7.935147216796875,-1.3285927772521973,0.07803573459386826,-0.41675055027008057
1697701686636740000,7.944739990234375,-1.2247487306594849,0.29061058163642883,-0.29091599583625793
1697701686646332200,7.954332275390625,-1.0854755640029907,0.476308137178421,-0.2530434727668762
1697701686655925200,7.96392529296875,-0.9229902029037476,0.5838172435760498,-0.2786990702152252
1697701686665518800,7.973518798828125,-0.7458444833755493,0.636350154876709,-0.3092414140701294
1697701686675111700,7.983111572265625,-0.5711421966552734,0.6424586176872253,-0.3080197274684906
1697701686684704000,7.9927041015625,-0.41354358196258545,0.5935907959938049,-0.2664821147918701
1697701686694296800,8.002296875,-0.29626092314720154,0.4543176591396332,-0.18340688943862915
1697701686703890400,8.011890380859375,-0.20707722008228302,0.1904316395521164,-0.06734590977430344
1697701686713483300,8.021483154296876,-0.11911521852016449,-0.13087402284145355,0.05482354015111923
1697701686723075300,8.031075439453126,-0.021379653364419937,-0.39231663942337036,0.17088451981544495
1697701686732668400,8.04066845703125,0.0922379344701767,-0.49616068601608276,0.2722851634025574
1697701686742262000,8.050261962890625,0.2376195788383484,-0.47050508856773376,0.342074453830719
1697701686751854800,8.059854736328125,0.3781144618988037,-0.4008685052394867,0.3775036036968231
1697701686761447000,8.069447021484375,0.503948986530304,-0.3104631304740906,0.3836120665073395
1697701686771040000,8.0790400390625,0.6420004963874817,-0.18585027754306793,0.3701734244823456
1697701686780633600,8.088633544921874,0.7959339618682861,-0.04169032722711563,0.3518480062484741
1697701686790226400,8.098226318359375,0.9694145917892456,0.09636115282773972,0.34818294644355774
1697701686799818500,8.107818603515625,1.1465603113174438,0.20020519196987152,0.35795649886131287
1697701686809411600,8.11741162109375,1.2980504035949707,0.24662958085536957,0.3897205591201782
1697701686819005200,8.127005126953126,1.3982293605804443,0.22219568490982056,0.44103172421455383
1697701686828598000,8.136597900390624,1.4031161069869995,0.14400723576545715,0.517998456954956
1697701686838190000,8.146190185546875,1.26872980594635,0.010842538438737392,0.6218425035476685
1697701686847783200,8.155783203125,1.0561549663543701,-0.15286453068256378,0.7110261917114258
1697701686857376800,8.165376708984375,0.8276980519294739,-0.28602921962738037,0.781884491443634
1697701686866969600,8.174969482421876,0.6542174220085144,-0.30068957805633545,0.8222004175186157
1697701686876561700,8.184561767578124,0.5858024954795837,-0.13576079905033112,0.7696675658226013
1697701686886154500,8.194154541015624,0.5796940326690674,0.13056860864162445,0.6181774139404297
1697701686895748400,8.203748291015625,0.550373375415802,0.35413870215415955,0.4727957844734192
1697701686905341200,8.213341064453125,0.444085955619812,0.49585527181625366,0.4715740978717804
1697701686914933200,8.222933349609375,0.27060532569885254,0.5496098399162292,0.6365028619766235
1697701686924526000,8.232526123046876,0.07757759839296341,0.5288410186767578,0.8637380003929138
1697701686934120000,8.242119873046875,-0.06658235192298889,0.49707695841789246,1.0188932418823242
1697701686943712800,8.251712646484375,-0.1459924876689911,0.3614688515663147,1.0335536003112793
1697701686953304800,8.261304931640625,-0.16065283119678497,-0.001374406274408102,0.8747332692146301
1697701686962897700,8.270897705078125,-0.21440738439559937,-0.254265159368515,0.5998520255088806
1697701686972491500,8.280491455078124,-0.2351761907339096,0.05238015204668045,0.4581354558467865
1697701686982084400,8.29008447265625,-0.07024743407964706,0.5838172435760498,0.5680879354476929
1697701686991676400,8.299676513671875,0.11911521852016449,0.6143596172332764,0.5949652194976807
1697701687001269200,8.309269287109375,0.17775654792785645,0.1635543555021286,0.3408527672290802
1697701687010863000,8.318863037109375,0.17409147322177887,-0.3202366828918457,-0.06368082761764526
1697701687020456000,8.3284560546875,0.16798299551010132,-0.7160657048225403,-0.43263256549835205
1697701687030048000,8.338048095703124,0.1692046970129013,-1.0202676057815552,-0.6244385838508606
1697701687039640800,8.347640869140625,0.1435490995645523,-1.1289983987808228,-0.5865660905838013
1697701687049234700,8.357234619140625,0.07635590434074402,-0.932305634021759,-0.3336753249168396
1697701687058827500,8.36682763671875,0.01038440316915512,-0.4900522232055664,-0.0050394898280501366
1697701687068419600,8.376419677734376,-0.034818295389413834,-0.0978882759809494,0.12812520563602448
1697701687078012400,8.386012451171876,-0.055587101727724075,0.10979979485273361,-0.06123743951320648
1697701687087606000,8.39560595703125,-0.02870982140302658,0.21242213249206543,-0.41675055027008057
1697701687097198800,8.40519873046875,0.006719320081174374,0.2942756712436676,-0.6366555690765381
1697701687106791200,8.414791259765625,0.017714571207761765,0.30160582065582275,-0.6146650314331055
1697701687116384000,8.424384033203125,0.012827792204916477,0.1892099380493164,-0.48394373059272766
1697701687125977600,8.4339775390625,0.0018325417768210173,0.03649812191724777,-0.33001023530960083
1697701687135570400,8.4435703125,-0.0006108472589403391,-0.07101099193096161,-0.16874656081199646
1697701687145162500,8.45316259765625,-0.022601349279284477,-0.1785201132297516,-0.0050394898280501366
1697701687154755600,8.462755615234375,-0.0787992998957634,-0.30191126465797424,0.11957334727048874
1697701687164349200,8.47234912109375,-0.09834641218185425,-0.36788275837898254,0.2148655205965042
1697701687173942000,8.48194189453125,-0.07024743407964706,-0.3972034156322479,0.3199312388896942
1697701687183534000,8.4915341796875,-0.034818295389413834,-0.3972034156322479,0.4031592011451721
1697701687193127000,8.501126953125,0.01038440316915512,-0.36666107177734375,0.4178195297718048
1697701687202720800,8.510720703125,0.07024743407964706,-0.32878854870796204,0.367730051279068
1697701687212313600,8.520313720703125,0.12155860662460327,-0.24449162185192108,0.28938889503479004
1697701687221905700,8.52990576171875,0.16798299551010132,-0.06490252166986465,0.19287502765655518
1697701687231498500,8.53949853515625,0.21929416060447693,0.19287502765655518,0.0462716780602932
1697701687241092400,8.54909228515625,0.2644968628883362,0.44698747992515564,-0.13453911244869232
1697701687250685200,8.558685302734375,0.2718270421028137,0.6119162440299988,-0.27381229400634766
1697701687260277200,8.56827734375,0.21685077250003815,0.6033644080162048,-0.3214583694934845
1697701687269870000,8.5778701171875,0.12522368133068085,0.44820916652679443,-0.2713688910007477
1697701687279463700,8.587463623046874,0.020157959312200546,0.2722851634025574,-0.1772984117269516
1697701687289056500,8.597056396484374,-0.08857285231351852,0.21120044589042664,-0.11621369421482086
1697701687298648800,8.60664892578125,-0.15943112969398499,0.29061058163642883,-0.11987877637147903
1697701687308241700,8.61624169921875,-0.16553960740566254,0.48363831639289856,-0.15775130689144135
1697701687317835300,8.625835205078126,-0.1056765764951706,0.6424586176872253,-0.21272756159305573
1697701687327428000,8.635427978515626,-0.00916270911693573,0.7304205894470215,-0.2848075330257416
1697701687337020200,8.645020263671874,0.02504473738372326,0.8477032780647278,-0.3605526089668274
1697701687346613000,8.654613037109375,0.00916270911693573,1.006523609161377,-0.4143071472644806
1697701687356206800,8.664206787109375,0.016492875292897224,1.1201411485671997,-0.4558447599411011
1697701687365799700,8.673799560546875,0.011606098152697086,1.1909993886947632,-0.5315898060798645
1697701687375391700,8.683391845703126,-0.02993151545524597,1.3314943313598633,-0.6574243903160095
1697701687384984600,8.692984619140624,-0.08490777015686035,1.5868284702301025,-0.8015843033790588
1697701687394578400,8.702578369140625,-0.13988402485847473,1.900956630706787,-0.917645275592804
1697701687404171300,8.712171142578125,-0.1985253542661667,2.114753246307373,-0.9799517393112183
1697701687413763300,8.721763427734375,-0.26694026589393616,2.103757858276367,-1.006829023361206
1697701687423356200,8.731356201171875,-0.37444937229156494,1.8569756746292114,-1.006829023361206
1697701687432949800,8.74094970703125,-0.5711421966552734,1.4890929460525513,-0.9775083065032959
1697701687442542600,8.75054248046875,-0.7824953198432922,1.2520841360092163,-0.9457442760467529
1697701687452134700,8.760134765625,-0.9022213816642761,1.1005940437316895,-0.885881245136261
1697701687461727700,8.769727783203125,-0.9547542929649353,0.8990144729614258,-0.7612683773040771
1697701687471321300,8.7793212890625,-0.9914051294326782,0.6436802744865417,-0.5938962697982788
1697701687480914200,8.7889140625,-1.0280559062957764,0.4408790171146393,-0.4289674758911133
1697701687490506200,8.79850634765625,-1.041494607925415,0.37002071738243103,-0.31657159328460693
1697701687500099000,8.80809912109375,-0.9889616966247559,0.40544986724853516,-0.26159533858299255
1697701687509693000,8.81769287109375,-0.8240329623222351,0.5141806602478027,-0.24693500995635986
1697701687519285800,8.82728564453125,-0.6175665855407715,0.576487123966217,-0.2677038013935089
1697701687528877800,8.8368779296875,-0.4709632396697998,0.6485670804977417,-0.28602921962738037
1697701687538470700,8.846470703125,-0.4330907166004181,0.7853968739509583,-0.28602921962738037
1697701687548064300,8.856064208984375,-0.4709632396697998,0.82082599401474,-0.29091599583625793
1697701687557657000,8.865656982421875,-0.5002838969230652,0.7585195899009705,-0.2958027720451355
1697701687567249200,8.875249267578125,-0.47585001587867737,0.6998782753944397,-0.26037365198135376
1697701687576842200,8.88484228515625,-0.39888325333595276,0.6021426916122437,-0.18585027754306793
1697701687586435800,8.894435791015624,-0.2583884000778198,0.40422818064689636,-0.09910997003316879
1697701687596028700,8.904028564453125,-0.04337015375494957,0.1623326539993286,-0.01725643500685692
1697701687605620700,8.913620849609375,0.2107423096895218,0.010842538438737392,0.04871506989002228
1697701687615213600,8.923213623046875,0.4220954477787018,0.021837789565324783,0.0975828468799591
1697701687624807400,8.932807373046876,0.5601469278335571,0.13545538485050201,0.1391204595565796
1697701687634400300,8.942400146484376,0.6688777208328247,0.24785128235816956,0.18432316184043884
1697701687643992300,8.951992431640624,0.7605048418045044,0.31260108947753906,0.2527380585670471
1697701687653585200,8.961585205078125,0.846023440361023,0.346808522939682,0.33474430441856384
1697701687663178800,8.9711787109375,0.9327637553215027,0.4005630910396576,0.42759308218955994
1697701687672771600,8.980771484375,1.018282413482666,0.510515570640564,0.5167768001556396
1697701687682363600,8.99036376953125,1.0928057432174683,0.6461237072944641,0.5656445622444153
1697701687691956500,8.99995654296875,1.1270132064819336,0.7780666947364807,0.5754181146621704
1697701687701550300,9.00955029296875,1.1184613704681396,0.9075663089752197,0.5619794726371765
1697701687711143200,9.01914306640625,1.0781453847885132,1.0321791172027588,0.5497625470161438
1697701687720735200,9.0287353515625,1.0060654878616333,1.1286929845809937,0.5448757410049438
1697701687730328000,9.038328125,0.8753440976142883,1.1726740598678589,0.5412106513977051
1697701687739921700,9.047921630859374,0.679872989654541,1.1384665966033936,0.5363239049911499
1697701687749514500,9.057514404296874,0.4477510452270508,1.0724951028823853,0.5204418897628784
1697701687759106800,9.06710693359375,0.24128466844558716,1.0370659828186035,0.49356457591056824
1697701687768699400,9.076699462890625,0.14110571146011353,1.0883771181106567,0.45202696323394775
1697701687778293200,9.086293212890626,0.07635590434074402,1.2227635383605957,0.4349232614040375
1697701687787886000,9.095885986328126,-0.0018325417768210173,1.4328949451446533,0.474017471075058
1697701687797478100,9.10547802734375,-0.07269082218408585,1.6980026960372925,0.5363239049911499
1697701687807071000,9.115071044921875,-0.17531315982341766,1.80673348903656,0.5815265774726868
1697701687816664800,9.124664794921875,-0.2987042963504791,1.6161491870880127,0.6096255779266357
1697701687826257400,9.13425732421875,-0.3414636254310608,1.187334418296814,0.5705313682556152
1697701687835849700,9.143849609375,-0.31092125177383423,0.6375718116760254,0.41048935055732727
1697701687845442600,9.153442626953124,-0.3439069986343384,0.3761292099952698,0.14889401197433472
1697701687855036200,9.1630361328125,-0.2999260127544403,0.7304205894470215,0.1122431829571724
1697701687864629000,9.17262890625,0.1716480851173401,1.4170129299163818,0.4324798583984375
1697701687874221000,9.182220947265625,0.8851176500320435,1.8435369729995728,0.763559103012085
1697701687883814000,9.19181396484375,1.3041589260101318,1.5856068134307861,0.7892146706581116
1697701687893407700,9.20140771484375,1.4165548086166382,1.0871554613113403,0.49112120270729065
1697701687903000600,9.21100048828125,1.4470971822738647,0.895349383354187,-0.06123743951320648
1697701687912592600,9.220592529296875,1.4703093767166138,0.9051229357719421,-0.7637118101119995
1697701687922185500,9.230185546875,1.434880256652832,0.7731798887252808,-1.3721156120300293
1697701687931779000,9.239779052734375,1.1685508489608765,0.3101576864719391,-1.5504831075668335
1697701687941372000,9.249371826171876,0.7653915882110596,-0.24571330845355988,-1.1424371004104614
1697701687950964000,9.2589638671875,0.33169007301330566,-0.23227466642856598,-0.5254813432693481
1697701687960556800,9.268556884765625,-0.16798299551010132,0.27472856640815735,-0.11254860460758209
1697701687970150400,9.278150390625,-0.5870242118835449,0.8855758309364319,0.020616095513105392
1697701687979743200,9.2877431640625,-0.70308518409729,1.4634373188018799,-0.04046862944960594
1697701687989335300,9.297335205078125,-0.5173876285552979,1.9376075267791748,-0.1772984117269516
1697701687998928400,9.306928466796874,-0.21196399629116058,2.3945212364196777,-0.2970244884490967
1697701688008522000,9.31652197265625,-0.07391251623630524,2.886864185333252,-0.32634514570236206
1697701688018114800,9.32611474609375,-0.06291726976633072,3.129981279373169,-0.2298312783241272
1697701688027707000,9.335706787109375,0.02748812735080719,2.968717575073242,-0.04169032722711563
1697701688037299700,9.3452998046875,0.182643324136734,2.4482758045196533,0.16599774360656738
1697701688046893300,9.354893310546874,0.337798535823822,1.6992243528366089,0.3506263196468353
1697701688056486100,9.364486083984374,0.4721849262714386,0.955212414264679,0.4886777997016907
1697701688066078200,9.374078125,0.5760289430618286,0.4775298535823822,0.5497625470161438
1697701688075671000,9.383671142578125,0.6126797795295715,0.4897467792034149,0.5155550837516785
1697701688085265000,9.393264892578125,0.5858024954795837,1.0236272811889648,0.37261682748794556
1697701688094857700,9.402857666015626,0.5259394645690918,1.7480921745300293,0.14278554916381836
1697701688104449800,9.41244970703125,0.4611896872520447,2.2747952938079834,-0.07101099193096161
1697701688114042600,9.422042724609375,0.42331716418266296,2.440945625305176,-0.1882936656475067
1697701688123636200,9.43163623046875,0.39643988013267517,2.3395450115203857,-0.21883602440357208
1697701688133229000,9.44122900390625,0.3549022674560547,2.1538474559783936,-0.2163926362991333
1697701688142821000,9.450821044921875,0.30725616216659546,2.0084657669067383,-0.21883602440357208
1697701688152414000,9.4604140625,0.28282228112220764,1.9131735563278198,-0.23227466642856598
1697701688162007800,9.4700078125,0.2779355049133301,1.8226155042648315,-0.2408265322446823
1697701688171600400,9.479600341796875,0.28037887811660767,1.751757264137268,-0.2286095917224884
1697701688181192700,9.489192626953125,0.28160059452056885,1.7114412784576416,-0.21150586009025574
1697701688190785500,9.49878564453125,0.28282228112220764,1.682120680809021,-0.2176143378019333
1697701688200379100,9.508379150390626,0.29259583353996277,1.672347068786621,-0.24937839806079865
1697701688209972000,9.517971923828124,0.29381752014160156,1.6747905015945435,-0.2664821147918701
1697701688219564000,9.52756396484375,0.28037887811660767,1.6332528591156006,-0.23227466642856598
1697701688229156900,9.537156982421875,0.265718549489975,1.5269653797149658,-0.1626380831003189
1697701688238750500,9.54675048828125,0.2644968628883362,1.407239317893982,-0.10277505218982697
1697701688248343300,9.55634326171875,0.288930743932724,1.310725450515747,-0.09177979826927185
1697701688257935400,9.565935302734376,0.3255815804004669,1.2362021207809448,-0.1382041871547699
1697701688267528200,9.575528076171874,0.3536805510520935,1.1238062381744385,-0.20906247198581696
1697701688277122000,9.5851220703125,0.35978904366493225,0.9381086826324463,-0.27381229400634766
1697701688286714600,9.594714599609375,0.3402419090270996,0.7401941418647766,-0.32512345910072327
1697701688296306700,9.604306640625,0.2999260127544403,0.6216897964477539,-0.33856210112571716
1697701688305899800,9.613899658203126,0.24494975805282593,0.6485670804977417,-0.3190149664878845
1697701688315493400,9.623493408203124,0.16431790590286255,0.844038188457489,-0.2835858464241028
1697701688325086200,9.633086181640625,0.08246438205242157,0.9881981611251831,-0.21150586009025574
1697701688334678300,9.64267822265625,0.06780404597520828,0.8867974877357483,-0.13453911244869232
1697701688344271000,9.65227099609375,0.10201149433851242,0.6925480961799622,-0.04413371533155441
1697701688353864700,9.66186474609375,0.08979454636573792,0.5911474227905273,0.10613471269607544
1697701688363457500,9.67145751953125,0.014049487188458443,0.5911474227905273,0.27717193961143494
1697701688373049600,9.681049560546874,-0.0787992998957634,0.5984776020050049,0.3408527672290802
1697701688382642400,9.690642333984375,-0.14110571146011353,0.631463348865509,0.217308908700943
1697701688392236000,9.700236083984375,-0.13499724864959717,0.7963921427726746,-0.0844496339559555
1697701688401828900,9.709828857421876,-0.0910162404179573,1.0834903717041016,-0.48272204399108887
1697701688411421000,9.7194208984375,-0.023823043331503868,1.4341166019439697,-0.8687775135040283
1697701688421013800,9.729013671875,0.034818295389413834,1.8042900562286377,-1.1363285779953003
1697701688430607600,9.738607666015625,-0.004275931045413017,2.2002718448638916,-1.2523895502090454
1697701688440200400,9.748200439453125,-0.1325538605451584,2.6742892265319824,-1.2731584310531616
1697701688449792500,9.75779248046875,-0.20463383197784424,3.1654105186462402,-1.242616057395935
1697701688459385300,9.76738525390625,-0.21318569779396057,3.5135934352874756,-1.2169604301452637
1697701688468979000,9.77697900390625,-0.24372805655002594,3.6724138259887695,-1.21818208694458
1697701688478571800,9.78657177734375,-0.30969956517219543,3.717616319656372,-1.2169604301452637
1697701688488163800,9.796163818359375,-0.37567105889320374,3.7420504093170166,-1.1986349821090698
1697701688497756700,9.805756591796875,-0.4062134325504303,3.757932424545288,-1.1742011308670044
1697701688507350300,9.815350341796876,-0.4282039403915405,3.6748571395874023,-1.158319115638733
1697701688516943000,9.824943115234374,-0.47951510548591614,3.4476218223571777,-1.1509889364242554
1697701688526535200,9.83453515625,-0.5577035546302795,3.1751840114593506,-1.1534323692321777
1697701688536128000,9.8441279296875,-0.624896764755249,2.9552791118621826,-1.187639832496643
1697701688545721600,9.8537216796875,-0.6578825116157532,2.6510770320892334,-1.2059651613235474
1697701688555314400,9.863314453125,-0.6737645268440247,2.2198188304901123,-1.2010784149169922
1697701688564906500,9.872906494140626,-0.6542174220085144,1.7908514738082886,-1.1839747428894043
1697701688574499300,9.882499267578124,-0.6053496599197388,1.390135645866394,-1.1375503540039062
1697701688584093000,9.892093017578125,-0.5674771070480347,1.0162971019744873,-1.0593618154525757
1697701688593685800,9.901685791015625,-0.527161180973053,0.7218687534332275,-0.9750649333000183
1697701688603277800,9.91127783203125,-0.469741553068161,0.5386145710945129,-0.9042066335678101
1697701688612870700,9.92087060546875,-0.40010493993759155,0.4286620616912842,-0.8638907074928284
1697701688622464500,9.930464599609374,-0.32069480419158936,0.3859027624130249,-0.8590039610862732
1697701688632057300,9.940057373046875,-0.2351761907339096,0.4103366434574127,-0.8602256774902344
1697701688641649400,9.9496494140625,-0.15454435348510742,0.5227325558662415,-0.8516737818717957
1697701688651242200,9.9592421875,-0.09590301662683487,0.7206470370292664,-0.8199097514152527
1697701688660835800,9.9688359375,-0.06658235192298889,0.9930849075317383,-0.7576032876968384
1697701688670428700,9.9784287109375,-0.08246438205242157,1.3314943313598633,-0.6855233311653137
1697701688680020700,9.988020751953124,-0.10078980028629303,1.6002670526504517,-0.6378772258758545
1697701688689613600,9.997613525390625,-0.12522368133068085,1.77741277217865,-0.6048914790153503
1697701688699207200,10.007207275390625,-0.14843589067459106,1.8985133171081543,-0.5596888065338135
1697701688708800000,10.016800048828125,-0.1569877415895462,1.933942437171936,-0.4912739098072052
1697701688718392000,10.02639208984375,-0.14721418917179108,1.8753011226654053,-0.39231663942337036
1697701688727985000,10.03598486328125,-0.13377554714679718,1.750535488128662,-0.2677038013935089
1697701688737578500,10.04557861328125,-0.1447708010673523,1.6882290840148926,-0.13453911244869232
1697701688747171300,10.05517138671875,-0.15943112969398499,1.635696291923523,-0.01725643500685692
1697701688756763400,10.064763427734375,-0.13988402485847473,1.5550644397735596,0.060932014137506485
1697701688766356200,10.074356201171875,-0.1423274129629135,1.5404040813446045,0.09391776472330093
1697701688775949800,10.08394970703125,-0.16187451779842377,1.4939796924591064,0.08658760040998459
1697701688785542700,10.093542724609375,-0.18630841374397278,1.4157912731170654,0.07559234648942947
1697701688795134700,10.103134765625,-0.19974705576896667,1.2826265096664429,0.0841442123055458
1697701688804727600,10.1127275390625,-0.21685077250003815,1.1360231637954712,0.11590826511383057
1697701688814321200,10.122321044921875,-0.2351761907339096,0.9356653094291687,0.15744587779045105
1697701688823914000,10.1319140625,-0.25350162386894226,0.7634063363075256,0.2038702666759491
1697701688833506000,10.141506103515624,-0.24250635504722595,0.6436802744865417,0.2588465213775635
1697701688843099000,10.151098876953125,-0.16676130890846252,0.5935907959938049,0.31382277607917786
1697701688852692500,10.1606923828125,-0.005497625097632408,0.5935907959938049,0.36162158846855164
1697701688862285300,10.170285400390625,0.22662433981895447,0.6888830065727234,0.3823903799057007
1697701688871877400,10.17987744140625,0.46851983666419983,0.895349383354187,0.36162158846855164
1697701688881470200,10.18947021484375,0.6420004963874817,1.1323580741882324,0.29061058163642883
1697701688891063800,10.199063720703125,0.7898254990577698,1.2459757328033447,0.1378987729549408
1697701688900656600,10.20865673828125,1.0146173238754272,1.0004150867462158,-0.149199441075325
1697701688910248700,10.218248779296875,1.105022668838501,0.6106945276260376,-0.4558447599411011
1697701688919841500,10.227841552734375,0.9584193229675293,0.7853968739509583,-0.2151709496974945
1697701688929435100,10.23743505859375,1.1404517889022827,1.4206780195236206,0.41293275356292725
1697701688939028000,10.247028076171874,1.599808931350708,1.84109365940094,0.7537854909896851
1697701688948620000,10.2566201171875,1.6535634994506836,1.7945165634155273,0.5729747414588928
1697701688958212900,10.266212890625,1.2418525218963623,1.6784555912017822,0.15866757929325104
1697701688967806700,10.275806640625,0.7006418108940125,1.7383185625076294,-0.2652604281902313
1697701688977399300,10.2853994140625,0.21807247400283813,1.9290556907653809,-0.5780141949653625
1697701688986991400,10.294991455078126,-0.13744063675403595,1.9950271844863892,-0.7380561828613281
1697701688996584200,10.304584228515624,-0.2767138183116913,1.6503565311431885,-0.7527165412902832
1697701689006177800,10.314177734375,-0.19363857805728912,1.0175188779830933,-0.5548020005226135
1697701689015770600,10.3237705078125,-0.03237490355968475,0.4665345847606659,-0.16874656081199646
1697701689025362700,10.33336279296875,0.07269082218408585,0.28816720843315125,0.20753535628318787
1697701689034955500,10.34295556640625,0.16553960740566254,0.48608171939849854,0.47890424728393555
1697701689044549400,10.35254931640625,0.3512371778488159,0.9368869662284851,0.6438329815864563
1697701689054142000,10.362141845703125,0.6163448691368103,1.4414467811584473,0.6914790868759155
1697701689063734000,10.371734130859375,0.8680139780044556,1.7908514738082886,0.6108472347259521
1697701689073326800,10.381326904296875,1.0195040702819824,1.8801878690719604,0.4214846193790436
1697701689082920400,10.39092041015625,1.0524898767471313,1.7493138313293457,0.19531841576099396
1697701689092513300,10.40051318359375,0.990183413028717,1.4817627668380737,0.014507622458040714
1697701689102105300,10.410105224609374,0.8496885299682617,1.2129899263381958,-0.09666658192873001
1697701689111698200,10.4196982421875,0.6688777208328247,1.1494618654251099,-0.1382041871547699
1697701689121291800,10.429291748046875,0.48928865790367126,1.3962441682815552,-0.08811471611261368
1697701689130884600,10.438884521484376,0.3023693859577179,1.783521294593811,0.03405473381280899
1697701689140476700,10.4484765625,0.08612946420907974,2.0817675590515137,0.0853659063577652
1697701689150069500,10.458069580078124,-0.07024743407964706,2.199050188064575,0.08047912269830704
1697701689159663000,10.4676630859375,-0.12888877093791962,2.123305082321167,0.0988045409321785
1697701689169256000,10.477255859375,-0.1569877415895462,1.951046109199524,0.16599774360656738
1697701689178848000,10.486847900390625,-0.11300674080848694,1.8018467426300049,0.26251161098480225
1697701689188440800,10.49644091796875,0.011606098152697086,1.682120680809021,0.34940463304519653
1697701689198034400,10.506034423828124,0.1692046970129013,1.5782766342163086,0.39827242493629456
1697701689207627300,10.515627197265625,0.31092125177383423,1.446333646774292,0.40193748474121094
1697701689217219300,10.52521923828125,0.4049917459487915,1.2545275688171387,0.365286648273468
1697701689226812200,10.534812255859375,0.4599680006504059,1.1018157005310059,0.29916244745254517
1697701689236405800,10.54440576171875,0.5088357925415039,1.1299147605895996,0.20875705778598785
1697701689245998600,10.55399853515625,0.5442649126052856,1.3229424953460693,0.0853659063577652
1697701689255590700,10.563590576171874,0.5528167486190796,1.514748454093933,-0.0331384651362896
1697701689265183500,10.57318359375,0.5332696437835693,1.570946455001831,-0.09666658192873001
1697701689274777000,10.582777099609375,0.4868452548980713,1.4817627668380737,-0.10521844029426575
1697701689284370000,10.592369873046875,0.4587462842464447,1.3253858089447021,-0.07956285774707794
1697701689293962000,10.6019619140625,0.4709632396697998,1.1653438806533813,-0.030695075169205666
1697701689303554800,10.611554931640624,0.5088357925415039,1.0443960428237915,0.024281177669763565
1697701689313148400,10.6211484375,0.5344913601875305,0.9674293398857117,0.060932014137506485
1697701689322741200,10.6307412109375,0.5210527181625366,0.9442171454429626,0.0719272643327713
1697701689332333000,10.6403330078125,0.46851983666419983,0.9637642502784729,0.06704048812389374
1697701689341926100,10.649926025390625,0.39643988013267517,1.029735803604126,0.06337540596723557
1697701689351519700,10.659519775390624,0.3365768492221832,1.1409099102020264,0.059710320085287094
1697701689361112300,10.6691123046875,0.2852656841278076,1.2362021207809448,0.042606595903635025
1697701689370704400,10.678704345703125,0.23151111602783203,1.242310643196106,0.021837789565324783
1697701689380297200,10.688297119140625,0.17531315982341766,1.145796775817871,0.004734066314995289
1697701689389891000,10.69789111328125,0.12155860662460327,0.9772028923034668,-0.01969982497394085
1697701689399483600,10.707483642578126,0.08735115826129913,0.7915053367614746,-0.0587940476834774
1697701689409075700,10.71707568359375,0.07391251623630524,0.636350154876709,-0.125987246632576
1697701689418668500,10.72666845703125,0.07024743407964706,0.5031854510307312,-0.22372281551361084
1697701689428262100,10.73626220703125,0.07391251623630524,0.43354883790016174,-0.3226800560951233
1697701689437855000,10.74585498046875,0.06047387793660164,0.37979426980018616,-0.41797223687171936
1697701689447447000,10.755447021484375,0.04459185153245926,0.3101576864719391,-0.49738237261772156
1697701689457040000,10.765039794921876,0.04092676565051079,0.2295258641242981,-0.5267030596733093
1697701689466633500,10.774633544921874,-0.0030542362947016954,0.19287502765655518,-0.5010474920272827
1697701689476226300,10.784226318359375,-0.11056335270404816,0.26128992438316345,-0.41675055027008057
1697701689485818400,10.793818359375,-0.22540263831615448,0.346808522939682,-0.282364159822464
1697701689495411200,10.8034111328125,-0.2644968628883362,0.3077143132686615,-0.21394924819469452
1697701689505004800,10.8130048828125,-0.2486148327589035,0.19531841576099396,-0.305576354265213
1697701689514597600,10.82259765625,-0.27915719151496887,0.10002623498439789,-0.47417017817497253
1697701689524189400,10.832189453125,-0.37078428268432617,0.025502873584628105,-0.6586460471153259
1697701689533782300,10.8417822265625,-0.47951510548591614,-0.05024218559265137,-0.8590039610862732
1697701689543376100,10.851376220703125,-0.5699204802513123,-0.04169032722711563,-1.0630269050598145
1697701689552969000,10.860968994140626,-0.5796940326690674,0.16966283321380615,-1.2817102670669556
1697701689562560800,10.870560791015626,-0.518609344959259,0.5263976454734802,-1.5040587186813354
1697701689572153600,10.880153564453124,-0.5222744345664978,0.9136747717857361,-1.6604355573654175
1697701689581747200,10.889747314453125,-0.6065713167190552,1.343711256980896,-1.7068599462509155
1697701689591340000,10.899340087890625,-0.684759795665741,1.783521294593811,-1.634779930114746
1697701689600932000,10.90893212890625,-0.6994200944900513,2.163620948791504,-1.478403091430664
1697701689610525000,10.91852490234375,-0.6578825116157532,2.4494974613189697,-1.2792668342590332
1697701689620118500,10.928118408203124,-0.6236750483512878,2.522799253463745,-1.0679137706756592
1697701689629711400,10.93771142578125,-0.684759795665741,2.250361204147339,-0.8467870354652405
1697701689639303400,10.947303466796875,-0.8496885299682617,1.6760121583938599,-0.6195518374443054
1697701689648896300,10.956896240234375,-1.1001359224319458,1.019962191581726,-0.45706647634506226
1697701689658489900,10.96648974609375,-1.3811256885528564,0.561826765537262,-0.47417017817497253
1697701689668082700,10.976082763671876,-1.5729316473007202,0.3614688515663147,-0.6562026739120483
1697701689677674500,10.985674560546874,-1.5790401697158813,0.36635565757751465,-0.8993198871612549
1697701689687267300,10.995267333984375,-1.3982293605804443,0.6229115128517151,-1.071578860282898
1697701689696861200,11.004861083984375,-1.0915840864181519,0.9759812355041504,-1.0459232330322266
1697701689706453800,11.014453857421875,-0.7678350210189819,1.1018157005310059,-0.9139801859855652
1697701689716045800,11.0240458984375,-0.469741553068161,0.9454388618469238,-0.7698202729225159
1697701689725638700,11.033638671875,-0.28037887811660767,0.6803311109542847,-0.6586460471153259
1697701689735232300,11.043232177734374,-0.24617144465446472,0.36635565757751465,-0.5792359113693237
1697701689744825000,11.0528251953125,-0.3023693859577179,-0.007482878863811493,-0.5108210444450378
1697701689754417200,11.062417236328125,-0.40132665634155273,-0.3642176687717438,-0.43263256549835205
1697701689764010000,11.072010009765625,-0.5125008225440979,-0.6073349118232727,-0.33978378772735596
1697701689773603600,11.081603515625,-0.6126797795295715,-0.7160657048225403,-0.23471805453300476
1697701689783196400,11.091196533203124,-0.6810947060585022,-0.673306405544281,-0.12965233623981476
1697701689792788500,11.10078857421875,-0.7006418108940125,-0.49982577562332153,-0.03680354729294777
1697701689802381000,11.110381103515625,-0.6652126908302307,-0.26159533858299255,0.0328330397605896
1697701689811975000,11.119974853515625,-0.5760289430618286,-0.02214321307837963,0.08292251825332642
1697701689821567500,11.1295673828125,-0.446529358625412,0.15622419118881226,0.11346487700939178
1697701689831159600,11.13915966796875,-0.2901524603366852,0.2576248347759247,0.12690351903438568
1697701689840752400,11.14875244140625,-0.1313321590423584,0.29061058163642883,0.1366770714521408
1697701689850346000,11.158345947265625,0.038483377546072006,0.2942756712436676,0.15866757929325104
1697701689859938800,11.167938720703125,0.2486148327589035,0.27839362621307373,0.1757712960243225
1697701689869531000,11.17753076171875,0.48806697130203247,0.22708246111869812,0.1769929975271225
1697701689879123700,11.187123779296876,0.7287407517433167,0.14767232537269592,0.17210622131824493
1697701689888717300,11.19671728515625,0.938872218132019,0.0462716780602932,0.18187977373600006
1697701689898310100,11.20631005859375,1.1001359224319458,-0.06490252166986465,0.21853061020374298
1697701689907902000,11.21590185546875,1.2137534618377686,-0.17974179983139038,0.27839362621307373
1697701689917494800,11.225494873046875,1.2748382091522217,-0.28847262263298035,0.34940463304519653
1697701689927088600,11.235088623046876,1.26872980594635,-0.39476004242897034,0.416597843170166
1697701689936681200,11.24468115234375,1.1905412673950195,-0.4546230733394623,0.48989951610565186
1697701689946273300,11.254273193359374,1.0378295183181763,-0.4375193417072296,0.5656445622444153
1697701689955866000,11.2638662109375,0.8130376935005188,-0.362995982170105,0.6352811455726624
1697701689965459700,11.273459716796875,0.5686988234519958,-0.2970244884490967,0.6780404448509216
1697701689975052500,11.283052490234375,0.38666632771492004,-0.254265159368515,0.6743753552436829
1697701689984644600,11.29264453125,0.29626092314720154,-0.19195875525474548,0.6181774139404297
1697701689994237400,11.302237548828124,0.2730487287044525,-0.07711946964263916,0.5216635465621948
1697701690003831000,11.3118310546875,0.2767138183116913,0.07925742864608765,0.416597843170166
1697701690013423600,11.321423583984375,0.2852656841278076,0.20875705778598785,0.3077143132686615
1697701690023015700,11.331015625,0.288930743932724,0.28694549202919006,0.2038702666759491
1697701690032608500,11.3406083984375,0.27915719151496887,0.3248180150985718,0.11957334727048874
1697701690042202000,11.3502021484375,0.2510582208633423,0.3504736125469208,0.08047912269830704
1697701690051795000,11.359794921875,0.20707722008228302,0.4262186884880066,0.11590826511383057
1697701690061387000,11.369386962890625,0.1178935244679451,0.5276193022727966,0.23929941654205322
1697701690070979800,11.378979736328125,0.007941014133393764,0.5386145710945129,0.40193748474121094
1697701690080573400,11.388573486328125,-0.08612946420907974,0.3859027624130249,0.499673068523407
1697701690090166300,11.398166259765626,-0.18019993603229523,0.3455868363380432,0.4960079789161682
1697701690099758000,11.407758056640626,-0.20707722008228302,0.5752654075622559,0.46424391865730286
1697701690109351000,11.417350830078124,-0.04581354558467865,0.7597413063049316,0.5473191738128662
1697701690118944500,11.426944580078125,0.20341213047504425,0.6216897964477539,0.6047387719154358
1697701690128537300,11.436537353515625,0.37200596928596497,0.21242213249206543,0.46668729186058044
1697701690138129400,11.44612939453125,0.4746283292770386,-0.305576354265213,0.13179029524326324
1697701690147722200,11.45572216796875,0.5442649126052856,-0.7722636461257935,-0.3434488773345947
1697701690157315800,11.46531591796875,0.5405998229980469,-1.0581401586532593,-0.8235748410224915
1697701690166908700,11.47490869140625,0.43797749280929565,-1.048366665840149,-1.1204465627670288
1697701690176500500,11.48450048828125,0.2632751762866974,-0.7038487792015076,-1.1839747428894043
1697701690186093300,11.49409326171875,-0.00916270911693573,-0.1785201132297516,-1.1118947267532349
1697701690195687000,11.50368701171875,-0.34879377484321594,0.3602471649646759,-1.0129374265670776
1697701690205279700,11.51327978515625,-0.5051707029342651,0.7120952010154724,-0.8382351398468018
1697701690214871800,11.522871826171874,-0.31947311758995056,0.5593833923339844,-0.6610894203186035
1697701690224464600,11.532464599609375,-0.12033691257238388,-0.016034740954637527,-0.6171084642410278
1697701690234058200,11.542058349609375,-0.1557660549879074,-0.4509579837322235,-0.6354338526725769
1697701690243651000,11.551651123046875,-0.1850867122411728,-0.4521796703338623,-0.6036698222160339
1697701690253243000,11.561242919921876,-0.16431790590286255,-0.23471805453300476,-0.4900522232055664
1697701690262835700,11.570835693359374,-0.16798299551010132,-0.06856760382652283,-0.27381229400634766
1697701690272429300,11.58042919921875,-0.20341213047504425,0.014507622458040714,0.020616095513105392
1697701690282022100,11.590022216796875,-0.20707722008228302,0.06581879407167435,0.342074453830719
1697701690291614200,11.5996142578125,-0.10689827054738998,0.0988045409321785,0.6438329815864563
1697701690301207000,11.60920703125,0.053143709897994995,0.12079504877328873,0.856407880783081
1697701690310800600,11.618800537109376,0.1459924876689911,0.0719272643327713,0.8832851648330688
1697701690320393500,11.6283935546875,0.21807247400283813,-0.047798797488212585,0.7159129977226257
1697701690329985300,11.6379853515625,0.28404396772384644,-0.14186927676200867,0.46302223205566406
1697701690339578000,11.647578125,0.28282228112220764,-0.15652960538864136,0.2307475507259369
1697701690349171700,11.657171630859375,0.2229592502117157,-0.07345438003540039,0.06704048812389374
1697701690358764500,11.6667646484375,0.1582094430923462,0.09636115282773972,-0.06001574173569679
1697701690368356600,11.676356689453126,0.11178504675626755,0.28938889503479004,-0.19318044185638428
1697701690377949400,11.685949462890624,0.08735115826129913,0.42133188247680664,-0.34100547432899475
1697701690387543000,11.69554296875,0.054365407675504684,0.4506525695323944,-0.4802786707878113
1697701690397135600,11.705135498046875,0.0006108472589403391,0.39323291182518005,-0.5694623589515686
1697701690406727700,11.714727783203125,-0.06047387793660164,0.241742804646492,-0.5657972693443298
1697701690416320500,11.724320556640626,-0.10323318839073181,0.01695101149380207,-0.48516544699668884
1697701690425914000,11.7339140625,-0.13621893525123596,-0.16630317270755768,-0.37765631079673767
1697701690435507000,11.7435068359375,-0.1423274129629135,-0.18218518793582916,-0.3239017724990845
1697701690445099000,11.75309912109375,-0.08979454636573792,-0.013591351918876171,-0.36543938517570496
1697701690454691600,11.762691650390625,-0.015271181240677834,0.23929941654205322,-0.4546230733394623
1697701690464285400,11.772285400390626,0.04825693368911743,0.45798271894454956,-0.538919985294342
1697701690473878000,11.7818779296875,0.06047387793660164,0.6119162440299988,-0.6048914790153503
1697701690483470000,11.791469970703124,-0.014049487188458443,0.71942538022995,-0.6354338526725769
1697701690493063000,11.80106298828125,-0.1313321590423584,0.7646280527114868,-0.6415423154830933
1697701690502656500,11.810656494140625,-0.2229592502117157,0.8171609044075012,-0.6769714951515198
1697701690512249300,11.820249267578125,-0.2987042963504791,0.9600991606712341,-0.7637118101119995
1697701690521841400,11.82984130859375,-0.37322768568992615,1.1580137014389038,-0.8761076927185059
1697701690531434000,11.83943408203125,-0.4318690001964569,1.3449329137802124,-0.9652913808822632
1697701690541027600,11.849027587890625,-0.5063923597335815,1.390135645866394,-0.9420791864395142
1697701690550620400,11.858620361328125,-0.6517740488052368,1.1812258958816528,-0.779593825340271
1697701690560212500,11.86821240234375,-0.883895993232727,0.6265766024589539,-0.6085565686225891
1697701690569805300,11.877805419921875,-1.1074661016464233,0.04993676394224167,-0.598783016204834
1697701690579399000,11.88739892578125,-1.2284138202667236,-0.2921377122402191,-0.6769714951515198
1697701690588991500,11.896991455078124,-1.2650647163391113,-0.45950984954833984,-0.6977402567863464
1697701690598583600,11.90658349609375,-1.2430741786956787,-0.4790569543838501,-0.6146650314331055
1697701690608176400,11.91617626953125,-1.2406307458877563,-0.5047125220298767,-0.5034908652305603
1697701690617770000,11.92577001953125,-1.2907202243804932,-0.5865660905838013,-0.40697699785232544
1697701690627362800,11.93536279296875,-1.2980504035949707,-0.5792359113693237,-0.3067980408668518
1697701690636955000,11.944954833984376,-1.2259705066680908,-0.4937172830104828,-0.21150586009025574
1697701690646547500,11.95454736328125,-1.096470832824707,-0.32512345910072327,-0.12965233623981476
1697701690656141000,11.96414111328125,-0.9449806809425354,-0.029473381116986275,-0.06001574173569679
1697701690665734000,11.97373388671875,-0.7776085734367371,0.31626617908477783,-0.01725643500685692
1697701690675326000,11.983325927734375,-0.5796940326690674,0.5948125123977661,-0.011147962883114815
1697701690684918800,11.992918701171876,-0.40987852215766907,0.7511894106864929,-0.00015271181473508477
1697701690694512400,12.002512451171874,-0.337798535823822,0.6974348425865173,0.07314895838499069
