time,seconds_elapsed,z,y,x
1701882077904308000,0.170307861328125,9.736993789672852,4.221836566925049,2.933600664138794
1701882077913900800,0.17990087890625,9.26291561126709,4.607080936431885,3.060420274734497
1701882077923494100,0.189494140625,8.2788667678833,3.6329028606414795,2.9001009464263916
1701882077933087000,0.1990869140625,7.63729190826416,3.350250720977783,1.810768485069275
1701882077942678800,0.2086787109375,7.350152969360352,3.4722847938537598,0.7740781307220459
1701882077952271600,0.218271728515625,7.115357398986816,3.3119657039642334,0.8889335989952087
1701882077961865200,0.227865234375,8.513663291931152,2.691925525665283,2.1361923217773438
1701882077971457800,0.237457763671875,10.620244026184082,1.5284154415130615,2.1577277183532715
1701882077981049600,0.247049560546875,9.686744689941406,1.2652050256729126,2.1122641563415527
1701882077990642400,0.256642333984375,10.919646263122559,1.688734531402588,1.4706885814666748
1701882078000236000,0.266236083984375,11.661720275878906,1.705484390258789,0.711864709854126
1701882078009828600,0.27582861328125,11.85583782196045,1.5068800449371338,0.20428723096847534
1701882078019420400,0.28542041015625,11.951550483703613,1.3704891204833984,-0.07597211748361588
1701882078029013200,0.29501318359375,12.404093742370605,2.1317057609558105,0.2832503914833069
1701882078038606600,0.304606689453125,11.233405113220215,1.8780666589736938,0.26889345049858093
1701882078048199400,0.314199462890625,10.637292861938477,2.1053848266601562,0.05114658549427986
1701882078057791200,0.323791259765625,10.234999656677246,2.550748825073242,-0.3607180118560791
1701882078067384000,0.333384033203125,9.9140625,2.63449764251709,-0.3678964674472809
1701882078076977700,0.342977783203125,9.808777809143066,2.9506494998931885,-0.6936194896697998
1701882078086570200,0.3525703125,9.418449401855469,3.355036497116089,-1.0142576694488525
1701882078096162000,0.362162109375,8.7505521774292,3.6017963886260986,-1.1099705696105957
1701882078105755000,0.3717548828125,7.876873016357422,3.7357943058013916,-1.2179467678070068
1701882078115348500,0.381348388671875,7.630113124847412,3.965505361557007,-1.34476637840271
1701882078124941000,0.390941162109375,7.737790107727051,4.049253940582275,-1.34476637840271
1701882078134532900,0.400532958984375,8.300402641296387,4.197908401489258,-1.28255295753479
1701882078144125700,0.410125732421875,8.918049812316895,4.343870639801025,-1.3878371715545654
1701882078153719000,0.419718994140625,8.525627136230469,3.4794633388519287,-1.150648593902588
1701882078163311900,0.429311767578125,8.539983749389648,3.103790044784546,-0.9448658227920532
1701882078172903700,0.438903564453125,8.978169441223145,3.2832517623901367,-0.9903294444084167
1701882078182496500,0.44849658203125,9.341878890991211,3.692723512649536,-1.2394821643829346
1701882078192090000,0.458090087890625,9.425627708435059,3.707080364227295,-1.3758729696273804
1701882078201682700,0.4676826171875,9.54796028137207,3.3933215141296387,-1.5050854682922363
1701882078211274500,0.4772744140625,9.815957069396973,3.1396822929382324,-1.6247265338897705
1701882078220867300,0.486867431640625,10.175179481506348,3.1875388622283936,-1.2346965074539185
1701882078230461000,0.4964609375,10.467103958129883,3.027219772338867,-1.6342978477478027
1701882078240053500,0.506053466796875,10.953145980834961,2.2178475856781006,-1.857129454612732
1701882078249645300,0.515645263671875,11.484651565551758,1.911566138267517,-2.103590250015259
1701882078259238100,0.525238037109375,11.369795799255371,2.7493531703948975,-2.812164783477783
1701882078268831500,0.53483154296875,10.912467956542969,3.0535407066345215,-2.8217360973358154
1701882078278424300,0.54442431640625,10.282855987548828,3.041576623916626,-2.8914270401000977
1701882078288016100,0.55401611328125,9.744172096252441,3.386143207550049,-3.0373892784118652
1701882078297609000,0.56360888671875,9.605388641357422,3.8075790405273438,-2.848356246948242
1701882078307202600,0.57320263671875,9.524032592773438,3.972683906555176,-2.527418851852417
1701882078316795100,0.582795166015625,9.396913528442383,4.121337890625,-2.2953150272369385
1701882078326387000,0.592386962890625,9.160024642944336,4.444368839263916,-2.082054853439331
1701882078335979800,0.601979736328125,8.834300994873047,4.758127689361572,-1.7685949802398682
1701882078345573400,0.611573486328125,8.384450912475586,4.999803066253662,-1.3950155973434448
1701882078355166000,0.621166015625,8.097012519836426,5.256134033203125,-1.0597213506698608
1701882078364757800,0.6307578125,7.929515361785889,5.507380485534668,-0.8060821294784546
1701882078374350600,0.6403505859375,7.670791149139404,5.696413516998291,-0.6218347549438477
1701882078383944200,0.649944091796875,7.587042331695557,5.787639617919922,-0.5688936114311218
1701882078393536800,0.659536865234375,7.58943510055542,5.873781204223633,-0.6936194896697998
1701882078403128600,0.669128662109375,7.620542049407959,6.000600814819336,-0.8515457510948181
1701882078412721400,0.678721435546875,7.591827869415283,6.08195686340332,-0.8635098934173584
1701882078422315000,0.68831494140625,7.596613883972168,6.002993583679199,-0.7797610759735107
1701882078431907600,0.697907470703125,7.704290866851807,5.8953166007995605,-0.6649056077003479
1701882078441499400,0.70749951171875,7.654041290283203,5.861817359924316,-0.4827519655227661
1701882078451092200,0.71709228515625,7.57507848739624,5.607879161834717,-0.37028929591178894
1701882078460685800,0.726685791015625,7.680362701416016,5.390131950378418,-0.35114672780036926
1701882078470278400,0.7362783203125,7.934300899505615,5.296812057495117,-0.4372883439064026
1701882078479870200,0.7458701171875,8.228617668151855,5.210670471191406,-0.5617151260375977
1701882078489463000,0.755463134765625,8.58066177368164,5.071587562561035,-0.5186443328857422
1701882078499056600,0.765056640625,8.831908226013184,4.985445976257324,-0.3439682424068451
1701882078508649200,0.774649169921875,8.994919776916504,4.887340068817139,-0.1501496136188507
1701882078518241000,0.784240966796875,8.978169441223145,4.83469820022583,0.015254244208335876
1701882078527833900,0.793833740234375,8.939884185791016,4.774877548217773,0.20428723096847534
1701882078537427500,0.803427490234375,8.886942863464355,4.767699241638184,0.31914272904396057
1701882078547020000,0.81302001953125,8.740981101989746,4.810770034790039,0.24496522545814514
1701882078556611800,0.82261181640625,8.647661209106445,4.791627407073975,0.0726819857954979
1701882078566204700,0.83220458984375,8.60459041595459,4.8227338790893555,-0.032602209597826004
1701882078575798300,0.84179833984375,8.513663291931152,4.820341110229492,-0.047258246690034866
1701882078585390800,0.851390869140625,8.4562349319458,4.755734920501709,0.0726819857954979
1701882078594983000,0.86098291015625,8.46341323852539,4.789234638214111,0.35024940967559814
1701882078604575500,0.870575439453125,8.47298526763916,4.791627407073975,0.7046862840652466
1701882078614169000,0.880169189453125,8.417949676513672,4.8299126625061035,0.9631111025810242
1701882078623761700,0.88976171875,8.595019340515137,5.059623718261719,1.0396814346313477
1701882078633353700,0.899353759765625,8.453842163085938,4.6887359619140625,1.4994025230407715
1701882078642946300,0.9089462890625,8.657232284545898,4.5807600021362305,1.8131613731384277
1701882078652540000,0.918539794921875,8.896514892578125,4.609473705291748,1.810768485069275
1701882078662132500,0.928132568359375,9.009276390075684,4.6408796310424805,1.6863417625427246
1701882078671724500,0.937724609375,8.894122123718262,4.566402912139893,1.7892330884933472
1701882078681317000,0.947317138671875,8.70508861541748,4.53290319442749,1.8729819059371948
1701882078690910700,0.95691064453125,8.539983749389648,4.504189491271973,2.0333011150360107
1701882078700503300,0.96650341796875,8.228617668151855,4.4635114669799805,2.1960129737854004
1701882078710095400,0.976095458984375,7.867301940917969,4.492225646972656,2.277667999267578
1701882078719688000,0.98568798828125,7.7593255043029785,4.47068977355957,2.4595224857330322
1701882078729281500,0.995281494140625,8.693124771118164,4.1404805183410645,2.9838497638702393
1701882078738874000,1.0048740234375,8.942276954650879,4.6408796310424805,2.251347064971924
1701882078748466200,1.014466064453125,8.623732566833496,4.597509384155273,2.2345972061157227
1701882078758058800,1.024058837890625,8.269295692443848,4.272085666656494,2.3374886512756348
1701882078767652400,1.03365234375,8.001299858093262,4.106980800628662,2.2489542961120605
1701882078777245000,1.043244873046875,7.756932735443115,4.073481559753418,2.1720848083496094
1701882078786837000,1.0528369140625,7.5272216796875,3.99900484085083,2.2585253715515137
1701882078796429600,1.0624296875,7.366902828216553,3.8697924613952637,2.598306179046631
1701882078806023200,1.072023193359375,7.285546779632568,3.9008991718292236,3.0412776470184326
1701882078815616000,1.081615966796875,7.2421770095825195,4.075874328613281,3.371786117553711
1701882078825207800,1.091207763671875,7.141678333282471,4.260121822357178,3.6038899421691895
1701882078834800400,1.10080029296875,6.990930557250977,4.427618980407715,3.5823545455932617
1701882078844394000,1.11039404296875,6.837790012359619,4.444368839263916,3.7067813873291016
1701882078853986800,1.11998681640625,6.840182781219482,4.504189491271973,3.7929229736328125
1701882078863578600,1.12957861328125,6.962216377258301,4.575973987579346,3.670889139175415
1701882078873171500,1.13917138671875,7.079464912414551,4.5257248878479,3.6062827110290527
1701882078882764800,1.148764892578125,7.309474945068359,4.394119739532471,3.670889139175415
1701882078892357600,1.158357666015625,7.603792190551758,4.327120780944824,3.8383865356445312
1701882078901949400,1.167949462890625,7.9055867195129395,4.250550270080566,4.073182582855225
1701882078911542300,1.177542236328125,8.47298526763916,4.083052635192871,4.233501434326172
1701882078921135600,1.187135498046875,9.329915046691895,4.0782670974731445,4.231108665466309
1701882078930728400,1.196728515625,9.274879455566406,4.0543389320373535,4.393820762634277
1701882078940320300,1.2063203125,9.121739387512207,3.9008991718292236,4.417748928070068
1701882078949913000,1.2159130859375,9.054739952087402,3.683152198791504,4.412963390350342
1701882078959506700,1.225506591796875,8.877371788024902,3.551547050476074,4.2693939208984375
1701882078969099300,1.235099365234375,8.755337715148926,3.5706896781921387,3.96789813041687
1701882078978691000,1.244691162109375,8.640482902526855,3.5874392986297607,3.7139599323272705
1701882078988284000,1.254283935546875,8.597412109375,3.5706896781921387,3.6038899421691895
1701882078997877500,1.26387744140625,8.595019340515137,3.5754752159118652,3.6134612560272217
1701882079007470000,1.273469970703125,8.58066177368164,3.5946178436279297,3.7307095527648926
1701882079017062100,1.283062255859375,8.520841598510742,3.580260992050171,3.8575291633605957
1701882079026654700,1.29265478515625,8.441878318786621,3.5754752159118652,4.051646709442139
1701882079036248300,1.302248291015625,8.374580383300781,3.5946178436279297,4.24785852432251
1701882079045841000,1.3118408203125,8.28126049041748,3.6089746952056885,4.564010143280029
1701882079055433000,1.321432861328125,7.967800140380859,3.661616802215576,4.841577529907227
1701882079065025500,1.331025634765625,7.649255752563477,3.776472330093384,4.949254512786865
1701882079074619100,1.340619140625,7.479365348815918,3.8769710063934326,4.894219398498535
1701882079084211700,1.350211669921875,7.354938507080078,3.833899974822998,4.858327388763428
1701882079093803800,1.3598037109375,7.254140853881836,3.685544967651367,4.956432819366455
1701882079103396400,1.369396240234375,7.266404151916504,3.5132617950439453,5.174479007720947
1701882079112990000,1.378989990234375,7.227819919586182,3.474677562713623,5.499902725219727
1701882079122582500,1.38858251953125,7.203891754150391,3.518047571182251,5.6916279792785645
1701882079132174600,1.398174560546875,7.386045455932617,3.565903902053833,5.703591823577881
1701882079141767200,1.40776708984375,7.541578769683838,3.5778679847717285,5.794518947601318
1701882079151360800,1.41736083984375,7.58225679397583,3.6329028606414795,5.828018665313721
1701882079160953600,1.42695361328125,7.701898097991943,3.6257245540618896,5.808876037597656
1701882079170545400,1.43654541015625,7.831409454345703,3.556332588195801,5.698806285858154
1701882079180138000,1.446137939453125,7.864908695220947,3.4531421661376953,5.461617469787598
1701882079189731600,1.455731689453125,7.9366936683654785,3.3622148036956787,5.124229907989502
1701882079199324400,1.465324462890625,8.06112003326416,3.2425737380981445,4.932504653930664
1701882079208916200,1.474916259765625,8.183154106140137,3.1803603172302246,4.839184761047363
1701882079218509000,1.484509033203125,8.329116821289062,3.158824920654297,4.808077812194824
1701882079228102700,1.4941025390625,8.274081230163574,3.089433193206787,4.910969257354736
1701882079237695200,1.5036953125,8.216653823852539,3.003291606903076,5.040481090545654
1701882079247287000,1.513287109375,8.262117385864258,2.902493953704834,5.08355188369751
1701882079256879900,1.5228798828125,8.376973152160645,2.7637102603912354,5.306084156036377
1701882079266473500,1.532473388671875,8.259724617004395,2.723032236099243,5.6916279792785645
1701882079276066000,1.542066162109375,7.929515361785889,2.744567632675171,6.0768723487854
1701882079285657900,1.551657958984375,7.673183917999268,2.691925525665283,6.529414653778076
1701882079295250700,1.561250732421875,7.407580852508545,2.6488547325134277,6.809674263000488
1701882079304844300,1.57084423828125,7.0531439781188965,2.6177480220794678,6.9221367835998535
1701882079314436900,1.580436767578125,6.669992923736572,2.6153552532196045,6.840780735015869
1701882079324029000,1.59002880859375,6.545566558837891,2.56510591506958,6.7331037521362305
1701882079333621500,1.59962158203125,6.524031162261963,2.5387847423553467,6.8742804527282715
1701882079343215000,1.609215087890625,6.413960933685303,2.5435705184936523,7.159026145935059
1701882079352807700,1.6188076171875,6.368497371673584,2.5746772289276123,7.432106971740723
1701882079362399700,1.628399658203125,6.378068923950195,2.6225335597991943,7.558926582336426
1701882079371992300,1.637992431640625,6.413960933685303,2.6249263286590576,7.439285755157471
1701882079381586000,1.6475859375,6.533602237701416,2.586641311645508,7.115955352783203
1701882079391178800,1.6571787109375,6.785147666931152,2.4741785526275635,6.577271461486816
1701882079400770600,1.6667705078125,7.11775016784668,2.284846544265747,6.019444465637207
1701882079410363400,1.67636328125,7.455437183380127,2.047957181930542,5.547759532928467
1701882079419956700,1.685956787109375,7.747361660003662,1.8134604692459106,5.2630133628845215
1701882079429549600,1.695549560546875,7.998907089233398,1.485344648361206,5.078765869140625
1701882079439141400,1.705141357421875,8.312366485595703,1.0710872411727905,4.992325305938721
1701882079448734200,1.714734130859375,8.70508861541748,0.7073782086372375,5.016552448272705
1701882079458327600,1.72432763671875,9.107381820678711,0.3074777126312256,4.992325305938721
1701882079467920400,1.73392041015625,9.54078197479248,-0.18813568353652954,4.934897422790527
1701882079477512200,1.74351220703125,9.758528709411621,-0.5234299302101135,5.164907455444336
1701882079487105000,1.75310498046875,9.475876808166504,-0.7148557901382446,5.327619552612305
1701882079496698600,1.76269873046875,9.049954414367676,-0.997208833694458,5.5692949295043945
1701882079506291200,1.772291259765625,8.338687896728516,-1.3731811046600342,5.777769565582275
1701882079515883000,1.781883056640625,7.350152969360352,-1.8999011516571045,5.677270889282227
1701882079525475800,1.791475830078125,6.265605926513672,-2.4003002643585205,5.289334297180176
1701882079535069400,1.8010693359375,5.43709135055542,-2.7571299076080322,5.109872817993164
1701882079544662000,1.810662109375,4.702195644378662,-2.9461629390716553,5.1290154457092285
1701882079554254000,1.820254150390625,3.840181350708008,-3.2766714096069336,5.313262462615967
1701882079563846700,1.8298466796875,2.7774689197540283,-3.7073795795440674,6.352345943450928
1701882079573440300,1.839440185546875,1.5179468393325806,-3.712165117263794,7.3914289474487305
1701882079583032800,1.84903271484375,0.5413761138916016,-3.7719857692718506,7.70967435836792
1701882079592625000,1.858625,-0.16271193325519562,-3.875176191329956,7.63310432434082
1701882079602217500,1.868217529296875,-0.921535849571228,-3.8488552570343018,6.962814807891846
1701882079611811000,1.87781103515625,-1.4267204999923706,-4.064209461212158,6.3738813400268555
1701882079621403600,1.887403564453125,-1.6612170934677124,-4.526323318481445,6.160920143127441
1701882079630995700,1.89699560546875,-1.7285152673721313,-4.964509010314941,6.017051696777344
1701882079640588500,1.906588623046875,-1.6516457796096802,-5.378467082977295,6.02901554107666
1701882079650182000,1.916181884765625,-1.7596219778060913,-5.819045543670654,6.048158168792725
1701882079659774700,1.925774658203125,-2.168794631958008,-6.216553211212158,6.567699909210205
1701882079669366500,1.935366455078125,-2.911167860031128,-6.5491557121276855,7.11356258392334
1701882079678959400,1.94495947265625,-4.627718925476074,-7.202994346618652,8.423334121704102
1701882079688552700,1.954552734375,-9.10229778289795,-7.82064151763916,13.896018028259277
1701882079698145500,1.9641455078125,-10.988739013671875,-5.943472385406494,15.064313888549805
1701882079707737300,1.9737373046875,-9.877870559692383,-4.952544689178467,12.48126220703125
1701882079717330200,1.983330078125,-8.865108489990234,-5.596513271331787,10.635498046875
1701882079726923800,1.992923828125,-6.4926252365112305,-6.867700099945068,10.45095157623291
1701882079736516400,2.002516357421875,-3.940380573272705,-7.363313674926758,13.738092422485352
1701882079746108200,2.012108154296875,-1.989332914352417,-6.120840549468994,11.073385238647461
1701882079755701000,2.021700927734375,-0.4833501875400543,-6.510870456695557,8.495118141174316
1701882079765294600,2.031294677734375,-0.5790630578994751,-7.540382385253906,7.307680130004883
1701882079774887200,2.04088720703125,12.777374267578125,-15.361921310424805,26.74278450012207
1701882079784479200,2.050479248046875,14.216357231140137,-9.352646827697754,19.83350944519043
1701882079794071800,2.06007177734375,5.781956672668457,-4.514358997344971,5.284548759460449
1701882079803665400,2.06966552734375,0.6418746709823608,-8.275278091430664,9.14865779876709
1701882079813258000,2.079258056640625,-2.154437780380249,-7.63609504699707,7.5804619789123535
1701882079822850000,2.08885009765625,-2.0156540870666504,-6.819843769073486,3.718745470046997
1701882079832442600,2.098442626953125,-1.9749759435653687,-8.122137069702148,4.480261325836182
1701882079842036200,2.1080361328125,-1.2329018115997314,-8.50289535522461,5.444868087768555
1701882079851628800,2.11762890625,0.17497515678405762,-8.1795654296875,5.509474277496338
1701882079861220900,2.127220947265625,0.8691928386688232,-8.100602149963379,5.954838275909424
1701882079870813700,2.136813720703125,0.27308088541030884,-7.823034763336182,5.720341682434082
1701882079880407000,2.146406982421875,-1.6157535314559937,-7.772785186767578,4.9277191162109375
1701882079890000000,2.155999755859375,-2.7936203479766846,-7.93071174621582,4.530510425567627
1701882079899591700,2.165591796875,-2.944667339324951,-8.059924125671387,4.312464714050293
1701882079909184500,2.1751845703125,-2.410768747329712,-7.834998607635498,4.219144344329834
1701882079918777900,2.18477783203125,-0.9287142753601074,-7.949853897094727,4.638187408447266
1701882079928370700,2.19437060546875,-0.09571290761232376,-7.502097129821777,5.011467933654785
1701882079937962500,2.20396240234375,0.6059823632240295,-6.865307331085205,5.492724418640137
1701882079947555300,2.213555419921875,-0.8641080856323242,-6.4510498046875,3.749852180480957
1701882079957149000,2.22314892578125,-3.140878915786743,-7.284350395202637,-2.434098720550537
1701882079966741500,2.232741455078125,1.5107684135437012,-6.563512325286865,3.654139280319214
1701882079976333300,2.242333251953125,0.03858426585793495,-5.419145107269287,6.457630157470703
1701882079985926100,2.251926025390625,-2.7696921825408936,-5.567799091339111,4.326821327209473
1701882079995519700,2.261519775390625,-3.4618160724639893,-6.745666027069092,3.0652058124542236
1701882080005112300,2.2711123046875,-2.8944180011749268,-7.75842809677124,2.545664072036743
1701882080014704400,2.280704345703125,-2.7601208686828613,-8.36411190032959,2.5887351036071777
1701882080024297000,2.290296875,-2.2525434494018555,-8.701499938964844,2.799602508544922
1701882080033890600,2.299890625,-3.0714869499206543,-9.058329582214355,3.2542388439178467
1701882080043483100,2.309483154296875,-4.6540398597717285,-9.520442962646484,4.408177375793457
1701882080053075200,2.3190751953125,-2.633301258087158,-9.616155624389648,1.8729819059371948
1701882080062667800,2.328667724609375,1.5131611824035645,-9.762118339538574,0.06071787327528
1701882080072261400,2.338261474609375,0.12472587823867798,-12.745070457458496,3.941577196121216
1701882080081854000,2.34785400390625,0.2515454888343811,-8.198707580566406,0.40289151668548584
1701882080091446000,2.357446044921875,0.3113660514354706,-7.253243446350098,0.3334996700286865
1701882080101038800,2.367038818359375,-1.5176477432250977,-7.849355697631836,-0.602692186832428
1701882080110632200,2.376632080078125,-3.0667014122009277,-7.703094482421875,3.280559778213501
1701882080120225000,2.38622509765625,-0.05024927482008934,-10.322338104248047,3.7833516597747803
1701882080129816800,2.39581689453125,1.446162223815918,-11.047661781311035,0.6879364848136902
1701882080139409700,2.40540966796875,1.233201026916504,-6.8605217933654785,2.3135604858398438
1701882080149003000,2.4150029296875,0.7830511927604675,-5.8692946434021,2.794816732406616
1701882080158595800,2.424595947265625,-0.6798607110977173,-5.5366926193237305,3.4794633388519287
1701882080168187600,2.434187744140625,-1.2400803565979004,-5.541478157043457,3.4531421661376953
1701882080177780500,2.443780517578125,-1.170688509941101,-6.235695838928223,3.1657042503356934
1701882080187374000,2.4533740234375,-3.2078778743743896,-7.425527095794678,2.4044876098632812
1701882080196966700,2.462966552734375,-2.130509376525879,-8.481359481811523,1.2505489587783813
1701882080206558500,2.472558349609375,-4.390530586242676,-10.288838386535645,0.2521436810493469
1701882080216151300,2.4821513671875,-7.488637447357178,-11.792428016662598,-2.184946060180664
1701882080225745000,2.491744873046875,-7.024130821228027,-12.548859596252441,-2.536990165710449
1701882080235337500,2.50133740234375,-4.902893543243408,-12.941581726074219,-1.8044873476028442
1701882080244929500,2.510929443359375,-3.5359935760498047,-13.640584945678711,-2.1011974811553955
1701882080254522000,2.520522216796875,1.108774185180664,-16.05613899230957,-2.292922258377075
1701882080264115700,2.53011572265625,3.684647798538208,-24.80190658569336,2.5887351036071777
1701882080273708300,2.539708251953125,4.800301551818848,-32.857940673828125,9.419047355651855
1701882080283300400,2.54930029296875,6.165107727050781,-25.431516647338867,10.695319175720215
1701882080292893000,2.558892822265625,1.1303095817565918,-11.842677116394043,4.544867515563965
1701882080302486500,2.568486572265625,-0.8473583459854126,-5.833402633666992,-0.9616156220436096
1701882080312079000,2.5780791015625,-2.27168607711792,-5.919544219970703,-1.5840486288070679
1701882080321671200,2.587671142578125,-3.3011980056762695,-9.419944763183594,0.7238288521766663
1701882080331263700,2.597263671875,-2.7864420413970947,-10.267302513122559,2.186441659927368
1701882080340857300,2.606857421875,-1.6372889280319214,-9.54197883605957,1.72941255569458
1701882080350450000,2.616449951171875,-0.8641080856323242,-9.393324851989746,0.8075776696205139
1701882080360042000,2.6260419921875,-0.7205387353897095,-9.587442398071289,0.8793623447418213
1701882080369634800,2.635634765625,-0.9263214468955994,-9.89850902557373,1.1979068517684937
1701882080379228200,2.645228271484375,-1.038784146308899,-10.12134075164795,1.2936197519302368
1701882080388821000,2.654821044921875,-0.9478568434715271,-10.245767593383789,1.2266206741333008
1701882080398412800,2.664412841796875,-0.8401798605918884,-10.245767593383789,1.2194422483444214
1701882080408005600,2.674005615234375,-0.8952147960662842,-10.159626007080078,1.2864413261413574
1701882080417599000,2.683598876953125,-1.1994023323059082,-10.051948547363281,1.4419747591018677
1701882080427191800,2.69319189453125,-1.49611234664917,-10.023235321044922,1.5592230558395386
1701882080436783600,2.70278369140625,-1.7620147466659546,-9.953543663024902,1.5376876592636108
1701882080446376400,2.71237646484375,-1.9319051504135132,-9.896116256713867,1.3654043674468994
1701882080455970000,2.721969970703125,-2.0228323936462402,-9.726225852966309,1.212263822555542
1701882080465562600,2.731562744140625,-1.7787644863128662,-9.70229721069336,0.9798609018325806
1701882080475154700,2.74115478515625,-0.37088751792907715,-8.184350967407227,-0.030209386721253395
1701882080484747300,2.750747314453125,1.2355937957763672,-7.272386074066162,-1.0501500368118286
1701882080494340900,2.7603408203125,2.080559253692627,-7.81346321105957,-1.0070792436599731
1701882080503933400,2.769933349609375,-1.5990036725997925,-11.100603103637695,0.47706902027130127
1701882080513525500,2.779525390625,-1.2376874685287476,-11.579168319702148,2.895315408706665
1701882080523118000,2.7891181640625,-1.0028917789459229,-10.87298583984375,1.9471594095230103
1701882080532711700,2.798711669921875,-2.6500511169433594,-10.185946464538574,1.1548360586166382
1701882080542304300,2.80830419921875,-2.192722797393799,-9.771689414978027,1.5544373989105225
1701882080551896300,2.817896240234375,-1.5990036725997925,-9.917651176452637,1.7940187454223633
1701882080561489200,2.8274892578125,-1.3573286533355713,-9.93679428100586,1.3677972555160522
1701882080571082500,2.83708251953125,-1.1611171960830688,-9.824331283569336,0.9918249845504761
1701882080580675000,2.846675048828125,-1.0890333652496338,-9.707083702087402,0.8386843204498291
1701882080590267100,2.85626708984375,-1.09381902217865,-9.664012908935547,0.9032905697822571
1701882080599859700,2.865859619140625,-1.09381902217865,-9.673583984375,1.046859860420227
1701882080609453300,2.875453369140625,-1.074676513671875,-9.697511672973633,1.1476575136184692
1701882080619046100,2.885046142578125,-1.0842477083206177,-9.719047546386719,1.2816556692123413
1701882080628638000,2.894637939453125,-1.2065808773040771,-9.80518913269043,1.4156537055969238
1701882080638230800,2.904230712890625,-1.316650629043579,-9.872187614440918,1.5233306884765625
1701882080647824100,2.91382421875,-1.3573286533355713,-9.967901229858398,1.6142579317092896
1701882080657417000,2.9234169921875,-1.3334003686904907,-10.016056060791016,1.7748762369155884
1701882080667008800,2.9330087890625,-1.3525429964065552,-10.006484985351562,1.8849459886550903
1701882080676601600,2.9426015625,-1.3645070791244507,-9.970293998718262,1.9663020372390747
1701882080686195200,2.9521953125,-1.3597214221954346,-9.941579818725586,2.083550214767456
1701882080695787800,2.961787841796875,-1.319043517112732,-9.910472869873047,2.193620204925537
1701882080705379600,2.971379638671875,-1.2687941789627075,-9.888937950134277,2.2968106269836426
1701882080714972400,2.980972412109375,-1.2329018115997314,-9.855438232421875,2.339881420135498
1701882080724566000,2.99056591796875,-1.2185449600219727,-9.778867721557617,2.3733808994293213
1701882080734158600,3.00015869140625,-1.1754741668701172,-9.690333366394043,2.4308087825775146
1701882080743750400,3.00975048828125,-1.129711389541626,-9.599406242370605,2.4595224857330322
1701882080753343200,3.01934326171875,-1.1225329637527466,-9.518050193786621,2.457129716873169
1701882080762936800,3.028936767578125,-1.1273186206817627,-9.4390869140625,2.44277286529541
1701882080772529400,3.038529296875,-1.1177473068237305,-9.36461067199707,2.3901307582855225
1701882080782121200,3.048121337890625,-1.1512467861175537,-9.328718185424805,2.3207387924194336
1701882080791714000,3.057714111328125,-1.1754741668701172,-9.309576034545898,2.220240354537964
1701882080801307600,3.0673076171875,-1.2233306169509888,-9.343074798583984,2.1026928424835205
1701882080810900200,3.076900146484375,-1.2400803565979004,-9.398110389709473,2.026122570037842
1701882080820492300,3.0864921875,-1.170688509941101,-9.45583724975586,1.9854445457458496
1701882080830084900,3.0960849609375,-1.1177473068237305,-9.498908042907715,1.9160526990890503
1701882080839678500,3.105678466796875,-1.038784146308899,-9.546764373779297,1.8801604509353638
1701882080849271000,3.11527099609375,-1.0028917789459229,-9.594620704650879,1.82273268699646
1701882080858863000,3.124863037109375,-0.9693922996520996,-9.623334884643555,1.7341982126235962
1701882080868455700,3.13445556640625,-0.9622138142585754,-9.642477035522461,1.6405789852142334
1701882080878049300,3.14404931640625,-0.974177896976471,-9.704689979553223,1.5616158246994019
1701882080887641900,3.153641845703125,-1.0292128324508667,-9.769296646118164,1.5233306884765625
1701882080897234000,3.16323388671875,-1.0866405963897705,-9.824331283569336,1.4730814695358276
1701882080906826500,3.172826416015625,-1.1611171960830688,-9.88415241241455,1.38933265209198
1701882080916420000,3.182420166015625,-1.2640085220336914,-9.939187049865723,1.3247264623641968
1701882080926012700,3.1920126953125,-1.3094722032546997,-9.958329200744629,1.2864413261413574
1701882080935604700,3.201604736328125,-1.3022937774658203,-10.020842552185059,1.334297776222229
1701882080945197600,3.211197509765625,-1.3262219429016113,-10.006484985351562,1.4347963333129883
1701882080954791000,3.220791015625,-1.3094722032546997,-9.963115692138672,1.5376876592636108
1701882080964383700,3.2303837890625,-1.292722463607788,-9.8267240524292,1.669592022895813
1701882080973975600,3.2399755859375,-1.2831511497497559,-9.685547828674316,1.7868403196334839
1701882080983568400,3.249568359375,-1.2903295755386353,-9.537193298339844,1.8993029594421387
1701882080993162000,3.259161865234375,-1.280758261680603,-9.436694145202637,1.944766640663147
1701882081002754600,3.268754638671875,-1.2664014101028442,-9.4390869140625,1.9639091491699219
1701882081012346400,3.278346435546875,-1.2400803565979004,-9.453444480895996,2.0309081077575684
1701882081021939200,3.287939208984375,-1.2616157531738281,-9.436694145202637,2.026122570037842
1701882081031532800,3.29753271484375,-1.2975081205368042,-9.486943244934082,2.052443504333496
1701882081041125400,3.30712548828125,-1.2687941789627075,-9.606584548950195,2.0883359909057617
1701882081050717200,3.31671728515625,-1.2711870670318604,-9.714262008666992,2.1361923217773438
1701882081060310000,3.32631005859375,-1.252044439315796,-9.824331283569336,2.1744775772094727
1701882081069903600,3.335903564453125,-1.2664014101028442,-9.972686767578125,2.2031915187835693
1701882081079496200,3.34549609375,-1.3046865463256836,-9.994521141052246,2.186441659927368
1701882081089088000,3.355087890625,-1.378864049911499,-10.059126853942871,2.253739833831787
1701882081098680800,3.364680908203125,-1.4793626070022583,-10.130911827087402,2.275275230407715
1701882081108274400,3.3742744140625,-1.6013965606689453,-10.22183895111084,2.2872393131256104
1701882081117867000,3.383866943359375,-1.622931957244873,-10.284052848815918,2.308774709701538
1701882081127459000,3.393458984375,-1.6755740642547607,-10.329516410827637,2.282453775405884
1701882081137051600,3.4030517578125,-1.618146300315857,-10.298409461975098,2.191227436065674
1701882081146645200,3.412645263671875,-1.591825246810913,-10.243374824523926,1.975873351097107
1701882081156237800,3.42223779296875,-1.5750755071640015,-10.162018775939941,1.8849459886550903
1701882081165830000,3.431829833984375,-1.5343974828720093,-10.011270523071289,1.827518343925476
1701882081175422500,3.44142236328125,-1.4865410327911377,-9.786046028137207,1.669592022895813
1701882081185016000,3.45101611328125,-1.350150227546692,-9.54197883605957,1.5281163454055786
1701882081194608600,3.460608642578125,-1.1488540172576904,-9.321539878845215,1.480259895324707
1701882081204200700,3.47020068359375,-1.1392827033996582,-9.180362701416016,1.4276177883148193
1701882081213793300,3.479793212890625,-1.1392827033996582,-9.099007606506348,1.4324034452438354
1701882081223387000,3.489386962890625,-1.1273186206817627,-9.12293529510498,1.4156537055969238
1701882081232979500,3.4989794921875,-1.0914262533187866,-9.197113037109375,1.3247264623641968
1701882081242571500,3.508571533203125,-1.1201400756835938,-9.25454044342041,1.2577273845672607
1701882081252164000,3.5181640625,-1.1488540172576904,-9.316754341125488,1.181157112121582
1701882081261757700,3.5277578125,-1.2305090427398682,-9.41755199432373,1.145264744758606
1701882081271350500,3.5373505859375,-1.378864049911499,-9.57069206237793,1.2074781656265259
1701882081280942300,3.5469423828125,-1.5535401105880737,-9.668798446655273,1.3319048881530762
1701882081290535000,3.556534912109375,-1.7042878866195679,-9.709476470947266,1.4635101556777954
1701882081300128500,3.56612841796875,-1.8266209363937378,-9.731011390686035,1.5640087127685547
1701882081309721300,3.575721435546875,-1.8218353986740112,-9.726225852966309,1.5879368782043457
1701882081319313200,3.585313232421875,-1.7476578950881958,-9.65683364868164,1.669592022895813
1701882081328906000,3.594906005859375,-1.6923238039016724,-9.671191215515137,1.5807584524154663
1701882081338499600,3.60449951171875,-1.5990036725997925,-9.70229721069336,1.3749756813049316
1701882081348092200,3.614092041015625,-1.4482558965682983,-9.747760772705078,1.114158034324646
1701882081357684000,3.62368408203125,-1.3142578601837158,-9.759725570678711,0.9272187948226929
1701882081367276800,3.63327685546875,-1.2640085220336914,-9.783653259277344,0.778863787651062
1701882081376870400,3.642870361328125,-1.2664014101028442,-9.783653259277344,0.7405785918235779
1701882081386463000,3.652462890625,-1.3334003686904907,-9.848259925842285,0.7022934556007385
1701882081396054800,3.6620546875,-1.3980066776275635,-9.934401512145996,0.6472585201263428
1701882081405647600,3.671647705078125,-1.4075778722763062,-10.006484985351562,0.5177469849586487
1701882081415241200,3.6812412109375,-1.378864049911499,-10.102197647094727,0.3717848062515259
1701882081424833800,3.690833740234375,-1.3094722032546997,-10.226624488830566,0.24496522545814514
1701882081434425600,3.700425537109375,-1.2305090427398682,-10.288838386535645,0.13250255584716797
1701882081444018400,3.710018310546875,-1.1009975671768188,-10.365408897399902,0.09421738982200623
1701882081453612000,3.719612060546875,-1.0172487497329712,-10.391729354858398,0.043968115001916885
1701882081463204600,3.72920458984375,-0.9263214468955994,-10.257731437683105,-0.054436713457107544
1701882081472796700,3.738796630859375,-0.8617152571678162,-10.224231719970703,-0.013459627516567707
1701882081482389200,3.74838916015625,-0.8258228898048401,-10.169197082519531,-0.07118647545576096
1701882081491982800,3.75798291015625,-0.797109067440033,-10.11416244506836,-0.12382857501506805
1701882081501575400,3.767575439453125,-0.8090731501579285,-10.06152057647705,-0.1788634955883026
1701882081511167500,3.77716748046875,-0.7923234105110168,-10.025628089904785,-0.22193430364131927
1701882081520760300,3.78676025390625,-0.7420741319656372,-10.006484985351562,-0.2841476798057556
1701882081530353700,3.796353759765625,-0.675075113773346,-9.999306678771973,-0.31764721870422363
1701882081539946200,3.8059462890625,-0.6056832075119019,-10.037591934204102,-0.3320041298866272
1701882081549538300,3.815538330078125,-0.6200401782989502,-10.08305549621582,-0.2793620526790619
1701882081559131000,3.825130859375,-0.6702894568443298,-10.164411544799805,-0.21236300468444824
1701882081568724500,3.834724365234375,-0.7516453862190247,-10.288838386535645,-0.08075776696205139
1701882081578317000,3.844317138671875,-0.8162516355514526,-10.264909744262695,-0.08554340898990631
1701882081587909000,3.8539091796875,-0.7995018362998962,-10.20030403137207,-0.1333998590707779
1701882081597501700,3.863501708984375,-0.7947162389755249,-10.2385892868042,-0.11425728350877762
1701882081607095300,3.87309521484375,-0.8425726890563965,-10.355836868286133,-0.15493527054786682
1701882081616688000,3.882688232421875,-0.7540382146835327,-10.370194435119629,-0.25064817070961
1701882081626280000,3.892280029296875,-0.646361231803894,-10.343873023986816,-0.2745763957500458
1701882081635872800,3.901872802734375,-0.6415755748748779,-10.276874542236328,-0.26979073882102966
1701882081645466000,3.911466064453125,-0.6487540602684021,-10.183553695678711,-0.36311084032058716
1701882081655059000,3.921058837890625,-0.5527420043945312,-10.23141098022461,-0.33918261528015137
1701882081664650800,3.930650634765625,-0.5072783827781677,-10.217053413391113,-0.25782662630081177
1701882081674243600,3.94024365234375,-0.5216353535652161,-10.140482902526855,-0.21714866161346436
1701882081683837200,3.949837158203125,-0.5383850932121277,-10.128519058227539,-0.18843477964401245
1701882081693429800,3.9594296875,-0.5288137793540955,-10.123733520507812,-0.23629122972488403
1701882081703021600,3.969021484375,-0.39481574296951294,-10.142875671386719,-0.2841476798057556
1701882081712614400,3.978614501953125,-0.275174617767334,-10.102197647094727,-0.37028929591178894
1701882081722208000,3.9882080078125,-0.2727817893028259,-10.06869888305664,-0.38703906536102295
1701882081731800600,3.997800537109375,-0.37806597352027893,-10.135697364807129,-0.31764721870422363
1701882081741392400,4.007392333984375,-0.4091726839542389,-10.145268440246582,-0.2554338276386261
1701882081750985200,4.016985107421875,-0.48095735907554626,-10.162018775939941,-0.1381855010986328
1701882081760578800,4.026578857421875,-0.5814558863639832,-10.095019340515137,-0.18125630915164948
1701882081770171400,4.03617138671875,-0.675075113773346,-10.039984703063965,-0.19561325013637543
1701882081779763200,4.04576318359375,-0.7492526173591614,-9.98973560333252,-0.09032905846834183
1701882081789356000,4.05535595703125,-0.7851449251174927,-9.967901229858398,0.03439682722091675
1701882081798949600,4.06494970703125,-0.8832506537437439,-9.924830436706543,0.19710876047611237
1701882081808542200,4.074542236328125,-0.9478568434715271,-9.848259925842285,0.30957141518592834
1701882081818134300,4.08413427734375,-0.9981061220169067,-9.908080101013184,0.5515456199645996
1701882081827726800,4.093726806640625,-0.9287142753601074,-9.992128372192383,0.8554341197013855
1701882081837320400,4.103320556640625,-0.8425726890563965,-10.11416244506836,1.2026925086975098
1701882081846913000,4.1129130859375,-0.734895646572113,-10.209875106811523,1.511366605758667
1701882081856505000,4.122505126953125,-0.7181459069252014,-10.276874542236328,1.8658034801483154
1701882081866097700,4.13209765625,-0.8760721683502197,-10.013663291931152,1.6576279401779175
1701882081875691300,4.141691162109375,-1.0148558616638184,-9.79083251953125,1.5376876592636108
1701882081885283800,4.151283935546875,-1.225723385810852,-9.575477600097656,1.4922239780426025
1701882081894876000,4.1608759765625,-1.3956137895584106,-9.376574516296387,1.633400559425354
1701882081904468500,4.170468505859375,-1.4937195777893066,-9.14686393737793,1.6983058452606201
1701882081914062000,4.18006201171875,-1.3334003686904907,-8.914759635925293,1.688734531402588
1701882081923654700,4.189654541015625,-1.2735798358917236,-8.751749038696289,2.129014015197754
1701882081933246700,4.199246826171875,-1.1611171960830688,-8.37129020690918,2.1672990322113037
1701882081942839300,4.20883935546875,-0.8186444640159607,-8.165207862854004,2.176870346069336
1701882081952433000,4.218432861328125,-0.41874396800994873,-8.043173789978027,2.244168519973755
1701882081962025700,4.228025634765625,-0.07657032459974289,-7.909176349639893,2.301596164703369
1701882081971617500,4.237617431640625,0.0768694281578064,-7.834998607635498,2.253739833831787
1701882081981210400,4.24721044921875,0.263509601354599,-7.75124979019165,2.0213370323181152
1701882081990804000,4.256803955078125,0.4668995141983032,-7.640881061553955,1.6839489936828613
1701882082000396500,4.266396484375,0.5246263742446899,-7.583453178405762,1.3247264623641968
1701882082009988400,4.27598828125,0.4166502356529236,-7.523632526397705,0.9774680733680725
1701882082019581200,4.285581298828125,0.11515458673238754,-7.554739475250244,0.5276173949241638
1701882082029174800,4.2951748046875,-0.16749759018421173,-7.5978102684021,0.020039889961481094
1701882082038767400,4.304767333984375,-0.47617170214653015,-7.801498889923096,-0.3152543902397156
1701882082048359200,4.314359130859375,-0.6774678826332092,-8.18674373626709,-0.7821539044380188
1701882082057952000,4.323951904296875,-0.6702894568443298,-9.13729190826416,-1.2275179624557495
1701882082067545600,4.333545654296875,-0.4426721930503845,-10.250553131103516,-1.1458629369735718
1701882082077138200,4.34313818359375,0.1941177397966385,-10.743773460388184,-1.4859428405761719
1701882082086730000,4.35272998046875,0.9098708033561707,-11.270493507385254,-1.9360926151275635
1701882082096322800,4.36232275390625,0.7950153350830078,-11.993425369262695,-1.8164514303207397
1701882082105916400,4.37191650390625,0.5123631358146667,-12.388540267944336,-0.8706883192062378
1701882082115509000,4.381509033203125,0.2826521694660187,-12.203993797302246,-0.12861421704292297
1701882082125101000,4.39110107421875,-0.0933200865983963,-11.29202938079834,0.31914272904396057
1701882082134693600,4.400693603515625,-1.1249257326126099,-10.746166229248047,0.6664010882377625
1701882082144287200,4.410287353515625,-1.9701902866363525,-10.877771377563477,0.7238288521766663
1701882082153879800,4.4198798828125,-2.202294111251831,-10.535299301147461,-0.17647066712379456
1701882082163472000,4.429471923828125,-0.9000003933906555,-9.601799011230469,-0.3655036687850952
1701882082173064400,4.439064453125,-0.8210372924804688,-8.825926780700684,-0.7701897621154785
1701882082182658000,4.448657958984375,-1.4530415534973145,-8.251349449157715,-1.093220829963684
1701882082192250600,4.458250732421875,-1.6947166919708252,-8.253742218017578,-1.179661512374878
1701882082201842700,4.4678427734375,-1.472184181213379,-8.718249320983887,-1.0190433263778687
1701882082211435300,4.477435302734375,-0.6846463680267334,-10.11416244506836,0.09661021083593369
1701882082221028900,4.48702880859375,-0.2273181527853012,-9.738189697265625,0.3047857880592346
1701882082230621400,4.496621337890625,-0.9263214468955994,-7.942675590515137,-0.1908276081085205
1701882082240213500,4.506213623046875,-1.3668999671936035,-7.193423271179199,0.11096715182065964
1701882082249806300,4.515806396484375,-1.4267204999923706,-7.344171047210693,0.4914259612560272
1701882082259399700,4.525399658203125,-1.8146568536758423,-8.016853332519531,0.8386843204498291
1701882082268992500,4.534992431640625,-2.0539391040802,-9.032008171081543,0.9367900490760803
1701882082278584300,4.544584228515625,-1.2113664150238037,-9.68794059753418,1.173978567123413
1701882082288177200,4.55417724609375,-0.18424734473228455,-10.370194435119629,1.7964116334915161
1701882082297770500,4.5637705078125,0.6418746709823608,-10.884950637817383,2.323131799697876
1701882082307363300,4.57336328125,1.963310956954956,-11.107781410217285,2.825923442840576
1701882082316955100,4.582955078125,1.6737794876098633,-11.449954986572266,2.2417757511138916
1701882082326548000,4.5925478515625,1.3097712993621826,-12.053245544433594,1.6983058452606201
1701882082336141600,4.6021416015625,0.5051847100257874,-11.29202938079834,1.322333574295044
1701882082345734100,4.611734130859375,-0.16749759018421173,-10.784451484680176,0.8745766878128052
1701882082355326000,4.621325927734375,-0.885643482208252,-10.219446182250977,0.376570463180542
1701882082364918800,4.630918701171875,-0.7995018362998962,-8.701499938964844,0.3406781256198883
1701882082374512400,4.640512451171875,-1.036391258239746,-7.727022647857666,0.1301097273826599
1701882082384105000,4.65010498046875,-1.6109678745269775,-8.469395637512207,-0.11904292553663254
1701882082393697000,4.659697021484375,-1.5343974828720093,-10.370194435119629,-0.12382857501506805
1701882082403289600,4.66928955078125,-1.1850453615188599,-10.85145092010498,-0.011066804639995098
1701882082412883200,4.67888330078125,-1.2640085220336914,-10.554740905761719,0.041575293987989426
1701882082422475800,4.688475830078125,-0.7636095285415649,-9.177969932556152,0.22821545600891113
1701882082432067800,4.69806787109375,-0.062213387340307236,-8.634500503540039,0.43639102578163147
1701882082441660400,4.707660400390625,-0.48813581466674805,-8.7445707321167,0.2760719060897827
1701882082451254000,4.71725390625,-0.43549370765686035,-9.625727653503418,0.5682953596115112
1701882082460846600,4.7268466796875,-0.363709032535553,-9.91286563873291,0.9056833982467651
1701882082470438700,4.736438720703125,-0.3852444589138031,-10.183553695678711,0.836291491985321
1701882082480031200,4.74603125,-0.6296114325523376,-10.31755256652832,0.7716853022575378
1701882082489624800,4.755624755859375,-0.8784649968147278,-10.097412109375,0.6496513485908508
1701882082499217400,4.765217529296875,-1.1560324430465698,-9.953543663024902,0.5970092415809631
1701882082508809500,4.7748095703125,-1.5200406312942505,-9.56351375579834,0.7381857633590698
1701882082518402000,4.784402099609375,-1.8601205348968506,-9.106185913085938,0.9056833982467651
1701882082527995600,4.79399560546875,-1.5439687967300415,-9.28564739227295,1.1596217155456543
1701882082537588500,4.80358837890625,-1.77397882938385,-9.249754905700684,1.1356934309005737
1701882082547180300,4.81318017578125,-1.9725831747055054,-9.470193862915039,1.1907284259796143
1701882082556773000,4.822773193359375,-2.192722797393799,-9.836296081542969,1.2696914672851562
1701882082566366500,4.832366455078125,-2.307877540588379,-10.22901725769043,1.2601202726364136
1701882082575959300,4.841959228515625,-2.544766902923584,-10.401301383972168,1.2529417276382446
1701882082585551000,4.851551025390625,-2.887239694595337,-10.722238540649414,1.2337992191314697
1701882082595144000,4.86114404296875,-3.5958142280578613,-10.995019912719727,1.1979068517684937
1701882082604737300,4.8707373046875,-4.1991047859191895,-11.512168884277344,1.3917254209518433
1701882082614330000,4.880330078125,-4.543970108032227,-11.947961807250977,1.9710876941680908
1701882082623922000,4.889921875,-4.618147850036621,-12.268898963928223,2.6892335414886475
1701882082633514800,4.8995146484375,-4.53200626373291,-12.735499382019043,3.3765718936920166
1701882082643108000,4.909108154296875,-4.570291042327881,-13.154542922973633,3.733102321624756
1701882082652701000,4.918700927734375,-4.694717884063721,-13.051651000976562,4.0420756340026855
1701882082662292700,4.928292724609375,-4.728217601776123,-12.582358360290527,4.480261325836182
1701882082671885600,4.937885498046875,-4.709074974060059,-11.742178916931152,4.647758960723877
1701882082681479200,4.947479248046875,-4.5583271980285645,-10.77248764038086,4.71954345703125
1701882082691071700,4.95707177734375,-4.512564182281494,-9.795618057250977,4.741078853607178
1701882082700663800,4.966663818359375,-4.553541660308838,-8.886046409606934,4.733900547027588
1701882082710256400,4.97625634765625,-4.587040901184082,-8.067102432250977,4.5257248878479
1701882082719850000,4.98585009765625,-4.613361835479736,-7.387241840362549,4.259822368621826
1701882082729442600,4.995442626953125,-4.615755081176758,-6.972984313964844,4.025325775146484
1701882082739034600,5.00503466796875,-4.646861553192139,-6.716952323913574,3.835993766784668
1701882082748627200,5.014627197265625,-4.66361141204834,-6.592226505279541,3.7283167839050293
1701882082758220800,5.024220703125,-4.625326156616211,-6.585047721862793,3.687638759613037
1701882082767813400,5.0338134765625,-4.634897232055664,-6.700202465057373,3.6828532218933105
1701882082777405400,5.043405517578125,-4.575077056884766,-6.846164703369141,3.7211382389068604
1701882082786998000,5.052998046875,-4.591826438903809,-6.984948635101318,3.7546377182006836
1701882082796591600,5.062591552734375,-4.642076015472412,-7.2125654220581055,3.8407795429229736
1701882082806184200,5.07218408203125,-4.706682205200195,-7.368099212646484,3.943969964981079
1701882082815776300,5.0817763671875,-4.790431022644043,-7.4949188232421875,4.032504558563232
1701882082825368800,5.091368896484375,-4.893322467803955,-7.53559684753418,4.154538154602051
1701882082834962400,5.10096240234375,-5.044070243835449,-7.6839518547058105,4.331607341766357
1701882082844555000,5.110554931640625,-5.1544389724731445,-7.763214111328125,4.362713813781738
1701882082854147000,5.12014697265625,-5.3578290939331055,-7.763214111328125,4.391427993774414
1701882082863739600,5.12973974609375,-5.491827011108398,-7.7007012367248535,4.345963954925537
1701882082873333200,5.139333251953125,-5.6548380851745605,-7.545167922973633,4.2454657554626465
1701882082882926000,5.148926025390625,-5.666802406311035,-7.427919864654541,4.324428558349609
1701882082892518000,5.158517822265625,-5.898906230926514,-7.162017345428467,4.305285930633545
1701882082902110700,5.16811083984375,-6.004190444946289,-6.975377082824707,4.338785648345947
1701882082911704000,5.1777041015625,-5.91087007522583,-6.8365936279296875,4.343571186065674
1701882082921297000,5.187296875,-5.757729530334473,-6.757630348205566,4.295714855194092
1701882082930888700,5.196888671875,-5.690730571746826,-6.721737861633301,4.24785852432251
1701882082940481500,5.2064814453125,-5.7170515060424805,-6.807879447937012,4.41057014465332
1701882082950075000,5.216074951171875,-5.700301647186279,-6.781558513641357,4.4635114669799805
1701882082959667700,5.225667724609375,-5.7649078369140625,-6.76002311706543,4.5568318367004395
1701882082969259500,5.235259521484375,-5.5157551765441895,-6.649953365325928,4.497011184692383
1701882082978852400,5.244852294921875,-5.72422981262207,-6.604190349578857,4.90618371963501
1701882082988445700,5.25444580078125,-5.683551788330078,-6.44387149810791,5.1050872802734375
1701882082998038500,5.26403857421875,-5.561218738555908,-6.331408500671387,5.150550842285156
1701882083007630300,5.27363037109375,-5.455934524536133,-6.245266914367676,5.234299659729004
1701882083017223200,5.28322314453125,-5.345864772796631,-6.187839508056641,5.306084156036377
1701882083026816800,5.292816650390625,-5.161617755889893,-6.183053493499756,5.272584915161133
1701882083036409300,5.302409423828125,-5.029713153839111,-6.2668023109436035,5.296513080596924
1701882083046001200,5.312001220703125,-4.874179840087891,-6.3840508460998535,5.282155990600586
1701882083055594000,5.321593994140625,-4.759324073791504,-6.553941249847412,5.219942569732666
1701882083065187600,5.3311875,-4.689932346343994,-6.728916168212891,5.193621635437012
1701882083074780200,5.3407802734375,-4.625326156616211,-6.858129024505615,5.148158073425293
1701882083084372200,5.350372314453125,-4.639683246612549,-6.953841686248779,5.114658355712891
1701882083093964800,5.35996484375,-4.66361141204834,-6.996912479400635,5.0979084968566895
1701882083103558400,5.369558349609375,-4.735395908355713,-7.001698017120361,5.071587562561035
1701882083113151000,5.37915087890625,-4.783252239227295,-6.982555389404297,5.023731231689453
1701882083122743000,5.388742919921875,-4.823930263519287,-6.958627223968506,4.96839714050293
1701882083132335600,5.398335693359375,-4.831109046936035,-6.949056148529053,4.956432819366455
1701882083141929200,5.40792919921875,-4.910071849822998,-6.934699058532715,4.96121883392334
1701882083151521800,5.417521728515625,-4.821537494659424,-6.920341968536377,4.681258201599121
1701882083161113900,5.42711376953125,-4.974678039550781,-7.073482990264893,4.944468975067139
1701882083170706400,5.43670654296875,-5.1305108070373535,-7.059125900268555,4.910969257354736
1701882083180300000,5.446300048828125,-5.156831741333008,-7.025626182556152,4.829613208770752
1701882083189892600,5.455892578125,-5.168796062469482,-7.013662338256836,4.690829753875732
1701882083199484700,5.465484619140625,-5.281258583068848,-6.9705915451049805,4.654937267303467
1701882083209077200,5.4750771484375,-5.393721103668213,-6.903592586517334,4.599902629852295
1701882083218670800,5.4846708984375,-5.537290573120117,-6.8294148445129395,4.607080936431885
1701882083228263400,5.494263427734375,-5.618646621704102,-6.781558513641357,4.640580177307129
1701882083237855500,5.50385546875,-5.647360324859619,-6.783951282501221,4.717150688171387
1701882083247448000,5.513447998046875,-5.592325687408447,-6.776772975921631,4.805685043334961
1701882083257041700,5.523041748046875,-5.503791332244873,-6.776772975921631,4.89900541305542
1701882083266634200,5.53263427734375,-5.39132833480835,-6.762415885925293,4.9755754470825195
1701882083276226300,5.542226318359375,-5.257330417633057,-6.702595233917236,5.047659397125244
1701882083285819100,5.551819091796875,-5.152046203613281,-6.630810737609863,5.112265586853027
1701882083295412500,5.56141259765625,-5.00578498840332,-6.5491557121276855,5.198407173156738
1701882083305005300,5.57100537109375,-4.88853645324707,-6.405586242675781,5.24626350402832
1701882083314597000,5.58059716796875,-4.804787635803223,-6.317051887512207,5.227120876312256
1701882083324190000,5.59018994140625,-4.902893543243408,-6.216553211212158,5.222335338592529
1701882083333783600,5.599783447265625,-4.800002098083496,-6.206982135772705,5.093122959136963
1701882083343376100,5.609376220703125,-5.097011566162109,-6.190232276916504,5.148158073425293
1701882083352968000,5.618968017578125,-5.175974369049072,-6.147161483764648,5.054837703704834
1701882083362560800,5.628560791015625,-5.2645087242126465,-6.190232276916504,5.057230472564697
1701882083372154400,5.638154296875,-5.400899887084961,-6.2189459800720215,5.016552448272705
1701882083381747000,5.647746826171875,-5.50139856338501,-6.233303070068359,5.033302307128906
1701882083391338800,5.6573388671875,-5.534897804260254,-6.276373863220215,5.052444934844971
1701882083400931600,5.666931640625,-5.520540714263916,-6.338587284088135,5.064409255981445
1701882083410525200,5.676525146484375,-5.465506076812744,-6.379265308380127,5.057230472564697
1701882083420117800,5.68611767578125,-5.436792373657227,-6.436692714691162,5.040481090545654
1701882083429709600,5.69570947265625,-5.434399127960205,-6.5180487632751465,4.973182678222656
1701882083439302400,5.705302490234375,-5.494219779968262,-6.592226505279541,4.863112926483154
1701882083448896000,5.71489599609375,-5.513362407684326,-6.688238620758057,4.772185802459717
1701882083458488600,5.724488525390625,-5.506184101104736,-6.714559555053711,4.693222522735596
1701882083468080600,5.73408056640625,-5.458327770233154,-6.7911295890808105,4.5807600021362305
1701882083477673200,5.743673095703125,-5.393721103668213,-6.843771934509277,4.53290319442749
1701882083487266800,5.753266845703125,-5.338686466217041,-6.843771934509277,4.504189491271973
1701882083496859400,5.762859375,-5.2716875076293945,-6.8844499588012695,4.535296440124512
1701882083506451500,5.772451416015625,-5.223830699920654,-6.882057189941406,4.561617374420166
1701882083516044000,5.7820439453125,-5.199902534484863,-6.920341968536377,4.59511661529541
1701882083525637600,5.7916376953125,-5.209474086761475,-6.949056148529053,4.678865432739258
1701882083535230200,5.801230224609375,-5.187938690185547,-6.949056148529053,4.729115009307861
1701882083544822300,5.810822265625,-5.180759906768799,-6.891628265380859,4.784149646759033
1701882083554414800,5.820414794921875,-5.164010524749756,-6.807879447937012,4.791328430175781
1701882083564008400,5.830008544921875,-5.202295303344727,-6.795915603637695,4.796113967895508
1701882083573601000,5.83960107421875,-5.219045162200928,-6.800701141357422,4.810471057891846
1701882083583193000,5.849193115234375,-5.221437931060791,-6.846164703369141,4.84397029876709
1701882083592785700,5.85878564453125,-5.238187789916992,-6.872485637664795,4.882255554199219
1701882083602379300,5.868379150390625,-5.238187789916992,-6.8772711753845215,4.910969257354736
1701882083611972000,5.87797216796875,-5.214259624481201,-6.8605217933654785,4.887041091918945
1701882083621564000,5.88756396484375,-5.1783671379089355,-6.865307331085205,4.848755836486816
1701882083631156700,5.89715673828125,-5.132903575897217,-6.870092868804932,4.827220439910889
1701882083640750000,5.90675,-5.089832782745361,-6.891628265380859,4.85114860534668
1701882083650343000,5.916343017578125,-5.039284706115723,-6.917949199676514,4.858327388763428
1701882083659934700,5.925934814453125,-4.981856822967529,-6.9945197105407715,4.839184761047363
1701882083669527600,5.935527587890625,-4.910071849822998,-7.049554824829102,4.810471057891846
1701882083679121200,5.94512109375,-4.886143684387207,-7.116553783416748,4.779364109039307
1701882083688713700,5.954713623046875,-4.8574299812316895,-7.179066181182861,4.731507778167725
1701882083698305500,5.964305419921875,-4.859822750091553,-7.238886833190918,4.717150688171387
1701882083707898400,5.9738984375,-4.867001056671143,-7.27956485748291,4.674079895019531
1701882083717492000,5.983491943359375,-4.871787071228027,-7.315456867218018,4.626223564147949
1701882083727084500,5.99308447265625,-4.883750915527344,-7.363313674926758,4.573581218719482
1701882083736676400,6.00267626953125,-4.895715236663818,-7.392027378082275,4.528117656707764
1701882083746269200,6.012269287109375,-4.902893543243408,-7.40399169921875,4.504189491271973
1701882083755862800,6.02186279296875,-4.898108005523682,-7.41117000579834,4.475475788116455
1701882083765455400,6.031455322265625,-4.895715236663818,-7.399205684661865,4.47068977355957
1701882083775047400,6.04104736328125,-4.883750915527344,-7.360920429229736,4.473083019256592
1701882083784640000,6.050639892578125,-4.864608287811279,-7.358527660369873,4.489832401275635
1701882083794233600,6.060233642578125,-4.852644443511963,-7.339385032653809,4.535296440124512
1701882083803826200,6.069826171875,-4.835894584655762,-7.317849636077881,4.53290319442749
1701882083813418200,6.079418212890625,-4.843072891235352,-7.315456867218018,4.513761043548584
1701882083823010800,6.0890107421875,-4.8502516746521,-7.298707485198975,4.4946184158325195
1701882083832604400,6.0986044921875,-4.869394302368164,-7.29392147064209,4.432105541229248
1701882083842197000,6.108197021484375,-4.867001056671143,-7.281957626342773,4.386641979217529
1701882083851789000,6.1177890625,-4.895715236663818,-7.274778842926025,4.3411784172058105
1701882083861381600,6.127381591796875,-4.914857864379883,-7.241279602050781,4.307679176330566
1701882083870975200,6.136975341796875,-4.960321426391602,-7.202994346618652,4.290929317474365
1701882083880567800,6.14656787109375,-5.039284706115723,-7.1886372566223145,4.286143779754639
1701882083890159900,6.156159912109375,-5.099404335021973,-7.176673412322998,4.307679176330566
1701882083899752700,6.165752685546875,-5.156831741333008,-7.166802883148193,4.312464714050293
1701882083909346000,6.175345947265625,-5.204688549041748,-7.1524457931518555,4.31007194519043
1701882083918939000,6.18493896484375,-5.2166523933410645,-7.121339321136475,4.305285930633545
1701882083928530700,6.19453076171875,-5.233402252197266,-7.118946552276611,4.283750534057617
1701882083938123500,6.20412353515625,-5.250152111053467,-7.114161014556885,4.259822368621826
1701882083947716900,6.213716796875,-5.2405805587768555,-7.123732089996338,4.240679740905762
1701882083957309700,6.223309814453125,-5.2405805587768555,-7.121339321136475,4.240679740905762
1701882083966901500,6.232901611328125,-5.25972318649292,-7.114161014556885,4.231108665466309
1701882083976494300,6.242494384765625,-5.286044120788574,-7.118946552276611,4.202394962310791
1701882083986087700,6.252087646484375,-5.324329376220703,-7.106982231140137,4.173680782318115
1701882083995680500,6.261680419921875,-5.338686466217041,-7.071090221405029,4.171288013458252
1701882084005272300,6.271272216796875,-5.360221862792969,-7.030412197113037,4.180859565734863
1701882084014865200,6.280865234375,-5.374578952789307,-6.984948635101318,4.214358806610107
1701882084024458800,6.290458740234375,-5.360221862792969,-6.963412761688232,4.267001152038574
1701882084034051300,6.30005126953125,-5.362614631652832,-6.917949199676514,4.345963954925537
1701882084043643100,6.30964306640625,-5.353043556213379,-6.882057189941406,4.398606300354004
1701882084053236000,6.319236083984375,-5.355436325073242,-6.867700099945068,4.461118698120117
1701882084062829600,6.32882958984375,-5.32911491394043,-6.850950241088867,4.492225646972656
1701882084072422100,6.338422119140625,-5.286044120788574,-6.874878406524658,4.5185465812683105
1701882084082014200,6.34801416015625,-5.257330417633057,-6.882057189941406,4.542474746704102
1701882084091606800,6.357606689453125,-5.231009483337402,-6.9083781242370605,4.544867515563965
1701882084101200400,6.367200439453125,-5.204688549041748,-6.965806007385254,4.53290319442749
1701882084110793000,6.37679296875,-5.195116996765137,-7.013662338256836,4.5113677978515625
1701882084120385000,6.386385009765625,-5.185545921325684,-7.059125900268555,4.4946184158325195
1701882084129977600,6.3959775390625,-5.19033145904541,-7.092625617980957,4.475475788116455
1701882084139571200,6.4055712890625,-5.192724227905273,-7.106982231140137,4.475475788116455
1701882084149163800,6.415163818359375,-5.187938690185547,-7.114161014556885,4.453640937805176
1701882084158755800,6.424755859375,-5.168796062469482,-7.126124858856201,4.439284324645996
1701882084168348400,6.434348388671875,-5.144867897033691,-7.126124858856201,4.429712772369385
1701882084177942000,6.44394189453125,-5.113760948181152,-7.118946552276611,4.432105541229248
1701882084187534600,6.45353466796875,-5.099404335021973,-7.104589462280273,4.446462631225586
1701882084197126700,6.463126708984375,-5.094618320465088,-7.0902323722839355,4.47068977355957
1701882084206719200,6.47271923828125,-5.089832782745361,-7.0663042068481445,4.4946184158325195
1701882084216312800,6.482312744140625,-5.089832782745361,-7.049554824829102,4.520939350128174
1701882084225905400,6.491905517578125,-5.092225551605225,-7.0423760414123535,4.537689208984375
1701882084235497500,6.50149755859375,-5.101797103881836,-7.025626182556152,4.571188449859619
1701882084245090000,6.511090087890625,-5.125725269317627,-7.0184478759765625,4.607080936431885
1701882084254683600,6.52068359375,-5.123332500457764,-7.011269569396973,4.623830795288086
1701882084264276200,6.530276123046875,-5.13529634475708,-7.0328049659729,4.638187408447266
1701882084273868300,6.539868408203125,-5.132903575897217,-7.0328049659729,4.65015172958374
1701882084283461000,6.549461181640625,-5.1209397315979,-7.0184478759765625,4.6286163330078125
1701882084293054500,6.559054443359375,-5.111368179321289,-7.028019428253174,4.609473705291748
1701882084302647300,6.568647216796875,-5.1209397315979,-7.023233413696289,4.578367233276367
1701882084312239000,6.578239013671875,-5.104189872741699,-7.03998327255249,4.535296440124512
1701882084321832000,6.58783203125,-5.116153717041016,-7.054340362548828,4.485046863555908
1701882084331425300,6.59742529296875,-5.1209397315979,-7.068696975708008,4.4512481689453125
1701882084341018000,6.60701806640625,-5.13529634475708,-7.080661296844482,4.415356159210205
1701882084350610000,6.61660986328125,-5.159224510192871,-7.111767768859863,4.408177375793457
1701882084360202800,6.62620263671875,-5.173581600189209,-7.118946552276611,4.389034748077393
1701882084369796400,6.63579638671875,-5.202295303344727,-7.1356964111328125,4.393820762634277
1701882084379389000,6.645388916015625,-5.226223945617676,-7.140481948852539,4.369892120361328
1701882084388980700,6.654980712890625,-5.235795021057129,-7.133303165435791,4.3483567237854
1701882084398573600,6.664573486328125,-5.250152111053467,-7.140481948852539,4.343571186065674
1701882084408167200,6.674167236328125,-5.235795021057129,-7.140481948852539,4.326821327209473
1701882084417759700,6.683759765625,-5.228616714477539,-7.147660255432129,4.298107624053955
1701882084427351600,6.6933515625,-5.223830699920654,-7.1596245765686035,4.300500392913818
1701882084436944400,6.7029443359375,-5.214259624481201,-7.15723180770874,4.31007194519043
1701882084446538000,6.7125380859375,-5.209474086761475,-7.16441011428833,4.334000110626221
1701882084456130600,6.722130615234375,-5.192724227905273,-7.147660255432129,4.357928276062012
1701882084465722400,6.731722412109375,-5.168796062469482,-7.123732089996338,4.3794636726379395
1701882084475315200,6.741315185546875,-5.13529634475708,-7.0902323722839355,4.396213531494141
1701882084484908800,6.75090869140625,-5.1305108070373535,-7.0902323722839355,4.424927234649658
1701882084494501400,6.76050146484375,-5.1305108070373535,-7.071090221405029,4.4344987869262695
1701882084504093400,6.770093505859375,-5.142475128173828,-7.059125900268555,4.4512481689453125
1701882084513686000,6.77968603515625,-5.144867897033691,-7.061518669128418,4.480261325836182
1701882084523279600,6.789279541015625,-5.140082359313965,-7.092625617980957,4.492225646972656
1701882084532872200,6.7988720703125,-5.142475128173828,-7.092625617980957,4.508975028991699
1701882084542464300,6.80846435546875,-5.144867897033691,-7.104589462280273,4.504189491271973
1701882084552056800,6.818056884765625,-5.152046203613281,-7.099803924560547,4.513761043548584
1701882084561650400,6.827650390625,-5.140082359313965,-7.0902323722839355,4.5113677978515625
1701882084571243000,6.837242919921875,-5.116153717041016,-7.099803924560547,4.508975028991699
1701882084580835000,6.8468349609375,-5.12811803817749,-7.080661296844482,4.497011184692383
1701882084590427600,6.856427734375,-5.118546962738037,-7.085446834564209,4.508975028991699
1701882084600021200,6.866021240234375,-5.111368179321289,-7.071090221405029,4.520939350128174
1701882084609613800,6.87561376953125,-5.113760948181152,-7.087839603424072,4.523332118988037
1701882084619206000,6.885205810546875,-5.101797103881836,-7.116553783416748,4.523332118988037
1701882084628798500,6.894798583984375,-5.082355499267578,-7.130910396575928,4.513761043548584
1701882084638392000,6.90439208984375,-5.092225551605225,-7.1356964111328125,4.516153812408447
1701882084647985000,6.91398486328125,-5.082355499267578,-7.114161014556885,4.53290319442749
1701882084657576700,6.92357666015625,-5.087141036987305,-7.118946552276611,4.528117656707764
1701882084667169500,6.93316943359375,-5.07517671585083,-7.10219669342041,4.5257248878479
1701882084676763000,6.942762939453125,-5.087141036987305,-7.087839603424072,4.508975028991699
1701882084686355700,6.952355712890625,-5.087141036987305,-7.09501838684082,4.501796722412109
1701882084695947500,6.961947509765625,-5.094618320465088,-7.087839603424072,4.4874396324157715
1701882084705540400,6.971540283203125,-5.116153717041016,-7.083054065704346,4.473083019256592
1701882084715133700,6.9811337890625,-5.123332500457764,-7.068696975708008,4.468297004699707
1701882084724726500,6.9907265625,-5.144867897033691,-7.071090221405029,4.477868556976318
1701882084734318300,7.000318359375,-5.173581600189209,-7.056733131408691,4.448855400085449
1701882084743911200,7.0099111328125,-5.171188831329346,-7.068696975708008,4.461118698120117
1701882084753504800,7.0195048828125,-5.18315315246582,-7.056733131408691,4.461118698120117
1701882084763097300,7.029097412109375,-5.185545921325684,-7.063911437988281,4.468297004699707
1701882084772689200,7.038689208984375,-5.202295303344727,-7.063911437988281,4.461118698120117
1701882084782282000,7.048281982421875,-5.187938690185547,-7.068696975708008,4.465904235839844
1701882084791875600,7.05787548828125,-5.19033145904541,-7.083054065704346,4.448855400085449
1701882084801468200,7.06746826171875,-5.204688549041748,-7.083054065704346,4.448855400085449
1701882084811060000,7.07706005859375,-5.19033145904541,-7.0902323722839355,4.47068977355957
1701882084820652800,7.08665283203125,-5.173581600189209,-7.0902323722839355,4.477868556976318
1701882084830246400,7.096246337890625,-5.156831741333008,-7.087839603424072,4.47068977355957
1701882084839839000,7.1058388671875,-5.140082359313965,-7.071090221405029,4.485046863555908
1701882084849431000,7.11543115234375,-5.111368179321289,-7.083054065704346,4.4874396324157715
1701882084859023600,7.125023681640625,-5.099404335021973,-7.078268527984619,4.497011184692383
1701882084868617200,7.1346171875,-5.077569484710693,-7.080661296844482,4.480261325836182
1701882084878209800,7.144209716796875,-5.063212871551514,-7.071090221405029,4.475475788116455
1701882084887801900,7.1538017578125,-5.0464630126953125,-7.075875759124756,4.475475788116455
1701882084897394400,7.16339453125,-5.051248550415039,-7.056733131408691,4.458725929260254
1701882084906988000,7.172988037109375,-5.077569484710693,-7.03998327255249,4.458725929260254
1701882084916580600,7.18258056640625,-5.097011566162109,-7.025626182556152,4.4344987869262695
1701882084926172700,7.192172607421875,-5.123332500457764,-6.987341403961182,4.415356159210205
1701882084935765200,7.20176513671875,-5.175974369049072,-6.987341403961182,4.398606300354004
1701882084945358800,7.21135888671875,-5.195116996765137,-7.008876800537109,4.360321044921875
1701882084954951400,7.220951416015625,-5.223830699920654,-7.006484031677246,4.369892120361328
1701882084964543500,7.23054345703125,-5.269294738769531,-7.0184478759765625,4.405784606933594
1701882084974136000,7.240135986328125,-5.257330417633057,-7.051947593688965,4.436891555786133
1701882084983729700,7.249729736328125,-5.207081317901611,-7.061518669128418,4.465904235839844
1701882084993322500,7.259322509765625,-5.13529634475708,-7.063911437988281,4.5113677978515625
1701882085002914300,7.268914306640625,-5.087141036987305,-7.075875759124756,4.583152770996094
1701882085012507100,7.278507080078125,-5.039284706115723,-7.111767768859863,4.654937267303467
1701882085022100500,7.2881005859375,-5.015356063842773,-7.174280643463135,4.693222522735596
1701882085031693300,7.297693359375,-4.979464054107666,-7.214958667755127,4.702793598175049
1701882085041285000,7.30728515625,-4.960321426391602,-7.229315280914307,4.686044216156006
1701882085050878000,7.3168779296875,-4.981856822967529,-7.246065139770508,4.623830795288086
1701882085060471300,7.32647119140625,-5.00578498840332,-7.248457908630371,4.53290319442749
1701882085070064000,7.336064208984375,-5.024927616119385,-7.269993305206299,4.453640937805176
1701882085079656000,7.345656005859375,-4.9986066818237305,-7.29392147064209,4.4512481689453125
1701882085089248800,7.355248779296875,-5.039284706115723,-7.308278560638428,4.480261325836182
1701882085098842400,7.36484228515625,-5.087141036987305,-7.317849636077881,4.477868556976318
1701882085108435000,7.37443505859375,-5.1209397315979,-7.29392147064209,4.448855400085449
1701882085118026800,7.38402685546875,-5.12811803817749,-7.27956485748291,4.377070903778076
1701882085127619600,7.39361962890625,-5.101797103881836,-7.246065139770508,4.319643020629883
1701882085137213200,7.403213134765625,-5.0703911781311035,-7.205387115478516,4.264608383178711
1701882085146805800,7.4128056640625,-5.077569484710693,-7.169195652008057,4.238286972045898
1701882085156397600,7.4223974609375,-5.111368179321289,-7.1886372566223145,4.197608947753906
1701882085165990400,7.431990478515625,-5.094618320465088,-7.21735143661499,4.216751575469971
1701882085175584000,7.441583984375,-5.1209397315979,-7.248457908630371,4.238286972045898
1701882085185176600,7.451176513671875,-5.142475128173828,-7.258029460906982,4.278964996337891
1701882085194768600,7.4607685546875,-5.140082359313965,-7.258029460906982,4.274179458618164
1701882085204361200,7.470361328125,-5.12811803817749,-7.2676005363464355,4.286143779754639
1701882085213954800,7.479954833984375,-5.118546962738037,-7.23170804977417,4.31007194519043
1701882085223547400,7.48954736328125,-5.101797103881836,-7.214958667755127,4.331607341766357
1701882085233139500,7.499139404296875,-5.084748268127441,-7.181458950042725,4.37228536605835
1701882085242732300,7.508732177734375,-5.082355499267578,-7.1718878746032715,4.41057014465332
1701882085252325600,7.51832568359375,-5.089832782745361,-7.186244487762451,4.4273200035095215
1701882085261918200,7.527918212890625,-5.082355499267578,-7.1886372566223145,4.432105541229248
1701882085271510300,7.53751025390625,-5.084748268127441,-7.181458950042725,4.458725929260254
1701882085281102800,7.547102783203125,-5.099404335021973,-7.1718878746032715,4.448855400085449
1701882085290696400,7.556696533203125,-5.097011566162109,-7.169195652008057,4.444069862365723
1701882085300289300,7.566289306640625,-5.072783946990967,-7.183851718902588,4.439284324645996
1701882085309881000,7.575881103515625,-5.048855781555176,-7.191030025482178,4.436891555786133
1701882085319473700,7.5854736328125,-5.034498691558838,-7.179066181182861,4.473083019256592
1701882085329067300,7.5950673828125,-5.029713153839111,-7.200601577758789,4.468297004699707
1701882085338660000,7.60466015625,-5.003392219543457,-7.2125654220581055,4.465904235839844
1701882085348252000,7.614251953125,-4.996213912963867,-7.2197442054748535,4.458725929260254
1701882085357844700,7.6238447265625,-4.9986066818237305,-7.210172653198242,4.436891555786133
1701882085367438000,7.63343798828125,-5.003392219543457,-7.1958160400390625,4.424927234649658
1701882085377031000,7.643031005859375,-5.027320384979248,-7.166802883148193,4.405784606933594
1701882085386622700,7.652622802734375,-5.058426856994629,-7.162017345428467,4.408177375793457
1701882085396215600,7.662215576171875,-5.072783946990967,-7.145267486572266,4.389034748077393
1701882085405809200,7.67180908203125,-5.104189872741699,-7.1596245765686035,4.360321044921875
1701882085415401700,7.681401611328125,-5.094618320465088,-7.147660255432129,4.357928276062012
1701882085424993500,7.69099365234375,-5.087141036987305,-7.145267486572266,4.353142738342285
1701882085434586400,7.70058642578125,-5.082355499267578,-7.140481948852539,4.3411784172058105
1701882085444180000,7.710179931640625,-5.079962253570557,-7.154839038848877,4.3794636726379395
1701882085453772500,7.7197724609375,-5.099404335021973,-7.169195652008057,4.391427993774414
1701882085463364400,7.7293642578125,-5.092225551605225,-7.1596245765686035,4.405784606933594
1701882085472957200,7.738957275390625,-5.092225551605225,-7.179066181182861,4.350749969482422
1701882085482550800,7.74855078125,-5.06082010269165,-7.174280643463135,4.298107624053955
1701882085492143400,7.758143310546875,-5.0464630126953125,-7.138089179992676,4.238286972045898
1701882085501735400,7.7677353515625,-5.077569484710693,-7.1285176277160645,4.207180500030518
1701882085511328000,7.777327880859375,-5.108975410461426,-7.150053024291992,4.183252334594727
1701882085520921600,7.786921630859375,-5.111368179321289,-7.205387115478516,4.168895244598389
1701882085530514200,7.79651416015625,-5.101797103881836,-7.272386074066162,4.180859565734863
1701882085540106200,7.806106201171875,-5.084748268127441,-7.317849636077881,4.154538154602051
1701882085549698800,7.81569873046875,-5.082355499267578,-7.3537421226501465,4.168895244598389
1701882085559292400,7.82529248046875,-5.056034088134766,-7.4015984535217285,4.197608947753906
1701882085568885000,7.834885009765625,-5.020142078399658,-7.430312633514404,4.235894203186035
1701882085578477000,7.84447705078125,-4.989035129547119,-7.442276477813721,4.281357765197754
1701882085588069600,7.854069580078125,-4.955535888671875,-7.439883708953857,4.324428558349609
1701882085597663200,7.863663330078125,-4.95074987411499,-7.4015984535217285,4.37228536605835
1701882085607255800,7.873255859375,-4.9363932609558105,-7.360920429229736,4.412963390350342
1701882085616848000,7.882847900390625,-4.9435715675354,-7.325028419494629,4.446462631225586
1701882085626440400,7.8924404296875,-4.945964336395264,-7.301100254058838,4.473083019256592
1701882085636034000,7.902033935546875,-4.941178798675537,-7.301100254058838,4.516153812408447
1701882085645627000,7.911626953125,-4.926821708679199,-7.298707485198975,4.530510425567627
1701882085655218700,7.92121875,-4.914857864379883,-7.296314239501953,4.542474746704102
1701882085664811500,7.9308115234375,-4.900500774383545,-7.308278560638428,4.544867515563965
1701882085674404900,7.94040478515625,-4.878965377807617,-7.296314239501953,4.573581218719482
1701882085683997700,7.949997802734375,-4.878965377807617,-7.301100254058838,4.58793830871582
1701882085693589500,7.959589599609375,-4.876572608947754,-7.301100254058838,4.6046881675720215
1701882085703182300,7.969182373046875,-4.883750915527344,-7.291528701782227,4.614259243011475
1701882085712776000,7.97877587890625,-4.8813581466674805,-7.27956485748291,4.616652011871338
1701882085722368500,7.988368408203125,-4.874179840087891,-7.250850677490234,4.602295398712158
1701882085731960600,7.997960693359375,-4.876572608947754,-7.214958667755127,4.573581218719482
1701882085741553200,8.00755322265625,-4.869394302368164,-7.179066181182861,4.53290319442749
1701882085751146800,8.017146728515625,-4.886143684387207,-7.154839038848877,4.504189491271973
1701882085760739300,8.0267392578125,-4.898108005523682,-7.1524457931518555,4.465904235839844
1701882085770331400,8.036331298828125,-4.902893543243408,-7.162017345428467,4.41057014465332
1701882085779924000,8.045924072265626,-4.924428939819336,-7.186244487762451,4.396213531494141
1701882085789517600,8.055517578125,-4.934000492095947,-7.200601577758789,4.338785648345947
1701882085799110100,8.065110107421875,-4.9531426429748535,-7.226922512054443,4.322035789489746
1701882085808702200,8.0747021484375,-4.95074987411499,-7.258029460906982,4.331607341766357
1701882085818295000,8.084294921875,-4.960321426391602,-7.269993305206299,4.365106582641602
1701882085827888400,8.093888427734376,-4.972285270690918,-7.2867431640625,4.389034748077393
1701882085837481000,8.10348095703125,-4.981856822967529,-7.303493022918701,4.408177375793457
1701882085847073000,8.113072998046874,-4.962714195251465,-7.2867431640625,4.391427993774414
1701882085856665600,8.12266552734375,-4.977071285247803,-7.2676005363464355,4.384249210357666
1701882085866259200,8.13225927734375,-4.989035129547119,-7.241279602050781,4.396213531494141
1701882085875852000,8.14185205078125,-5.008177757263184,-7.236494064331055,4.408177375793457
1701882085885443800,8.15144384765625,-5.024927616119385,-7.250850677490234,4.4512481689453125
1701882085895036700,8.16103662109375,-5.036891460418701,-7.269993305206299,4.4512481689453125
1701882085904630000,8.170630126953125,-5.0464630126953125,-7.269993305206299,4.4635114669799805
1701882085914222800,8.180222900390625,-5.044070243835449,-7.250850677490234,4.461118698120117
1701882085923814700,8.189814697265625,-5.032105922698975,-7.248457908630371,4.448855400085449
1701882085933407500,8.199407470703125,-5.003392219543457,-7.250850677490234,4.441677093505859
1701882085943001000,8.2090009765625,-4.981856822967529,-7.241279602050781,4.47068977355957
1701882085952593700,8.21859375,-4.993820667266846,-7.198208808898926,4.458725929260254
1701882085962185500,8.228185546875,-4.996213912963867,-7.1718878746032715,4.441677093505859
1701882085971778300,8.2377783203125,-5.00578498840332,-7.198208808898926,4.436891555786133
1701882085981372000,8.247371826171875,-5.048855781555176,-7.2197442054748535,4.432105541229248
1701882085990964500,8.256964599609375,-5.06082010269165,-7.262814998626709,4.429712772369385
1701882086000556500,8.266556640625,-5.077569484710693,-7.27956485748291,4.441677093505859
1701882086010149000,8.276149169921876,-5.0703911781311035,-7.303493022918701,4.453640937805176
1701882086019742700,8.28574267578125,-5.065605640411377,-7.301100254058838,4.473083019256592
1701882086029335300,8.295335205078125,-5.027320384979248,-7.27956485748291,4.468297004699707
1701882086038927400,8.30492724609375,-4.989035129547119,-7.1958160400390625,4.422534465789795
1701882086048520200,8.314520263671875,-4.902893543243408,-6.9466633796691895,4.283750534057617
1701882086058113500,8.324113525390626,-4.900500774383545,-6.992126941680908,4.326821327209473
1701882086067706000,8.3337060546875,-4.922036170959473,-7.133303165435791,4.473083019256592
1701882086077298200,8.343298095703124,-5.015356063842773,-7.1886372566223145,4.568795680999756
1701882086086890800,8.352890869140625,-5.097011566162109,-7.147660255432129,4.549653053283691
1701882086096484400,8.362484375,-5.125725269317627,-7.179066181182861,4.549653053283691
1701882086106077200,8.3720771484375,-5.2477593421936035,-7.179066181182861,4.607080936431885
1701882086115669000,8.3816689453125,-5.211866855621338,-7.126124858856201,4.523332118988037
1701882086125261800,8.39126171875,-5.166403293609619,-7.109375,4.4033918380737305
1701882086134855400,8.40085546875,-5.221437931060791,-7.116553783416748,4.396213531494141
1701882086144448000,8.410447998046875,-5.276473045349121,-7.118946552276611,4.4033918380737305
1701882086154039800,8.420039794921875,-5.266901969909668,-7.16441011428833,4.355535507202148
1701882086163632600,8.429632568359375,-5.293222904205322,-7.145267486572266,4.276572227478027
1701882086173226200,8.439226318359376,-5.307579517364502,-7.15723180770874,4.228715896606445
1701882086182818800,8.44881884765625,-5.324329376220703,-7.116553783416748,4.178466320037842
1701882086192411000,8.458410888671875,-5.2716875076293945,-7.140481948852539,4.1521453857421875
1701882086202003500,8.46800341796875,-5.24536657333374,-7.1524457931518555,4.190430641174316
1701882086211597000,8.47759716796875,-5.18315315246582,-7.15723180770874,4.223930358886719
1701882086221189600,8.487189697265626,-5.137689113616943,-7.181458950042725,4.2693939208984375
1701882086230781700,8.49678173828125,-5.116153717041016,-7.145267486572266,4.312464714050293
1701882086240374500,8.50637451171875,-5.104189872741699,-7.080661296844482,4.362713813781738
1701882086249967900,8.5159677734375,-5.079962253570557,-7.063911437988281,4.4344987869262695
1701882086259560400,8.525560546875,-5.051248550415039,-7.059125900268555,4.448855400085449
1701882086269152500,8.535152587890625,-5.027320384979248,-7.071090221405029,4.473083019256592
1701882086278745000,8.5447451171875,-5.024927616119385,-7.097411155700684,4.475475788116455
1701882086288338700,8.554338623046876,-5.027320384979248,-7.118946552276611,4.477868556976318
1701882086297931500,8.563931640625,-5.027320384979248,-7.1285176277160645,4.485046863555908
1701882086307523300,8.5735234375,-5.053641319274902,-7.1285176277160645,4.489832401275635
1701882086317116200,8.5831162109375,-5.077569484710693,-7.140481948852539,4.473083019256592
1701882086326709500,8.59270947265625,-5.116153717041016,-7.123732089996338,4.473083019256592
1701882086336302300,8.60230224609375,-5.003392219543457,-7.380063056945801,4.393820762634277
1701882086345894100,8.61189404296875,-5.2645087242126465,-7.234101295471191,4.504189491271973
1701882086355487000,8.621487060546874,-5.125725269317627,-7.099803924560547,4.369892120361328
1701882086365080600,8.63108056640625,-5.099404335021973,-7.092625617980957,4.422534465789795
1701882086374673200,8.640673095703125,-5.104189872741699,-7.078268527984619,4.398606300354004
1701882086384265200,8.65026513671875,-5.123332500457764,-7.104589462280273,4.417748928070068
1701882086393857800,8.65985791015625,-5.147260665893555,-7.205387115478516,4.424927234649658
1701882086403451400,8.669451416015624,-5.159224510192871,-7.238886833190918,4.439284324645996
1701882086413044000,8.6790439453125,-5.197509765625,-7.229315280914307,4.473083019256592
1701882086422636000,8.688635986328125,-5.185545921325684,-7.15723180770874,4.5185465812683105
1701882086432228900,8.698228759765625,-5.125725269317627,-7.028019428253174,4.456333160400391
1701882086441822200,8.707822265625,-5.104189872741699,-7.054340362548828,4.37228536605835
1701882086451415000,8.7174150390625,-5.099404335021973,-7.092625617980957,4.281357765197754
1701882086461006800,8.7270068359375,-5.149653434753418,-7.2436723709106445,4.2933220863342285
1701882086470599700,8.736599609375,-5.2405805587768555,-7.191030025482178,4.350749969482422
1701882086480193300,8.746193359375,-5.207081317901611,-7.092625617980957,4.302893161773682
1701882086489785900,8.755785888671875,-5.219045162200928,-7.174280643463135,4.307679176330566
1701882086499377700,8.765377685546875,-5.25972318649292,-7.162017345428467,4.324428558349609
1701882086508970500,8.774970458984376,-5.233402252197266,-7.104589462280273,4.290929317474365
1701882086518564000,8.784564208984374,-5.166403293609619,-7.301100254058838,4.319643020629883
1701882086528156700,8.79415673828125,-5.142475128173828,-7.444669246673584,4.334000110626221
1701882086537748700,8.803748779296875,-5.13529634475708,-7.5188469886779785,4.31007194519043
1701882086547341300,8.81334130859375,-5.152046203613281,-7.449455261230469,4.274179458618164
1701882086556935000,8.822934814453125,-5.1305108070373535,-7.325028419494629,4.24785852432251
1701882086566527500,8.832527587890626,-5.104189872741699,-7.174280643463135,4.219144344329834
1701882086576119600,8.84211962890625,-5.07517671585083,-7.044768810272217,4.197608947753906
1701882086585712000,8.851712158203124,-5.053641319274902,-6.987341403961182,4.202394962310791
1701882086595305700,8.8613056640625,-5.056034088134766,-6.992126941680908,4.240679740905762
1701882086604898600,8.870898681640625,-5.101797103881836,-7.011269569396973,4.31007194519043
1701882086614490400,8.880490478515625,-5.166403293609619,-6.982555389404297,4.4273200035095215
1701882086624083200,8.890083251953126,-5.185545921325684,-7.087839603424072,4.542474746704102
1701882086633676800,8.8996767578125,-5.180759906768799,-7.10219669342041,4.552045822143555
1701882086643269400,8.909269287109375,-5.149653434753418,-7.097411155700684,4.473083019256592
1701882086652861200,8.918861083984375,-5.140082359313965,-7.104589462280273,4.461118698120117
1701882086662454000,8.9284541015625,-5.142475128173828,-7.154839038848877,4.482654094696045
1701882086672047600,8.938047607421876,-5.152046203613281,-7.2125654220581055,4.504189491271973
1701882086681640200,8.94764013671875,-5.202295303344727,-7.258029460906982,4.506582260131836
1701882086691232300,8.957232177734374,-5.202295303344727,-7.154839038848877,4.468297004699707
1701882086700825000,8.9668251953125,-5.228616714477539,-7.0902323722839355,4.5257248878479
1701882086710418400,8.97641845703125,-5.25972318649292,-7.035197734832764,4.53290319442749
1701882086720011000,8.986010986328125,-5.173581600189209,-6.872485637664795,4.4512481689453125
1701882086729603000,8.99560302734375,-5.116153717041016,-7.020840644836426,4.4635114669799805
1701882086739196000,9.00519580078125,-5.147260665893555,-7.2125654220581055,4.516153812408447
1701882086748789200,9.014789306640624,-5.207081317901611,-7.198208808898926,4.384249210357666
1701882086758382000,9.024382080078125,-5.235795021057129,-7.265207767486572,4.307679176330566
1701882086767974000,9.033973876953125,-5.305186748504639,-7.363313674926758,4.544867515563965
1701882086777566700,9.043566650390625,-5.202295303344727,-7.191030025482178,4.374678134918213
1701882086787160300,9.053160400390626,-5.300401210784912,-7.049554824829102,4.314857482910156
1701882086796753000,9.0627529296875,-5.372185707092285,-7.061518669128418,4.439284324645996
1701882086806345000,9.072344970703124,-5.32193660736084,-7.162017345428467,4.530510425567627
1701882086815937500,9.0819375,-5.2645087242126465,-7.056733131408691,4.482654094696045
1701882086825531100,9.09153125,-5.281258583068848,-6.968198776245117,4.405784606933594
1701882086835124000,9.1011240234375,-5.3578290939331055,-7.253243446350098,4.492225646972656
1701882086844715800,9.1107158203125,-5.324329376220703,-7.370491981506348,4.559224605560303
1701882086854308600,9.12030859375,-5.31475830078125,-7.425527095794678,4.568795680999756
1701882086863902000,9.12990185546875,-5.432006359100342,-7.277172088623047,4.647758960723877
1701882086873494800,9.139494873046875,-5.520540714263916,-7.03998327255249,4.659722805023193
1701882086883086600,9.149086669921875,-5.441577911376953,-6.781558513641357,4.583152770996094
1701882086892679400,9.158679443359375,-5.379364490509033,-6.5491557121276855,4.3411784172058105
1701882086902273000,9.16827294921875,-5.31475830078125,-6.3529438972473145,4.156930923461914
1701882086911865600,9.177865478515624,-5.338686466217041,-6.295516490936279,4.063611030578613
1701882086921457700,9.187457763671874,-5.266901969909668,-6.405586242675781,4.094717979431152
1701882086931050200,9.19705029296875,-5.266901969909668,-6.597012042999268,4.092324733734131
1701882086940643800,9.206643798828125,-5.319543838500977,-6.709774017333984,4.099503517150879
1701882086950236700,9.216236572265625,-5.403292655944824,-6.805486679077148,4.18564510345459
1701882086959828500,9.225828369140626,-5.472684383392334,-6.9083781242370605,4.295714855194092
1701882086969421300,9.23542138671875,-5.542076110839844,-6.917949199676514,4.345963954925537
1701882086979014700,9.2450146484375,-5.5947184562683105,-7.10219669342041,4.475475788116455
1701882086988607500,9.254607421875,-5.589932918548584,-7.099803924560547,4.501796722412109
1701882086998199300,9.26419921875,-5.484648704528809,-7.004090785980225,4.453640937805176
1701882087007792000,9.273792236328125,-5.44636344909668,-7.063911437988281,4.37228536605835
1701882087017385700,9.2833857421875,-5.467898845672607,-7.087839603424072,4.334000110626221
1701882087026978300,9.292978271484374,-5.482255935668945,-7.10219669342041,4.264608383178711
1701882087036570400,9.3025703125,-5.544469356536865,-7.114161014556885,4.252644062042236
1701882087046163000,9.312162841796875,-5.5947184562683105,-7.054340362548828,4.207180500030518
1701882087055756500,9.321756591796875,-5.573183059692383,-7.207779884338379,4.228715896606445
1701882087065349400,9.331349365234376,-5.400899887084961,-7.408777236938477,4.2550368309021
1701882087074941200,9.340941162109376,-5.6548380851745605,-7.308278560638428,4.231108665466309
1701882087084534000,9.350533935546874,-5.551647663116455,-7.246065139770508,4.2622151374816895
1701882087094127400,9.36012744140625,-5.726622581481934,-6.975377082824707,4.3172502517700195
1701882087103720200,9.36972021484375,-5.681159019470215,-6.819843769073486,4.214358806610107
1701882087113312000,9.37931201171875,-5.556433200836182,-6.721737861633301,4.240679740905762
1701882087122904800,9.38890478515625,-5.503791332244873,-6.858129024505615,4.324428558349609
1701882087132498400,9.39849853515625,-5.420042514801025,-7.200601577758789,4.374678134918213
1701882087142091000,9.408091064453124,-5.1783671379089355,-7.451848030090332,4.195216178894043
1701882087151683000,9.41768310546875,-4.890929698944092,-8.021638870239258,4.377070903778076
1701882087161275600,9.427275634765625,-5.24536657333374,-7.645666599273682,4.389034748077393
1701882087170869200,9.436869140625,-5.312365531921387,-7.731808185577393,4.360321044921875
1701882087180462000,9.446462158203126,-5.211866855621338,-8.548358917236328,4.571188449859619
1701882087190054000,9.456053955078126,-4.711467742919922,-8.28006362915039,4.633401870727539
1701882087199646700,9.465646728515624,-4.7712883949279785,-8.376075744628906,4.422534465789795
1701882087209240300,9.475240234375,-5.209474086761475,-11.703893661499023,0.8578268885612488
1701882087218833000,9.4848330078125,-3.9957146644592285,-11.528918266296387,3.711566925048828
1701882087228424700,9.4944248046875,-3.758526086807251,-9.573084831237793,5.040481090545654
1701882087238017500,9.504017578125,-2.8342983722686768,-10.693524360656738,4.858327388763428
1701882087247611100,9.513611083984374,-3.3466615676879883,-10.660024642944336,4.575973987579346
1701882087257203700,9.52320361328125,-4.022035598754883,-10.219446182250977,3.790530204772949
1701882087266795800,9.532795654296875,-3.823132276535034,-9.288040161132812,3.9702908992767334
1701882087276388400,9.542388427734375,-5.257330417633057,-9.453444480895996,3.96789813041687
1701882087285982000,9.55198193359375,-6.303592205047607,-9.850652694702148,5.050052165985107
1701882087295574800,9.56157470703125,-7.641777992248535,-9.68794059753418,5.062016487121582
1701882087305166600,9.57116650390625,-6.518946170806885,-13.480265617370605,6.61794900894165
1701882087314759400,9.580759521484374,-4.100998878479004,-10.631311416625977,3.687638759613037
1701882087324353000,9.59035302734375,-5.436792373657227,-6.965806007385254,2.8977081775665283
1701882087333945600,9.599945556640625,-7.318448066711426,-13.355838775634766,6.591628074645996
1701882087343537700,9.60953759765625,-3.1743783950805664,-13.891831398010254,4.501796722412109
1701882087353130200,9.619130126953126,-4.462315082550049,-12.663714408874512,4.544867515563965
1701882087362723800,9.628723876953124,-5.736194133758545,-11.201102256774902,4.520939350128174
1701882087372316700,9.638316650390625,-4.184747695922852,-10.954341888427734,4.987539768218994
1701882087381908500,9.647908447265625,-4.914857864379883,-10.868200302124023,5.339583873748779
1701882087391501300,9.657501220703125,-5.97308349609375,-9.965508460998535,5.289334297180176
1701882087401094700,9.6670947265625,-9.18843936920166,-10.360623359680176,4.089931964874268
1701882087410687500,9.6766875,-13.30140209197998,-11.117353439331055,1.267298698425293
1701882087420279300,9.686279296875,-5.219045162200928,-8.490931510925293,2.306381940841675
1701882087429872000,9.6958720703125,-2.98295259475708,-6.9083781242370605,3.3382866382598877
1701882087439465700,9.7054658203125,-2.4131617546081543,-7.856534004211426,6.019444465637207
1701882087449058300,9.715058349609375,-1.812264084815979,-7.880462169647217,8.18135929107666
1701882087458650400,9.724650390625,-1.189831018447876,-7.387241840362549,9.649057388305664
1701882087468243000,9.734242919921876,-0.6415755748748779,-6.91555643081665,10.819746017456055
1701882087477836500,9.74383642578125,-0.4450650215148926,-6.211767673492432,12.251252174377441
1701882087487429400,9.753429443359375,-0.7061817646026611,-5.237290382385254,13.513166427612305
1701882087497021200,9.763021240234375,-0.9837492108345032,-4.823033332824707,14.573785781860352
1701882087506614000,9.772614013671875,-1.2831511497497559,-5.093721389770508,15.126826286315918
1701882087516207600,9.78220751953125,-1.989332914352417,-6.10169792175293,15.203396797180176
1701882087525800200,9.79180029296875,-2.8342983722686768,-7.023233413696289,13.824234008789062
1701882087535392300,9.801392333984374,-3.593421459197998,-7.671987533569336,11.573783874511719
1701882087544985000,9.810985107421875,-4.033999919891357,-8.34736156463623,9.299406051635742
1701882087554578400,9.820578369140625,-3.614956855773926,-9.058329582214355,7.338787078857422
1701882087564171300,9.830171142578125,-0.6248258352279663,-9.692726135253906,5.6916279792785645
1701882087573763000,9.83976318359375,0.9577272534370422,-9.551549911499023,4.9755754470825195
1701882087583356000,9.84935595703125,2.5307090282440186,-9.359825134277344,4.4946184158325195
1701882087592949500,9.858949462890624,3.533900022506714,-10.157233238220215,4.908576488494873
1701882087602542000,9.8685419921875,4.912764072418213,-10.468299865722656,4.803292274475098
1701882087612134100,9.878134033203125,6.2775702476501465,-10.2385892868042,4.547260284423828
1701882087621726700,9.887726806640625,7.024429798126221,-9.821938514709473,4.65733003616333
1701882087631320300,9.8973203125,6.914360046386719,-9.204291343688965,4.662116050720215
1701882087640913000,9.906912841796874,6.401997089385986,-9.189934730529785,4.812863826751709
1701882087650505000,9.9165048828125,5.748457431793213,-8.725427627563477,4.422534465789795
1701882087660097800,9.926097900390625,5.624030590057373,-7.748857021331787,3.7043886184692383
1701882087669691400,9.93569140625,5.5953168869018555,-6.781558513641357,3.077169895172119
1701882087679284000,9.945283935546875,4.982155799865723,-6.422336101531982,2.8139593601226807
1701882087688876000,9.9548759765625,4.884049892425537,-6.10169792175293,2.4379870891571045
1701882087698468600,9.964468505859376,5.1188459396362305,-5.230112075805664,1.7030915021896362
1701882087708062200,9.974062255859375,5.231308460235596,-3.7648072242736816,1.114158034324646
1701882087717654800,9.98365478515625,4.884049892425537,-2.1346969604492188,0.6927221417427063
1701882087727246800,9.993246826171875,4.01754903793335,-1.368395447731018,0.6329016089439392
1701882087736839700,10.002839599609375,3.6726837158203125,-1.0429716110229492,0.6999006271362305
1701882087746433000,10.01243310546875,3.950550079345703,-0.48514479398727417,0.8721838593482971
1701882087756025900,10.02202587890625,4.558626174926758,0.31465616822242737,1.0277173519134521
1701882087765617700,10.03161767578125,5.2384867668151855,1.6648063659667969,0.9367900490760803
1701882087775210500,10.04121044921875,6.006882190704346,3.158824920654297,0.6520441770553589
1701882087784804000,10.05080419921875,6.4666032791137695,4.123730659484863,0.898504912853241
1701882087794396700,10.060396728515625,6.308676719665527,4.071088790893555,1.968694806098938
1701882087803988700,10.06998876953125,5.439484119415283,2.9291141033172607,3.522534132003784
1701882087813581600,10.07958154296875,6.165107727050781,3.142075300216675,3.2709884643554688
1701882087823175000,10.0891748046875,7.160820960998535,3.5443685054779053,2.5624139308929443
1701882087832767700,10.098767822265625,8.034799575805664,4.063910007476807,1.8442680835723877
1701882087842359600,10.108359619140625,8.61176872253418,4.5113677978515625,1.6046867370605469
1701882087851952400,10.117952392578125,8.824729919433594,4.379762649536133,2.2055842876434326
1701882087861546000,10.1275458984375,9.212666511535645,3.90568470954895,2.9479575157165527
1701882087871138600,10.137138671875,9.741779327392578,3.5324044227600098,3.3332018852233887
1701882087880730600,10.146730712890625,9.949954986572266,3.168396234512329,3.371786117553711
1701882087890323500,10.156323486328125,9.92841911315918,2.8043880462646484,3.1920254230499268
1701882087899916800,10.165916748046875,9.964311599731445,2.3808584213256836,2.741875648498535
1701882087909509600,10.175509521484376,10.019346237182617,2.3039891719818115,1.975873351097107
1701882087919101400,10.185101318359376,10.101001739501953,2.4287149906158447,1.169192910194397
1701882087928694300,10.1946943359375,10.000204086303711,2.1317057609558105,1.0492527484893799
1701882087938287900,10.204287841796875,9.916455268859863,1.832603096961975,1.547258973121643
1701882087947880400,10.21388037109375,9.892526626586914,1.968993902206421,1.9208383560180664
1701882087957472500,10.223472412109375,10.055238723754883,2.7349963188171387,1.9184455871582031
1701882087967065300,10.2330654296875,10.912467956542969,3.3382866382598877,1.9280169010162354
1701882087976658700,10.24265869140625,11.63300609588623,3.237788200378418,2.284846544265747
1701882087986251500,10.25225146484375,12.049656867980957,2.2944178581237793,3.522534132003784
1701882087995843300,10.26184326171875,12.18365478515625,0.870090126991272,5.533402442932129
1701882088005436200,10.271436279296875,11.628220558166504,-0.16420745849609375,6.955636501312256
1701882088015029800,10.28102978515625,10.658828735351562,-0.18095721304416656,6.924529552459717
1701882088024622300,10.290622314453126,9.993025779724121,0.3074777126312256,5.9907307624816895
1701882088034214400,10.30021435546875,9.507282257080078,0.8988040089607239,5.828018665313721
1701882088043807000,10.309806884765624,9.545567512512207,0.4989035129547119,5.229514122009277
1701882088053400600,10.319400634765625,9.825528144836426,0.26919254660606384,3.8168511390686035
1701882088062993400,10.328993408203125,9.89970588684082,1.1165509223937988,2.083550214767456
1701882088072585200,10.338585205078125,9.952347755432129,2.062314033508301,1.212263822555542
1701882088082178000,10.348177978515626,9.784850120544434,2.50289249420166,0.7621139883995056
1701882088091771600,10.357771728515624,9.320343017578125,2.895315408706665,0.4938187599182129
1701882088101364200,10.3673642578125,8.499305725097656,2.9769704341888428,0.6113662123680115
1701882088110956300,10.376956298828125,7.587042331695557,2.8115665912628174,1.1859427690505981
1701882088120548900,10.386548828125,6.880860805511475,2.5292134284973145,1.9591234922409058
1701882088130142500,10.396142578125,6.5288166999816895,2.455035924911499,2.4044876098632812
1701882088139735300,10.4057353515625,6.883253574371338,2.3518455028533936,2.5241286754608154
1701882088149327000,10.4153271484375,7.874480247497559,2.5674986839294434,2.1266210079193115
1701882088158920000,10.424919921875,8.791230201721191,2.7014968395233154,2.0309081077575684
1701882088168513500,10.434513427734375,9.143274307250977,2.407179594039917,2.6174488067626953
1701882088178106000,10.444106201171875,9.210273742675781,1.9474585056304932,3.4459636211395264
1701882088187698200,10.4536982421875,9.442377090454102,1.6719847917556763,4.073182582855225
1701882088197291000,10.463291015625,10.009775161743164,1.6552350521087646,4.307679176330566
1701882088206884400,10.47288427734375,10.701899528503418,1.7174484729766846,4.2454657554626465
1701882088216477200,10.482477294921875,11.075180053710938,1.8035900592803955,4.044468402862549
1701882088226069000,10.492069091796875,11.094322204589844,1.8445671796798706,3.874279022216797
1701882088235661800,10.501661865234375,10.728219985961914,1.7676976919174194,3.7929229736328125
1701882088245255400,10.51125537109375,10.096216201782227,1.7581263780593872,3.4627134799957275
1701882088254848000,10.520847900390624,9.35623550415039,1.968993902206421,3.084348440170288
1701882088264440000,10.530440185546874,8.673981666564941,2.1532411575317383,2.8737800121307373
1701882088274033000,10.540032958984375,8.432307243347168,2.191526412963867,2.7299115657806396
1701882088283626200,10.549626220703125,8.805587768554688,2.330310106277466,2.464308261871338
1701882088293219000,10.559218994140625,9.392127990722656,2.2585253715515137,2.378166675567627
1701882088302811000,10.568810791015625,9.90688419342041,2.158026933670044,2.495414972305298
1701882088312403700,10.57840380859375,10.148858070373535,2.1556341648101807,2.6892335414886475
1701882088321997300,10.587997314453125,10.313962936401367,2.1628124713897705,2.8737800121307373
1701882088331590000,10.59758984375,10.30917739868164,2.2082762718200684,3.0723843574523926
1701882088341182000,10.607181884765625,10.175179481506348,2.174776792526245,3.2614171504974365
1701882088350774800,10.61677490234375,9.940383911132812,2.1867408752441406,3.2279176712036133
1701882088360368400,10.626368408203126,9.863813400268555,2.246561288833618,3.139383316040039
1701882088369961000,10.6359609375,9.832706451416016,2.222633123397827,2.981456995010376
1701882088379553000,10.645552978515624,9.894919395446777,2.167598247528076,2.792423963546753
1701882088389145600,10.6551455078125,9.784850120544434,2.2489542961120605,2.6102705001831055
1701882088398739200,10.6647392578125,9.569496154785156,2.299203395843506,2.3925235271453857
1701882088408332000,10.67433203125,9.329915046691895,2.215454578399658,2.299203395843506
1701882088417923800,10.683923828125,8.886942863464355,2.2417757511138916,2.315953254699707
1701882088427516700,10.6935166015625,8.376973152160645,2.368894338607788,2.3183460235595703
1701882088437110300,10.7031103515625,7.747361660003662,2.4646072387695312,2.3255245685577393
1701882088446702800,10.712702880859375,7.8433732986450195,2.1388843059539795,2.3973093032836914
1701882088456295000,10.722294921875,10.19192886352539,2.0934207439422607,2.3255245685577393
1701882088465887700,10.7318876953125,10.924431800842285,2.407179594039917,1.7581263780593872
1701882088475481000,10.741481201171876,11.075180053710938,2.301596164703369,1.3103694915771484
1701882088485074000,10.751073974609374,10.72582721710205,2.174776792526245,1.8299111127853394
1701882088494665700,10.760665771484375,10.117751121520996,2.222633123397827,2.550449848175049
1701882088504258600,10.770258544921875,9.631709098815918,2.3880369663238525,3.029313564300537
1701882088513852200,10.77985205078125,9.250951766967773,2.4598217010498047,3.22552490234375
1701882088523444700,10.78944482421875,8.731410026550293,2.691925525665283,3.2350962162017822
1701882088533036800,10.799036865234376,8.123333930969238,2.9144580364227295,3.0723843574523926
1701882088542629600,10.808629638671874,7.872087478637695,2.9673991203308105,2.7681965827941895
1701882088552223200,10.81822314453125,8.013263702392578,3.024827003479004,2.4308087825775146
