time,seconds_elapsed,z,y,x
1701881400836992500,0.153992431640625,7.259225845336914,4.37019157409668,3.6684961318969727
1701881400846584000,0.163583984375,7.227819919586182,4.89691162109375,3.153740167617798
1701881400856176600,0.1731767578125,7.1249284744262695,4.6648077964782715,2.394916296005249
1701881400865769700,0.182769775390625,4.07258415222168,5.073980331420898,2.026122570037842
1701881400875362000,0.192362060546875,5.724529266357422,5.821139335632324,1.7676976919174194
1701881400884953600,0.20195361328125,4.616054058074951,5.270491123199463,3.211168050765991
1701881400894546200,0.211546142578125,5.624030590057373,4.71744966506958,4.233501434326172
1701881400904139300,0.22113916015625,6.641279220581055,5.057230472564697,4.688436985015869
1701881400913731600,0.230731689453125,7.704290866851807,5.320740222930908,4.535296440124512
1701881400923323400,0.240323486328125,8.449056625366211,5.215456008911133,4.195216178894043
1701881400932915700,0.249915771484375,8.724231719970703,5.018945693969727,3.9942193031311035
1701881400942509000,0.259509033203125,8.839086532592773,5.064409255981445,3.9008991718292236
1701881400952101400,0.269101318359375,8.640482902526855,5.433202743530273,3.4722847938537598
1701881400961693000,0.27869287109375,8.006085395812988,5.42363166809082,4.001397609710693
1701881400971285500,0.288285400390625,7.6253275871276855,5.009374141693115,4.731507778167725
1701881400980878600,0.297878662109375,7.426723480224609,4.789234638214111,4.997110843658447
1701881400990471000,0.307470947265625,7.33340311050415,4.913661479949951,4.520939350128174
1701881401000062500,0.3170625,7.357331275939941,4.832305431365967,4.034897327423096
1701881401009655000,0.326655029296875,6.902396202087402,4.597509384155273,3.8814573287963867
1701881401019248000,0.336248046875,6.165107727050781,4.394119739532471,4.106681823730469
1701881401028840400,0.34584033203125,6.0523457527160645,4.473083019256592,4.473083019256592
1701881401038432300,0.355432373046875,6.141179084777832,4.453940391540527,4.726722240447998
1701881401048024600,0.365024658203125,6.128916263580322,4.317549228668213,5.382654666900635
1701881401057618000,0.374617919921875,5.96381139755249,4.044468402862549,5.930910110473633
1701881401067210200,0.384210205078125,6.114559173583984,3.965505361557007,6.168098449707031
1701881401076801800,0.3938017578125,6.303891181945801,4.130908966064453,6.08405065536499
1701881401086394000,0.40339404296875,6.533602237701416,4.30797815322876,5.830411434173584
1701881401095987500,0.412987548828125,6.775576591491699,4.341477394104004,5.583950519561768
1701881401105579800,0.422579833984375,7.017251491546631,4.327120780944824,5.528616905212402
1701881401115171300,0.43217138671875,7.251748085021973,4.272085666656494,5.6461639404296875
1701881401124764000,0.441763916015625,7.398009300231934,4.24576473236084,6.005087375640869
1701881401134357000,0.45135693359375,7.488936901092529,4.221836566925049,6.33798885345459
1701881401143949300,0.46094921875,7.500900745391846,4.075874328613281,6.663413047790527
1701881401153540900,0.470540771484375,7.541578769683838,3.7357943058013916,7.170990467071533
1701881401163133400,0.480133544921875,8.068299293518066,3.481856107711792,7.307680130004883
1701881401172726800,0.489726806640625,8.298009872436523,3.7908291816711426,7.228417873382568
1701881401182319000,0.499319091796875,8.58066177368164,3.857828378677368,7.082456111907959
1701881401191910700,0.50891064453125,8.242975234985352,3.8530426025390625,6.828816890716553
1701881401201503000,0.5185029296875,7.967800140380859,3.920041799545288,6.491129398345947
1701881401211096300,0.528096435546875,7.756932735443115,3.809971809387207,6.306882381439209
1701881401220688600,0.537688720703125,7.622934818267822,3.8291144371032715,6.227919101715088
1701881401230280200,0.5472802734375,7.5080790519714355,3.8626139163970947,6.196812629699707
1701881401239872800,0.556872802734375,7.398009300231934,3.8051862716674805,6.15134859085083
1701881401249465900,0.5664658203125,7.33340311050415,3.7429728507995605,5.8734822273254395
1701881401259058200,0.57605810546875,7.345367431640625,3.652045488357544,5.349154949188232
1701881401268649700,0.585649658203125,7.376473903656006,3.6568312644958496,4.853541851043701
1701881401278242300,0.5952421875,7.4362945556640625,3.7357943058013916,4.633401870727539
1701881401287835400,0.60483544921875,7.71386194229126,3.7525441646575928,4.748257637023926
1701881401297428000,0.614427978515625,8.05394172668457,3.7740795612335205,4.910969257354736
1701881401307019500,0.62401953125,8.197511672973633,3.7740795612335205,5.0979084968566895
1701881401316611800,0.63361181640625,8.223832130432129,3.8075790405273438,5.181657314300537
1701881401326205200,0.643205078125,8.376973152160645,3.8195431232452393,5.258227825164795
1701881401335797500,0.652797607421875,8.348258972167969,3.7405800819396973,5.2869415283203125
1701881401345389000,0.66238916015625,8.247760772705078,3.723830223083496,5.267798900604248
1701881401354981600,0.671981689453125,8.144868850708008,3.683152198791504,5.365904808044434
1701881401364574700,0.68157470703125,8.159226417541504,3.666402578353882,5.605485916137695
1701881401374167000,0.6911669921875,8.166404724121094,3.6185460090637207,5.849554061889648
1701881401383758600,0.700758544921875,8.116155624389648,3.5706896781921387,6.000301837921143
1701881401393351200,0.71035107421875,8.104190826416016,3.558725595474243,6.031408786773682
1701881401402944300,0.7199443359375,8.123333930969238,3.5922250747680664,5.926124572753906
1701881401412536800,0.729536865234375,8.04676342010498,3.6807594299316406,5.744269847869873
1701881401422128400,0.73912841796875,7.9845499992370605,3.692723512649536,5.648557186126709
1701881401431720700,0.748720703125,7.948657512664795,3.661616802215576,5.581557750701904
1701881401441314000,0.75831396484375,7.919943809509277,3.582653760910034,5.61745023727417
1701881401450906400,0.76790625,7.802396297454834,3.5300116539001465,5.737091541290283
1701881401460498000,0.777497802734375,7.548757076263428,3.5395829677581787,5.780162334442139
1701881401470090500,0.787090576171875,7.374081134796143,3.565903902053833,5.8351969718933105
1701881401479683600,0.79668359375,7.2110700607299805,3.5778679847717285,5.7394843101501465
1701881401489276000,0.80627587890625,7.283154010772705,3.5922250747680664,5.581557750701904
1701881401498867500,0.815867431640625,7.4602227210998535,3.582653760910034,5.461617469787598
1701881401508460000,0.8254599609375,7.65164852142334,3.597010612487793,5.401797294616699
1701881401518053000,0.83505322265625,7.723433494567871,3.6640095710754395,5.327619552612305
1701881401527645400,0.8446455078125,7.646862983703613,3.7046875953674316,5.217549800872803
1701881401537237200,0.8542373046875,7.634898662567139,3.675973892211914,5.140979290008545
1701881401546829600,0.86382958984375,7.656434059143066,3.6424741744995117,5.143372058868408
1701881401556423000,0.8734228515625,7.587042331695557,3.630510091781616,5.157729148864746
1701881401566015200,0.88301513671875,7.503293514251709,3.6424741744995117,5.160121917724609
1701881401575606800,0.892606689453125,7.476972579956055,3.635295867919922,5.260620594024658
1701881401585199400,0.902199462890625,7.486543655395508,3.613760471343994,5.471189022064209
1701881401594792400,0.91179248046875,7.486543655395508,3.604189157485962,5.67966365814209
1701881401604384800,0.921384765625,7.524828910827637,3.606581926345825,5.677270889282227
1701881401613976300,0.930976318359375,7.5272216796875,3.597010612487793,5.571687698364258
1701881401623569000,0.94056884765625,7.493722438812256,3.620938777923584,5.497509956359863
1701881401633162000,0.950161865234375,7.505686283111572,3.652045488357544,5.399404525756836
1701881401642754300,0.95975439453125,7.543971538543701,3.692723512649536,5.377869129180908
1701881401652346000,0.96934619140625,7.500900745391846,3.690330743789673,5.341976642608643
1701881401661938400,0.9789384765625,7.455437183380127,3.659224033355713,5.277370452880859
1701881401671531800,0.98853173828125,7.409973621368408,3.6783666610717773,5.251049518585205
1701881401681124000,0.9981240234375,7.244569778442383,3.7357943058013916,5.394618511199951
1701881401690715600,1.007715576171875,7.091429233551025,3.7429728507995605,5.444868087768555
1701881401700308200,1.01730810546875,7.019644260406494,3.7286159992218018,5.473581790924072
1701881401709901300,1.0269013671875,6.98614501953125,3.721437454223633,5.523830890655518
1701881401719493600,1.03649365234375,6.998108863830566,3.7357943058013916,5.418546676635742
1701881401729085200,1.046085205078125,6.988537788391113,3.699902057647705,5.231906890869141
1701881401738677800,1.055677734375,7.010073184967041,3.7094733715057373,5.038087844848633
1701881401748270800,1.065270751953125,7.067500591278076,3.721437454223633,4.829613208770752
1701881401757863200,1.07486328125,7.014858722686768,3.7429728507995605,4.848755836486816
1701881401767455000,1.084455078125,6.957430839538574,3.8075790405273438,4.982754230499268
1701881401777047300,1.09404736328125,7.1010003089904785,3.7836508750915527,5.131408214569092
1701881401786640600,1.103640625,7.194320201873779,3.7286159992218018,5.267798900604248
1701881401796233000,1.11323291015625,7.201498985290527,3.666402578353882,5.291727066040039
1701881401805824500,1.122824462890625,7.134500026702881,3.6017963886260986,5.30847692489624
1701881401815417000,1.1324169921875,7.120142936706543,3.6161532402038574,5.373083114624023
1701881401825010200,1.14201025390625,7.005287170410156,3.6951162815093994,5.478367328643799
1701881401834602500,1.1516025390625,6.957430839538574,3.776472330093384,5.62462854385376
1701881401844194000,1.161194091796875,6.978966236114502,3.8291144371032715,5.823233127593994
1701881401853786600,1.17078662109375,6.797111988067627,3.8985064029693604,5.995516300201416
1701881401863379700,1.180379638671875,6.6915283203125,3.9224345684051514,5.962016582489014
1701881401872972000,1.189971923828125,6.715755939483643,3.96789813041687,5.856732368469238
1701881401882563800,1.199563720703125,6.818647384643555,3.9774694442749023,5.73469877243042
1701881401892156200,1.20915625,6.900003433227539,3.9487555027008057,5.650949954986572
1701881401901749500,1.21874951171875,6.957430839538574,3.8697924613952637,5.511867046356201
1701881401911341800,1.228341796875,7.010073184967041,3.7908291816711426,5.315655708312988
1701881401920933400,1.237933349609375,7.160820960998535,3.7357943058013916,5.330012321472168
1701881401930525700,1.247525634765625,7.239784240722656,3.754936933517456,5.521438121795654
1701881401940119000,1.257119140625,7.266404151916504,3.747758388519287,5.717948913574219
1701881401949711400,1.26671142578125,7.328617572784424,3.707080364227295,5.758626937866211
1701881401959303000,1.276302978515625,7.398009300231934,3.6544384956359863,5.588736534118652
1701881401968895500,1.2858955078125,7.352545738220215,3.604189157485962,5.361119270324707
1701881401978488600,1.295488525390625,7.409973621368408,3.489034414291382,5.038087844848633
1701881401988081200,1.3050810546875,7.555935859680176,3.3598220348358154,4.671687126159668
1701881401997672700,1.314672607421875,7.72104024887085,3.2736804485321045,4.547260284423828
1701881402007265000,1.32426513671875,7.824231147766113,3.197110176086426,4.698008060455322
1701881402016858400,1.3338583984375,7.83619499206543,3.082254648208618,5.064409255981445
1701881402026450700,1.34345068359375,7.65164852142334,3.000898599624634,5.418546676635742
1701881402036042200,1.353042236328125,7.39561653137207,2.986541748046875,5.648557186126709
1701881402045634800,1.362634765625,6.957430839538574,3.017648458480835,5.816054344177246
1701881402055228000,1.372227783203125,6.667600154876709,3.0607192516326904,5.8351969718933105
1701881402064820200,1.3818203125,6.480959892272949,3.0631120204925537,5.940481185913086
1701881402074411800,1.391411865234375,6.291927337646484,3.1564321517944336,6.294918060302734
1701881402084004400,1.40100439453125,6.059524059295654,3.2665019035339355,6.721139907836914
1701881402093597400,1.410597412109375,5.906383514404297,3.2162528038024902,7.092027187347412
1701881402103189800,1.420189697265625,5.84656286239624,3.110968589782715,7.235596656799316
1701881402112781600,1.429781494140625,5.84656286239624,2.9506494998931885,6.943672180175781
1701881402122374000,1.439373779296875,6.066702842712402,2.8498518466949463,6.292525291442871
1701881402131967200,1.44896728515625,6.3493547439575195,2.792423963546753,6.017051696777344
1701881402141559600,1.4585595703125,6.437889099121094,2.792423963546753,6.270989894866943
1701881402151151000,1.468151123046875,6.504888534545898,2.7182464599609375,6.6418776512146
1701881402160743700,1.47774365234375,6.607779502868652,2.5698914527893066,6.907779693603516
1701881402170336800,1.487336669921875,6.976573467254639,2.416750907897949,6.821638107299805
1701881402179929000,1.49692919921875,7.764111042022705,2.1771695613861084,6.19920539855957
1701881402189521000,1.50652099609375,8.647661209106445,1.7485551834106445,4.966004371643066
1701881402199113200,1.51611328125,9.183952331542969,1.2170493602752686,3.7139599323272705
1701881402208706300,1.525706298828125,9.274879455566406,0.7289136052131653,2.888136863708496
1701881402218298600,1.535298583984375,9.258130073547363,0.13040883839130402,2.545664072036743
1701881402227890400,1.544890380859375,9.265308380126953,-0.5952146053314209,2.5791637897491455
1701881402237482800,1.554482666015625,9.004490852355957,-1.4377872943878174,2.260918378829956
1701881402247076000,1.564076171875,8.384450912475586,-2.3620150089263916,2.2345972061157227
1701881402256668400,1.57366845703125,7.132106781005859,-2.898306369781494,3.4842488765716553
1701881402266260000,1.583260009765625,5.405984401702881,-3.039483070373535,5.56450891494751
1701881402275852500,1.5928525390625,3.2679975032806396,-2.6347968578338623,7.946863174438477
1701881402285445600,1.602445556640625,1.20687997341156,-2.0721843242645264,10.01037311553955
1701881402295038000,1.612037841796875,-0.8090731501579285,-1.6247265338897705,11.224431991577148
1701881402304629500,1.62162939453125,-2.4538395404815674,-1.5430715084075928,11.430214881896973
1701881402314222000,1.63122216796875,-3.4857444763183594,-1.6223337650299072,10.786246299743652
1701881402323815200,1.640815185546875,-3.8470606803894043,-1.5358930826187134,9.768698692321777
1701881402333407700,1.65040771484375,-3.7800614833831787,-1.6654045581817627,9.27308464050293
1701881402342999300,1.659999267578125,-3.4016964435577393,-1.6510475873947144,9.380762100219727
1701881402352591600,1.669591552734375,-2.83669114112854,-1.9070796966552734,9.88833999633789
1701881402362185000,1.67918505859375,-2.2142581939697266,-2.069791555404663,11.336894989013672
1701881402371777300,1.68877734375,-1.9199410676956177,-1.9525432586669922,12.364013671875
1701881402381368800,1.698368896484375,-1.689931035041809,-1.8065811395645142,12.761221885681152
1701881402390961400,1.70796142578125,-1.4626128673553467,-1.6701902151107788,12.617652893066406
1701881402400554500,1.717554443359375,-1.4769697189331055,-1.643869161605835,12.380763053894043
1701881402410146800,1.727146728515625,-1.6755740642547607,-2.0195422172546387,11.633605003356934
1701881402419738600,1.736738525390625,-1.414756417274475,-2.4696919918060303,10.529914855957031
1701881402429331000,1.7463310546875,-0.5216353535652161,-2.8313074111938477,9.538987159729004
1701881402438924000,1.755924072265625,0.7328019142150879,-3.1926236152648926,8.365607261657715
1701881402448516600,1.7655166015625,1.9800606966018677,-3.688236951828003,7.228417873382568
1701881402458108200,1.775108154296875,3.01196551322937,-4.0426740646362305,6.553342819213867
1701881402467700700,1.78470068359375,3.6487553119659424,-4.274777889251709,6.378666877746582
1701881402477293800,1.7942939453125,3.3134610652923584,-4.722534656524658,7.259524822235107
1701881402486886100,1.80388623046875,2.1332013607025146,-4.803890705108643,8.645866394042969
1701881402496477700,1.813477783203125,1.3576277494430542,-4.600500583648682,9.423832893371582
1701881402506070300,1.8230703125,0.1989033818244934,-4.540679931640625,9.768698692321777
1701881402515663400,1.832663330078125,-1.1033903360366821,-4.600500583648682,10.31216812133789
1701881402525255700,1.842255615234375,-1.812264084815979,-4.77756929397583,10.594521522521973
1701881402534847500,1.851847412109375,-1.9247267246246338,-4.957330226898193,10.673783302307129
1701881402544439800,1.861439697265625,-1.555932879447937,-4.904388904571533,9.421440124511719
1701881402554033000,1.871032958984375,-1.8696918487548828,-5.687440395355225,10.01994514465332
1701881402563625500,1.88062548828125,-2.006082773208618,-5.857330799102783,10.22602653503418
1701881402573217000,1.890217041015625,-1.8649061918258667,-5.840580940246582,10.012765884399414
1701881402582809300,1.899809326171875,-1.86729896068573,-5.938686847686768,10.065408706665039
1701881402592402700,1.909402587890625,5.9662041664123535,-7.897212028503418,18.069101333618164
1701881402601995000,1.9189951171875,4.096512317657471,-5.689833164215088,14.508879661560059
1701881402611586600,1.928586669921875,-2.003689765930176,-5.321039199829102,10.273882865905762
1701881402621179100,1.93817919921875,-4.548755645751953,-7.310671329498291,9.186943054199219
1701881402630772200,1.947772216796875,-3.835096597671509,-6.623631954193115,6.596413612365723
1701881402640364500,1.957364501953125,-0.20099709928035736,-6.62841796875,6.831209659576416
1701881402649956400,1.966956298828125,5.164309501647949,-10.937592506408691,7.094419956207275
1701881402659548700,1.976548583984375,4.240081787109375,-9.204291343688965,5.289334297180176
1701881402669142000,1.98614208984375,2.274677038192749,-8.455039024353027,5.61027193069458
1701881402678734300,1.995734375,1.446162223815918,-7.9642109870910645,5.5621161460876465
1701881402688326000,2.005325927734375,0.6538388133049011,-7.097411155700684,6.390631198883057
1701881402697918500,2.01491845703125,-0.33738797903060913,-6.288337707519531,7.939684867858887
1701881402707511600,2.024511474609375,-0.4426721930503845,-6.748058795928955,9.92423152923584
1701881402717103900,2.034103759765625,-1.0555338859558105,-6.0487565994262695,10.036694526672363
1701881402726695400,2.0436953125,-0.2967100143432617,-6.130411624908447,7.568498134613037
1701881402736288000,2.0532880859375,0.21326032280921936,-6.69780969619751,7.3986077308654785
1701881402745881000,2.062881103515625,0.38315072655677795,-6.872485637664795,7.05134916305542
1701881402755473400,2.072473388671875,0.7136593461036682,-6.944270610809326,6.589235305786133
1701881402765065200,2.082065185546875,1.1973086595535278,-6.783951282501221,6.302096843719482
1701881402774657500,2.091657470703125,1.434198021888733,-6.580262184143066,5.627021312713623
1701881402784251000,2.1012509765625,1.9609181880950928,-6.824629306793213,5.615057468414307
1701881402793843200,2.11084326171875,1.8029918670654297,-6.661917209625244,5.79691219329834
1701881402803434800,2.120434814453125,1.3313066959381104,-6.846164703369141,6.86470890045166
1701881402813027300,2.13002734375,0.1462612897157669,-6.618846416473389,7.235596656799316
1701881402822620400,2.139620361328125,0.45254257321357727,-6.855735778808594,7.001100063323975
1701881402832212700,2.149212646484375,0.3041875660419464,-6.673881530761719,6.328417778015137
1701881402841804500,2.158804443359375,0.2874378263950348,-6.879664421081543,5.851946830749512
1701881402851396900,2.16839697265625,0.9529415965080261,-7.1718878746032715,5.4951171875
1701881402860990200,2.177990234375,0.9385846853256226,-7.229315280914307,5.509474277496338
1701881402870582500,2.18758251953125,0.8524430394172668,-7.080661296844482,5.3802618980407715
1701881402880174000,2.197174072265625,1.1207382678985596,-6.740880489349365,5.5983076095581055
1701881402889766400,2.206766357421875,1.446162223815918,-6.669095993041992,5.7394843101501465
1701881402899359700,2.21635986328125,1.2451651096343994,-6.608976364135742,5.456831932067871
1701881402908952000,2.2259521484375,1.1685947179794312,-6.537191390991211,5.047659397125244
1701881402918543600,2.235543701171875,1.072582721710205,-6.626025199890137,4.767399787902832
1701881402928136200,2.24513623046875,1.0872387886047363,-7.073482990264893,4.7004008293151855
1701881402937729300,2.254729248046875,1.3384851217269897,-7.626523971557617,5.093122959136963
1701881402947321900,2.26432177734375,1.450947880744934,-7.707880020141602,5.272584915161133
1701881402956913400,2.273913330078125,0.9672985672950745,-7.791927814483643,6.223133563995361
1701881402966505700,2.283505615234375,-0.5335994362831116,-7.985746383666992,6.843173503875732
1701881402976099000,2.29309912109375,-1.7835501432418823,-7.899604797363281,6.812067031860352
1701881402985691400,2.30269140625,-2.927917718887329,-7.794320583343506,6.050550937652588
1701881402995283000,2.312282958984375,-3.1456644535064697,-8.318648338317871,6.565307140350342
1701881403004875500,2.32187548828125,0.17976079881191254,-8.306683540344238,6.402595043182373
1701881403014468600,2.331468505859375,4.192225456237793,-11.002198219299316,6.6729841232299805
1701881403024061000,2.34106103515625,1.5897315740585327,-6.003293037414551,2.598306179046631
1701881403033652500,2.350652587890625,-0.5455635786056519,-1.94297194480896,-2.4293131828308105
1701881403043245000,2.3602451171875,-1.3932210206985474,-3.4393835067749023,-6.891927242279053
1701881403052838100,2.369838134765625,-1.77397882938385,-7.662416458129883,-7.104888439178467
1701881403062430500,2.379430419921875,-0.921535849571228,-7.16441011428833,-5.4744791984558105
1701881403072022300,2.389022216796875,-1.3716856241226196,-6.800701141357422,-0.7606185078620911
1701881403081614600,2.398614501953125,-2.1113669872283936,-8.215457916259766,0.20428723096847534
1701881403091208000,2.4082080078125,-1.685145378112793,-6.805486679077148,2.5552353858947754
1701881403100800300,2.41780029296875,-3.0978081226348877,-7.588238716125488,2.8498518466949463
1701881403110391800,2.427391845703125,-5.118546962738037,-8.641678810119629,3.5105698108673096
1701881403119984400,2.436984375,-2.7840490341186523,-7.320242881774902,3.3933215141296387
1701881403129577500,2.446577392578125,-1.6037893295288086,-7.2436723709106445,3.081955671310425
1701881403139169800,2.456169677734375,-2.489732027053833,-6.9083781242370605,2.138585329055786
1701881403148761600,2.46576171875,-3.085843801498413,-6.889235496520996,1.9591234922409058
1701881403158354000,2.47535400390625,-2.427518606185913,-6.474977970123291,1.7916259765625
1701881403167947000,2.484947021484375,-0.9933205246925354,-6.324230194091797,1.3247264623641968
1701881403177539600,2.49453955078125,0.6610172390937805,-7.650452136993408,2.0093727111816406
1701881403187131100,2.504131103515625,1.2284153699874878,-16.005889892578125,-2.486740827560425
1701881403196723700,2.5137236328125,-2.341377019882202,-41.7759895324707,-5.974878311157227
1701881403206316800,2.52331689453125,0.8979067206382751,-49.391746520996094,7.863114356994629
1701881403215909000,2.5329091796875,2.8875386714935303,-29.20948600769043,16.33101463317871
1701881403225500700,2.542500732421875,-0.6343970894813538,-8.766105651855469,1.5616158246994019
1701881403235093200,2.55209326171875,-2.2764716148376465,-4.641178607940674,-5.170590400695801
1701881403244686300,2.561686279296875,-2.358126640319824,-6.949056148529053,-2.77866530418396
1701881403254278700,2.571278564453125,-1.6205391883850098,-9.13729190826416,1.3103694915771484
1701881403263870500,2.580870361328125,-2.2959132194519043,-9.223434448242188,1.8394824266433716
1701881403273462800,2.590462890625,-2.5567309856414795,-9.206684112548828,0.6687939167022705
1701881403283056000,2.60005615234375,-1.9630118608474731,-9.13729190826416,-0.1740778535604477
1701881403292648400,2.6096484375,-1.6061822175979614,-9.561120986938477,0.393320232629776
1701881403302240000,2.619239990234375,-1.6133606433868408,-10.126126289367676,0.8243274092674255
1701881403311832600,2.62883251953125,-1.6085749864578247,-10.430014610290527,0.8051848411560059
1701881403321425700,2.63842578125,-1.5487544536590576,-10.540383338928223,0.4794618487358093
1701881403331018000,2.64801806640625,-1.6612170934677124,-10.643275260925293,0.32153555750846863
1701881403340609800,2.65760986328125,-1.903191328048706,-10.686346054077148,0.5467599630355835
1701881403350202000,2.6672021484375,-1.958226203918457,-10.715060234069824,0.6759724020957947
1701881403359795200,2.676795166015625,-1.5272190570831299,-9.934401512145996,0.623330295085907
1701881403369387500,2.686387451171875,-1.4171491861343384,-8.864510536193848,0.20428723096847534
1701881403378979300,2.695979248046875,-0.88803631067276,-7.887640953063965,-0.7199404835700989
1701881403388571600,2.705571533203125,-0.5312066078186035,-7.564310550689697,-1.0812567472457886
1701881403398165000,2.7151650390625,-2.1424734592437744,-9.769296646118164,0.1420738399028778
1701881403407757300,2.72475732421875,-2.9159533977508545,-10.147662162780762,1.2529417276382446
1701881403417348900,2.734348876953125,-3.3658041954040527,-10.928021430969238,0.8315058946609497
1701881403426941400,2.74394140625,0.09840483218431473,-10.300802230834961,0.7357929348945618
1701881403436534500,2.753534423828125,-1.8768702745437622,-10.501799583435059,-0.23629122972488403
1701881403446126800,2.763126953125,-2.3748764991760254,-10.279267311096191,0.1899302899837494
1701881403455718700,2.77271875,-2.0563318729400635,-10.109376907348633,0.4914259612560272
1701881403465311000,2.78231103515625,-1.5966109037399292,-9.853045463562012,0.17318053543567657
1701881403474904300,2.791904296875,-1.5487544536590576,-9.54197883605957,-0.07118647545576096
1701881403484496600,2.80149658203125,-1.6707884073257446,-9.41755199432373,-0.032602209597826004
1701881403494088200,2.811088134765625,-1.6755740642547607,-9.414859771728516,0.05353940650820732
1701881403503680800,2.8206806640625,-1.6157535314559937,-9.37896728515625,0.09900303930044174
1701881403513273900,2.83027392578125,-1.6420745849609375,-9.381360054016113,0.1372881978750229
1701881403522866200,2.8398662109375,-1.7018951177597046,-9.4390869140625,0.20428723096847534
1701881403532457700,2.849457763671875,-1.721037745475769,-9.510871887207031,0.3239283561706543
1701881403542050300,2.85905029296875,-1.7907286882400513,-9.594620704650879,0.4698905348777771
1701881403551643400,2.868643310546875,-1.8337994813919067,-9.608977317810059,0.5587241053581238
1701881403561235700,2.878235595703125,-1.8601205348968506,-9.65683364868164,0.5826523303985596
1701881403570827500,2.88782763671875,-1.86729896068573,-9.675976753234863,0.6664010882377625
1701881403580419800,2.897419921875,-1.9055840969085693,-9.719047546386719,0.7286145091056824
1701881403590013200,2.90701318359375,-1.9175482988357544,-9.711869239807129,0.8003991842269897
1701881403599605500,2.91660546875,-1.9079769849777222,-9.723833084106445,0.8721838593482971
1701881403609197000,2.926197021484375,-1.8912272453308105,-9.740582466125488,0.9798609018325806
1701881403618789600,2.93578955078125,-1.8266209363937378,-9.78843879699707,1.0926226377487183
1701881403628382700,2.9453828125,-1.8026927709579468,-9.865009307861328,1.2505489587783813
1701881403637975000,2.95497509765625,-1.7548363208770752,-9.90568733215332,1.418046474456787
1701881403647566800,2.96456689453125,-1.7476578950881958,-9.90568733215332,1.5041881799697876
1701881403657159200,2.9741591796875,-1.7668004035949707,-9.848259925842285,1.5855441093444824
1701881403666752500,2.98375244140625,-1.7524434328079224,-9.771689414978027,1.5855441093444824
1701881403676344800,2.9933447265625,-1.7715860605239868,-9.673583984375,1.5568302869796753
1701881403685936400,3.002936279296875,-1.8146568536758423,-9.582656860351562,1.480259895324707
1701881403695529000,3.012529052734375,-1.86729896068573,-9.508479118347168,1.4300106763839722
1701881403705122000,3.0221220703125,-1.8816559314727783,-9.448657989501953,1.38933265209198
1701881403714714400,3.03171435546875,-1.9199410676956177,-9.510871887207031,1.5089738368988037
1701881403724306000,3.041305908203125,-1.8577276468276978,-9.472586631774902,1.5017952919006348
1701881403733898500,3.0508984375,-1.9199410676956177,-9.42473030090332,1.5281163454055786
1701881403743491600,3.06049169921875,-1.9199410676956177,-9.460622787475586,1.5759727954864502
1701881403753084200,3.070084228515625,-1.8768702745437622,-9.4390869140625,1.5807584524154663
1701881403762675700,3.07967578125,-1.8529419898986816,-9.414859771728516,1.5879368782043457
1701881403772268000,3.08926806640625,-1.8385851383209229,-9.453444480895996,1.6381862163543701
1701881403781861400,3.098861328125,-1.8744773864746094,-9.498908042907715,1.6477575302124023
1701881403791453700,3.10845361328125,-1.9366908073425293,-9.585049629211426,1.633400559425354
1701881403801045200,3.118045166015625,-1.9199410676956177,-9.652048110961914,1.5592230558395386
1701881403810637800,3.127637939453125,-1.927119493484497,-9.697511672973633,1.5137593746185303
1701881403820231000,3.13723095703125,-1.9821544885635376,-9.793225288391113,1.475474238395691
1701881403829823500,3.146823486328125,-1.9558334350585938,-9.92243766784668,1.4228321313858032
1701881403839415000,3.1564150390625,-1.8792630434036255,-9.941579818725586,1.3199408054351807
1701881403849007400,3.16600732421875,-1.7620147466659546,-9.920044898986816,1.2170493602752686
1701881403858600400,3.175600341796875,-1.6636099815368652,-9.831509590148926,1.145264744758606
1701881403868193000,3.185193115234375,-1.649253010749817,-9.647262573242188,0.9535398483276367
1701881403877784600,3.19478466796875,-1.7907286882400513,-9.41755199432373,0.6113662123680115
1701881403887377000,3.204376953125,-1.3597214221954346,-9.434301376342773,0.6664010882377625
1701881403896970200,3.21397021484375,-1.2161520719528198,-9.800403594970703,0.6807580590248108
1701881403906562600,3.2235625,-1.40279221534729,-9.836296081542969,0.5563312768936157
1701881403916154000,3.233154052734375,-1.5750755071640015,-9.848259925842285,0.47228336334228516
1701881403925746700,3.24274658203125,-1.5798611640930176,-9.855438232421875,0.3646063506603241
1701881403935339800,3.25233984375,-1.5248262882232666,-9.896116256713867,0.2306082844734192
1701881403944932400,3.261932373046875,-1.5104693174362183,-9.941579818725586,0.14446666836738586
1701881403954524000,3.27152392578125,-1.567897081375122,-10.049555778503418,0.07028916478157043
1701881403964116200,3.2811162109375,-1.6420745849609375,-10.185946464538574,0.05353940650820732
1701881403973709600,3.29070947265625,-1.685145378112793,-10.303194999694824,0.05114658549427986
1701881403983302000,3.300302001953125,-1.6468602418899536,-10.386943817138672,0.07986045628786087
1701881403992893400,3.3098935546875,-1.6468602418899536,-10.441978454589844,0.125324085354805
1701881404002486000,3.319486083984375,-1.6396816968917847,-10.468299865722656,0.20189441740512848
1701881404012079000,3.3290791015625,-1.5966109037399292,-10.45633602142334,0.254536509513855
1701881404021671400,3.33867138671875,-1.567897081375122,-10.403694152832031,0.29042884707450867
1701881404031263200,3.34826318359375,-1.5487544536590576,-10.31515884399414,0.2832503914833069
1701881404040855600,3.35785546875,-1.5463616847991943,-10.202696800231934,0.27367907762527466
1701881404050449000,3.367448974609375,-1.5415760278701782,-10.078269958496094,0.2306082844734192
1701881404060041200,3.377041259765625,-1.536790370941162,-9.977771759033203,0.19950158894062042
1701881404069632800,3.3866328125,-1.5056836605072021,-9.89133071899414,0.2066800594329834
1701881404079225300,3.396225341796875,-1.469791293144226,-9.81236743927002,0.19710876047611237
1701881404088818400,3.405818359375,-1.445863127708435,-9.721440315246582,0.1540379524230957
1701881404098410800,3.41541064453125,-1.43389892578125,-9.628120422363281,0.1779661774635315
1701881404108002600,3.42500244140625,-1.4051851034164429,-9.565906524658203,0.1827518343925476
1701881404117595000,3.434594970703125,-1.3908281326293945,-9.522835731506348,0.1660020649433136
1701881404127188000,3.44418798828125,-1.378864049911499,-9.496515274047852,0.1540379524230957
1701881404136780300,3.4537802734375,-1.3716856241226196,-9.513264656066895,0.18514464795589447
1701881404146372000,3.4633720703125,-1.3716856241226196,-9.54915714263916,0.20907287299633026
1701881404155964400,3.47296435546875,-1.4267204999923706,-9.652048110961914,0.271286278963089
1701881404165557800,3.482557861328125,-1.5104693174362183,-9.817152976989746,0.3000001311302185
1701881404175150000,3.492150146484375,-1.555932879447937,-9.980164527893066,0.3287140130996704
1701881404184741600,3.50174169921875,-1.6277176141738892,-10.095019340515137,0.3167499005794525
1701881404194334200,3.511334228515625,-1.6803597211837769,-10.140482902526855,0.2832503914833069
1701881404203927300,3.52092724609375,-1.685145378112793,-10.145268440246582,0.21385852992534637
1701881404213519600,3.53051953125,-1.6636099815368652,-10.123733520507812,0.13250255584716797
1701881404223111400,3.540111328125,-1.6683956384658813,-10.078269958496094,0.03439682722091675
1701881404232703700,3.549703857421875,-1.677966833114624,-10.025628089904785,-0.04007977992296219
1701881404242297000,3.559297119140625,-1.7285152673721313,-9.958329200744629,-0.12861421704292297
1701881404251889400,3.568889404296875,-1.7883358001708984,-9.80518913269043,-0.2721835672855377
1701881404261481000,3.57848095703125,-1.7835501432418823,-9.747760772705078,-0.35114672780036926
1701881404271073500,3.588073486328125,-1.934298038482666,-9.661619186401367,-0.355932354927063
1701881404280666600,3.59766650390625,-1.8529419898986816,-9.623334884643555,-0.3415754437446594
1701881404290259000,3.607259033203125,-1.812264084815979,-9.625727653503418,-0.26979073882102966
1701881404299850500,3.6168505859375,-1.8337994813919067,-9.723833084106445,-0.20518454909324646
1701881404309443000,3.626443115234375,-1.9103697538375854,-9.862616539001465,-0.21714866161346436
1701881404319036200,3.6360361328125,-2.082653045654297,-9.98973560333252,-0.3535395562648773
1701881404328628700,3.645628662109375,-2.1017956733703613,-10.147662162780762,-0.4899304509162903
1701881404338220300,3.65522021484375,-1.9630118608474731,-10.279267311096191,-0.5665007829666138
1701881404347812600,3.6648125,-1.9749759435653687,-10.348658561706543,-0.5569294691085815
1701881404357406000,3.674406005859375,-2.027618169784546,-10.358230590820312,-0.4707878530025482
1701881404366998300,3.683998291015625,-1.8840487003326416,-10.298409461975098,-0.33439695835113525
1701881404376589800,3.69358984375,-1.6037893295288086,-10.279267311096191,0.0008973084622994065
1701881404386182400,3.703182373046875,-1.3597214221954346,-10.250553131103516,0.35503506660461426
1701881404395775500,3.712775390625,-1.2233306169509888,-10.183553695678711,0.589830756187439
1701881404405367800,3.722367919921875,-1.1009975671768188,-9.994521141052246,0.7836494445800781
1701881404414959600,3.731959716796875,-1.1682956218719482,-9.728618621826172,0.8147560954093933
1701881404424552000,3.741552001953125,-1.3621143102645874,-9.510871887207031,0.7310073375701904
1701881404434145300,3.751145263671875,-1.4123635292053223,-9.35743236541748,0.5946164131164551
1701881404443737600,3.760737548828125,-1.3668999671936035,-9.290432929992676,0.5177469849586487
1701881404453329200,3.7703291015625,-1.347757339477539,-9.230612754821777,0.3885345757007599
1701881404462921700,3.779921630859375,-1.4051851034164429,-9.218647956848145,0.2760719060897827
1701881404472514800,3.789514892578125,-1.43389892578125,-9.321539878845215,0.2306082844734192
1701881404482107100,3.799107177734375,-1.4626128673553467,-9.484550476074219,0.28085756301879883
1701881404491699000,3.808698974609375,-1.532004714012146,-9.66640567779541,0.3574278950691223
1701881404501291300,3.818291259765625,-1.6133606433868408,-9.845867156982422,0.4507479667663574
1701881404510884400,3.82788427734375,-1.6683956384658813,-9.980164527893066,0.5802595019340515
1701881404520477000,3.837476806640625,-1.7285152673721313,-10.028020858764648,0.6616154313087463
1701881404530068500,3.847068359375,-1.7620147466659546,-9.965508460998535,0.6376872062683105
1701881404539660800,3.856660888671875,-1.7042878866195679,-9.896116256713867,0.6065805554389954
1701881404549254100,3.866254150390625,-1.5990036725997925,-9.793225288391113,0.5129613280296326
1701881404558846500,3.875846435546875,-1.4578272104263306,-9.733404159545898,0.4004986882209778
1701881404568438000,3.88543798828125,-1.287936806678772,-9.750154495239258,0.31914272904396057
1701881404578030600,3.895030517578125,-1.1778669357299805,-9.886545181274414,0.29760730266571045
1701881404587623700,3.904623779296875,-1.1802598237991333,-9.963115692138672,0.27846473455429077
1701881404597216300,3.91421630859375,-1.201795220375061,-10.030413627624512,0.30957141518592834
1701881404606807800,3.923807861328125,-1.2687941789627075,-10.111769676208496,0.33110684156417847
1701881404616400100,3.933400146484375,-1.3716856241226196,-10.133304595947266,0.40289151668548584
1701881404625993500,3.942993408203125,-1.4554343223571777,-10.099804878234863,0.40767714381217957
1701881404635585800,3.952585693359375,-1.4793626070022583,-10.12134075164795,0.40767714381217957
1701881404645177300,3.96217724609375,-1.4482558965682983,-10.138090133666992,0.3693920075893402
1701881404654770000,3.97177001953125,-1.3645070791244507,-10.071091651916504,0.2928216755390167
1701881404664363000,3.981363037109375,-1.2544373273849487,-10.063913345336914,0.2186441719532013
1701881404673955300,3.990955322265625,-1.1802598237991333,-10.116555213928223,0.26889345049858093
1701881404683547100,4.000547119140625,-1.170688509941101,-10.051948547363281,0.254536509513855
1701881404693139500,4.010139404296875,-1.1488540172576904,-9.98255729675293,0.21625134348869324
1701881404702732800,4.01973291015625,-1.1057831048965454,-9.92243766784668,0.1372881978750229
1701881404712325000,4.0293251953125,-1.06271231174469,-9.89133071899414,0.05832505226135254
1701881404721916700,4.038916748046875,-1.012463092803955,-9.874580383300781,-0.013459627516567707
1701881404731509000,4.048509033203125,-0.8952147960662842,-9.860223770141602,-0.07357929646968842
1701881404741102300,4.058102294921875,-0.768395185470581,-9.841081619262695,-0.08554340898990631
1701881404750694700,4.067694580078125,-0.7157530784606934,-9.836296081542969,-0.0975075215101242
1701881404760286200,4.0772861328125,-0.7277171611785889,-9.869794845581055,-0.08554340898990631
1701881404769878800,4.086878662109375,-0.7420741319656372,-9.910472869873047,-0.04486542567610741
1701881404779472000,4.096471923828125,-0.7372884750366211,-9.90568733215332,-0.032602209597826004
1701881404789064200,4.106064208984375,-0.7157530784606934,-9.881759643554688,-0.06640082597732544
1701881404798656000,4.115656005859375,-0.701396107673645,-9.845867156982422,-0.10707881301641464
1701881404808248300,4.125248291015625,-0.701396107673645,-9.793225288391113,-0.15254244208335876
1701881404817841700,4.134841552734375,-0.6894320249557495,-9.762118339538574,-0.21236300468444824
1701881404827434000,4.14443408203125,-0.732502818107605,-9.740582466125488,-0.2315055876970291
1701881404837025500,4.154025634765625,-0.7851449251174927,-9.726225852966309,-0.3008974492549896
1701881404846618000,4.1636181640625,-0.7779664397239685,-9.697511672973633,-0.3367897868156433
1701881404856211200,4.173211181640625,-0.7492526173591614,-9.640084266662598,-0.3966103494167328
1701881404865803500,4.182803466796875,-0.7061817646026611,-9.606584548950195,-0.4468596279621124
1701881404875395300,4.192395263671875,-0.6678966283798218,-9.565906524658203,-0.47557350993156433
1701881404884987600,4.201987548828125,-0.675075113773346,-9.618548393249512,-0.4253242313861847
1701881404894581000,4.2115810546875,-0.7133602499961853,-9.723833084106445,-0.42293140292167664
1701881404904173300,4.22117333984375,-0.7803592681884766,-9.80518913269043,-0.47557350993156433
1701881404913764900,4.230764892578125,-0.8042874932289124,-9.838688850402832,-0.602692186832428
1701881404923357400,4.240357421875,-0.9095717072486877,-9.845867156982422,-0.7438687682151794
1701881404932950500,4.249950439453125,-0.9047860503196716,-9.881759643554688,-0.8132606148719788
1701881404942542800,4.25954296875,-0.885643482208252,-9.92243766784668,-0.8252246975898743
1701881404952134400,4.269134521484375,-0.9358927607536316,-9.917651176452637,-0.8347960114479065
1701881404961727000,4.27872705078125,-0.9406784176826477,-9.865009307861328,-0.8994022011756897
1701881404971320300,4.2883203125,-0.8641080856323242,-9.872187614440918,-0.8826524615287781
1701881404980912600,4.29791259765625,-0.7205387353897095,-9.980164527893066,-0.8826524615287781
1701881404990504200,4.307504150390625,-0.5982056856155396,-9.994521141052246,-0.9352945685386658
1701881405000096800,4.3170966796875,-0.5551348328590393,-9.93679428100586,-0.966401219367981
1701881405009689900,4.32668994140625,-0.5623133182525635,-9.807581901550293,-0.9783653616905212
1701881405019282200,4.3362822265625,-0.4977070987224579,-9.771689414978027,-0.9017950296401978
1701881405028873700,4.345873779296875,-0.4091726839542389,-9.800403594970703,-0.8826524615287781
1701881405038466300,4.35546630859375,-0.3924229145050049,-9.800403594970703,-0.846760094165802
1701881405048059400,4.365059326171875,-0.39960137009620667,-9.771689414978027,-0.8108677864074707
1701881405057651700,4.374651611328125,-0.397208571434021,-9.70229721069336,-0.8060821294784546
1701881405067243500,4.384243408203125,-0.30628129839897156,-9.620942115783691,-0.7701897621154785
1701881405076835800,4.3938359375,-0.2225325107574463,-9.5324068069458,-0.8371888399124146
1701881405086429200,4.40342919921875,-0.09092725813388824,-9.46301555633545,-0.9472586512565613
1701881405096021500,4.413021484375,-0.014057832770049572,-9.56351375579834,-0.9424729943275452
1701881405105613000,4.422613037109375,-0.040677983313798904,-9.675976753234863,-0.9424729943275452
1701881405115205600,4.43220556640625,-0.10767702013254166,-9.747760772705078,-1.0716854333877563
1701881405124798700,4.441798828125,-0.011665010824799538,-9.78126049041748,-1.2538390159606934
1701881405134391300,4.451391357421875,-0.06699903309345245,-9.793225288391113,-1.3591232299804688
1701881405143982800,4.46098291015625,0.00029910283046774566,-9.707083702087402,-1.4261223077774048
1701881405153575200,4.4705751953125,0.07447660714387894,-9.592227935791016,-1.6175481081008911
1701881405163168300,4.480168212890625,0.13908281922340393,-9.522835731506348,-1.7781662940979004
1701881405172760800,4.4897607421875,0.13908281922340393,-9.527621269226074,-1.8499510288238525
1701881405182352400,4.499352294921875,0.02183450572192669,-9.534799575805664,-1.8858433961868286
1701881405191945000,4.508945068359375,-0.03559323772788048,-9.582656860351562,-1.916949987411499
1701881405201538000,4.5185380859375,-0.11724831163883209,-9.652048110961914,-1.9408782720565796
1701881405211130400,4.52813037109375,-0.02841476909816265,-9.716654777526855,-1.8690935373306274
1701881405220722000,4.537721923828125,0.263509601354599,-9.833903312683105,-1.6534404754638672
1701881405230314500,4.547314453125,0.4453641176223755,-9.876974105834961,-1.5194423198699951
1701881405239907600,4.556907470703125,0.26590242981910706,-9.924830436706543,-1.4165509939193726
1701881405249500200,4.566500244140625,0.19172491133213043,-9.915258407592773,-1.3184453248977661
1701881405259091700,4.576091796875,0.17736798524856567,-9.865009307861328,-1.246660590171814
1701881405268684000,4.58568408203125,0.08165507018566132,-9.860223770141602,-1.222732424736023
1701881405278277400,4.59527734375,-0.06699903309345245,-9.78843879699707,-1.1434701681137085
1701881405287869700,4.60486962890625,-0.19381862878799438,-9.747760772705078,-1.0166505575180054
1701881405297461200,4.614461181640625,-0.380458801984787,-9.711869239807129,-0.7845467329025269
1701881405307053800,4.6240537109375,-0.8521439433097839,-9.604191780090332,-0.6720840334892273
1701881405316647000,4.63364697265625,-0.3852444589138031,-9.565906524658203,-0.07118647545576096
1701881405326239200,4.6432392578125,-0.3517449200153351,-9.88415241241455,0.8961120843887329
1701881405335831000,4.6528310546875,-0.24885354936122894,-9.862616539001465,1.0085747241973877
1701881405345423400,4.66242333984375,0.057726845145225525,-9.814760208129883,0.900897741317749
1701881405355016700,4.6720166015625,0.5485545992851257,-9.821938514709473,0.7429714202880859
1701881405364609000,4.681609130859375,0.521934449672699,-9.508479118347168,0.37896329164505005
1701881405374200600,4.69120068359375,0.21804596483707428,-9.089435577392578,0.07028916478157043
1701881405383793200,4.700793212890625,0.38315072655677795,-8.847461700439453,0.07028916478157043
1701881405393386200,4.71038623046875,0.6921239495277405,-8.304290771484375,-0.31764721870422363
1701881405402978800,4.719978759765625,0.3807578980922699,-7.200601577758789,-0.7965108156204224
1701881405412570400,4.7295703125,0.7495517134666443,-6.848557472229004,-0.8611170649528503
1701881405422162700,4.73916259765625,0.11994023621082306,-5.740082263946533,-1.576870083808899
1701881405431756000,4.748756103515625,-0.45224347710609436,-5.950650691986084,-1.2562319040298462
1701881405441348400,4.758348388671875,-0.8234301209449768,-6.963412761688232,-0.9233304262161255
1701881405450940000,4.76793994140625,-1.1635099649429321,-8.646464347839355,-0.4588237404823303
1701881405460532500,4.777532470703125,-1.6971094608306885,-9.862616539001465,-0.052043892443180084
1701881405470125600,4.78712548828125,-2.774477958679199,-10.312766075134277,-0.00867398176342249
1701881405479718000,4.7967177734375,-3.452244758605957,-10.679167747497559,0.42681974172592163
1701881405489309400,4.806309326171875,-2.7984061241149902,-10.61695384979248,0.7381857633590698
1701881405498902000,4.815902099609375,-2.0635104179382324,-10.138090133666992,0.30957141518592834
1701881405508495000,4.8254951171875,-1.5822539329528809,-9.465408325195312,-0.1381855010986328
1701881405518087400,4.83508740234375,-1.4362918138504028,-8.72782039642334,-0.44446679949760437
1701881405527679200,4.84467919921875,-1.7715860605239868,-8.165207862854004,-0.36311084032058716
1701881405537271600,4.854271484375,-1.9127626419067383,-8.064709663391113,-0.3367897868156433
1701881405546865000,4.863864990234375,-1.989332914352417,-8.632107734680176,-0.243469700217247
1701881405556457200,4.873457275390625,-1.7524434328079224,-8.981759071350098,-0.34636107087135315
1701881405566048800,4.883048828125,-2.7290141582489014,-9.340682029724121,-0.4731806814670563
1701881405575641300,4.892641357421875,-1.6827524900436401,-7.985746383666992,0.47706902027130127
1701881405585234400,4.902234375,-3.0714869499206543,-7.775177955627441,0.8913264274597168
1701881405594827000,4.911826904296875,-3.782454490661621,-9.192327499389648,1.7533408403396606
1701881405604418600,4.92141845703125,-4.0196428298950195,-11.018948554992676,1.810768485069275
1701881405614011000,4.931010986328125,-3.8709888458251953,-11.485847473144531,1.456331729888916
1701881405623604200,4.940604248046875,-3.4953157901763916,-11.382956504821777,1.3965110778808594
1701881405633196500,4.950196533203125,-2.764906644821167,-11.222637176513672,1.6504493951797485
1701881405642788000,4.9597880859375,-2.8752756118774414,-10.525727272033691,1.7820546627044678
1701881405652380700,4.969380615234375,-2.606980323791504,-9.91286563873291,2.0333011150360107
1701881405661973800,4.978973876953125,-3.4570305347442627,-9.012866020202637,2.581556558609009
1701881405671566000,4.988566162109375,-3.9957146644592285,-9.896116256713867,2.885744094848633
1701881405681157600,4.99815771484375,-4.323531627655029,-10.370194435119629,3.0723843574523926
1701881405690750200,5.007750244140625,-4.756931304931641,-11.263315200805664,3.273381471633911
1701881405700343600,5.017343505859375,-4.9292144775390625,-12.18245792388916,3.3837504386901855
1701881405709935900,5.026935791015625,-5.084748268127441,-12.472289085388184,3.3068809509277344
1701881405719527400,5.03652734375,-5.029713153839111,-12.35982608795166,3.014956474304199
1701881405729120000,5.0461201171875,-4.974678039550781,-11.880962371826172,2.710768938064575
1701881405738713000,5.055713134765625,-5.020142078399658,-11.481061935424805,2.6988048553466797
1701881405748305400,5.065305419921875,-5.221437931060791,-11.097911834716797,2.8426733016967773
1701881405757897000,5.07489697265625,-5.448756217956543,-10.576275825500488,3.06999135017395
1701881405767489500,5.084489501953125,-5.743372440338135,-10.028020858764648,3.2709884643554688
1701881405777082600,5.09408251953125,-6.154938220977783,-9.685547828674316,3.465106248855591
1701881405786675200,5.10367529296875,-6.296413898468018,-9.292825698852539,3.718745470046997
1701881405796266800,5.113266845703125,-6.358626842498779,-8.864510536193848,3.7211382389068604
1701881405805859000,5.122859130859375,-6.298806667327881,-8.562715530395508,3.7139599323272705
1701881405815452400,5.132452392578125,-6.176473617553711,-8.36411190032959,3.512962818145752
1701881405825044700,5.142044677734375,-6.018547058105469,-8.220243453979492,3.3020951747894287
1701881405834636300,5.15163623046875,-6.032904148101807,-7.945068359375,3.1345977783203125
1701881405844228900,5.161228759765625,-6.21266508102417,-7.554739475250244,3.081955671310425
1701881405853822000,5.170822021484375,-6.722336292266846,-7.724629878997803,3.273381471633911
1701881405863414300,5.180414306640625,-6.258128643035889,-6.661917209625244,3.371786117553711
1701881405873006000,5.190006103515625,-7.287341594696045,-6.874878406524658,3.297309637069702
1701881405882598400,5.199598388671875,-7.2921271324157715,-7.576274871826172,4.077968120574951
1701881405892191700,5.209191650390625,-7.481459140777588,-7.035197734832764,4.180859565734863
1701881405901784000,5.2187841796875,-7.141379356384277,-7.071090221405029,4.669294357299805
1701881405911375600,5.228375732421875,-7.138986587524414,-6.654738903045654,4.417748928070068
1701881405920968200,5.23796826171875,-6.990631580352783,-7.258029460906982,4.475475788116455
1701881405930561300,5.247561279296875,-6.945167541503906,-5.728118419647217,3.9463627338409424
1701881405940153600,5.257153564453125,-7.1270222663879395,-4.600500583648682,3.87667179107666
1701881405949745400,5.266745361328125,-6.894918441772461,-3.930211305618286,3.852743625640869
1701881405959337700,5.276337646484375,-6.765407085418701,-4.605286121368408,3.8790645599365234
1701881405968930800,5.285930908203125,-6.643373012542725,-4.116851329803467,3.685245990753174
1701881405978523400,5.2955234375,-6.780063152313232,-5.680262088775635,3.96789813041687
1701881405988115000,5.305114990234375,-6.758228302001953,-3.985246181488037,3.0628130435943604
1701881405997707300,5.314707275390625,-6.640980243682861,-3.458526134490967,3.426821231842041
1701881406007300600,5.324300537109375,-6.633801460266113,-3.5015969276428223,3.381357431411743
1701881406016893000,5.333892822265625,-7.021738052368164,-3.8297126293182373,3.4866416454315186
1701881406026484500,5.343484375,-7.4240312576293945,-4.092923164367676,3.4794633388519287
1701881406036077000,5.3530771484375,-7.65374231338501,-4.035495281219482,3.6349966526031494
1701881406045670100,5.362670166015625,-7.754240989685059,-4.205385684967041,3.5967116355895996
1701881406055262700,5.3722626953125,-7.574779033660889,-4.1623148918151855,3.9870407581329346
1701881406064854300,5.381854248046875,-7.589136123657227,-4.689034938812256,4.231108665466309
1701881406074446600,5.391446533203125,-7.414460182189941,-4.8900322914123535,4.233501434326172
1701881406084040000,5.4010400390625,-7.328019142150879,-4.794319152832031,4.188037872314453
1701881406093632300,5.41063232421875,-7.1988067626953125,-5.129613399505615,4.338785648345947
1701881406103223800,5.420223876953125,-7.287341594696045,-5.043471813201904,4.779364109039307
1701881406112816400,5.42981640625,-7.076773166656494,-5.067399978637695,5.5381879806518555
1701881406122409500,5.439409423828125,-7.076773166656494,-4.3178486824035645,6.019444465637207
1701881406132001800,5.449001708984375,-7.098308563232422,-3.8536407947540283,6.326025009155273
1701881406141593600,5.458593505859375,-6.914061069488525,-3.889533281326294,6.390631198883057
1701881406151186000,5.46818603515625,-7.062416076660156,-4.052245140075684,6.297310829162598
1701881406160779300,5.477779296875,-6.961917400360107,-3.8368911743164062,6.177670001983643
1701881406170371600,5.48737158203125,-7.05763053894043,-4.047459602355957,6.112764358520508
1701881406179963100,5.496963134765625,-7.012166976928711,-4.1623148918151855,6.064908027648926
1701881406189555700,5.5065556640625,-7.026523590087891,-3.9972102642059326,6.024230003356934
1701881406199148800,5.516148681640625,-7.052844524383545,-3.7624144554138184,5.950052738189697
1701881406208741000,5.5257412109375,-7.093522548675537,-3.3604202270507812,6.156134605407715
1701881406218333000,5.5353330078125,-7.15812873840332,-2.8145575523376465,6.21356201171875
1701881406227925200,5.54492529296875,-7.225128173828125,-2.2686948776245117,6.316453456878662
1701881406237518300,5.554518310546875,-7.378567695617676,-2.175374984741211,6.244668960571289
1701881406247111000,5.56411083984375,-7.730312824249268,-2.6515464782714844,5.885446548461914
1701881406256702500,5.573702392578125,-7.965108394622803,-3.005983352661133,5.737091541290283
1701881406266294800,5.583294677734375,-8.154141426086426,-3.3388848304748535,5.708377361297607
1701881406275888000,5.59288818359375,-8.070392608642578,-2.7810580730438232,5.138586521148682
1701881406285480400,5.60248046875,-7.926823139190674,-2.5582265853881836,5.109872817993164
1701881406295072000,5.612072021484375,-7.837989807128906,-2.292623281478882,5.2151570320129395
1701881406304664600,5.62166455078125,-7.5341010093688965,-2.0099709033966064,5.341976642608643
1701881406314257700,5.631257568359375,-7.364210605621338,-1.8233308792114258,5.279763221740723
1701881406323850000,5.64085009765625,-7.024130821228027,-1.7850457429885864,5.37069034576416
1701881406333441800,5.65044189453125,-7.194021224975586,-1.9166508913040161,4.89900541305542
1701881406343034000,5.6600341796875,-6.942774772644043,-2.012363910675049,4.645366191864014
1701881406352627500,5.66962744140625,-6.911668300628662,-2.3213369846343994,4.3172502517700195
1701881406362219800,5.6792197265625,-6.885347366333008,-2.632404088973999,4.147359848022461
1701881406371811300,5.688811279296875,-7.105486869812012,-2.9964120388031006,4.066003799438477
1701881406381404000,5.69840380859375,-6.80159854888916,-3.358027458190918,4.516153812408447
1701881406390997000,5.7079970703125,-7.196413993835449,-3.602095365524292,4.8367919921875
1701881406400589300,5.71758935546875,-7.52931547164917,-3.875176191329956,4.958825588226318
1701881406410181000,5.72718115234375,-7.744669437408447,-3.999603033065796,5.0356950759887695
1701881406419773400,5.7367734375,-7.727920055389404,-3.6834514141082764,5.349154949188232
1701881406429366800,5.74636669921875,-7.634599685668945,-3.087339401245117,5.80409049987793
1701881406438959000,5.755958984375,-7.385746002197266,-2.426621198654175,6.2327046394348145
1701881406448550700,5.765550537109375,-7.3522467613220215,-1.794616937637329,6.39302396774292
1701881406458143200,5.775143310546875,-7.107879638671875,-1.4401801824569702,6.294918060302734
1701881406467736300,5.784736328125,-7.21316385269165,-1.54067862033844,5.705984592437744
1701881406477328600,5.79432861328125,-7.359425067901611,-2.137089729309082,5.375475883483887
1701881406486920200,5.803920166015625,-7.450352191925049,-2.6371896266937256,5.095515727996826
1701881406496512800,5.8135126953125,-7.5101728439331055,-3.111267566680908,4.891826629638672
1701881406506105900,5.82310595703125,-7.613064289093018,-3.736093521118164,4.540081977844238
1701881406515698400,5.832698486328125,-7.306483745574951,-4.1623148918151855,4.492225646972656
1701881406525290000,5.8422900390625,-7.318448066711426,-4.4497528076171875,4.374678134918213
1701881406534882600,5.851882568359375,-7.435995578765869,-4.5909295082092285,4.051646709442139
1701881406544475600,5.8614755859375,-7.735098361968994,-4.466502666473389,3.8479578495025635
1701881406554068000,5.87106787109375,-8.230711936950684,-4.336990833282471,3.896113395690918
1701881406563659500,5.880659423828125,-8.585148811340332,-4.198207378387451,4.077968120574951
1701881406573252000,5.890252197265625,-8.788538932800293,-3.961317777633667,4.367499351501465
1701881406582845200,5.89984521484375,-8.838788032531738,-3.6834514141082764,4.485046863555908
1701881406592437800,5.909437744140625,-8.750253677368164,-3.310171127319336,4.602295398712158
1701881406602029300,5.919029296875,-8.592327117919922,-3.0275187492370605,4.647758960723877
1701881406611621600,5.92862158203125,-8.410173416137695,-2.8552355766296387,4.645366191864014
1701881406621215000,5.938215087890625,-8.25703239440918,-2.7595226764678955,4.638187408447266
1701881406630807300,5.947807373046875,-8.146963119506836,-2.733201742172241,4.609473705291748
1701881406640398800,5.95739892578125,-8.036892890930176,-2.7284159660339355,4.535296440124512
1701881406649991400,5.966991455078125,-7.905287742614746,-2.6973092555999756,4.506582260131836
1701881406659584500,5.97658447265625,-7.763812065124512,-2.733201742172241,4.540081977844238
1701881406669177000,5.986177001953125,-7.620242595672607,-2.7355945110321045,4.65015172958374
1701881406678768600,5.9957685546875,-7.479066371917725,-2.730808734893799,4.812863826751709
1701881406688361000,6.00536083984375,-7.364210605621338,-2.7451658248901367,5.038087844848633
1701881406697954300,6.014954345703125,-7.2921271324157715,-2.788236618041992,5.255835056304932
1701881406707546600,6.024546630859375,-7.270591735839844,-2.8552355766296387,5.442475318908691
1701881406717138200,6.03413818359375,-7.289734363555908,-2.967698335647583,5.574080467224121
1701881406726730800,6.043730712890625,-7.280162811279297,-3.118446111679077,5.658128261566162
1701881406736323800,6.05332373046875,-7.234699249267578,-3.295814037322998,5.705984592437744
1701881406745916200,6.062916259765625,-7.11984395980835,-3.4561331272125244,5.658128261566162
1701881406755507700,6.0725078125,-6.973881721496582,-3.6068811416625977,5.605485916137695
1701881406765100300,6.082100341796875,-6.861418724060059,-3.726522207260132,5.507081508636475
1701881406774693400,6.091693359375,-6.770192623138428,-3.8488552570343018,5.375475883483887
1701881406784285700,6.10128564453125,-6.660122871398926,-3.9421753883361816,5.219942569732666
1701881406793877500,6.11087744140625,-6.590730667114258,-4.028316974639893,5.133800983428955
1701881406803469800,6.1204697265625,-6.619444847106934,-4.088137626647949,5.114658355712891
1701881406813063200,6.130063232421875,-6.607480525970459,-4.150351047515869,5.14576530456543
1701881406822655500,6.139655517578125,-6.571588516235352,-4.152743816375732,5.148158073425293
1701881406832247000,6.1492470703125,-6.645765781402588,-4.040280818939209,5.172086238861084
1701881406841839600,6.158839599609375,-6.743871688842773,-4.059423446655273,5.157729148864746
1701881406851432700,6.1684326171875,-6.830312252044678,-4.011567115783691,5.069194793701172
1701881406861025000,6.17802490234375,-6.8757758140563965,-4.030709743499756,5.001896858215332
1701881406870616800,6.187616943359375,-6.985845565795898,-4.18145751953125,4.956432819366455
1701881406880209200,6.197209228515625,-7.172485828399658,-4.389932155609131,4.865505695343018
1701881406889802500,6.206802490234375,-7.328019142150879,-4.5526442527771,4.71954345703125
1701881406899394800,6.216394775390625,-7.428816795349121,-4.595715045928955,4.6525444984436035
1701881406908986400,6.225986328125,-7.536494255065918,-4.629214286804199,4.745864391326904
1701881406918579000,6.235578857421875,-7.610671520233154,-4.710570335388184,4.848755836486816
1701881406928172000,6.245172119140625,-7.682456016540527,-4.732105731964111,4.918148040771484
1701881406937764400,6.254764404296875,-7.761419296264648,-4.643571376800537,4.901398181915283
1701881406947356200,6.264356201171875,-7.782954692840576,-4.492823600769043,4.7697930335998535
1701881406956948500,6.273948486328125,-7.656135082244873,-4.375575542449951,4.585545539855957
1701881406966541800,6.283541748046875,-7.476673603057861,-4.2723846435546875,4.441677093505859
1701881406976134100,6.293134033203125,-7.323233604431152,-4.195814609527588,4.384249210357666
1701881406985725700,6.3027255859375,-7.306483745574951,-4.159922122955322,4.41057014465332
1701881406995318300,6.312318359375,-7.421638488769531,-4.102494239807129,4.5185465812683105
1701881407004911400,6.321911376953125,-7.574779033660889,-4.0905303955078125,4.633401870727539
1701881407014503700,6.331503662109375,-7.656135082244873,-4.143172264099121,4.726722240447998
1701881407024095200,6.34109521484375,-7.658527851104736,-4.179064750671387,4.78893518447876
1701881407033687800,6.350687744140625,-7.605885982513428,-4.17427921295166,4.805685043334961
1701881407043281000,6.360281005859375,-7.572386264801025,-4.131208419799805,4.827220439910889
1701881407052873500,6.36987353515625,-7.464709281921387,-4.059423446655273,4.841577529907227
1701881407062465000,6.379465087890625,-7.34267520904541,-3.930211305618286,4.908576488494873
1701881407072057300,6.389057373046875,-7.232306480407715,-3.750450372695923,5.016552448272705
1701881407081650700,6.398650634765625,-7.191628456115723,-3.484847068786621,5.088337421417236
1701881407091243000,6.408242919921875,-7.110272407531738,-3.611666679382324,5.251049518585205
1701881407100834600,6.41783447265625,-6.9690961837768555,-3.6284165382385254,5.198407173156738
1701881407110427100,6.42742724609375,-6.935596466064453,-3.666701555252075,5.207978248596191
1701881407120020200,6.437020263671875,-6.87816858291626,-3.7935211658477783,5.217549800872803
1701881407129612500,6.446612548828125,-6.80877685546875,-3.9565322399139404,5.164907455444336
1701881407139204400,6.456204345703125,-6.780063152313232,-4.121636867523193,5.155336380004883
1701881407148796700,6.465796630859375,-6.746264457702637,-4.234099864959717,5.174479007720947
1701881407158390000,6.47539013671875,-6.717550277709961,-4.277170658111572,5.217549800872803
1701881407167982300,6.484982421875,-6.7486572265625,-4.267599105834961,5.289334297180176
1701881407177574000,6.494573974609375,-6.803991317749023,-4.284348964691162,5.358726501464844
1701881407187166500,6.50416650390625,-6.811169624328613,-4.353740692138672,5.4041900634765625
1701881407196759600,6.513759521484375,-6.830312252044678,-4.25084924697876,5.3970112800598145
1701881407206352100,6.52335205078125,-6.9930243492126465,-4.363312244415283,5.437689304351807
1701881407215943700,6.532943603515625,-7.0408806800842285,-4.48325252532959,5.320441246032715
1701881407225536000,6.542535888671875,-7.0887370109558105,-4.574179649353027,5.315655708312988
1701881407235129000,6.552129150390625,-7.179664134979248,-4.5598225593566895,5.327619552612305
1701881407244721700,6.5617216796875,-7.263412952423096,-4.535894393920898,5.332405090332031
1701881407254313200,6.571313232421875,-7.349853992462158,-4.504787921905518,5.296513080596924
1701881407263905800,6.58090576171875,-7.402495861053467,-4.4497528076171875,5.251049518585205
1701881407273499000,6.590498779296875,-7.421638488769531,-4.447360038757324,5.267798900604248
1701881407283091200,6.60009130859375,-7.455138206481934,-4.353740692138672,5.313262462615967
1701881407292682800,6.609682861328125,-7.45274543762207,-4.269991874694824,5.392225742340088
1701881407302275300,6.619275390625,-7.440781116485596,-4.169493675231934,5.48793888092041
1701881407311868400,6.628868408203125,-7.39053201675415,-4.092923164367676,5.559723377227783
1701881407321461000,6.6384609375,-7.313662528991699,-4.006781578063965,5.586343765258789
1701881407331052500,6.648052490234375,-7.225128173828125,-3.9900317192077637,5.6724853515625
1701881407340644900,6.657644775390625,-7.055237770080566,-3.9397823810577393,5.634200096130371
1701881407350238200,6.66723828125,-6.916453838348389,-3.913461446762085,5.607879161834717
1701881407359830500,6.67683056640625,-6.823133945465088,-3.930211305618286,5.586343765258789
1701881407369422000,6.686422119140625,-6.770192623138428,-3.9589250087738037,5.533402442932129
1701881407379014700,6.6960146484375,-6.753442764282227,-3.999603033065796,5.473581790924072
1701881407388607700,6.705607666015625,-6.763014316558838,-4.088137626647949,5.423332691192627
1701881407398200300,6.715200439453125,-6.794419765472412,-4.207778453826904,5.4281182289123535
1701881407407791900,6.7247919921875,-6.780063152313232,-4.260420799255371,5.339583873748779
1701881407417384200,6.73438427734375,-6.806384086608887,-4.356133460998535,5.349154949188232
1701881407426977500,6.7439775390625,-6.825526714324951,-4.351347923278809,5.284548759460449
1701881407436569900,6.75356982421875,-6.825526714324951,-4.356133460998535,5.255835056304932
1701881407446161400,6.763161376953125,-6.849454879760742,-4.334598064422607,5.236692428588867
1701881407455754000,6.77275390625,-6.8997039794921875,-4.320241451263428,5.196014404296875
1701881407465347000,6.78234716796875,-6.961917400360107,-4.358526229858398,5.150550842285156
1701881407474939400,6.791939453125,-7.031309127807617,-4.356133460998535,5.102694511413574
1701881407484531200,6.80153125,-7.0887370109558105,-4.394717693328857,5.078765869140625
1701881407494123500,6.81112353515625,-7.134200572967529,-4.380361080169678,5.066802024841309
1701881407503716900,6.820716796875,-7.186842918395996,-4.284348964691162,5.016552448272705
1701881407513309200,6.83030908203125,-7.239484786987305,-4.399503707885742,5.059623718261719
1701881407522900700,6.839900634765625,-7.249056339263916,-4.392324924468994,5.018945693969727
1701881407532493300,6.849493408203125,-7.270591735839844,-4.3178486824035645,4.96839714050293
1701881407542086400,6.85908642578125,-7.296912670135498,-4.289134502410889,4.9277191162109375
1701881407551678700,6.8686787109375,-7.3160552978515625,-4.265206336975098,4.90618371963501
1701881407561270500,6.8782705078125,-7.323233604431152,-4.229313850402832,4.889433860778809
1701881407570862800,6.88786279296875,-7.325626373291016,-4.183850288391113,4.901398181915283
1701881407580456000,6.8974560546875,-7.320840835571289,-4.128815650939941,4.901398181915283
1701881407590048500,6.907048583984375,-7.304090976715088,-4.073780536651611,4.915754795074463
1701881407599640000,6.91664013671875,-7.294519901275635,-4.013959884643555,4.9516472816467285
1701881407609232400,6.926232421875,-7.284948348999023,-3.9972102642059326,4.970789909362793
1701881407618825700,6.93582568359375,-7.306483745574951,-3.954139471054077,4.977968215942383
1701881407628418000,6.94541796875,-7.253841876983643,-3.968496322631836,4.985146999359131
1701881407638009600,6.955009521484375,-7.217949390411377,-4.013959884643555,5.040481090545654
1701881407647602200,6.964602294921875,-7.201199531555176,-4.061816215515137,5.107480049133301
1701881407657195300,6.9741953125,-7.186842918395996,-4.128815650939941,5.143372058868408
1701881407666787600,6.98378759765625,-7.153343200683594,-4.1383867263793945,5.164907455444336
1701881407676379400,6.99337939453125,-7.0959153175354,-4.143172264099121,5.172086238861084
1701881407685971700,7.0029716796875,-7.069594383239746,-4.133601188659668,5.157729148864746
1701881407695565000,7.01256494140625,-7.079165935516357,-4.121636867523193,5.148158073425293
1701881407705157400,7.022157470703125,-7.0959153175354,-4.109673023223877,5.095515727996826
1701881407714749000,7.0317490234375,-7.11984395980835,-4.124029636383057,5.040481090545654
1701881407724341500,7.041341552734375,-7.131807804107666,-4.133601188659668,4.989932537078857
1701881407733934600,7.0509345703125,-7.162914752960205,-4.135993957519531,4.970789909362793
1701881407743527200,7.060527099609375,-7.160521984100342,-4.131208419799805,4.954040050506592
1701881407753118700,7.07011865234375,-7.196413993835449,-4.088137626647949,4.896612644195557
1701881407762711000,7.0797109375,-7.249056339263916,-4.126422882080078,4.9516472816467285
1701881407772304400,7.089304443359375,-7.244270324707031,-4.231706619262695,4.96839714050293
1701881407781896700,7.098896728515625,-7.229913711547852,-4.226921081542969,4.982754230499268
1701881407791488300,7.10848828125,-7.229913711547852,-4.226921081542969,5.016552448272705
1701881407801080800,7.118080810546875,-7.256234645843506,-4.207778453826904,5.018945693969727
1701881407810674000,7.127673828125,-7.301698207855225,-4.195814609527588,5.038087844848633
1701881407820266200,7.137266357421875,-7.33549690246582,-4.186243057250977,5.026124000549316
1701881407829857800,7.14685791015625,-7.323233604431152,-4.183850288391113,5.001896858215332
1701881407839450400,7.156450439453125,-7.2921271324157715,-4.145565032958984,4.982754230499268
1701881407849043700,7.166043701171875,-7.253841876983643,-4.102494239807129,4.96839714050293
1701881407858636000,7.175635986328125,-7.232306480407715,-4.04985237121582,4.954040050506592
1701881407868227600,7.1852275390625,-7.217949390411377,-3.9972102642059326,4.966004371643066
1701881407877820200,7.194820068359375,-7.21316385269165,-3.985246181488037,4.963611602783203
1701881407887413200,7.204413330078125,-7.215556621551514,-4.004388809204102,4.977968215942383
1701881407897005600,7.214005615234375,-7.210771083831787,-4.061816215515137,4.973182678222656
1701881407906597000,7.22359716796875,-7.1988067626953125,-4.116851329803467,4.949254512786865
1701881407916189700,7.233189697265625,-7.191628456115723,-4.171886444091797,4.944468975067139
1701881407925782800,7.24278271484375,-7.155735969543457,-4.229313850402832,4.944468975067139
1701881407935375400,7.252375244140625,-7.155735969543457,-4.2556352615356445,4.958825588226318
1701881407944967000,7.261966796875,-7.1509504318237305,-4.274777889251709,4.970789909362793
1701881407954559200,7.271559326171875,-7.153343200683594,-4.2484564781188965,4.980361461639404
1701881407964152600,7.281152587890625,-7.184450149536133,-4.183850288391113,4.989932537078857
1701881407973745000,7.290744873046875,-7.201199531555176,-4.126422882080078,5.009075164794922
1701881407983336400,7.30033642578125,-7.241877555847168,-4.088137626647949,5.0356950759887695
1701881407992929000,7.309928955078125,-7.28255558013916,-4.061816215515137,5.001896858215332
1701881408002522000,7.319522216796875,-7.299305438995361,-4.0426740646362305,4.982754230499268
1701881408012114400,7.329114501953125,-7.325626373291016,-4.009174346923828,4.966004371643066
1701881408021706200,7.338706298828125,-7.332805156707764,-3.9948174953460693,4.973182678222656
1701881408031298600,7.348298583984375,-7.33549690246582,-3.9589250087738037,4.980361461639404
1701881408040892000,7.357891845703125,-7.361817836761475,-3.9397823810577393,5.004289627075195
1701881408050484200,7.367484130859375,-7.388139247894287,-3.9637107849121094,5.038087844848633
1701881408060075800,7.37707568359375,-7.407281398773193,-4.016352653503418,5.071587562561035
1701881408069668400,7.38666845703125,-7.414460182189941,-4.076173305511475,5.150550842285156
1701881408079261400,7.396261474609375,-7.435995578765869,-4.143172264099121,5.181657314300537
1701881408088853800,7.405853759765625,-7.416852951049805,-4.176671981811523,5.200799942016602
1701881408098445600,7.415445556640625,-7.40488862991333,-4.186243057250977,5.1768717765808105
1701881408108038000,7.425037841796875,-7.3522467613220215,-4.195814609527588,5.1218366622924805
1701881408117631000,7.434630859375,-7.320840835571289,-4.183850288391113,5.050052165985107
1701881408127223600,7.4442236328125,-7.244270324707031,-4.169493675231934,5.001896858215332
1701881408136815000,7.453815185546875,-7.136593341827393,-4.121636867523193,4.973182678222656
1701881408146407400,7.463407470703125,-7.0887370109558105,-4.088137626647949,4.946861743927002
1701881408156000800,7.473000732421875,-7.069594383239746,-4.100101470947266,4.966004371643066
1701881408165593000,7.482593017578125,-7.071987152099609,-4.095315933227539,4.980361461639404
1701881408175184600,7.4921845703125,-7.093522548675537,-4.145565032958984,5.018945693969727
1701881408184777200,7.501777099609375,-7.093522548675537,-4.193421840667725,5.052444934844971
1701881408194370300,7.511370361328125,-7.0648088455200195,-4.2006001472473145,5.064409255981445
1701881408203962600,7.520962646484375,-7.086344242095947,-4.18145751953125,5.071587562561035
1701881408213554400,7.530554443359375,-7.1820573806762695,-4.152743816375732,5.054837703704834
1701881408223146800,7.540146728515625,-7.256234645843506,-4.164707660675049,5.023731231689453
1701881408232740000,7.549739990234375,-7.284948348999023,-4.210171222686768,4.958825588226318
1701881408242332400,7.55933251953125,-7.21316385269165,-4.229313850402832,4.887041091918945
1701881408251924000,7.568924072265625,-7.148557662963867,-4.147958278656006,4.810471057891846
1701881408261516500,7.5785166015625,-7.15812873840332,-4.004388809204102,4.748257637023926
1701881408271109600,7.588109619140625,-7.234699249267578,-3.858426570892334,4.707579612731934
1701881408280702200,7.5977021484375,-7.361817836761475,-3.781557083129883,4.659722805023193
1701881408290293800,7.607293701171875,-7.498208999633789,-3.8225340843200684,4.623830795288086
1701881408299886000,7.616885986328125,-7.569993495941162,-3.906282901763916,4.602295398712158
1701881408309479400,7.6264794921875,-7.569993495941162,-3.946960926055908,4.607080936431885
1701881408319071700,7.63607177734375,-7.548458099365234,-3.946960926055908,4.631009101867676
1701881408328663300,7.645663330078125,-7.526922702789307,-3.8799619674682617,4.65015172958374
1701881408338256000,7.655255859375,-7.507780075073242,-3.7935211658477783,4.683651447296143
1701881408347849000,7.664848876953125,-7.5101728439331055,-3.6475589275360107,4.671687126159668
1701881408357441300,7.674441162109375,-7.507780075073242,-3.8488552570343018,4.85114860534668
1701881408367032800,7.68403271484375,-7.469494819641113,-3.889533281326294,4.934897422790527
1701881408376625400,7.69362548828125,-7.457530975341797,-3.906282901763916,5.013860702514648
1701881408386218800,7.70321875,-7.345067977905273,-4.001996040344238,5.126622676849365
1701881408395811000,7.71281103515625,-7.215556621551514,-4.016352653503418,5.167300701141357
1701881408405402600,7.722402587890625,-7.115057945251465,-3.992424488067627,5.2151570320129395
1701881408414995200,7.7319951171875,-7.091129779815674,-3.8871402740478516,5.193621635437012
1701881408424588300,7.74158837890625,-7.103094100952148,-3.8488552570343018,5.212764263153076
1701881408434180600,7.7511806640625,-7.11984395980835,-3.8488552570343018,5.222335338592529
1701881408443772200,7.760772216796875,-7.167700290679932,-3.8919260501861572,5.212764263153076
1701881408453364700,7.77036474609375,-7.234699249267578,-3.9397823810577393,5.253442287445068
1701881408462957800,7.779957763671875,-7.249056339263916,-4.013959884643555,5.284548759460449
1701881408472550400,7.78955029296875,-7.277770042419434,-4.0666022300720215,5.2869415283203125
1701881408482142000,7.799141845703125,-7.277770042419434,-4.04985237121582,5.251049518585205
1701881408491734300,7.808734375,-7.27537727355957,-4.018745422363281,5.196014404296875
1701881408501327600,7.81832763671875,-7.2921271324157715,-3.9637107849121094,5.167300701141357
1701881408510920000,7.827919921875,-7.340282440185547,-3.9326040744781494,5.126622676849365
1701881408520511500,7.837511474609375,-7.409674644470215,-3.9254255294799805,5.1050872802734375
1701881408530104000,7.84710400390625,-7.491030216217041,-3.9421753883361816,5.076373100280762
1701881408539697200,7.856697265625,-7.538887023925781,-3.9828531742095947,5.062016487121582
1701881408549289500,7.86628955078125,-7.550850868225098,-4.033102512359619,5.054837703704834
1701881408558881300,7.87588134765625,-7.531708240509033,-3.930211305618286,5.02133846282959
1701881408568473600,7.8854736328125,-7.481459140777588,-4.124029636383057,5.119443893432617
1701881408578067000,7.89506689453125,-7.407281398773193,-4.073780536651611,5.057230472564697
1701881408587659300,7.9046591796875,-7.340282440185547,-3.9900317192077637,5.02851676940918
1701881408597250800,7.914250732421875,-7.28255558013916,-3.9110686779022217,4.987539768218994
1701881408606843400,7.923843505859375,-7.22034215927124,-3.875176191329956,4.973182678222656
1701881408616436500,7.9334365234375,-7.196413993835449,-3.8392839431762695,4.9995036125183105
1701881408626029000,7.943029052734375,-7.208378314971924,-3.8847475051879883,5.013860702514648
1701881408635620600,7.95262060546875,-7.253841876983643,-3.968496322631836,5.02851676940918
1701881408645213000,7.962212890625,-7.289734363555908,-4.004388809204102,5.030909538269043
1701881408654806300,7.97180615234375,-7.301698207855225,-4.061816215515137,5.057230472564697
1701881408664398600,7.981398681640625,-7.306483745574951,-4.095315933227539,5.112265586853027
1701881408673990100,7.990990234375,-7.306483745574951,-4.088137626647949,5.138586521148682
1701881408683582700,8.000582763671876,-7.289734363555908,-4.0833516120910645,5.160121917724609
1701881408693175800,8.01017578125,-7.261020183563232,-4.045066833496094,5.119443893432617
1701881408702768000,8.01976806640625,-7.189235687255859,-4.035495281219482,5.143372058868408
1701881408712359700,8.029359619140624,-7.251449108123779,-3.9182469844818115,5.107480049133301
1701881408721952300,8.0389521484375,-7.258627414703369,-3.899104595184326,5.100301265716553
1701881408731545300,8.04854541015625,-7.234699249267578,-3.9182469844818115,5.1050872802734375
1701881408741138000,8.058137939453125,-7.227520942687988,-3.899104595184326,5.0979084968566895
1701881408750729500,8.0677294921875,-7.2681989669799805,-3.867997884750366,5.050052165985107
1701881408760321800,8.07732177734375,-7.27537727355957,-3.827319860458374,5.030909538269043
1701881408769915100,8.0869150390625,-7.304090976715088,-3.812962770462036,5.009075164794922
1701881408779507500,8.096507568359375,-7.311269760131836,-3.8943188190460205,5.038087844848633
1701881408789099000,8.10609912109375,-7.318448066711426,-3.8871402740478516,5.040481090545654
1701881408798691600,8.115691650390625,-7.347461223602295,-3.9086756706237793,5.062016487121582
1701881408808284700,8.12528466796875,-7.337889671325684,-3.9086756706237793,5.057230472564697
1701881408817877200,8.134877197265626,-7.318448066711426,-3.8943188190460205,5.069194793701172
1701881408827468800,8.14446875,-7.11984395980835,-3.702594041824341,5.157729148864746
1701881408837061000,8.15406103515625,-7.170093059539795,-3.4106695652008057,4.6525444984436035
1701881408846654500,8.163654541015624,-7.0887370109558105,-3.3245279788970947,4.8559346199035645
1701881408856246800,8.173246826171875,-7.253841876983643,-3.968496322631836,5.219942569732666
1701881408865838300,8.18283837890625,-7.421638488769531,-3.9158542156219482,5.112265586853027
1701881408875431000,8.192430908203125,-7.546065330505371,-3.9349968433380127,5.131408214569092
1701881408885024000,8.20202392578125,-7.577171802520752,-3.9565322399139404,5.08355188369751
1701881408894616300,8.2116162109375,-7.577171802520752,-3.9110686779022217,5.073980331420898
1701881408904208100,8.2212080078125,-7.500601768493652,-3.8847475051879883,5.052444934844971
1701881408913800400,8.230800537109374,-7.481459140777588,-3.8871402740478516,5.08355188369751
1701881408923393800,8.240393798828125,-7.495816230773926,-3.9182469844818115,5.133800983428955
1701881408932986000,8.249986083984375,-7.476673603057861,-3.9637107849121094,5.212764263153076
1701881408942577700,8.25957763671875,-7.414460182189941,-4.028316974639893,5.212764263153076
1701881408952170200,8.269170166015625,-7.27537727355957,-3.9637107849121094,5.093122959136963
1701881408961763300,8.278763427734376,-7.229913711547852,-3.6236307621002197,4.827220439910889
1701881408971355600,8.288355712890626,-7.277770042419434,-3.8030924797058105,4.958825588226318
1701881408980947500,8.297947509765624,-7.3160552978515625,-3.896711587905884,5.001896858215332
1701881408990539800,8.307539794921874,-7.412067413330078,-3.968496322631836,5.045266628265381
1701881409000133000,8.317133056640625,-7.4479594230651855,-3.970889091491699,5.062016487121582
1701881409009725400,8.326725341796875,-7.433602809906006,-3.858426570892334,5.073980331420898
1701881409019317000,8.33631689453125,-7.445566654205322,-3.7313077449798584,5.143372058868408
1701881409028909300,8.345909423828125,-7.39771032333374,-3.812962770462036,5.133800983428955
1701881409038502700,8.355502685546876,-7.373782157897949,-3.9326040744781494,5.131408214569092
1701881409048095000,8.365094970703124,-7.34267520904541,-3.923032760620117,5.013860702514648
1701881409057686500,8.3746865234375,-7.455138206481934,-3.820141315460205,4.891826629638672
1701881409067279000,8.384279052734374,-7.4240312576293945,-3.537489175796509,4.882255554199219
1701881409076872200,8.3938720703125,-7.340282440185547,-3.539881944656372,5.052444934844971
1701881409086464500,8.403464599609375,-7.083951473236084,-3.4250264167785645,5.0356950759887695
1701881409096056300,8.413056396484375,-7.251449108123779,-3.7648072242736816,5.071587562561035
1701881409105648600,8.422648681640625,-7.3304123878479,-3.7648072242736816,4.946861743927002
1701881409115242000,8.432241943359376,-7.414460182189941,-3.9804604053497314,5.047659397125244
1701881409124834300,8.441834228515624,-7.395317554473877,-4.040280818939209,4.997110843658447
1701881409134425900,8.45142578125,-7.388139247894287,-4.011567115783691,4.946861743927002
1701881409144018400,8.461018310546875,-7.337889671325684,-3.666701555252075,4.853541851043701
1701881409153611500,8.470611572265625,-7.378567695617676,-3.7145581245422363,5.047659397125244
1701881409163204000,8.4802041015625,-7.402495861053467,-3.695415496826172,5.088337421417236
1701881409172795600,8.489795654296875,-7.313662528991699,-3.6284165382385254,5.047659397125244
1701881409182388000,8.499387939453126,-7.287341594696045,-3.671487331390381,5.071587562561035
1701881409191981300,8.508981201171874,-7.246663570404053,-3.736093521118164,5.057230472564697
1701881409201573600,8.51857373046875,-7.272984504699707,-3.858426570892334,5.071587562561035
1701881409211165200,8.528165283203125,-7.345067977905273,-3.8919260501861572,5.066802024841309
1701881409220757800,8.5377578125,-7.359425067901611,-3.9254255294799805,5.064409255981445
1701881409230350800,8.547350830078125,-7.45992374420166,-4.04985237121582,5.172086238861084
1701881409239943200,8.556943115234375,-7.431210041046143,-3.946960926055908,5.069194793701172
1701881409249535000,8.566534912109375,-7.412067413330078,-3.841676712036133,5.004289627075195
1701881409259127300,8.576127197265626,-7.294519901275635,-3.7767715454101562,4.920540809631348
1701881409268720600,8.585720703125,-7.301698207855225,-3.7767715454101562,4.920540809631348
1701881409278313000,8.59531298828125,-7.34267520904541,-3.8030924797058105,4.9516472816467285
1701881409287904500,8.604904541015625,-7.388139247894287,-3.851248025894165,4.942076206207275
1701881409297497000,8.6144970703125,-7.464709281921387,-3.8488552570343018,4.963611602783203
1701881409307090200,8.624090087890625,-7.5173516273498535,-3.8057844638824463,4.954040050506592
1701881409316682500,8.6336826171875,-7.52213716506958,-3.8464624881744385,4.973182678222656
1701881409326274000,8.643274169921876,-7.4862446784973145,-3.9972102642059326,4.956432819366455
1701881409335866600,8.65286669921875,-7.435995578765869,-3.9565322399139404,4.853541851043701
1701881409345459700,8.662459716796874,-7.373782157897949,-3.9589250087738037,4.7937211990356445
1701881409355052300,8.67205224609375,-7.357032299041748,-4.016352653503418,4.741078853607178
1701881409364643800,8.681643798828125,-7.359425067901611,-4.028316974639893,4.662116050720215
1701881409374236400,8.691236328125,-7.414460182189941,-4.097708702087402,4.745864391326904
1701881409383829500,8.70082958984375,-7.388139247894287,-3.8225340843200684,4.664508819580078
1701881409393421800,8.710421875,-7.421638488769531,-3.8608193397521973,4.7697930335998535
1701881409403013400,8.720013427734376,-7.357032299041748,-3.7241294384002686,4.647758960723877
1701881409412606000,8.72960595703125,-7.388139247894287,-3.7648072242736816,4.7697930335998535
1701881409422199000,8.739198974609375,-7.495816230773926,-3.7887356281280518,4.803292274475098
1701881409431791400,8.748791259765625,-7.464709281921387,-3.889533281326294,4.733900547027588
1701881409441383200,8.758383056640625,-7.512565612792969,-3.8943188190460205,4.674079895019531
1701881409450975500,8.7679755859375,-7.500601768493652,-4.001996040344238,4.631009101867676
1701881409460568800,8.77756884765625,-7.462316513061523,-3.889533281326294,4.690829753875732
1701881409470161200,8.7871611328125,-7.464709281921387,-3.851248025894165,4.992325305938721
1701881409479752700,8.796752685546876,-7.407281398773193,-3.8703906536102295,5.042873859405518
1701881409489345300,8.80634521484375,-7.3304123878479,-3.9158542156219482,5.02133846282959
1701881409498938400,8.8159384765625,-7.354639530181885,-3.7887356281280518,4.925326347351074
1701881409508530700,8.82553076171875,-7.349853992462158,-3.7887356281280518,4.800899505615234
1701881409518122500,8.83512255859375,-7.40488862991333,-3.867997884750366,4.7004008293151855
1701881409527714800,8.84471484375,-7.491030216217041,-3.9421753883361816,4.674079895019531
1701881409537308200,8.85430810546875,-7.5652079582214355,-3.9637107849121094,4.690829753875732
1701881409546900500,8.863900390625,-7.608278751373291,-3.978067636489868,4.695615291595459
1701881409556492000,8.873491943359374,-7.608278751373291,-3.882354736328125,4.745864391326904
1701881409566084600,8.883084716796875,-7.5341010093688965,-3.889533281326294,4.765007019042969
1701881409575677700,8.892677734375,-7.493422985076904,-3.8249270915985107,4.84397029876709
1701881409585270000,8.90227001953125,-7.502994537353516,-3.8225340843200684,4.910969257354736
1701881409594861800,8.91186181640625,-7.455138206481934,-3.6068811416625977,4.829613208770752
1701881409604454100,8.9214541015625,-7.392924785614014,-3.7169508934020996,4.791328430175781
1701881409614047200,8.931047119140626,-7.4001030921936035,-3.767200231552124,4.791328430175781
1701881409623639800,8.940639892578124,-7.39053201675415,-3.8057844638824463,4.808077812194824
1701881409633231400,8.9502314453125,-7.378567695617676,-3.8799619674682617,4.848755836486816
1701881409642823700,8.95982373046875,-7.371389389038086,-3.899104595184326,4.90618371963501
1701881409652417000,8.9694169921875,-7.443173885345459,-3.954139471054077,5.001896858215332
1701881409662009300,8.97900927734375,-7.4001030921936035,-3.9732820987701416,4.944468975067139
1701881409671601000,8.988600830078125,-7.357032299041748,-3.798306941986084,4.939683437347412
1701881409681193500,8.998193359375,-7.366603374481201,-3.7408790588378906,4.9516472816467285
1701881409690786600,9.00778662109375,-7.368996620178223,-3.6930227279663086,4.937290191650391
1701881409700379000,9.01737890625,-7.416852951049805,-3.7145581245422363,4.973182678222656
1701881409709970700,9.026970703125,-7.354639530181885,-3.8057844638824463,4.884648323059082
1701881409719563000,9.03656298828125,-7.40488862991333,-3.812962770462036,4.9133620262146
1701881409729156400,9.04615625,-7.40488862991333,-3.8297126293182373,4.89900541305542
1701881409738748700,9.055748779296875,-7.469494819641113,-3.946960926055908,5.004289627075195
1701881409748340200,9.06534033203125,-7.383353233337402,-3.7959139347076416,4.846363067626953
1701881409757932800,9.074932861328126,-7.435995578765869,-3.690629720687866,4.982754230499268
1701881409767526000,9.08452587890625,-7.462316513061523,-3.7097723484039307,5.009075164794922
1701881409777118500,9.094118408203125,-7.471887588500977,-3.6068811416625977,4.930111885070801
1701881409786710000,9.1037099609375,-7.483851909637451,-3.578167200088501,4.882255554199219
1701881409796302300,9.11330224609375,-7.536494255065918,-3.7791643142700195,4.942076206207275
1701881409805895700,9.122895751953125,-7.543672561645508,-3.867997884750366,4.954040050506592
1701881409815488000,9.132488037109376,-7.5101728439331055,-4.135993957519531,5.052444934844971
1701881409825079600,9.14207958984375,-7.428816795349121,-3.9565322399139404,5.004289627075195
1701881409834672000,9.151672119140626,-7.347461223602295,-3.970889091491699,5.095515727996826
1701881409844265200,9.16126513671875,-7.2681989669799805,-3.7073795795440674,5.026124000549316
1701881409853857500,9.170857421875,-7.270591735839844,-3.6858441829681396,5.148158073425293
1701881409863449000,9.180448974609375,-7.232306480407715,-3.6619160175323486,5.0979084968566895
1701881409873041700,9.190041748046875,-7.265805721282959,-3.5590245723724365,5.073980331420898
1701881409882635000,9.199635009765625,-7.301698207855225,-3.5901312828063965,5.085944652557373
1701881409892227300,9.209227294921876,-7.357032299041748,-3.657130241394043,5.078765869140625
1701881409901819000,9.21881884765625,-7.445566654205322,-3.899104595184326,5.205585479736328
1701881409911411500,9.228411376953124,-7.491030216217041,-3.9326040744781494,5.179264545440674
1701881409921004500,9.238004638671875,-7.483851909637451,-3.8775691986083984,5.174479007720947
1701881409930596900,9.247596923828125,-7.414460182189941,-3.8847475051879883,5.186442852020264
1701881409940188400,9.2571884765625,-7.435995578765869,-3.8919260501861572,5.150550842285156
1701881409949781000,9.266781005859375,-7.428816795349121,-3.923032760620117,5.258227825164795
1701881409959374300,9.276374267578126,-7.419245719909668,-4.092923164367676,5.270191669464111
1701881409968966700,9.285966552734376,-7.261020183563232,-4.322634220123291,5.2630133628845215
1701881409978558200,9.29555810546875,-7.4001030921936035,-4.2987060546875,5.24626350402832
1701881409988150800,9.30515087890625,-7.383353233337402,-4.234099864959717,5.270191669464111
1701881409997743900,9.314743896484375,-7.320840835571289,-4.2556352615356445,5.205585479736328
1701881410007336200,9.324336181640625,-7.345067977905273,-4.198207378387451,5.133800983428955
1701881410016927700,9.333927734375,-7.407281398773193,-4.078566074371338,5.08355188369751
1701881410026520300,9.343520263671875,-7.251449108123779,-4.085744857788086,5.284548759460449
1701881410036113400,9.353113525390626,-7.361817836761475,-4.3657050132751465,5.255835056304932
1701881410045705700,9.362705810546874,-7.172485828399658,-4.665106773376465,5.401797294616699
1701881410055297500,9.372297607421874,-7.186842918395996,-4.739284515380859,5.291727066040039
1701881410064889900,9.381889892578124,-7.383353233337402,-5.574977874755859,4.044468402862549
1701881410074483200,9.391483154296875,-6.782455921173096,-4.571786880493164,6.529414653778076
1701881410084075500,9.401075439453125,-7.012166976928711,-4.96211576461792,5.61027193069458
1701881410093667000,9.4106669921875,-6.775277137756348,-5.029115200042725,5.054837703704834
1701881410103259600,9.420259765625,-6.914061069488525,-5.402395248413086,5.076373100280762
1701881410112852700,9.429852783203126,-6.842276573181152,-5.423930644989014,5.076373100280762
1701881410122445300,9.4394453125,-6.887740135192871,-5.5127644538879395,4.614259243011475
1701881410132036900,9.449036865234374,-6.9930243492126465,-6.972984313964844,3.903291940689087
1701881410141629200,9.458629150390625,-6.81595516204834,-7.645666599273682,3.4794633388519287
1701881410151222500,9.468222412109375,-6.921239376068115,-6.855735778808594,3.7833516597747803
1701881410160814800,9.47781494140625,-6.707979202270508,-5.802295684814453,4.690829753875732
1701881410170406400,9.487406494140625,-6.356234073638916,-5.285147190093994,5.667699337005615
1701881410179999000,9.4969990234375,-6.1573309898376465,-5.639584064483643,6.682555675506592
1701881410189592000,9.506592041015624,-6.0472612380981445,-6.065805435180664,6.79531717300415
1701881410199184400,9.516184326171874,-6.389733791351318,-5.91715145111084,7.405786037445068
1701881410208776200,9.525776123046874,-7.471887588500977,-5.644369602203369,7.814958572387695
1701881410218368500,9.535368408203125,-8.237890243530273,-5.388038158416748,7.199704170227051
1701881410227961600,9.544961669921875,-7.727920055389404,-6.190232276916504,5.875874996185303
1701881410237554200,9.55455419921875,-7.5412797927856445,-7.5978102684021,5.353940486907959
1701881410247145700,9.564145751953125,-7.701598644256592,-7.21735143661499,4.089931964874268
1701881410256738000,9.573738037109376,-5.613861083984375,-5.361717224121094,3.883850336074829
1701881410266331400,9.583331298828124,-6.5404815673828125,-6.527620315551758,6.52462911605835
1701881410275923700,9.592923828125,-5.901298999786377,-8.021638870239258,7.377072334289551
1701881410285515300,9.602515380859375,-8.798110008239746,-7.008876800537109,8.193324089050293
1701881410295107800,9.61210791015625,-7.895716667175293,-7.133303165435791,7.853542804718018
1701881410304701000,9.621700927734375,-7.613064289093018,-6.45822811126709,5.298905849456787
1701881410314293200,9.631293212890625,-9.075976371765137,-5.431109428405762,4.0181474685668945
1701881410323885000,9.640885009765626,-10.83559799194336,-6.38883638381958,6.270989894866943
1701881410333477400,9.650477294921876,-7.500601768493652,-5.639584064483643,5.499902725219727
1701881410343070700,9.66007080078125,-7.27537727355957,-5.9315080642700195,5.8734822273254395
1701881410352663000,9.6696630859375,-6.49980354309082,-5.673083305358887,8.20528793334961
1701881410362254600,9.679254638671875,-8.041678428649902,-5.804688453674316,8.813364028930664
1701881410371847200,9.68884716796875,-9.430113792419434,-4.703392028808594,7.4225358963012695
1701881410381440300,9.698440185546875,-9.389435768127441,-3.2838499546051025,6.017051696777344
1701881410391032600,9.708032470703126,-3.6987056732177734,-2.9700911045074463,5.408975601196289
1701881410400624400,9.717624267578126,0.6514459848403931,-3.4728829860687256,5.995516300201416
1701881410410216700,9.727216796875,1.1566306352615356,-4.416253089904785,7.63310432434082
1701881410419810000,9.73681005859375,0.6131607890129089,-5.86211633682251,9.572486877441406
1701881410429402400,9.74640234375,1.226022481918335,-5.73051118850708,9.65384292602539
1701881410438994000,9.755993896484375,1.8149559497833252,-5.07218599319458,9.608379364013672
1701881410448586500,9.76558642578125,1.8556339740753174,-4.133601188659668,9.639486312866211
1701881410458179600,9.7751796875,2.3751754760742188,-3.1615169048309326,9.82373332977295
1701881410467772000,9.78477197265625,2.4852454662323,-2.5031914710998535,9.938589096069336
1701881410477363700,9.79436376953125,2.104487419128418,-2.239981174468994,10.709675788879395
1701881410486956000,9.8039560546875,1.695314884185791,-1.7132610082626343,11.099705696105957
1701881410496549400,9.81354931640625,1.4198411703109741,-1.4593226909637451,11.229217529296875
1701881410506141700,9.8231416015625,1.5849459171295166,-1.4641083478927612,11.044671058654785
1701881410515733200,9.832733154296875,2.0518453121185303,-1.5720844268798828,10.355238914489746
1701881410525325800,9.842325927734375,2.540280342102051,-1.6941183805465698,9.457332611083984
1701881410534919000,9.8519189453125,2.9114668369293213,-1.8424733877182007,8.250751495361328
1701881410544511200,9.86151123046875,3.1268210411071777,-2.0338993072509766,7.111169815063477
1701881410554102800,9.871102783203124,3.440579891204834,-1.9812572002410889,6.211169242858887
1701881410563695400,9.8806953125,3.924229145050049,-1.4641083478927612,5.133800983428955
1701881410573288700,9.890288818359375,3.6798620223999023,0.48454657196998596,2.059622049331665
1701881410582881000,9.899881103515625,1.4605190753936768,1.1021939516067505,1.4994025230407715
1701881410592472600,9.90947265625,-0.7947162389755249,-0.39870408177375793,4.168895244598389
1701881410602065200,9.919065185546875,-2.42512583732605,-2.0554347038269043,6.100800514221191
1701881410611658200,9.928658203125,-1.3405789136886597,-2.1945173740386963,6.052944183349609
1701881410621250600,9.93825048828125,1.3265210390090942,-2.0650060176849365,6.1704912185668945
1701881410630842000,9.947842041015624,5.161916732788086,-2.3309082984924316,5.717948913574219
1701881410640434700,9.9574345703125,8.616554260253906,-2.100898265838623,4.475475788116455
1701881410650027800,9.96702783203125,11.776874542236328,-2.029113531112671,3.467499017715454
1701881410659620000,9.9766201171875,12.978670120239258,-1.9836499691009521,3.1130621433258057
1701881410669212000,9.9862119140625,12.490235328674316,-1.2080763578414917,2.9694929122924805
1701881410678804200,9.99580419921875,13.122239112854004,-0.8392825126647949,3.0173492431640625
1701881410688397600,10.0053974609375,12.9954195022583,-0.4250251352787018,2.3279173374176025
1701881410697990000,10.014989990234374,12.435199737548828,-0.8321040868759155,2.378166675567627
1701881410707581400,10.02458154296875,13.608281135559082,-1.1003992557525635,2.011765718460083
1701881410717174000,10.034174072265625,14.180464744567871,-0.5066801905632019,1.1261221170425415
1701881410726767000,10.04376708984375,13.610673904418945,0.7073782086372375,0.1899302899837494
1701881410736359400,10.053359375,13.272987365722656,1.2532408237457275,0.8841479420661926
1701881410745951200,10.062951171875,12.676875114440918,1.3728820085525513,1.7916259765625
1701881410755543600,10.07254345703125,12.004193305969238,1.5284154415130615,2.052443504333496
1701881410765137000,10.082136962890624,11.41525936126709,1.609771490097046,1.9663020372390747
1701881410774729200,10.091729248046875,11.235797882080078,1.578664779663086,2.026122570037842
1701881410784320800,10.10132080078125,11.537293434143066,1.173978567123413,2.550449848175049
1701881410793913300,10.110913330078125,11.5014009475708,0.7935197949409485,3.3933215141296387
1701881410803506400,10.12050634765625,10.9028959274292,0.47258245944976807,4.0803608894348145
1701881410813099000,10.13009912109375,10.069894790649414,0.45104706287384033,4.549653053283691
1701881410822690600,10.139690673828126,9.55513858795166,0.7360920906066895,5.040481090545654
1701881410832283000,10.149282958984376,9.073882102966309,0.9586246013641357,5.627021312713623
1701881410841876200,10.158876220703124,8.874979019165039,1.1285150051116943,5.830411434173584
1701881410851468500,10.168468505859375,8.784051895141602,0.870090126991272,5.605485916137695
1701881410861060000,10.17806005859375,8.86780071258545,0.4414757788181305,5.210371494293213
1701881410870652400,10.18765234375,9.404091835021973,-0.08045866340398788,5.241477966308594
1701881410880245800,10.197245849609375,9.92841911315918,-0.1785643845796585,5.356333255767822
1701881410889838000,10.206838134765626,10.136894226074219,0.4941178858280182,5.013860702514648
1701881410899429600,10.2164296875,9.885348320007324,1.0184451341629028,5.057230472564697
1701881410909022200,10.226022216796874,9.741779327392578,1.028016448020935,5.420939922332764
1701881410918615300,10.235615234375,10.263713836669922,1.7437695264816284,4.537689208984375
1701881410928208000,10.245207763671875,9.942776679992676,1.1093723773956299,4.602295398712158
1701881410937799400,10.25479931640625,9.229415893554688,0.6882356405258179,4.745864391326904
1701881410947391700,10.264391845703125,8.427521705627441,0.5204389095306396,4.717150688171387
1701881410956985000,10.273985107421876,7.879265785217285,0.486939400434494,4.858327388763428
1701881410966577400,10.283577392578126,7.58943510055542,0.5970092415809631,4.944468975067139
1701881410976169000,10.2931689453125,7.840980529785156,1.2675977945327759,4.314857482910156
1701881410985761500,10.302761474609374,8.106583595275879,1.669592022895813,3.639782428741455
1701881410995354600,10.312354736328125,7.951050758361816,1.5236297845840454,3.266202926635742
1701881411004947200,10.321947265625,7.503293514251709,1.552343726158142,2.7732813358306885
1701881411014538800,10.331538818359375,7.091429233551025,1.705484390258789,2.332702875137329
1701881411024131000,10.341131103515625,6.681957244873047,1.8804595470428467,2.1577277183532715
1701881411033724400,10.350724365234376,6.7779693603515625,1.7509479522705078,2.708376169204712
1701881411043316700,10.360316650390626,8.614161491394043,1.0854442119598389,4.398606300354004
1701881411052908300,10.369908203125,9.971489906311035,0.8988040089607239,5.157729148864746
1701881411062500900,10.3795009765625,10.778470039367676,0.8916255235671997,4.585545539855957
1701881411072094000,10.389093994140625,10.800004959106445,0.9299107193946838,3.960719585418701
1701881411081686500,10.3986865234375,10.409675598144531,0.9777671694755554,3.685245990753174
1701881411091278000,10.408278076171875,10.211071968078613,1.1309077739715576,3.326023578643799
1701881411100870400,10.417870361328125,9.961918830871582,1.1213364601135254,3.0939197540283203
1701881411110463700,10.427463623046876,9.830313682556152,1.0088738203048706,3.0340991020202637
1701881411120056000,10.43705615234375,9.777671813964844,1.1093723773956299,2.837887763977051
