time,seconds_elapsed,z,y,x
1701857384779782400,0.166782470703125,8.097012519836426,7.408178806304932,-1.4261223077774048
1701857384789375200,0.176375244140625,8.583054542541504,6.759424686431885,-0.41096729040145874
1701857384798967300,0.18596728515625,8.865407943725586,6.148955821990967,0.5706881880760193
1701857384808560400,0.195560302734375,8.788837432861328,6.022136211395264,1.0085747241973877
1701857384818154000,0.205154052734375,8.345866203308105,6.148955821990967,1.2337992191314697
1701857384827746800,0.214746826171875,7.792825222015381,6.177670001983643,1.0950154066085815
1701857384837339100,0.224339111328125,7.1488566398620605,6.058028697967529,0.747757077217102
1701857384846932000,0.233931884765625,7.144071102142334,6.034100532531738,0.07507480680942535
1701857384856525800,0.24352587890625,7.347760200500488,6.103492259979248,-0.494716078042984
1701857384866118700,0.25311865234375,7.8433732986450195,6.5512495040893555,-1.2394821643829346
1701857384875710700,0.262710693359375,8.269295692443848,7.015756130218506,-2.1562323570251465
1701857384885303800,0.2723037109375,7.036394119262695,6.642176628112793,-2.0054845809936523
1701857384894897400,0.2818974609375,4.496412754058838,6.527320861816406,-1.8116658926010132
1701857384904490500,0.291490478515625,3.2177481651306152,6.725925445556641,-2.1227328777313232
1701857384914082600,0.30108251953125,3.1746773719787598,7.03489875793457,-1.9049859046936035
1701857384923675400,0.31067529296875,4.067798614501953,7.152146816253662,-1.6534404754638672
1701857384933269200,0.320269287109375,5.260022163391113,6.989434719085693,-1.674975872039795
1701857384942862000,0.329862060546875,5.875277042388916,7.164111137390137,-2.3192434310913086
1701857384952454100,0.3394541015625,5.762814044952393,7.626224994659424,-2.855534791946411
1701857384962047000,0.349046875,5.583352565765381,7.946863174438477,-2.96321177482605
1701857384971640800,0.358640869140625,5.420341491699219,8.047660827636719,-2.3575284481048584
1701857384981233700,0.368233642578125,5.434698581695557,7.94207763671875,-1.7156537771224976
1701857384990825700,0.37782568359375,5.023132801055908,7.870292663574219,-0.9209375977516174
1701857385000418800,0.387418701171875,5.068596363067627,7.609475135803223,-0.19561325013637543
1701857385010012400,0.397012451171875,5.43709135055542,7.03489875793457,-0.0062811593525111675
1701857385019605200,0.406605224609375,6.045167446136475,6.960721015930176,-0.11904292553663254
1701857385029197600,0.416197509765625,6.55992317199707,7.16650390625,-0.2626122832298279
1701857385038790400,0.425790283203125,7.086643218994141,7.262216567993164,-0.25304099917411804
1701857385048384300,0.43538427734375,7.331010341644287,7.1162543296813965,-0.054436713457107544
1701857385057977000,0.44497705078125,7.283154010772705,6.936792850494385,0.1779661774635315
1701857385067569200,0.454569091796875,7.429116249084473,6.905686378479004,0.22103698551654816
1701857385077162200,0.464162353515625,7.517650604248047,6.855137825012207,0.2593221664428711
1701857385086755800,0.473755859375,7.244569778442383,6.716353893280029,0.008075776509940624
1701857385096348700,0.4833486328125,6.727719783782959,6.804888725280762,-0.4181457459926605
1701857385105940700,0.492940673828125,6.037988662719727,7.0061845779418945,-0.6816553473472595
1701857385115533800,0.502533935546875,5.343770980834961,7.144968509674072,-0.8228318691253662
1701857385125127400,0.51212744140625,4.6974101066589355,7.22871732711792,-0.8204390406608582
1701857385134720300,0.52172021484375,4.247260093688965,7.324429988861084,-0.724726140499115
1701857385144312600,0.5313125,4.1347975730896,7.511369228363037,-0.7366902828216553
1701857385153905400,0.540905517578125,4.342973232269287,7.642974853515625,-0.9329017400741577
1701857385163499300,0.550499267578125,4.8792643547058105,7.609475135803223,-1.2418749332427979
1701857385173092000,0.560092041015625,5.50648307800293,7.357929706573486,-1.0166505575180054
1701857385182684200,0.56968408203125,6.425925254821777,7.171289443969727,-0.5808576941490173
1701857385192277200,0.57927734375,7.246962547302246,7.037291526794434,-0.11186445504426956
1701857385201870800,0.588870849609375,7.65164852142334,7.0755767822265625,-0.0062811593525111675
1701857385211463700,0.598463623046875,7.811967849731445,7.118647575378418,-0.14775680005550385
1701857385221056000,0.608055908203125,7.752147197723389,7.197610378265381,-0.0568295381963253
1701857385230648800,0.61764892578125,7.682755470275879,7.171289443969727,0.12771691381931305
1701857385240242700,0.62724267578125,7.587042331695557,6.943971157073975,0.16121642291545868
1701857385249835500,0.63683544921875,7.496115207672119,6.797709941864014,0.1372881978750229
1701857385259427600,0.646427490234375,7.701898097991943,6.785746097564697,0.020039889961481094
1701857385269020400,0.6560205078125,7.929515361785889,6.785746097564697,0.010468599386513233
1701857385278614300,0.6656142578125,8.106583595275879,6.773781776428223,-0.06161518394947052
1701857385288207000,0.67520703125,8.20229721069336,6.79531717300415,-0.09272187948226929
1701857385297799200,0.684799072265625,8.025228500366211,6.881757736206055,-0.030209386721253395
1701857385307392300,0.694392333984375,7.802396297454834,6.977470874786377,0.11096715182065964
1701857385316985900,0.70398583984375,7.742575645446777,7.056434154510498,0.22821545600891113
1701857385326579000,0.713578857421875,7.627720355987549,7.04207706451416,0.4004986882209778
1701857385336171000,0.7231708984375,7.754539966583252,6.955935478210449,0.48424747586250305
1701857385345763800,0.732763916015625,8.147261619567871,6.915257453918457,0.45553362369537354
1701857385355357700,0.742357666015625,7.855337619781494,6.955935478210449,0.6735795736312866
1701857385364950500,0.751950439453125,7.285546779632568,6.9583282470703125,0.8171489238739014
1701857385374542600,0.76154248046875,6.969395160675049,6.941578388214111,0.8530412912368774
1701857385384135700,0.7711357421875,6.430710792541504,6.932007312774658,0.8817551732063293
1701857385393729300,0.780729248046875,5.8250274658203125,6.994220733642578,1.073180913925171
1701857385403322000,0.790322021484375,5.4179487228393555,7.11146879196167,1.2409776449203491
1701857385412914400,0.79991455078125,5.193023204803467,7.171289443969727,1.2385848760604858
1701857385422507300,0.80950732421875,5.059025287628174,7.154539585113525,1.0109676122665405
1701857385432101000,0.81910107421875,5.020740032196045,7.178467750549316,0.7692924737930298
1701857385441694000,0.82869384765625,5.116453170776367,7.161718368530273,0.4411766827106476
1701857385451286000,0.8382861328125,5.248058319091797,7.054041385650635,0.2880360186100006
1701857385460879000,0.847879150390625,5.62163782119751,6.991827964782715,0.2186441719532013
1701857385470472700,0.85747265625,6.045167446136475,6.898507595062256,0.09900303930044174
1701857385480065500,0.8670654296875,6.669992923736572,6.728318214416504,0.020039889961481094
1701857385489657600,0.87665771484375,7.299903869628906,6.582355976104736,-0.027816563844680786
1701857385499250700,0.886250732421875,7.699504852294922,6.429215431213379,-0.032602209597826004
1701857385508844300,0.89584423828125,8.080263137817383,6.282954216003418,0.13968102633953094
1701857385518437400,0.905437255859375,8.441878318786621,6.158527374267578,0.481854647397995
1701857385528029400,0.915029541015625,8.793622970581055,6.141777515411377,0.9774680733680725
1701857385537622500,0.92462255859375,8.891729354858398,6.208776473999023,1.2936197519302368
1701857385547216100,0.934216064453125,8.695517539978027,6.294918060302734,1.2026925086975098
1701857385556809000,0.94380908203125,8.477770805358887,6.388537406921387,1.0157532691955566
1701857385566401000,0.953401123046875,8.228617668151855,6.429215431213379,0.8506484627723694
1701857385575994000,0.962994140625,8.094619750976562,6.429215431213379,0.7214360237121582
1701857385585587700,0.972587646484375,8.142476081848145,6.364609241485596,0.8243274092674255
1701857385595180800,0.982180908203125,8.286046028137207,6.302395820617676,1.1045867204666138
1701857385604772900,0.99177294921875,8.489734649658203,6.189633846282959,1.3677972555160522
1701857385614365700,1.00136572265625,8.62612533569336,6.079564094543457,1.6983058452606201
1701857385623959600,1.01095947265625,8.664410591125488,6.120242118835449,1.9591234922409058
1701857385633552400,1.020552490234375,8.669196128845215,6.160920143127441,2.0069799423217773
1701857385643144400,1.03014453125,8.635697364807129,6.192026615142822,1.9256240129470825
1701857385652737500,1.039737548828125,8.525627136230469,6.244668960571289,1.7581263780593872
1701857385662331100,1.0493310546875,8.532805442810059,6.27577543258667,1.7341982126235962
1701857385671924000,1.058924072265625,8.602197647094727,6.290132522583008,1.784447431564331
1701857385681516300,1.068516357421875,8.623732566833496,6.273382663726807,1.7700905799865723
1701857385691109000,1.078109130859375,8.590232849121094,6.280561447143555,1.8705891370773315
1701857385700703000,1.087702880859375,8.489734649658203,6.307181358337402,2.1266210079193115
1701857385710295800,1.0972958984375,8.166404724121094,6.352644920349121,2.5313072204589844
1701857385719888000,1.106887939453125,7.742575645446777,6.402894496917725,2.785245656967163
1701857385729481000,1.11648095703125,7.256833076477051,6.512964248657227,2.8211379051208496
1701857385739074600,1.126074462890625,6.7779693603515625,6.572784900665283,2.732304334640503
1701857385748667400,1.13566748046875,6.4426751136779785,6.572784900665283,2.6916263103485107
1701857385758259700,1.145259765625,6.27278470993042,6.529714107513428,2.6270201206207275
1701857385767852500,1.1548525390625,6.265605926513672,6.51535701751709,2.5145576000213623
1701857385777446400,1.1644462890625,6.4115681648254395,6.46032190322876,2.426023006439209
1701857385787039200,1.174039306640625,6.662814617156982,6.426822662353516,2.268096685409546
1701857385796631300,1.18363134765625,7.06271505355835,6.450750827789307,2.1194427013397217
1701857385806224400,1.193224365234375,7.498507976531982,6.419643878936768,2.052443504333496
1701857385815818000,1.20281787109375,7.850552082061768,6.359823703765869,2.076371908187866
1701857385825411000,1.2124111328125,8.094619750976562,6.2638115882873535,2.1744775772094727
1701857385835003100,1.222003173828125,8.142476081848145,6.211169242858887,2.251347064971924
1701857385844596000,1.231595947265625,8.125726699829102,6.19920539855957,2.299203395843506
1701857385854189800,1.24118994140625,7.900801181793213,6.189633846282959,2.246561288833618
1701857385863782700,1.25078271484375,7.543971538543701,6.294918060302734,1.9663020372390747
1701857385873374700,1.260374755859375,7.2110700607299805,6.343073844909668,1.700698733329773
1701857385882967800,1.2699677734375,6.9598236083984375,6.374180316925049,1.3606188297271729
1701857385892561400,1.2795615234375,6.981359004974365,6.367002010345459,1.2266206741333008
1701857385902154200,1.289154296875,7.2711896896362305,6.285346984863281,1.1907284259796143
1701857385911746600,1.29874658203125,7.467401027679443,6.235097408294678,1.2481560707092285
1701857385921339400,1.30833935546875,7.606184959411621,6.273382663726807,1.272084355354309
1701857385930933200,1.317933349609375,7.7593255043029785,6.309574127197266,1.3055838346481323
1701857385940526000,1.327526123046875,7.8194451332092285,6.282954216003418,1.1979068517684937
1701857385950118100,1.3371181640625,7.9606218338012695,6.266204357147217,1.231406331062317
1701857385959711200,1.346711181640625,8.331509590148926,5.924030780792236,1.456331729888916
1701857385969304800,1.356304931640625,8.6907320022583,6.110671043395996,1.5520446300506592
1701857385978897700,1.365897705078125,8.858229637145996,6.280561447143555,1.2266206741333008
1701857385988490000,1.375489990234375,8.211868286132812,5.9575300216674805,1.1596217155456543
1701857385998082800,1.385082763671875,7.273582458496094,5.945566177368164,1.3103694915771484
1701857386007676700,1.3946767578125,7.144071102142334,6.259026050567627,1.334297776222229
1701857386017269500,1.40426953125,7.065107822418213,6.278168201446533,1.9902302026748657
1701857386026861600,1.413861572265625,6.79950475692749,6.46032190322876,2.138585329055786
1701857386036454700,1.42345458984375,6.394818305969238,6.498607158660889,1.9184455871582031
1701857386046048300,1.43304833984375,5.899205207824707,6.4579291343688965,1.602293848991394
1701857386055641000,1.44264111328125,5.604887962341309,6.4651079177856445,1.334297776222229
1701857386065233400,1.4522333984375,5.892026424407959,6.443572044372559,1.2409776449203491
1701857386074826500,1.461826416015625,6.885646343231201,6.294918060302734,1.35822594165802
1701857386084420000,1.471420166015625,7.929515361785889,6.153741836547852,1.2744771242141724
1701857386094013000,1.481012939453125,8.63330364227295,6.000600814819336,1.2768700122833252
1701857386103605000,1.49060498046875,8.939884185791016,6.034100532531738,1.1261221170425415
1701857386113198000,1.500197998046875,8.752944946289062,5.900102615356445,1.4539388418197632
1701857386122791700,1.509791748046875,8.700303077697754,6.141777515411377,1.4300106763839722
1701857386132384800,1.519384765625,8.537590980529785,6.33589506149292,1.3821542263031006
1701857386141976800,1.528976806640625,8.120941162109375,6.4340009689331055,1.4395818710327148
1701857386151570000,1.53856982421875,7.658827304840088,6.326323986053467,1.5807584524154663
1701857386161163500,1.54816357421875,7.321439266204834,6.192026615142822,1.5568302869796753
1701857386170756400,1.55775634765625,6.969395160675049,6.165705680847168,1.3462618589401245
1701857386180348700,1.5673486328125,6.665207386016846,6.345466613769531,1.1979068517684937
1701857386189941500,1.57694140625,6.413960933685303,6.5081787109375,1.173978567123413
1701857386199535000,1.58653515625,6.267998695373535,6.450750827789307,1.4611172676086426
1701857386209128200,1.596128173828125,6.265605926513672,6.364609241485596,2.0093727111816406
1701857386218720300,1.60572021484375,6.339783668518066,6.436393737792969,2.3973093032836914
1701857386228313300,1.615313232421875,6.27278470993042,6.498607158660889,2.5552353858947754
1701857386237907000,1.624906982421875,6.0762739181518555,6.556035041809082,2.4379870891571045
1701857386247500000,1.6345,6.069095611572266,6.579963207244873,2.3350958824157715
1701857386257092000,1.644092041015625,6.018846035003662,6.512964248657227,2.236989974975586
1701857386266685000,1.653684814453125,5.8010993003845215,6.548856258392334,2.184048891067505
1701857386276278800,1.66327880859375,5.6288161277771,6.668497562408447,2.339881420135498
1701857386285871600,1.67287158203125,5.592923641204834,6.730710983276367,2.741875648498535
1701857386295463700,1.682463623046875,5.551946640014648,6.654140472412109,3.184846878051758
1701857386305056800,1.692056884765625,5.640780448913574,6.5991058349609375,3.599104404449463
1701857386314650400,1.701650390625,5.930311679840088,6.63978385925293,3.766602039337158
1701857386324243200,1.7112431640625,6.246463298797607,6.723532676696777,3.843172311782837
1701857386333835500,1.72083544921875,6.543173313140869,6.716353893280029,3.8814573287963867
1701857386343428400,1.730428466796875,6.495316982269287,6.663712024688721,3.975076675415039
1701857386353022200,1.740022216796875,6.366104602813721,6.718746662139893,3.96789813041687
1701857386362615000,1.749614990234375,6.222535133361816,6.819245338439941,3.7474594116210938
1701857386372207000,1.75920703125,6.030810356140137,6.939185619354248,3.575176239013672
1701857386381801500,1.768801513671875,5.915955066680908,7.018148899078369,3.4866416454315186
1701857386391392300,1.778392333984375,5.978168487548828,6.97268533706665,3.6421751976013184
1701857386400985300,1.7879853515625,6.186643123626709,6.953542709350586,3.654139280319214
1701857386410577400,1.797577392578125,6.514459609985352,6.912864685058594,3.567997694015503
1701857386420170500,1.80717041015625,6.730112552642822,6.852745056152344,3.3430724143981934
1701857386429764000,1.81676416015625,6.93110990524292,6.778567314147949,3.1250264644622803
1701857386439357000,1.82635693359375,7.069893836975098,6.632605075836182,2.967100143432617
1701857386448949200,1.83594921875,7.141678333282471,6.52253532409668,2.7900311946868896
1701857386458542000,1.8455419921875,7.189534664154053,6.512964248657227,2.581556558609009
1701857386468136000,1.855135986328125,7.338188648223877,6.443572044372559,2.5648066997528076
1701857386477728800,1.864728759765625,7.491329669952393,6.405287265777588,2.6102705001831055
1701857386487320800,1.87432080078125,7.563114166259766,6.417251110076904,2.526521682739258
1701857386496914000,1.883913818359375,7.754539966583252,6.378965854644775,2.48105788230896
1701857386506507500,1.893507568359375,7.994121551513672,6.307181358337402,2.5313072204589844
1701857386516100400,1.903100341796875,8.125726699829102,6.247061729431152,2.6485555171966553
1701857386525692700,1.912692626953125,8.120941162109375,6.247061729431152,2.734697103500366
1701857386535285500,1.922285400390625,8.07069206237793,6.21356201171875,2.756232500076294
1701857386544879400,1.93187939453125,8.04676342010498,6.153741836547852,2.825923442840576
1701857386554472200,1.94147216796875,8.118548393249512,6.079564094543457,3.0963125228881836
1701857386564064300,1.951064208984375,8.056334495544434,6.065207004547119,3.3020951747894287
1701857386573657300,1.9606572265625,7.931908130645752,6.13699197769165,3.4387853145599365
1701857386583251000,1.9702509765625,7.716254711151123,6.192026615142822,3.3837504386901855
1701857386592844000,1.979843994140625,7.491329669952393,6.172883987426758,3.2518460750579834
1701857386602436000,1.98943603515625,7.345367431640625,6.103492259979248,3.1178479194641113
1701857386612029200,1.999029296875,7.287939548492432,6.0508503913879395,3.060420274734497
1701857386621622800,2.008622802734375,7.350152969360352,6.026922225952148,2.9790642261505127
1701857386631215600,2.018215576171875,7.4602227210998535,5.969494342803955,2.9168508052825928
1701857386640808000,2.027807861328125,7.610970497131348,5.9407806396484375,2.809173822402954
1701857386650400800,2.03740087890625,7.83619499206543,5.8474602699279785,2.854637384414673
1701857386659994600,2.04699462890625,8.0324068069458,5.804389476776123,2.9694929122924805
1701857386669587500,2.05658740234375,8.187939643859863,5.758925914764404,2.9694929122924805
1701857386679179500,2.066179443359375,8.235795974731445,5.694020748138428,2.794816732406616
1701857386688772600,2.075772705078125,8.427521705627441,5.5360941886901855,2.4595224857330322
1701857386698366200,2.0853662109375,8.72183895111084,5.301597595214844,2.1194427013397217
1701857386707959300,2.094959228515625,8.927620887756348,5.0979084968566895,1.578365683555603
1701857386717551400,2.10455126953125,9.27727222442627,4.9878387451171875,0.4914259612560272
1701857386727144200,2.114144287109375,9.698708534240723,4.683950424194336,-0.28654050827026367
1701857386736738000,2.123738037109375,9.854242324829102,3.9152560234069824,0.010468599386513233
1701857386746331000,2.133330810546875,9.902098655700684,3.0320053100585938,0.5491527915000916
1701857386755923200,2.142923095703125,9.904491424560547,2.0670995712280273,1.1859427690505981
1701857386765516000,2.15251611328125,9.753743171691895,1.173978567123413,1.8921245336532593
1701857386775109600,2.162109619140625,9.53360366821289,0.26440688967704773,2.4475584030151367
1701857386784702700,2.17170263671875,9.066703796386719,-0.5545366406440735,2.710768938064575
1701857386794294800,2.181294677734375,8.609375953674316,-1.2056834697723389,2.708376169204712
1701857386803887900,2.190887939453125,7.917551040649414,-1.5263217687606812,2.8522446155548096
1701857386813481500,2.2004814453125,6.457031726837158,-1.5502499341964722,3.266202926635742
1701857386823074300,2.21007421875,4.505984306335449,-1.423430323600769,3.4603207111358643
1701857386832666600,2.21966650390625,2.5546371936798096,-1.2631112337112427,3.93679141998291
1701857386842259500,2.229259521484375,0.8404789566993713,-0.9589236974716187,4.5185465812683105
1701857386851853300,2.238853271484375,-0.8353942036628723,-0.4731806814670563,4.791328430175781
1701857386861446100,2.248446044921875,-2.144866466522217,-0.2192423790693283,5.823233127593994
1701857386871038200,2.2580380859375,-2.8223342895507812,0.1782652884721756,7.307680130004883
1701857386880631300,2.26763134765625,-2.9159533977508545,0.716949462890625,8.394619941711426
1701857386890225000,2.277224853515625,-2.654836654663086,1.2242279052734375,9.438189506530762
1701857386899818000,2.28681787109375,-2.0324037075042725,1.5236297845840454,9.974481582641602
1701857386909410000,2.29641015625,-1.2065808773040771,1.8254245519638062,9.873982429504395
1701857386919003100,2.306003173828125,-0.6942176818847656,1.9713867902755737,9.308977127075195
1701857386928596700,2.3155966796875,-0.5479564070701599,1.6863417625427246,8.552546501159668
1701857386938189600,2.325189453125,-0.6894320249557495,1.4039887189865112,8.126324653625488
1701857386947782000,2.334781982421875,-1.0316057205200195,1.0064810514450073,7.877471446990967
1701857386957374700,2.344374755859375,-1.618146300315857,0.5180460810661316,7.010671138763428
1701857386966968600,2.353968505859375,-2.458625316619873,-0.17138592898845673,5.854339599609375
1701857386976561400,2.3635615234375,-3.3538401126861572,-1.3803595304489136,5.205585479736328
1701857386986153500,2.373153564453125,-3.3705897331237793,-2.730808734893799,5.509474277496338
1701857386995746600,2.38274658203125,-2.6572296619415283,-4.001996040344238,6.26859712600708
1701857387005340200,2.392340087890625,-3.648456335067749,-4.993222713470459,11.142776489257812
1701857387014933200,2.401933349609375,-17.129619598388672,-3.3723843097686768,25.619951248168945
1701857387024525300,2.411525390625,-26.50499725341797,0.45583271980285645,22.916959762573242
1701857387034118400,2.421118408203125,-21.31675910949707,2.2178475856781006,11.712567329406738
1701857387043712000,2.4307119140625,-24.30718994140625,3.28564453125,7.937291622161865
1701857387053304800,2.440304931640625,-15.295819282531738,2.6392834186553955,2.560021162033081
1701857387062897200,2.449897216796875,-10.035797119140625,-1.5550355911254883,2.315953254699707
1701857387072490000,2.459489990234375,-5.092225551605225,-6.187839508056641,8.442476272583008
1701857387082083800,2.469083740234375,-0.6942176818847656,-6.6954169273376465,17.20948028564453
1701857387091676700,2.4786767578125,2.281855583190918,-6.56829833984375,22.328025817871094
1701857387101268700,2.488268798828125,1.599302887916565,-5.376074314117432,20.060827255249023
1701857387110861800,2.49786181640625,-0.9430712461471558,-7.408777236938477,19.55085563659668
1701857387120455400,2.507455322265625,3.4980075359344482,-7.468597888946533,16.46022605895996
1701857387130048500,2.517048583984375,3.222533941268921,-3.6140594482421875,7.3675007820129395
1701857387139640600,2.526640625,-1.3381860256195068,-3.611666679382324,5.416153907775879
1701857387149233700,2.536233642578125,-2.80558443069458,-4.100101470947266,6.790531635284424
1701857387158827300,2.5458271484375,-3.6843485832214355,-4.1623148918151855,6.534200668334961
1701857387168420000,2.555420166015625,-4.304388999938965,-3.9278182983398438,6.057729721069336
1701857387178012400,2.565012451171875,-4.4982075691223145,-3.975674867630005,6.052944183349609
1701857387187605200,2.574605224609375,-4.349852561950684,-4.202992916107178,6.426523208618164
1701857387197199000,2.58419921875,-3.617349624633789,-4.4976091384887695,6.1103715896606445
1701857387206792000,2.5937919921875,-4.007678985595703,-4.9501519203186035,6.259026050567627
1701857387216384000,2.603384033203125,-5.793622016906738,-3.9349968433380127,5.95962381362915
1701857387225977000,2.61297705078125,-5.331508159637451,-2.9413771629333496,4.757828712463379
1701857387235570700,2.62257080078125,-4.563112735748291,-4.092923164367676,6.433701992034912
1701857387245163800,2.632163818359375,-4.534399032592773,-2.302194595336914,8.021040916442871
1701857387254755800,2.641755859375,-0.8377870321273804,-2.402693033218384,5.954838275909424
1701857387264349000,2.651348876953125,-0.1579262912273407,-4.25084924697876,6.361917018890381
1701857387273942500,2.660942626953125,-2.693121910095215,-4.925924301147461,6.773781776428223
1701857387283535400,2.670535400390625,-4.979464054107666,-5.376074314117432,4.4512481689453125
1701857387293127700,2.680127685546875,-4.800002098083496,-6.130411624908447,4.4874396324157715
1701857387302720500,2.689720458984375,0.5341976284980774,-7.332206726074219,5.682056427001953
1701857387312314400,2.699314453125,-0.8904291391372681,-5.874080657958984,6.052944183349609
1701857387321907200,2.7089072265625,-4.34745979309082,-7.207779884338379,8.320143699645996
1701857387331499300,2.718499267578125,-1.9007984399795532,-9.955936431884766,11.00877857208252
1701857387341092400,2.72809228515625,-0.32542386651039124,-11.718250274658203,12.16511058807373
1701857387350686000,2.73768603515625,-2.5088746547698975,-14.258232116699219,11.147562026977539
1701857387360278800,2.74727880859375,-5.111368179321289,-16.741085052490234,8.962018013000488
1701857387369871000,2.75687109375,-6.56919527053833,-17.820547103881836,7.16859769821167
1701857387379464200,2.766464111328125,-5.767300605773926,-15.01705551147461,4.949254512786865
1701857387389057800,2.776057861328125,-5.671587944030762,-9.510871887207031,-1.404586911201477
1701857387398650600,2.785650634765625,-3.4570305347442627,-3.5494532585144043,2.323131799697876
1701857387408243000,2.795242919921875,-1.8529419898986816,-3.865604877471924,5.08355188369751
1701857387417835800,2.804835693359375,-0.7755736112594604,-4.2006001472473145,3.8383865356445312
1701857387427429600,2.8144296875,-1.40279221534729,-5.634798049926758,3.4938201904296875
1701857387437022500,2.8240224609375,-1.2711870670318604,-7.150053024291992,4.688436985015869
1701857387446614500,2.833614501953125,-1.7380865812301636,-7.739285945892334,5.682056427001953
1701857387456207600,2.84320751953125,-1.7572290897369385,-8.70628547668457,6.522236347198486
1701857387465801200,2.85280126953125,-2.911167860031128,-9.434301376342773,6.189633846282959
1701857387475394000,2.86239404296875,-3.6675989627838135,-9.661619186401367,4.6525444984436035
1701857387484986400,2.871986328125,-2.4634108543395996,-9.644869804382324,3.733102321624756
1701857387494579200,2.8815791015625,-2.757728099822998,-9.958329200744629,2.9216363430023193
1701857387504173000,2.891173095703125,-3.01405930519104,-9.142078399658203,2.6054847240448
1701857387513766000,2.900765869140625,-2.975774049758911,-9.003293991088867,1.9304096698760986
1701857387523358000,2.91035791015625,-2.6763720512390137,-9.099007606506348,1.9280169010162354
1701857387532951000,2.919950927734375,-3.148057222366333,-9.142078399658203,1.9902302026748657
1701857387542545000,2.929544921875,-3.327518939971924,-9.27129077911377,2.363809585571289
1701857387552137700,2.9391376953125,-4.072285175323486,-10.650453567504883,2.4212374687194824
1701857387561729800,2.948729736328125,-3.974179267883301,-12.563216209411621,3.869493246078491
1701857387571323000,2.958322998046875,-1.812264084815979,-11.825927734375,5.95962381362915
1701857387580916500,2.96791650390625,-1.4051851034164429,-10.590633392333984,7.053741931915283
1701857387590509600,2.977509521484375,-0.6990033388137817,-10.20030403137207,7.458428382873535
1701857387600101600,2.9871015625,-0.6559324860572815,-10.078269958496094,6.416952133178711
1701857387609694500,2.996694580078125,-1.414756417274475,-8.792427062988281,2.213061809539795
1701857387619288300,3.006288330078125,-1.6468602418899536,-8.270492553710938,1.3007981777191162
1701857387628881200,3.015881103515625,-1.7548363208770752,-7.571488857269287,1.0636097192764282
1701857387638473200,3.02547314453125,-2.4299113750457764,-0.7148557901382446,0.9104689955711365
1701857387648066300,3.03506640625,-14.110774040222168,13.64746379852295,-6.221638202667236
1701857387657660200,3.04466015625,-3.6915271282196045,1.6456637382507324,-3.7818562984466553
1701857387667253000,3.0542529296875,1.2092727422714233,-0.6143572330474854,-0.5593222975730896
1701857387676845000,3.063844970703125,-2.95902419090271,0.07507480680942535,1.42043936252594
1701857387686438100,3.073438232421875,-2.872882604598999,0.3194418251514435,3.481856107711792
1701857387696031700,3.08303173828125,-1.8792630434036255,-0.12113664299249649,4.626223564147949
1701857387705624800,3.092624755859375,-0.9478568434715271,-1.8951154947280884,6.663413047790527
1701857387715217000,3.102216796875,-4.273282051086426,-14.904593467712402,5.648557186126709
1701857387724809700,3.111809814453125,-13.291831016540527,-43.24847412109375,4.226323127746582
1701857387734403600,3.121403564453125,-6.4064836502075195,-36.01108169555664,-5.302196025848389
1701857387743996400,3.130996337890625,6.358926296234131,-21.411874771118164,-2.352742910385132
1701857387753588500,3.14058837890625,1.6618152856826782,-15.493526458740234,3.93679141998291
1701857387763181600,3.150181640625,-1.8936200141906738,-12.038888931274414,1.6142579317092896
1701857387772775400,3.159775390625,-3.4642090797424316,-10.64088249206543,0.7310073375701904
1701857387782368300,3.1693681640625,-2.872882604598999,-10.461121559143066,1.0803594589233398
1701857387791960300,3.178960205078125,-2.33180570602417,-10.384551048278809,0.393320232629776
1701857387801553400,3.188553466796875,-2.757728099822998,-10.23141098022461,0.6879364848136902
1701857387811147000,3.19814697265625,-3.607778310775757,-9.597013473510742,0.4387838542461395
1701857387820740000,3.207739990234375,-4.467100620269775,-9.486943244934082,0.5802595019340515
1701857387830332200,3.217332275390625,-4.48624324798584,-9.35025405883789,0.8195417523384094
1701857387839925000,3.226925048828125,-3.7489547729492188,-8.39282512664795,0.20907287299633026
1701857387849518800,3.236518798828125,-2.750549554824829,-5.172684192657471,-0.9065806865692139
1701857387859111700,3.246111572265625,-3.73459792137146,-11.052447319030762,0.30957141518592834
1701857387868703700,3.255703857421875,-2.9015965461730957,-12.127423286437988,3.8503506183624268
1701857387878296800,3.265296875,-3.7944185733795166,-10.815558433532715,3.029313564300537
1701857387887890700,3.274890625,-3.2557342052459717,-10.398907661437988,1.4419747591018677
1701857387897483500,3.2844833984375,-2.942274570465088,-10.209875106811523,1.0396814346313477
1701857387907075600,3.29407568359375,-2.863311290740967,-10.037591934204102,1.0974082946777344
1701857387916668700,3.303668701171875,-2.6572296619415283,-9.474979400634766,1.0277173519134521
1701857387926262300,3.31326220703125,-2.3820550441741943,-9.328718185424805,0.49621158838272095
1701857387935855400,3.32285546875,-2.8752756118774414,-9.189934730529785,0.6807580590248108
1701857387945447400,3.332447509765625,-2.6261229515075684,-9.144471168518066,0.9511470198631287
1701857387955040300,3.342040283203125,-2.8465616703033447,-8.85224723815918,1.0660024881362915
1701857387964634000,3.351634033203125,-2.3844478130340576,-9.00568675994873,1.2266206741333008
1701857387974227000,3.36122705078125,-2.7290141582489014,-8.89801025390625,0.9846464991569519
1701857387983819000,3.370819091796875,-2.99013090133667,-8.849854469299316,1.2505489587783813
1701857387993412000,3.380412109375,-2.9638099670410156,-8.823533058166504,1.542473316192627
1701857388003006000,3.390005859375,-2.9566314220428467,-8.849854469299316,1.573580026626587
1701857388012598800,3.399598876953125,-3.0092735290527344,-8.993722915649414,1.5185450315475464
1701857388022190800,3.40919091796875,-3.028416156768799,-9.13729190826416,1.475474238395691
1701857388031784000,3.418783935546875,-2.968595504760742,-9.235398292541504,1.4635101556777954
1701857388041377500,3.42837744140625,-2.8848466873168945,-9.307182312011719,1.4347963333129883
1701857388050970600,3.437970703125,-2.8079774379730225,-9.352646827697754,1.418046474456787
1701857388060562700,3.447562744140625,-2.7314071655273438,-9.388538360595703,1.38933265209198
1701857388070155500,3.457155517578125,-2.6739792823791504,-9.448657989501953,1.3869398832321167
1701857388079749400,3.466749267578125,-2.6524438858032227,-9.539586067199707,1.4084752798080444
1701857388089342200,3.47634228515625,-2.7361927032470703,-9.630513191223145,1.4419747591018677
1701857388098934300,3.485934326171875,-2.8223342895507812,-9.664012908935547,1.4515460729599
1701857388108527400,3.49552734375,-2.9015965461730957,-9.68076229095459,1.4635101556777954
1701857388118121200,3.505121337890625,-2.9327032566070557,-9.683155059814453,1.5089738368988037
1701857388127714000,3.514714111328125,-2.9614171981811523,-9.68076229095459,1.5903297662734985
1701857388137306000,3.52430615234375,-2.935096025466919,-9.625727653503418,1.6552350521087646
1701857388146899200,3.533899169921875,-3.037987470626831,-9.525228500366211,1.6719847917556763
1701857388156492800,3.543492919921875,-2.9374887943267822,-9.477372169494629,1.6357933282852173
1701857388166086000,3.5530859375,-2.99013090133667,-9.41755199432373,1.5831513404846191
1701857388175678000,3.562677978515625,-2.9925239086151123,-9.398110389709473,1.516152262687683
1701857388185270800,3.572270751953125,-2.9063823223114014,-9.405288696289062,1.4970096349716187
1701857388194864600,3.58186474609375,-2.7529425621032715,-9.414859771728516,1.5089738368988037
1701857388204457500,3.59145751953125,-2.872882604598999,-9.338289260864258,1.4611172676086426
1701857388214049500,3.601049560546875,-2.748156785964966,-9.35743236541748,1.4108680486679077
1701857388223642600,3.610642578125,-2.733799934387207,-9.314361572265625,1.394118309020996
1701857388233236500,3.620236572265625,-2.7457640171051025,-9.25454044342041,1.3773685693740845
1701857388242829300,3.629829345703125,-2.7146573066711426,-9.216255187988281,1.3510475158691406
1701857388252421400,3.63942138671875,-2.671586513519287,-9.213862419128418,1.3630115985870361
1701857388262014500,3.649014404296875,-2.6668007373809814,-9.22582721710205,1.4060823917388916
1701857388271608000,3.658608154296875,-2.678765058517456,-9.201898574829102,1.3725829124450684
1701857388281201200,3.668201171875,-2.717050075531006,-9.166006088256836,1.329512119293213
1701857388290793200,3.677793212890625,-2.7218358516693115,-9.151649475097656,1.2337992191314697
1701857388300386000,3.687385986328125,-2.7625136375427246,-9.16122055053711,1.173978567123413
1701857388309980000,3.69697998046875,-2.8319056034088135,-9.256933212280273,1.1907284259796143
1701857388319572700,3.70657275390625,-2.757728099822998,-9.57069206237793,1.3366905450820923
1701857388329164800,3.716164794921875,-3.1767711639404297,-9.194720268249512,0.9320043921470642
1701857388338758000,3.7257578125,-3.0882368087768555,-9.496515274047852,1.1596217155456543
1701857388348351700,3.735351806640625,-3.059522867202759,-9.719047546386719,1.231406331062317
1701857388357944600,3.744944580078125,-2.975774049758911,-9.831509590148926,1.2864413261413574
1701857388367536600,3.75453662109375,-2.848954439163208,-9.89850902557373,1.3462618589401245
1701857388377129700,3.764129638671875,-2.717050075531006,-9.92243766784668,1.4036896228790283
1701857388386723300,3.773723388671875,-2.5950162410736084,-9.99691390991211,1.5065809488296509
1701857388396316400,3.78331640625,-2.348555326461792,-10.341480255126953,1.7102699279785156
1701857388405908500,3.792908447265625,-2.7601208686828613,-9.635298728942871,1.303191065788269
1701857388415501300,3.802501220703125,-2.700300455093384,-9.518050193786621,1.4324034452438354
1701857388425095200,3.81209521484375,-2.774477958679199,-9.37178897857666,1.3989039659500122
1701857388434688000,3.82168798828125,-2.7361927032470703,-9.393324851989746,1.4371891021728516
1701857388444280000,3.831280029296875,-2.724228620529175,-9.429515838623047,1.4587244987487793
1701857388453873200,3.840873046875,-2.662015199661255,-9.530014038085938,1.3773685693740845
1701857388463466800,3.850466796875,-2.779263496398926,-9.68076229095459,1.35822594165802
1701857388473059800,3.860059814453125,-2.9470601081848145,-9.769296646118164,1.353440284729004
1701857388482652000,3.86965185546875,-2.975774049758911,-9.778867721557617,1.2337992191314697
1701857388492245000,3.879244873046875,-2.9015965461730957,-9.800403594970703,1.212263822555542
1701857388501838600,3.888838623046875,-2.903989315032959,-9.740582466125488,1.1213364601135254
1701857388511431400,3.898431396484375,-2.863311290740967,-9.64965534210205,1.077966570854187
1701857388521023700,3.908023681640625,-2.757728099822998,-9.575477600097656,1.1165509223937988
1701857388530616600,3.917616455078125,-2.606980323791504,-9.776474952697754,1.169192910194397
1701857388540210400,3.92721044921875,-2.8848466873168945,-9.321539878845215,0.9942178130149841
1701857388549803300,3.93680322265625,-2.779263496398926,-9.776474952697754,1.3989039659500122
1701857388559395300,3.946395263671875,-2.819941520690918,-9.625727653503418,0.7740781307220459
1701857388568988400,3.955988525390625,-2.973381280899048,-9.388538360595703,0.8602197170257568
1701857388578582000,3.96558203125,-2.95902419090271,-9.292825698852539,0.7956135272979736
1701857388588175000,3.975175048828125,-2.8175487518310547,-9.56351375579834,0.898504912853241
1701857388597767200,3.98476708984375,-2.719442844390869,-9.754940032958984,0.8602197170257568
1701857388607360300,3.9943603515625,-2.3605196475982666,-10.499406814575195,1.394118309020996
1701857388616953900,4.003953857421875,-2.2357935905456543,-10.310373306274414,0.8554341197013855
1701857388626547000,4.013546875,-2.3700907230377197,-10.343873023986816,0.9942178130149841
1701857388636139000,4.023138916015625,-2.640479803085327,-10.310373306274414,0.9559326171875
1701857388645731800,4.03273193359375,-3.08345103263855,-10.33908748626709,0.8243274092674255
1701857388655325700,4.04232568359375,-3.0475587844848633,-10.516156196594238,1.042074203491211
1701857388664918500,4.05191845703125,-3.1983065605163574,-10.284052848815918,0.8889335989952087
1701857388674510600,4.061510498046875,-3.497708559036255,-10.135697364807129,1.0325030088424683
1701857388684103700,4.071103759765625,-3.6125640869140625,-10.023235321044922,1.1548360586166382
1701857388693697300,4.080697265625,-3.6747772693634033,-9.910472869873047,1.1596217155456543
1701857388703290400,4.090290283203125,-3.7034912109375,-9.628120422363281,1.2146565914154053
1701857388712882400,4.09988232421875,-3.6915271282196045,-9.489336013793945,1.3701900243759155
1701857388722475500,4.1094755859375,-3.7226338386535645,-9.393324851989746,1.602293848991394
1701857388732069000,4.119069091796875,-3.8398821353912354,-9.158827781677246,1.8179470300674438
1701857388741662200,4.128662109375,-3.607778310775757,-8.972187995910645,2.1672990322113037
1701857388751254300,4.138254150390625,-3.3418760299682617,-9.22582721710205,2.5935206413269043
1701857388760847000,4.14784716796875,-3.2629127502441406,-9.082257270812988,2.701197624206543
1701857388770441000,4.15744091796875,-3.05234432220459,-9.010472297668457,3.0484559535980225
1701857388780033800,4.16703369140625,-3.1265218257904053,-8.694320678710938,3.1274192333221436
1701857388789625900,4.1766259765625,-3.4378879070281982,-8.16999340057373,3.1250264644622803
1701857388799219000,4.186218994140625,-3.6125640869140625,-7.746464252471924,3.014956474304199
1701857388808812500,4.1958125,-3.7298123836517334,-7.444669246673584,2.8689942359924316
1701857388818405600,4.205405517578125,-3.7154552936553955,-7.2676005363464355,2.6198415756225586
1701857388827997700,4.214997802734375,-3.7369906902313232,-7.669594764709473,2.457129716873169
1701857388837590800,4.2245908203125,-3.648456335067749,-8.050353050231934,2.308774709701538
1701857388847184400,4.234184326171875,-3.76570463180542,-7.779963493347168,1.9591234922409058
1701857388856777200,4.243777099609375,-3.6508491039276123,-7.832605838775635,1.8179470300674438
1701857388866369500,4.25336962890625,-3.559921979904175,-7.885247707366943,1.4970096349716187
1701857388875962400,4.26296240234375,-3.6604204177856445,-7.811070442199707,1.322333574295044
1701857388885556200,4.27255615234375,-3.442673683166504,-8.091031074523926,1.3725829124450684
1701857388895149000,4.282149169921875,-3.193521022796631,-8.28006362915039,1.4874383211135864
1701857388904741000,4.2917412109375,-3.109772205352783,-8.368897438049316,1.516152262687683
1701857388914334200,4.301334228515625,-3.0667014122009277,-8.4502534866333,1.4946168661117554
1701857388923927800,4.310927734375,-3.069094181060791,-8.612964630126953,1.5640087127685547
1701857388933521000,4.32052099609375,-3.0355947017669678,-8.7445707321167,1.535294771194458
1701857388943113000,4.330113037109375,-2.949453115463257,-8.644071578979492,1.334297776222229
1701857388952706000,4.3397060546875,-2.863311290740967,-8.833105087280273,1.077966570854187
1701857388962299600,4.349299560546875,-2.726621389389038,-8.871688842773438,0.9750752449035645
1701857388971892500,4.358892578125,-2.6739792823791504,-8.70628547668457,0.8195417523384094
1701857388981484800,4.36848486328125,-2.5974090099334717,-8.730213165283203,0.5081757307052612
1701857388991077600,4.37807763671875,-2.3605196475982666,-8.768498420715332,0.9750752449035645
1701857389000671500,4.38767138671875,-2.575873613357544,-8.801998138427734,1.1333006620407104
1701857389010264300,4.397264404296875,-2.5160529613494873,-8.790034294128418,1.01814603805542
1701857389019856600,4.406856689453125,-2.2669003009796143,-8.917152404785156,1.0085747241973877
1701857389029449500,4.416449462890625,-1.9486548900604248,-8.969795227050781,0.9966106414794922
1701857389039043000,4.42604296875,-1.8170497417449951,-9.221040725708008,1.1787642240524292
1701857389048636200,4.43563623046875,-1.7787644863128662,-9.513264656066895,1.3845469951629639
1701857389058228200,4.445228271484375,-1.8936200141906738,-9.661619186401367,1.3917254209518433
1701857389067821300,4.4548212890625,-2.082653045654297,-9.699904441833496,1.2433704137802124
1701857389077415000,4.464414794921875,-2.1999013423919678,-9.726225852966309,1.0926226377487183
1701857389087008000,4.474008056640625,-2.3198416233062744,-9.915258407592773,0.9200403094291687
1701857389096600000,4.48360009765625,-2.568695068359375,-10.06869888305664,0.4794618487358093
1701857389106193000,4.49319287109375,-2.7218358516693115,-10.762916564941406,0.29042884707450867
1701857389115786800,4.502786865234375,-2.781656265258789,-11.512168884277344,0.06311069428920746
1701857389125379600,4.512379638671875,-2.3820550441741943,-12.288041114807129,0.16360925137996674
1701857389134972000,4.521971923828125,-2.058724880218506,-12.467503547668457,-0.054436713457107544
1701857389144564700,4.531564697265625,-1.5104693174362183,-12.455538749694824,0.08464609831571579
1701857389154158600,4.54115869140625,-1.3836497068405151,-12.295220375061035,0.05114658549427986
1701857389163751400,4.55075146484375,-1.6444673538208008,-12.062817573547363,0.28564319014549255
1701857389173343500,4.560343505859375,-2.0970098972320557,-11.983854293823242,1.0516455173492432
1701857389182936600,4.5699365234375,-2.4299113750457764,-11.742178916931152,1.5687943696975708
1701857389192530200,4.5795302734375,-2.410768747329712,-11.315957069396973,1.6863417625427246
1701857389202123000,4.589123046875,-2.1999013423919678,-10.839486122131348,1.7078771591186523
1701857389211715300,4.59871533203125,-1.9701902866363525,-10.377372741699219,1.7198412418365479
1701857389221308200,4.60830810546875,-1.9199410676956177,-9.972686767578125,1.6118651628494263
1701857389230902000,4.617902099609375,-1.9510477781295776,-9.652048110961914,1.5209379196166992
1701857389240494800,4.627494873046875,-1.958226203918457,-9.45583724975586,1.516152262687683
1701857389250087000,4.6370869140625,-1.8936200141906738,-9.309576034545898,1.5807584524154663
1701857389259680000,4.646679931640625,-1.8768702745437622,-8.837890625,1.3630115985870361
1701857389269273900,4.65627392578125,-1.7572290897369385,-8.651249885559082,1.1356934309005737
1701857389278866700,4.66586669921875,-1.7931214570999146,-8.651249885559082,0.8937192559242249
1701857389288458800,4.675458740234375,-1.7476578950881958,-8.476573944091797,0.625723123550415
1701857389298051800,4.6850517578125,-1.4291132688522339,-8.758927345275879,0.9415757060050964
1701857389307645400,4.6946455078125,-1.2496516704559326,-9.020044326782227,0.9080761671066284
1701857389317238300,4.70423828125,-1.0411769151687622,-9.259325981140137,0.8386843204498291
1701857389326830600,4.71383056640625,-1.0052846670150757,-9.333503723144531,0.6975077986717224
1701857389336423400,4.72342333984375,-1.0579266548156738,-9.323932647705078,0.5249254703521729
1701857389346017300,4.733017333984375,-0.9981061220169067,-9.451051712036133,0.5874379873275757
1701857389355610000,4.742610107421875,-1.0459625720977783,-9.45583724975586,0.2521436810493469
1701857389365202200,4.7522021484375,-1.0268200635910034,-9.498908042907715,0.03678964823484421
1701857389374795300,4.761795166015625,-0.8114659786224365,-9.903294563293457,0.5850451588630676
1701857389384389000,4.77138916015625,-0.921535849571228,-10.051948547363281,0.8003991842269897
1701857389393982000,4.78098193359375,-1.1416754722595215,-10.047163009643555,0.836291491985321
1701857389403574000,4.790573974609375,-1.2616157531738281,-10.028020858764648,0.9056833982467651
1701857389413167000,4.8001669921875,-1.323829174041748,-10.087841033935547,0.7381857633590698
1701857389422760700,4.8097607421875,-1.3716856241226196,-10.011270523071289,0.5491527915000916
1701857389432353500,4.819353515625,-1.2687941789627075,-9.900901794433594,0.359820693731308
1701857389441945900,4.82894580078125,-1.134497046470642,-9.69511890411377,0.2760719060897827
1701857389451538700,4.83853857421875,-0.8976075649261475,-9.565906524658203,0.13489536941051483
1701857389461132500,4.848132568359375,-0.7109674215316772,-9.443872451782227,0.09661021083593369
1701857389470725400,4.857725341796875,-0.5982056856155396,-9.28564739227295,0.12771691381931305
1701857389480317400,4.8673173828125,-0.6248258352279663,-9.300004005432129,0.21146570146083832
1701857389489910500,4.87691064453125,-0.6511468887329102,-9.501300811767578,0.3813561201095581
1701857389499504400,4.88650439453125,-0.675075113773346,-9.697511672973633,0.5611169338226318
1701857389509097200,4.89609716796875,-0.5814558863639832,-9.79083251953125,0.45553362369537354
1701857389518689300,4.905689208984375,-0.6296114325523376,-9.690333366394043,0.5563312768936157
1701857389528282400,4.915282470703125,-0.40677985548973083,-9.604191780090332,0.4387838542461395
1701857389537876000,4.9248759765625,-0.24885354936122894,-9.601799011230469,0.31435707211494446
1701857389547468800,4.93446875,-0.12681959569454193,-9.740582466125488,0.39571303129196167
1701857389557061000,4.94406103515625,-0.12203395366668701,-9.793225288391113,0.46749773621559143
1701857389566654000,4.953654052734375,-0.12681959569454193,-9.946365356445312,0.42681974172592163
1701857389576247800,4.963247802734375,-0.19621145725250244,-10.152447700500488,0.5994020700454712
1701857389585840600,4.972840576171875,-0.25363919138908386,-10.11416244506836,0.6759724020957947
1701857389595432700,4.9824326171875,-0.2153540402650833,-10.274481773376465,0.714257538318634
1701857389605025800,4.99202587890625,-0.3326023519039154,-10.30798053741455,0.7429714202880859
1701857389614619600,5.00161962890625,-0.28235307335853577,-10.188340187072754,0.7262216806411743
1701857389624212500,5.01121240234375,-0.19621145725250244,-10.123733520507812,0.5778666734695435
1701857389633804500,5.020804443359375,-0.1866401731967926,-10.133304595947266,0.5276173949241638
1701857389643397600,5.030397705078125,-0.16510476171970367,-10.09023380279541,0.5081757307052612
1701857389652991200,5.0399912109375,-0.05503492057323456,-10.018449783325195,0.4531407952308655
1701857389662584000,5.049583984375,0.05294119939208031,-9.965508460998535,0.4220340847969055
1701857389672176400,5.05917626953125,-0.04307080805301666,-9.92961597442627,0.3693920075893402
1701857389681769200,5.068769287109375,-0.2225325107574463,-9.951150894165039,0.271286278963089
1701857389691363000,5.078363037109375,-0.2919243574142456,-10.013663291931152,0.1947159469127655
1701857389700956000,5.087955810546875,-0.13639089465141296,-10.035199165344238,0.13489536941051483
1701857389710548000,5.0975478515625,-0.00687936507165432,-9.910472869873047,0.13489536941051483
1701857389720141000,5.10714111328125,-0.08374879509210587,-9.611370086669922,0.26889345049858093
1701857389729735000,5.11673486328125,-0.22971096634864807,-9.331110954284668,0.3454637825489044
1701857389739327700,5.12632763671875,-0.3517449200153351,-9.185149192810059,0.3885345757007599
1701857389748919800,5.135919921875,-0.33020952343940735,-9.185149192810059,0.47228336334228516
1701857389758513000,5.145512939453125,-0.33738797903060913,-9.256933212280273,0.4938187599182129
1701857389768106500,5.1551064453125,-0.30149564146995544,-9.319147109985352,0.5515456199645996
1701857389777699300,5.16469921875,-0.3613162338733673,-9.410074234008789,0.6831508874893188
1701857389787291600,5.174291748046875,-0.41156548261642456,-9.628120422363281,0.7405785918235779
1701857389796884500,5.183884521484375,-0.5120640397071838,-9.924830436706543,0.8889335989952087
1701857389806478300,5.193478271484375,-0.6559324860572815,-10.276874542236328,1.073180913925171
1701857389816071200,5.2030712890625,-0.7875377535820007,-10.6624174118042,1.3055838346481323
1701857389825663200,5.212663330078125,-0.8473583459854126,-10.96630573272705,1.511366605758667
1701857389835256300,5.22225634765625,-0.7779664397239685,-11.153244972229004,1.8059829473495483
1701857389844850200,5.23185009765625,-0.9550353288650513,-11.301600456237793,1.9351953268051147
1701857389854443000,5.241443115234375,-0.8306085467338562,-11.26810073852539,1.7892330884933472
1701857389864035000,5.25103515625,-0.7588238716125488,-11.088339805603027,1.633400559425354
1701857389873628200,5.260628173828125,-0.6511468887329102,-10.805987358093262,1.5257235765457153
1701857389883221800,5.2702216796875,-0.5264210104942322,-10.506585121154785,1.4587244987487793
1701857389892814800,5.27981494140625,-0.4618147611618042,-10.276874542236328,1.3965110778808594
1701857389902407000,5.289406982421875,-0.3565305769443512,-10.159626007080078,1.4467604160308838
1701857389911999700,5.298999755859375,-0.27756741642951965,-10.09023380279541,1.5209379196166992
1701857389921593600,5.308593505859375,-0.22971096634864807,-10.013663291931152,1.5903297662734985
1701857389931186400,5.3181865234375,-0.1746760457754135,-9.977771759033203,1.6094722747802734
1701857389940778500,5.327778564453125,-0.11006984114646912,-9.987342834472656,1.571187138557434
1701857389950371600,5.33737158203125,-0.09810572862625122,-9.94397258758545,1.535294771194458
1701857389959965200,5.346965087890625,-0.08614161610603333,-9.946365356445312,1.480259895324707
1701857389969558300,5.356558349609375,-0.1698904037475586,-9.975079536437988,1.3917254209518433
1701857389979150300,5.366150390625,-0.24406790733337402,-10.07587718963623,1.231406331062317
1701857389988743200,5.3757431640625,-0.28235307335853577,-10.202696800231934,1.0133603811264038
1701857389998337000,5.3853369140625,-0.3565305769443512,-10.276874542236328,0.8003991842269897
1701857390007929900,5.394929931640625,-0.37088751792907715,-10.348658561706543,0.6089733839035034
1701857390017522000,5.40452197265625,-0.35892340540885925,-10.413265228271484,0.393320232629776
1701857390027115000,5.414114990234375,-0.41156548261642456,-10.418050765991211,0.2066800594329834
1701857390036708900,5.423708984375,-0.4043870270252228,-10.319945335388184,0.1013958603143692
1701857390046301700,5.4333017578125,-0.380458801984787,-10.190732955932617,0.0487537607550621
1701857390055893800,5.442893798828125,-0.34695929288864136,-10.044770240783691,0.07507480680942535
1701857390065486800,5.45248681640625,-0.363709032535553,-9.90568733215332,0.12053844332695007
1701857390075080400,5.46208056640625,-0.31824541091918945,-9.817152976989746,0.20189441740512848
1701857390084673300,5.47167333984375,-0.2847459018230438,-9.716654777526855,0.16839489340782166
1701857390094265600,5.481265625,-0.2679961323738098,-9.64965534210205,0.17318053543567657
1701857390103858400,5.4908583984375,-0.2273181527853012,-9.613762855529785,0.19950158894062042
1701857390113452300,5.500452392578125,-0.2560320198535919,-9.597013473510742,0.2665006220340729
1701857390123045000,5.510045166015625,-0.33499518036842346,-9.620942115783691,0.3047857880592346
1701857390132637200,5.51963720703125,-0.3206382393836975,-9.642477035522461,0.35024940967559814
1701857390142230300,5.529230224609375,-0.3086741268634796,-9.620942115783691,0.46031925082206726
1701857390151824000,5.538823974609375,-0.33020952343940735,-9.613762855529785,0.6161518096923828
1701857390161417000,5.5484169921875,-0.33499518036842346,-9.604191780090332,0.7597211599349976
1701857390171009000,5.558009033203125,-0.29431718587875366,-9.628120422363281,0.8482556343078613
1701857390180602000,5.56760205078125,-0.2727817893028259,-9.647262573242188,0.9104689955711365
1701857390190195700,5.57719580078125,-0.2632105052471161,-9.675976753234863,0.9774680733680725
1701857390199788500,5.58678857421875,-0.24885354936122894,-9.731011390686035,1.0037890672683716
1701857390209380900,5.596380859375,-0.2632105052471161,-9.786046028137207,1.0109676122665405
1701857390218973700,5.6059736328125,-0.28235307335853577,-9.853045463562012,0.9966106414794922
1701857390228567600,5.615567626953125,-0.34695929288864136,-9.874580383300781,0.9822536706924438
1701857390238160400,5.625160400390625,-0.4019941985607147,-9.915258407592773,0.9128618240356445
1701857390247752400,5.63475244140625,-0.40677985548973083,-9.977771759033203,0.8769695162773132
1701857390257345500,5.644345458984375,-0.4019941985607147,-10.013663291931152,0.8578268885612488
1701857390266939100,5.653939208984375,-0.4259224236011505,-10.047163009643555,0.8913264274597168
1701857390276532000,5.663531982421875,-0.3924229145050049,-10.028020858764648,0.8219345808029175
1701857390286124300,5.673124267578125,-0.3900300860404968,-9.98973560333252,0.7357929348945618
1701857390295717000,5.682717041015625,-0.380458801984787,-9.94397258758545,0.6472585201263428
1701857390305311000,5.69231103515625,-0.33738797903060913,-9.92243766784668,0.592223584651947
1701857390314903800,5.70190380859375,-0.32542386651039124,-9.874580383300781,0.4866403043270111
1701857390324496000,5.711495849609375,-0.3158525824546814,-9.843474388122559,0.5563312768936157
1701857390334089000,5.7210888671875,-0.3278166949748993,-9.850652694702148,0.5682953596115112
1701857390343682600,5.7306826171875,-0.31824541091918945,-9.829116821289062,0.5515456199645996
1701857390353275600,5.740275634765625,-0.3445664644241333,-9.80518913269043,0.5539384484291077
1701857390362867700,5.74986767578125,-0.380458801984787,-9.809974670410156,0.5443671345710754
1701857390372460800,5.759460693359375,-0.5072783827781677,-9.79801082611084,0.5057829022407532
1701857390382054400,5.769054443359375,-0.48095735907554626,-9.809974670410156,0.5730810165405273
1701857390391647200,5.778647216796875,-0.44027936458587646,-9.800403594970703,0.5129613280296326
1701857390401239600,5.788239501953125,-0.40677985548973083,-9.853045463562012,0.589830756187439
1701857390410832400,5.797832275390625,-0.5048855543136597,-9.800403594970703,0.6472585201263428
1701857390420426200,5.80742626953125,-0.5623133182525635,-9.735796928405762,0.7094719409942627
1701857390430019000,5.81701904296875,-0.48095735907554626,-9.759725570678711,0.7429714202880859
1701857390439611100,5.826611083984375,-0.4163511395454407,-9.745368003845215,0.7692924737930298
1701857390449204200,5.836204345703125,-0.2919243574142456,-9.742975234985352,0.7884350419044495
1701857390458797800,5.8457978515625,-0.20817556977272034,-9.716654777526855,0.7956135272979736
1701857390468391000,5.855390869140625,-0.2153540402650833,-9.678369522094727,0.747757077217102
1701857390477983000,5.86498291015625,-0.28953152894973755,-9.597013473510742,0.7286145091056824
1701857390487576000,5.874576171875,-0.38763725757598877,-9.5324068069458,0.6999006271362305
1701857390497169700,5.884169677734375,-0.4905286431312561,-9.477372169494629,0.6783652305603027
1701857390506762500,5.893762451171875,-0.5623133182525635,-9.443872451782227,0.7046862840652466
1701857390516354800,5.903354736328125,-0.5742774605751038,-9.38614559173584,0.7405785918235779
1701857390525947600,5.91294775390625,-0.48813581466674805,-9.345467567443848,0.7908278703689575
1701857390535541500,5.92254150390625,-0.44027936458587646,-9.125328063964844,0.7573283910751343
1701857390545134300,5.93213427734375,-0.4618147611618042,-8.854640007019043,0.7381857633590698
1701857390554726400,5.941726318359375,-0.34217363595962524,-8.675178527832031,0.8961120843887329
1701857390564319500,5.951319580078125,-0.32542386651039124,-8.476573944091797,0.9990034699440002
1701857390573913000,5.9609130859375,-0.35413774847984314,-8.244171142578125,1.0683952569961548
1701857390583506000,5.970505859375,-0.3924229145050049,-8.012067794799805,1.1907284259796143
1701857390593098200,5.98009814453125,-0.42831525206565857,-7.772785186767578,1.3103694915771484
1701857390602691000,5.989691162109375,-0.35892340540885925,-7.602595806121826,1.5807584524154663
1701857390612285000,5.999284912109375,-0.15074782073497772,-7.451848030090332,1.8131613731384277
1701857390621877800,6.008877685546875,-0.06699903309345245,-7.255636692047119,2.1242282390594482
1701857390631469800,6.0184697265625,-0.20578274130821228,-6.925127983093262,2.1409780979156494
1701857390641063000,6.02806298828125,-0.17228323221206665,-6.630810737609863,2.330310106277466
1701857390650656500,6.037656494140625,0.1055833026766777,-6.393621921539307,2.5169503688812256
1701857390660249600,6.04724951171875,0.1821536272764206,-6.226124286651611,2.756232500076294
1701857390669841700,6.056841552734375,0.09601201117038727,-6.144768714904785,3.022135019302368
1701857390679434800,6.066434814453125,-0.20817556977272034,-6.104090690612793,3.364607810974121
1701857390689028400,6.0760283203125,-0.643968403339386,-6.144768714904785,3.7785661220550537
1701857390698621200,6.08562109375,-1.0339984893798828,-6.31944465637207,4.211966037750244
1701857390708213500,6.095213623046875,-1.2664014101028442,-6.5252275466918945,4.477868556976318
1701857390717806300,6.104806396484375,-1.4865410327911377,-6.702595233917236,4.3794636726379395
1701857390727400000,6.11439990234375,-1.4578272104263306,-7.075875759124756,4.717150688171387
1701857390736993000,6.123992919921875,-1.6085749864578247,-7.238886833190918,4.896612644195557
1701857390746585000,6.133585205078125,-1.587039589881897,-7.023233413696289,4.683651447296143
1701857390756178200,6.14317822265625,-1.374078392982483,-6.649953365325928,4.422534465789795
1701857390765771800,6.152771728515625,-0.7468597888946533,-6.446264266967773,4.183252334594727
1701857390775364600,6.162364501953125,0.3041875660419464,-6.486942291259766,4.365106582641602
1701857390784957000,6.17195703125,0.6011967062950134,-6.637989044189453,4.439284324645996
1701857390794549800,6.1815498046875,0.4549354016780853,-6.867700099945068,4.647758960723877
1701857390804143600,6.1911435546875,0.4956133961677551,-7.035197734832764,4.623830795288086
1701857390813736400,6.200736328125,0.8141579031944275,-7.392027378082275,4.357928276062012
1701857390823328500,6.21032861328125,1.4844473600387573,-8.222636222839355,4.736293315887451
1701857390832921600,6.219921630859375,1.7575281858444214,-8.806783676147461,4.513761043548584
1701857390842515200,6.22951513671875,2.2866411209106445,-9.470193862915039,4.53290319442749
1701857390852108300,6.2391083984375,2.4589242935180664,-9.585049629211426,3.8096728324890137
1701857390861700400,6.248700439453125,2.42303204536438,-9.484550476074219,2.902493953704834
1701857390871293400,6.25829345703125,2.5163521766662598,-9.510871887207031,2.222633123397827
1701857390880887000,6.267886962890625,2.659921407699585,-9.4028959274292,1.7150555849075317
1701857390890480000,6.277480224609375,2.861217737197876,-9.264111518859863,1.1021939516067505
1701857390900072200,6.287072265625,2.933002471923828,-9.103793144226074,0.4794618487358093
1701857390909665000,6.2966650390625,2.791825771331787,-8.797212600708008,-0.0687936544418335
1701857390919259000,6.3062587890625,2.614457845687866,-8.318648338317871,-0.5832505226135254
1701857390928851700,6.315851806640625,2.8516464233398438,-7.842176914215088,-1.2083754539489746
1701857390938443800,6.32544384765625,2.7412774562835693,-7.238886833190918,-1.5936198234558105
1701857390948036900,6.335036865234375,2.8516464233398438,-6.530013084411621,-2.0222342014312744
1701857390957630500,6.34463037109375,3.3568310737609863,-5.689833164215088,-2.5154547691345215
1701857390967223300,6.354223388671875,3.3807592391967773,-4.844568729400635,-2.987139940261841
1701857390976815600,6.363815673828125,3.1722846031188965,-3.985246181488037,-3.5162527561187744
1701857390986408400,6.373408447265625,2.9282166957855225,-3.2455646991729736,-3.954139471054077
1701857390996002300,6.383002197265625,2.956930637359619,-2.706880569458008,-4.95493745803833
1701857391005595100,6.39259521484375,3.708575963973999,-2.373979091644287,-5.773880958557129
1701857391015187200,6.402187255859375,4.494019985198975,-2.3907289505004883,-5.7858452796936035
1701857391024780300,6.4117802734375,4.2281174659729,-2.9772696495056152,-5.280660629272461
1701857391034374100,6.4213740234375,3.842574119567871,-3.5614173412323,-4.763511657714844
1701857391043967000,6.430967041015625,4.275974273681641,-4.667499542236328,-3.700500249862671
1701857391053559000,6.44055908203125,4.893621444702148,-6.446264266967773,-2.65423846244812
1701857391063152000,6.450152099609375,2.0470597743988037,-9.752547264099121,-2.7379872798919678
1701857391072745700,6.459745849609375,-1.8266209363937378,-13.14975643157959,-2.4580271244049072
1701857391082338800,6.4693388671875,-3.689134359359741,-16.017854690551758,-1.4452649354934692
1701857391091931000,6.478930908203125,-1.0842477083206177,-19.281064987182617,0.6448656916618347
1701857391101523700,6.488523681640625,5.152345180511475,-20.09761619567871,2.299203395843506
1701857391111117600,6.49811767578125,7.041179656982422,-21.21327018737793,4.867898464202881
1701857391120710400,6.50771044921875,4.604089736938477,-19.24995994567871,3.694817304611206
1701857391130302500,6.517302490234375,3.064607620239258,-14.737095832824707,0.6089733839035034
1701857391139895600,6.5268955078125,2.0542383193969727,-10.916056632995605,-1.3519448041915894
1701857391149489200,6.5364892578125,-1.3334003686904907,-10.22183895111084,-0.3774677813053131
1701857391159082200,6.546082275390625,-3.186342477798462,-11.775678634643555,4.611866474151611
1701857391168674300,6.55567431640625,-2.1640090942382812,-14.43051528930664,13.26401424407959
1701857391178267100,6.56526708984375,0.5003990530967712,-12.539287567138672,16.34776496887207
1701857391187861000,6.574861083984375,6.097809314727783,-12.673286437988281,17.657236099243164
1701857391197453800,6.584453857421875,5.961418628692627,-15.117853164672852,20.711973190307617
1701857391207046000,6.5940458984375,1.6929219961166382,-14.028520584106445,20.865413665771484
1701857391216639000,6.603638916015625,-1.067497968673706,-8.71346378326416,19.237396240234375
1701857391226232800,6.61323291015625,2.7508487701416016,-10.31755256652832,22.90499496459961
1701857391235825700,6.62282568359375,8.73619556427002,-14.325230598449707,25.969602584838867
1701857391245417700,6.632417724609375,11.3147611618042,-13.755439758300781,22.577178955078125
1701857391255010800,6.6420107421875,8.834300994873047,-10.554740905761719,17.95903205871582
1701857391264604400,6.6516044921875,7.184749126434326,-8.701499938964844,15.684653282165527
1701857391274197200,6.661197265625,5.288736343383789,-6.925127983093262,13.991731643676758
1701857391283789600,6.67078955078125,4.321437835693359,-5.6946187019348145,12.852149963378906
1701857391293382400,6.68038232421875,2.988037347793579,-6.1710896492004395,12.732508659362793
1701857391302976300,6.689976318359375,2.533101797103882,-8.138887405395508,12.174681663513184
1701857391312569000,6.699569091796875,2.5953152179718018,-6.992126941680908,11.796615600585938
1701857391322161200,6.7091611328125,3.0382864475250244,-8.579465866088867,12.878769874572754
1701857391331754200,6.718754150390625,1.5251253843307495,-2.974876642227173,8.947661399841309
1701857391341348000,6.72834814453125,0.17258232831954956,1.054337501525879,5.045266628265381
1701857391350941000,6.73794091796875,1.683350682258606,-1.0094720125198364,7.542177200317383
1701857391360533000,6.747532958984375,1.4916257858276367,-1.6271194219589233,8.293822288513184
1701857391370126000,6.7571259765625,1.2547364234924316,-1.8783657550811768,7.779066562652588
1701857391379719700,6.7667197265625,1.781456470489502,-1.6103696823120117,7.63310432434082
1701857391389312800,6.776312744140625,2.635993242263794,-0.600000262260437,7.805387496948242
1701857391398904800,6.78590478515625,3.5075788497924805,0.9299107193946838,6.905386924743652
1701857391408497700,6.79549755859375,3.3424742221832275,2.8450660705566406,6.254240036010742
1701857391418091500,6.805091552734375,3.3329029083251953,3.975076675415039,6.847959518432617
1701857391427684400,6.814684326171875,4.40757942199707,4.1644086837768555,8.17418098449707
1701857391437276400,6.8242763671875,6.710970401763916,4.674378871917725,8.267500877380371
1701857391446869500,6.833869384765625,9.861420631408691,4.8059844970703125,7.872685432434082
1701857391456463400,6.84346337890625,11.9132661819458,3.1157541275024414,8.097610473632812
1701857391466056200,6.85305615234375,10.500602722167969,4.166801452636719,6.814459800720215
1701857391475648300,6.862648193359375,11.551650047302246,3.2593235969543457,8.18135929107666
1701857391485241300,6.872241455078125,12.260225296020508,4.331906318664551,7.982755661010742
1701857391494835000,6.8818349609375,12.150155067443848,5.064409255981445,8.033004760742188
1701857391504428000,6.891427978515625,12.037692070007324,2.9168508052825928,9.77109146118164
1701857391514020000,6.90102001953125,11.125429153442383,2.9168508052825928,9.079266548156738
1701857391523613000,6.910613037109375,10.321141242980957,4.394119739532471,7.16859769821167
1701857391533206800,6.920206787109375,10.163214683532715,4.999803066253662,5.660521030426025
1701857391542799600,6.929799560546875,10.524531364440918,3.292823076248169,6.9125657081604
1701857391552391700,6.9393916015625,10.76411247253418,4.05912446975708,6.5629143714904785
1701857391561984800,6.94898486328125,11.056036949157715,5.14576530456543,3.927220106124878
1701857391571578400,6.958578369140625,10.788041114807129,5.73978328704834,0.5419743061065674
1701857391581171500,6.96817138671875,10.0073823928833,5.754140377044678,1.633400559425354
1701857391590763500,6.977763427734375,9.65803050994873,4.528117656707764,3.4411780834198
1701857391600356600,6.987356689453125,8.451449394226074,4.296013832092285,3.910470485687256
1701857391609950200,6.9969501953125,5.863312721252441,3.8434712886810303,6.883851528167725
1701857391619543000,7.00654296875,2.933002471923828,3.7429728507995605,8.688937187194824
1701857391629135400,7.01613525390625,0.9290133714675903,3.6544384956359863,8.401798248291016
1701857391638728200,7.025728271484375,-0.0526420995593071,3.4917263984680176,6.644270420074463
1701857391648322000,7.035322021484375,-0.14835500717163086,2.9745776653289795,5.193621635437012
1701857391657915000,7.044914794921875,0.4262215197086334,2.517249345779419,4.504189491271973
1701857391667507000,7.0545068359375,1.3624134063720703,2.6560330390930176,5.148158073425293
1701857391677100000,7.06410009765625,0.981655478477478,3.4794633388519287,3.4316067695617676
1701857391686693600,7.073693603515625,1.2116655111312866,4.121337890625,3.37896466255188
1701857391696286700,7.08328662109375,1.6351951360702515,3.1612179279327393,4.937290191650391
1701857391705878800,7.092878662109375,2.200200319290161,3.6472599506378174,4.4033918380737305
1701857391715472000,7.102471923828125,3.0287153720855713,3.551547050476074,4.020540237426758
1701857391725065500,7.1120654296875,3.7660038471221924,3.549154281616211,3.6373894214630127
1701857391734658600,7.121658447265625,4.0319061279296875,3.4531421661376953,2.8666014671325684
1701857391744250600,7.131250732421875,3.746861219406128,3.19232439994812,1.9399809837341309
1701857391753843500,7.140843505859375,3.277568817138672,2.919243574142456,1.4012967348098755
1701857391763437300,7.150437255859375,2.940180778503418,2.641676187515259,1.1428718566894531
1701857391773030100,7.160030029296875,2.7942185401916504,2.095813512802124,1.8681962490081787
1701857391782622200,7.169622314453125,4.249652862548828,2.330310106277466,2.2393829822540283
1701857391792215300,7.17921533203125,5.193023204803467,2.699103832244873,2.466701030731201
1701857391801809000,7.188808837890625,5.798706531524658,2.8115665912628174,2.710768938064575
1701857391811402000,7.198402099609375,6.950252532958984,2.6608188152313232,2.7227330207824707
1701857391820994000,7.207994140625,8.678768157958984,2.064706802368164,2.912065267562866
1701857391830587100,7.217587158203125,10.148858070373535,2.150848388671875,3.2446675300598145
1701857391840180700,7.2271806640625,11.216654777526855,2.1795623302459717,3.2279176712036133
1701857391849773600,7.236773681640625,11.108678817749023,2.421536445617676,3.4770703315734863
1701857391859366000,7.246365966796875,10.258928298950195,2.675175666809082,4.154538154602051
1701857391868958700,7.255958740234375,9.047561645507812,2.6847469806671143,4.872684001922607
1701857391878552600,7.265552490234375,8.391629219055176,2.5220351219177246,5.73469877243042
1701857391888145400,7.2751455078125,8.376973152160645,2.055135488510132,6.70199728012085
1701857391897737700,7.28473779296875,9.490233421325684,1.272383451461792,7.465606689453125
1701857391907330600,7.29433056640625,11.271690368652344,0.8150551915168762,7.6474609375
1701857391916924400,7.30392431640625,13.373485565185547,0.5324030518531799,7.839186191558838
1701857391926517200,7.313517333984375,15.008681297302246,0.26919254660606384,8.485547065734863
1701857391936109300,7.323109375,15.82283878326416,0.15672987699508667,9.014659881591797
1701857391945702400,7.332702392578125,15.284154891967773,0.27397820353507996,8.815756797790527
1701857391955296000,7.3422958984375,13.498211860656738,0.6735795736312866,8.056933403015137
1701857391964889000,7.35188916015625,11.142178535461426,1.2433704137802124,6.984350204467773
1701857391974481200,7.361481201171875,9.619745254516602,1.2484551668167114,6.048158168792725
1701857391984074200,7.37107421875,9.870991706848145,0.9346963167190552,5.634200096130371
1701857391993667800,7.380667724609375,9.904491424560547,0.6978068947792053,5.260620594024658
1701857392003260700,7.3902607421875,9.842277526855469,0.4989035129547119,4.853541851043701
1701857392012853000,7.39985302734375,9.622138023376465,0.7671987414360046,4.841577529907227
1701857392022445800,7.40944580078125,10.122536659240723,0.13519448041915894,4.920540809631348
1701857392032039700,7.419039794921875,9.499805450439453,-0.20488543808460236,5.358726501464844
1701857392041632500,7.428632568359375,8.60459041595459,0.024825535714626312,5.30129861831665
1701857392051224600,7.438224609375,8.058727264404297,-0.15942180156707764,4.994718074798584
1701857392060817700,7.447817626953125,7.649255752563477,0.041575293987989426,4.910969257354736
1701857392070411500,7.45741162109375,7.63729190826416,0.06789634376764297,5.026124000549316
1701857392080004400,7.46700439453125,7.555935859680176,0.12323036789894104,5.138586521148682
1701857392089596400,7.476596435546875,7.3884382247924805,0.010468599386513233,5.069194793701172
1701857392099189500,7.486189453125,7.927122116088867,0.07507480680942535,5.011467933654785
1701857392108783000,7.495783203125,8.537590980529785,0.2883351147174835,4.963611602783203
1701857392118376000,7.5053759765625,8.532805442810059,0.43908295035362244,5.045266628265381
1701857392127968300,7.51496826171875,8.425128936767578,0.4366901218891144,5.023731231689453
1701857392137561000,7.52456103515625,8.293224334716797,0.49172505736351013,4.808077812194824
1701857392147155000,7.534155029296875,8.276473999023438,0.4893322288990021,4.7386860847473145
1701857392156747800,7.543747802734375,8.231010437011719,0.4534398913383484,4.645366191864014
1701857392166340000,7.553340087890625,8.199904441833496,0.4582255482673645,4.508975028991699
1701857392175933000,7.562932861328125,8.319544792175293,0.4534398913383484,4.367499351501465
1701857392185526800,7.57252685546875,8.28126049041748,0.4414757788181305,4.312464714050293
1701857392195119600,7.58211962890625,8.439485549926758,0.3361915946006775,4.456333160400391
1701857392204711700,7.591711669921875,8.559126853942871,0.3122633695602417,4.540081977844238
1701857392214304800,7.6013046875,8.520841598510742,0.3433700501918793,4.654937267303467
1701857392223898400,7.6108984375,8.437092781066895,0.4414757788181305,4.65015172958374
1701857392233491500,7.620491455078125,8.542376518249512,0.47258245944976807,4.78893518447876
1701857392243083500,7.63008349609375,8.717052459716797,0.4630111753940582,4.889433860778809
1701857392252676600,7.639676513671875,8.80798053741455,0.41515472531318665,4.848755836486816
1701857392262270200,7.649270263671875,8.86780071258545,0.41994038224220276,4.772185802459717
1701857392271863000,7.658863037109375,8.872586250305176,0.4414757788181305,4.7865424156188965
1701857392281455400,7.668455322265625,8.863015174865723,0.45583271980285645,4.810471057891846
1701857392291048400,7.67804833984375,8.851051330566406,0.4773681163787842,4.839184761047363
1701857392300642000,7.68764208984375,8.688339233398438,0.49651068449020386,4.8176493644714355
1701857392310235000,7.69723486328125,8.664410591125488,0.4630111753940582,4.85114860534668
1701857392319827200,7.7068271484375,8.786444664001465,0.39840495586395264,4.925326347351074
1701857392329420000,7.716419921875,8.717052459716797,0.4366901218891144,4.860720157623291
1701857392339014000,7.726013916015625,8.599804878234863,0.4534398913383484,4.77457857131958
1701857392348606700,7.735606689453125,8.516056060791016,0.47976094484329224,4.71954345703125
1701857392358198800,7.74519873046875,8.659625053405762,0.5276173949241638,4.616652011871338
1701857392367791900,7.7547919921875,8.906085968017578,0.6209374666213989,4.424927234649658
1701857392377385500,7.764385498046875,8.863015174865723,0.36251261830329895,4.482654094696045
1701857392386978600,7.773978515625,8.602197647094727,0.3720839321613312,4.535296440124512
1701857392396570600,7.783570556640625,8.453842163085938,0.4175475537776947,4.671687126159668
1701857392406163700,7.793163818359375,8.755337715148926,0.3242274820804596,4.946861743927002
1701857392415757300,7.80275732421875,9.392127990722656,0.3361915946006775,5.231906890869141
1701857392425350400,7.812350341796875,9.856635093688965,0.3361915946006775,5.186442852020264
1701857392434942500,7.8219423828125,10.124930381774902,0.3361915946006775,4.894219398498535
1701857392444535300,7.831535400390625,10.242177963256836,0.36729827523231506,4.745864391326904
1701857392454129200,7.841129150390625,9.937990188598633,0.39122650027275085,4.709972381591797
1701857392463722000,7.850721923828125,9.447162628173828,0.3840480446815491,4.654937267303467
1701857392473314300,7.860314208984375,9.140881538391113,0.4175475537776947,4.65733003616333
1701857392482907100,7.8699072265625,8.99252700805664,0.46061834692955017,4.664508819580078
1701857392492501000,7.8795009765625,8.918049812316895,0.4701896607875824,4.635794639587402
1701857392502093800,7.88909375,8.894122123718262,0.43908295035362244,4.58793830871582
1701857392511686000,7.898685791015625,8.824729919433594,0.38644084334373474,4.542474746704102
1701857392521279000,7.908279052734375,8.726624488830566,0.3768695592880249,4.480261325836182
1701857392530872800,7.917872802734375,8.62612533569336,0.3601198196411133,4.441677093505859
1701857392540465700,7.927465576171875,8.49452018737793,0.3577269911766052,4.396213531494141
1701857392550057700,7.9370576171875,8.389236450195312,0.34576287865638733,4.360321044921875
1701857392559650800,7.94665087890625,8.293224334716797,0.3361915946006775,4.3411784172058105
1701857392569244400,7.956244384765625,8.266902923583984,0.33858439326286316,4.329214572906494
1701857392578837200,7.965837158203125,8.264510154724121,0.33858439326286316,4.334000110626221
1701857392588429600,7.9754296875,8.293224334716797,0.35054850578308105,4.393820762634277
1701857392598022400,7.9850224609375,8.338687896728516,0.34576287865638733,4.47068977355957
1701857392607616300,7.9946162109375,8.451449394226074,0.37447673082351685,4.554438591003418
1701857392617209000,8.004208984375,8.578269004821777,0.37447673082351685,4.65015172958374
1701857392626801400,8.013801513671876,8.717052459716797,0.38644084334373474,4.707579612731934
1701857392636394200,8.023394287109374,8.793622970581055,0.4055834412574768,4.776971340179443
1701857392645988000,8.032988037109375,8.86780071258545,0.41515472531318665,4.839184761047363
1701857392655581000,8.042580810546875,8.942276954650879,0.41994038224220276,4.901398181915283
1701857392665173000,8.052173095703125,9.002098083496094,0.4534398913383484,4.930111885070801
1701857392674766000,8.06176611328125,9.033205032348633,0.43190449476242065,4.954040050506592
1701857392684359700,8.071359619140624,9.097810745239258,0.44386860728263855,4.949254512786865
1701857392693952800,8.080952880859375,9.102596282958984,0.45104706287384033,4.949254512786865
1701857392703544800,8.090544921875,9.088239669799805,0.46061834692955017,4.946861743927002
1701857392713138000,8.100137939453125,9.083454132080078,0.47258245944976807,4.932504653930664
1701857392722731500,8.1097314453125,9.052347183227539,0.46779683232307434,4.889433860778809
1701857392732324400,8.119324462890624,8.978169441223145,0.46061834692955017,4.85114860534668
1701857392741916700,8.128916748046874,8.894122123718262,0.4749752879142761,4.798506736755371
1701857392751509800,8.138509765625,8.788837432861328,0.4749752879142761,4.765007019042969
1701857392761103400,8.148103271484375,8.71226692199707,0.46779683232307434,4.717150688171387
1701857392770696200,8.1576962890625,8.664410591125488,0.4630111753940582,4.674079895019531
1701857392780288500,8.16728857421875,8.61176872253418,0.4582255482673645,4.640580177307129
1701857392789881300,8.17688134765625,8.578269004821777,0.45104706287384033,4.609473705291748
1701857392799475200,8.18647509765625,8.554341316223145,0.44386860728263855,4.6046881675720215
1701857392809068000,8.196068115234375,8.547162055969238,0.4462614357471466,4.611866474151611
1701857392818660000,8.20566015625,8.575876235961914,0.4366901218891144,4.614259243011475
1701857392828253200,8.215253173828126,8.599804878234863,0.42711883783340454,4.599902629852295
1701857392837846800,8.2248466796875,8.63330364227295,0.42711883783340454,4.607080936431885
1701857392847440000,8.23443994140625,8.673981666564941,0.4223332107067108,4.621438026428223
1701857392857032000,8.244031982421875,8.717052459716797,0.42711883783340454,4.633401870727539
1701857392866625000,8.253625,8.71226692199707,0.4366901218891144,4.64297342300415
1701857392876218600,8.263218505859374,8.709874153137207,0.4366901218891144,4.6764726638793945
1701857392885811700,8.272811767578125,8.755337715148926,0.43908295035362244,4.717150688171387
1701857392895403800,8.28240380859375,8.846264839172363,0.43908295035362244,4.71954345703125
1701857392904996600,8.29199658203125,8.86062240600586,0.4247260093688965,4.683651447296143
1701857392914590500,8.301590576171876,8.85344409942627,0.4223332107067108,4.640580177307129
1701857392924183300,8.311183349609376,8.819944381713867,0.4055834412574768,4.678865432739258
1701857392933775400,8.320775390625,8.855836868286133,0.3936193287372589,4.71954345703125
1701857392943368400,8.330368408203125,8.889336585998535,0.4007977843284607,4.7626142501831055
1701857392952962300,8.33996240234375,8.896514892578125,0.381655216217041,4.808077812194824
1701857392962555100,8.34955517578125,8.908478736877441,0.3936193287372589,4.800899505615234
1701857392972147200,8.359147216796876,8.937192916870117,0.3888336718082428,4.760221481323242
1701857392981740300,8.368740234375,8.903693199157715,0.3840480446815491,4.709972381591797
1701857392991334000,8.378333984375,8.810373306274414,0.3936193287372589,4.695615291595459
1701857393000927000,8.387927001953125,8.757730484008789,0.3888336718082428,4.714757919311523
1701857393010519000,8.39751904296875,8.757730484008789,0.37926238775253296,4.70518684387207
1701857393020112100,8.407112060546876,8.73619556427002,0.37926238775253296,4.717150688171387
1701857393029705700,8.416705810546874,8.757730484008789,0.38644084334373474,4.724328994750977
1701857393039298800,8.426298828125,8.748159408569336,0.381655216217041,4.714757919311523
1701857393048891000,8.435890869140625,8.745766639709473,0.38644084334373474,4.707579612731934
1701857393058483700,8.445483642578125,8.755337715148926,0.38644084334373474,4.707579612731934
1701857393068077600,8.45507763671875,8.776873588562012,0.3840480446815491,4.690829753875732
1701857393077670400,8.46467041015625,8.779266357421875,0.37926238775253296,4.678865432739258
1701857393087262500,8.474262451171874,8.762516975402832,0.38644084334373474,4.702793598175049
1701857393096855600,8.48385546875,8.779266357421875,0.3768695592880249,4.709972381591797
1701857393106449200,8.49344921875,8.788837432861328,0.36729827523231506,4.709972381591797
1701857393116042200,8.503042236328126,8.786444664001465,0.3696911036968231,4.70518684387207
1701857393125634300,8.51263427734375,8.798408508300781,0.3768695592880249,4.702793598175049
1701857393135227400,8.522227294921874,8.798408508300781,0.40319061279296875,4.7004008293151855
1701857393144821000,8.531821044921875,8.819944381713867,0.38644084334373474,4.702793598175049
1701857393154413800,8.541413818359375,8.824729919433594,0.38644084334373474,4.70518684387207
1701857393164006100,8.551006103515626,8.846264839172363,0.39840495586395264,4.70518684387207
1701857393173599000,8.560598876953126,8.83669376373291,0.39601215720176697,4.695615291595459
1701857393183192800,8.57019287109375,8.83669376373291,0.38644084334373474,4.695615291595459
1701857393192785700,8.57978564453125,8.834300994873047,0.3768695592880249,4.683651447296143
1701857393202378000,8.5893779296875,8.819944381713867,0.3936193287372589,4.683651447296143
1701857393211970800,8.598970703125,8.805587768554688,0.39601215720176697,4.65733003616333
1701857393221564700,8.608564697265624,8.776873588562012,0.39840495586395264,4.681258201599121
1701857393231157500,8.618157470703125,8.769695281982422,0.40319061279296875,4.669294357299805
1701857393240749600,8.62774951171875,8.752944946289062,0.40319061279296875,4.669294357299805
1701857393250342700,8.6373427734375,8.769695281982422,0.4007977843284607,4.671687126159668
1701857393259936300,8.646936279296876,8.784051895141602,0.39122650027275085,4.681258201599121
1701857393269529300,8.656529296875,8.788837432861328,0.39840495586395264,4.671687126159668
1701857393279121400,8.666121337890624,8.803194046020508,0.38644084334373474,4.666901588439941
1701857393288714500,8.675714599609375,8.817551612854004,0.381655216217041,4.645366191864014
1701857393298308000,8.68530810546875,8.793622970581055,0.3696911036968231,4.65015172958374
1701857393307901000,8.69490087890625,8.774480819702148,0.38644084334373474,4.65733003616333
1701857393317493200,8.7044931640625,8.7505521774292,0.3936193287372589,4.695615291595459
1701857393327086000,8.714086181640624,8.7505521774292,0.39840495586395264,4.693222522735596
1701857393336680000,8.723679931640625,8.798408508300781,0.3936193287372589,4.709972381591797
1701857393346272800,8.733272705078125,8.834300994873047,0.39122650027275085,4.709972381591797
1701857393355864800,8.74286474609375,8.851051330566406,0.38644084334373474,4.71954345703125
1701857393365458000,8.7524580078125,8.872586250305176,0.37447673082351685,4.733900547027588
1701857393375051500,8.762051513671874,8.855836868286133,0.37926238775253296,4.741078853607178
1701857393384644600,8.77164453125,8.855836868286133,0.3720839321613312,4.741078853607178
1701857393394236700,8.781236572265625,8.851051330566406,0.37447673082351685,4.724328994750977
1701857393403829800,8.790829833984375,8.846264839172363,0.3888336718082428,4.71954345703125
1701857393413423400,8.80042333984375,8.810373306274414,0.39601215720176697,4.707579612731934
1701857393423016200,8.81001611328125,8.774480819702148,0.3888336718082428,4.686044216156006
1701857393432608500,8.8196083984375,8.748159408569336,0.39840495586395264,4.688436985015869
1701857393442201300,8.829201416015625,8.755337715148926,0.4103690981864929,4.695615291595459
1701857393451795200,8.838795166015625,8.767302513122559,0.4055834412574768,4.686044216156006
1701857393461388000,8.848387939453126,8.786444664001465,0.3888336718082428,4.674079895019531
1701857393470980000,8.85797998046875,8.784051895141602,0.37926238775253296,4.688436985015869
1701857393480573200,8.8675732421875,8.796015739440918,0.39601215720176697,4.678865432739258
1701857393490167000,8.8771669921875,8.800801277160645,0.39122650027275085,4.681258201599121
1701857393499759900,8.886759765625,8.805587768554688,0.38644084334373474,4.681258201599121
1701857393509352000,8.89635205078125,8.803194046020508,0.38644084334373474,4.6764726638793945
1701857393518945000,8.905945068359374,8.805587768554688,0.38644084334373474,4.664508819580078
1701857393528538600,8.91553857421875,8.784051895141602,0.381655216217041,4.678865432739258
1701857393538131700,8.925131591796875,8.784051895141602,0.39601215720176697,4.669294357299805
1701857393547723800,8.934723876953125,8.791230201721191,0.39601215720176697,4.659722805023193
1701857393557316600,8.944316650390626,8.800801277160645,0.38644084334373474,4.664508819580078
1701857393566910500,8.953910400390624,8.796015739440918,0.3888336718082428,4.664508819580078
1701857393576503300,8.96350341796875,8.80798053741455,0.3840480446815491,4.65733003616333
1701857393586095400,8.973095458984375,8.798408508300781,0.3840480446815491,4.662116050720215
1701857393595688400,8.9826884765625,8.817551612854004,0.39601215720176697,4.654937267303467
1701857393605282300,8.9922822265625,8.819944381713867,0.3840480446815491,4.669294357299805
1701857393614875100,9.001875244140624,8.83669376373291,0.37926238775253296,4.674079895019531
1701857393624467200,9.01146728515625,8.846264839172363,0.39122650027275085,4.681258201599121
1701857393634060300,9.021060302734375,8.85344409942627,0.39122650027275085,4.678865432739258
1701857393643654000,9.03065380859375,8.831908226013184,0.3888336718082428,4.686044216156006
1701857393653246700,9.040246826171876,8.81515884399414,0.3840480446815491,4.678865432739258
1701857393662839000,9.049839111328126,8.810373306274414,0.3768695592880249,4.690829753875732
1701857393672431900,9.059431884765624,8.793622970581055,0.3840480446815491,4.681258201599121
1701857393682025700,9.069025634765625,8.803194046020508,0.39122650027275085,4.7004008293151855
1701857393691618600,9.07861865234375,8.803194046020508,0.39601215720176697,4.674079895019531
1701857393701210600,9.088210693359375,8.784051895141602,0.38644084334373474,4.688436985015869
1701857393710803700,9.0978037109375,8.786444664001465,0.38644084334373474,4.690829753875732
1701857393720397600,9.1073974609375,8.781659126281738,0.3888336718082428,4.688436985015869
1701857393729990400,9.116990478515625,8.781659126281738,0.38644084334373474,4.674079895019531
1701857393739582500,9.12658251953125,8.798408508300781,0.40319061279296875,4.681258201599121
1701857393749175600,9.136175537109375,8.805587768554688,0.381655216217041,4.674079895019531
1701857393758769200,9.14576904296875,8.798408508300781,0.3936193287372589,4.671687126159668
1701857393768362000,9.155362060546874,8.793622970581055,0.38644084334373474,4.669294357299805
1701857393777954300,9.164954345703125,8.805587768554688,0.3840480446815491,4.671687126159668
1701857393787547100,9.174547119140625,8.805587768554688,0.381655216217041,4.674079895019531
1701857393797141000,9.18414111328125,8.81515884399414,0.38644084334373474,4.671687126159668
1701857393806733800,9.19373388671875,8.812766075134277,0.38644084334373474,4.6764726638793945
1701857393816326000,9.203325927734374,8.819944381713867,0.39601215720176697,4.681258201599121
1701857393825919000,9.2129189453125,8.803194046020508,0.381655216217041,4.666901588439941
1701857393835512800,9.222512939453125,8.80798053741455,0.37447673082351685,4.659722805023193
1701857393845105700,9.232105712890625,8.812766075134277,0.3888336718082428,4.662116050720215
1701857393854697700,9.24169775390625,8.82233715057373,0.39122650027275085,4.662116050720215
1701857393864290800,9.251290771484374,8.834300994873047,0.3840480446815491,4.666901588439941
1701857393873884400,9.260884521484375,8.812766075134277,0.3840480446815491,4.674079895019531
1701857393883477200,9.270477294921875,8.824729919433594,0.39601215720176697,4.65733003616333
1701857393893069600,9.280069580078125,8.817551612854004,0.37926238775253296,4.662116050720215
1701857393902662400,9.289662353515626,8.810373306274414,0.381655216217041,4.654937267303467
1701857393912256300,9.29925634765625,8.80798053741455,0.4007977843284607,4.65733003616333
1701857393921849000,9.30884912109375,8.805587768554688,0.38644084334373474,4.645366191864014
1701857393931441200,9.318441162109375,8.791230201721191,0.37447673082351685,4.662116050720215
1701857393941034200,9.3280341796875,8.798408508300781,0.3888336718082428,4.664508819580078
1701857393950628000,9.337628173828126,8.798408508300781,0.37926238775253296,4.65733003616333
1701857393960221000,9.347220947265624,8.805587768554688,0.39840495586395264,4.65733003616333
1701857393969813000,9.35681298828125,8.812766075134277,0.3888336718082428,4.65015172958374
1701857393979406000,9.366406005859375,8.80798053741455,0.3888336718082428,4.664508819580078
1701857393988999700,9.375999755859375,8.800801277160645,0.3840480446815491,4.659722805023193
1701857393998592500,9.385592529296876,8.817551612854004,0.3720839321613312,4.666901588439941
1701857394008184800,9.395184814453126,8.819944381713867,0.37926238775253296,4.6525444984436035
1701857394017777700,9.404777587890624,8.812766075134277,0.39601215720176697,4.6764726638793945
1701857394027371500,9.41437158203125,8.817551612854004,0.38644084334373474,4.666901588439941
1701857394036964400,9.42396435546875,8.819944381713867,0.381655216217041,4.664508819580078
1701857394046556400,9.433556396484375,8.827122688293457,0.37926238775253296,4.659722805023193
1701857394056149500,9.4431494140625,8.817551612854004,0.3840480446815491,4.664508819580078
1701857394065743400,9.452743408203125,8.82951545715332,0.381655216217041,4.647758960723877
1701857394075336200,9.462336181640625,8.824729919433594,0.3720839321613312,4.662116050720215
1701857394084928300,9.47192822265625,8.831908226013184,0.364905446767807,4.645366191864014
1701857394094521300,9.481521240234375,8.831908226013184,0.36729827523231506,4.659722805023193
1701857394104115000,9.491114990234376,8.846264839172363,0.3840480446815491,4.65015172958374
1701857394113708000,9.5007080078125,8.831908226013184,0.3720839321613312,4.65015172958374
1701857394123300000,9.510300048828125,8.817551612854004,0.36729827523231506,4.654937267303467
1701857394132893000,9.519892822265625,8.800801277160645,0.3720839321613312,4.640580177307129
1701857394142486800,9.52948681640625,8.82233715057373,0.3696911036968231,4.65015172958374
1701857394152079600,9.53907958984375,8.827122688293457,0.381655216217041,4.640580177307129
1701857394161671700,9.548671630859374,8.848658561706543,0.37926238775253296,4.647758960723877
1701857394171264800,9.5582646484375,8.81515884399414,0.3720839321613312,4.638187408447266
1701857394180858400,9.5678583984375,8.81515884399414,0.37926238775253296,4.647758960723877
1701857394190451500,9.577451416015625,8.798408508300781,0.36729827523231506,4.635794639587402
1701857394200043500,9.58704345703125,8.80798053741455,0.37926238775253296,4.6525444984436035
1701857394209636600,9.59663671875,8.817551612854004,0.3720839321613312,4.638187408447266
1701857394219230200,9.606230224609375,8.848658561706543,0.3720839321613312,4.6525444984436035
1701857394228823000,9.615822998046875,8.834300994873047,0.37926238775253296,4.645366191864014
1701857394238415400,9.625415283203125,8.800801277160645,0.381655216217041,4.638187408447266
1701857394248008200,9.63500830078125,8.788837432861328,0.3840480446815491,4.64297342300415
1701857394257602000,9.64460205078125,8.810373306274414,0.38644084334373474,4.631009101867676
1701857394267195000,9.65419482421875,8.819944381713867,0.3696911036968231,4.64297342300415
1701857394276787000,9.663786865234375,8.819944381713867,0.39122650027275085,4.635794639587402
1701857394286380000,9.673380126953125,8.82233715057373,0.3840480446815491,4.64297342300415
1701857394295973600,9.6829736328125,8.827122688293457,0.37926238775253296,4.640580177307129
1701857394305566500,9.69256640625,8.846264839172363,0.37447673082351685,4.65015172958374
1701857394315158800,9.70215869140625,8.83669376373291,0.37926238775253296,4.65733003616333
1701857394324751600,9.711751708984375,8.83669376373291,0.38644084334373474,4.638187408447266
1701857394334345500,9.721345458984375,8.831908226013184,0.3840480446815491,4.645366191864014
1701857394343938300,9.730938232421876,8.831908226013184,0.3720839321613312,4.65015172958374
1701857394353530400,9.7405302734375,8.834300994873047,0.3696911036968231,4.64297342300415
1701857394363123500,9.75012353515625,8.82233715057373,0.381655216217041,4.64297342300415
1701857394372717300,9.75971728515625,8.831908226013184,0.381655216217041,4.638187408447266
1701857394382310100,9.76931005859375,8.817551612854004,0.3768695592880249,4.64297342300415
1701857394391902200,9.778902099609375,8.812766075134277,0.381655216217041,4.6286163330078125
1701857394401495300,9.788495361328126,8.817551612854004,0.37926238775253296,4.645366191864014
1701857394411089000,9.7980888671875,8.827122688293457,0.3720839321613312,4.645366191864014
1701857394420682000,9.807681884765625,8.82233715057373,0.37447673082351685,4.640580177307129
1701857394430274000,9.817274169921875,8.82233715057373,0.37926238775253296,4.631009101867676
1701857394439867000,9.826866943359375,8.82951545715332,0.3696911036968231,4.631009101867676
1701857394449460700,9.836460693359374,8.80798053741455,0.36729827523231506,4.635794639587402
1701857394459053600,9.846053466796874,8.80798053741455,0.37926238775253296,4.6286163330078125
1701857394468645600,9.855645751953125,8.82951545715332,0.3720839321613312,4.645366191864014
1701857394478238700,9.86523876953125,8.82233715057373,0.3696911036968231,4.64297342300415
1701857394487832300,9.874832275390625,8.817551612854004,0.35533416271209717,4.638187408447266
1701857394497425200,9.884425048828126,8.81515884399414,0.3768695592880249,4.65015172958374
1701857394507017500,9.894017578125,8.817551612854004,0.3720839321613312,4.64297342300415
1701857394516610300,9.9036103515625,8.80798053741455,0.38644084334373474,4.647758960723877
1701857394526204200,9.9132041015625,8.819944381713867,0.3696911036968231,4.635794639587402
1701857394535797000,9.922796875,8.819944381713867,0.381655216217041,4.635794639587402
1701857394545389000,9.93238916015625,8.831908226013184,0.364905446767807,4.645366191864014
1701857394554982100,9.941982177734374,8.834300994873047,0.381655216217041,4.631009101867676
1701857394564576000,9.951575927734375,8.82951545715332,0.3720839321613312,4.65015172958374
1701857394574168800,9.9611689453125,8.82951545715332,0.37926238775253296,4.640580177307129
1701857394583761000,9.970760986328125,8.841479301452637,0.36729827523231506,4.647758960723877
1701857394593354000,9.98035400390625,8.831908226013184,0.364905446767807,4.65015172958374
1701857394602947600,9.989947509765624,8.810373306274414,0.36251261830329895,4.638187408447266
1701857394612540400,9.99954052734375,8.824729919433594,0.37926238775253296,4.6525444984436035
1701857394622132700,10.0091328125,8.839086532592773,0.37926238775253296,4.633401870727539
1701857394631725600,10.0187255859375,8.846264839172363,0.38644084334373474,4.6286163330078125
1701857394641319400,10.0283193359375,8.827122688293457,0.37447673082351685,4.635794639587402
1701857394650912300,10.037912353515624,8.80798053741455,0.3720839321613312,4.640580177307129
1701857394660504300,10.04750439453125,8.817551612854004,0.364905446767807,4.64297342300415
1701857394670097400,10.057097412109375,8.81515884399414,0.36729827523231506,4.647758960723877
1701857394679691000,10.06669091796875,8.824729919433594,0.3768695592880249,4.640580177307129
1701857394689283800,10.076283935546876,8.834300994873047,0.37926238775253296,4.640580177307129
1701857394698876200,10.085876220703126,8.841479301452637,0.37926238775253296,4.645366191864014
1701857394708469200,10.09546923828125,8.82233715057373,0.37926238775253296,4.631009101867676
1701857394718062800,10.105062744140625,8.819944381713867,0.37447673082351685,4.638187408447266
1701857394727655700,10.11465576171875,8.827122688293457,0.3720839321613312,4.633401870727539
1701857394737247700,10.124247802734375,8.831908226013184,0.3768695592880249,4.640580177307129
1701857394746840800,10.1338408203125,8.839086532592773,0.3696911036968231,4.645366191864014
1701857394756434400,10.143434326171874,8.827122688293457,0.381655216217041,4.635794639587402
1701857394766027500,10.153027587890625,8.831908226013184,0.381655216217041,4.635794639587402
1701857394775619600,10.16261962890625,8.81515884399414,0.37926238775253296,4.640580177307129
1701857394785212700,10.172212646484375,8.839086532592773,0.381655216217041,4.638187408447266
1701857394794806300,10.18180615234375,8.834300994873047,0.381655216217041,4.647758960723877
1701857394804399000,10.191399169921874,8.817551612854004,0.3840480446815491,4.6286163330078125
1701857394813991400,10.200991455078125,8.827122688293457,0.3768695592880249,4.640580177307129
1701857394823584300,10.210584228515625,8.82233715057373,0.38644084334373474,4.623830795288086
1701857394833178000,10.22017822265625,8.827122688293457,0.37447673082351685,4.65015172958374
1701857394842771000,10.22977099609375,8.831908226013184,0.3768695592880249,4.647758960723877
1701857394852363000,10.239363037109374,8.817551612854004,0.36729827523231506,4.6286163330078125
1701857394861956000,10.2489560546875,8.82951545715332,0.3696911036968231,4.631009101867676
1701857394871549700,10.2585498046875,8.831908226013184,0.36729827523231506,4.623830795288086
1701857394881142500,10.268142578125,8.82951545715332,0.3696911036968231,4.626223564147949
1701857394890734800,10.27773486328125,8.82951545715332,0.364905446767807,4.640580177307129
1701857394900327700,10.28732763671875,8.827122688293457,0.3720839321613312,4.64297342300415
1701857394909921500,10.296921630859375,8.82233715057373,0.3601198196411133,4.640580177307129
1701857394919514400,10.306514404296875,8.819944381713867,0.3720839321613312,4.64297342300415
1701857394929106400,10.3161064453125,8.81515884399414,0.3696911036968231,4.638187408447266
1701857394938699500,10.325699462890626,8.82233715057373,0.3720839321613312,4.635794639587402
1701857394948293000,10.335293212890624,8.824729919433594,0.37926238775253296,4.64297342300415
1701857394957886200,10.34488623046875,8.831908226013184,0.36729827523231506,4.633401870727539
1701857394967478300,10.354478271484375,8.83669376373291,0.37926238775253296,4.635794639587402
1701857394977071000,10.364071044921875,8.831908226013184,0.3768695592880249,4.623830795288086
1701857394986665000,10.3736650390625,8.83669376373291,0.3720839321613312,4.638187408447266
1701857394996257800,10.3832578125,8.83669376373291,0.37447673082351685,4.638187408447266
1701857395005849900,10.392849853515624,8.831908226013184,0.37926238775253296,4.621438026428223
1701857395015443000,10.40244287109375,8.82951545715332,0.37926238775253296,4.647758960723877
1701857395025036800,10.412036865234375,8.824729919433594,0.3720839321613312,4.631009101867676
1701857395034629600,10.421629638671876,8.834300994873047,0.37926238775253296,4.635794639587402
1701857395044221700,10.4312216796875,8.8438720703125,0.381655216217041,4.638187408447266
1701857395053814800,10.440814697265624,8.81515884399414,0.37926238775253296,4.635794639587402
1701857395063408400,10.450408447265625,8.83669376373291,0.3840480446815491,4.638187408447266
1701857395073001200,10.460001220703125,8.82951545715332,0.36251261830329895,4.621438026428223
1701857395082593500,10.469593505859375,8.827122688293457,0.3720839321613312,4.631009101867676
1701857395092186400,10.479186279296876,8.824729919433594,0.3696911036968231,4.631009101867676
1701857395101780200,10.4887802734375,8.8438720703125,0.381655216217041,4.633401870727539
1701857395111373000,10.498373046875,8.851051330566406,0.3840480446815491,4.635794639587402
1701857395120965000,10.507965087890625,8.83669376373291,0.37447673082351685,4.6286163330078125
1701857395130558200,10.51755810546875,8.83669376373291,0.3696911036968231,4.621438026428223
1701857395140151800,10.52715185546875,8.805587768554688,0.381655216217041,4.633401870727539
1701857395149745000,10.536744873046874,8.817551612854004,0.37447673082351685,4.626223564147949
1701857395159337000,10.5463369140625,8.827122688293457,0.36729827523231506,4.633401870727539
1701857395168929800,10.5559296875,8.848658561706543,0.36729827523231506,4.631009101867676
1701857395178523600,10.565523681640625,8.841479301452637,0.36729827523231506,4.621438026428223
1701857395188116500,10.575116455078126,8.819944381713867,0.38644084334373474,4.6286163330078125
1701857395197708500,10.58470849609375,8.819944381713867,0.37926238775253296,4.623830795288086
1701857395207301600,10.594301513671875,8.817551612854004,0.37447673082351685,4.623830795288086
1701857395216895200,10.603895263671875,8.831908226013184,0.3768695592880249,4.6286163330078125
1701857395226488000,10.613488037109375,8.846264839172363,0.381655216217041,4.619044780731201
1701857395236080400,10.623080322265626,8.848658561706543,0.36729827523231506,4.619044780731201
1701857395245673200,10.632673095703124,8.848658561706543,0.37447673082351685,4.631009101867676
1701857395255267000,10.64226708984375,8.827122688293457,0.3888336718082428,4.635794639587402
1701857395264860000,10.65185986328125,8.8438720703125,0.3840480446815491,4.623830795288086
1701857395274452000,10.661451904296875,8.83669376373291,0.37447673082351685,4.616652011871338
1701857395284045000,10.671045166015626,8.8438720703125,0.3840480446815491,4.631009101867676
1701857395293638700,10.680638671875,8.841479301452637,0.381655216217041,4.635794639587402
1701857395303231700,10.690231689453125,8.839086532592773,0.3720839321613312,4.619044780731201
1701857395312823800,10.69982373046875,8.841479301452637,0.364905446767807,4.623830795288086
1701857395322417000,10.7094169921875,8.82951545715332,0.3768695592880249,4.619044780731201
1701857395332010500,10.719010498046876,8.824729919433594,0.381655216217041,4.631009101867676
1701857395341603300,10.728603271484374,8.834300994873047,0.3840480446815491,4.638187408447266
1701857395351195400,10.7381953125,8.834300994873047,0.37926238775253296,4.6286163330078125
1701857395360788500,10.74778857421875,8.827122688293457,0.37926238775253296,4.616652011871338
1701857395370382000,10.757382080078125,8.827122688293457,0.3720839321613312,4.626223564147949
1701857395379975200,10.76697509765625,8.8438720703125,0.37447673082351685,4.623830795288086
1701857395389567200,10.776567138671876,8.83669376373291,0.38644084334373474,4.616652011871338
1701857395399160300,10.786160400390624,8.82233715057373,0.3888336718082428,4.609473705291748
1701857395408754000,10.79575390625,8.839086532592773,0.3840480446815491,4.623830795288086
1701857395418346800,10.8053466796875,8.83669376373291,0.37926238775253296,4.626223564147949
1701857395427939000,10.81493896484375,8.81515884399414,0.37447673082351685,4.626223564147949
1701857395437532000,10.824531982421876,8.827122688293457,0.3768695592880249,4.619044780731201
1701857395447125500,10.83412548828125,8.819944381713867,0.381655216217041,4.631009101867676
1701857395456718600,10.843718505859375,8.846264839172363,0.3936193287372589,4.623830795288086
1701857395466310700,10.853310546875,8.851051330566406,0.3840480446815491,4.626223564147949
1701857395475903700,10.86290380859375,8.841479301452637,0.38644084334373474,4.619044780731201
1701857395485497300,10.872497314453126,8.839086532592773,0.37926238775253296,4.633401870727539
1701857395495090200,10.882090087890624,8.841479301452637,0.37447673082351685,4.621438026428223
1701857395504682500,10.8916826171875,8.8438720703125,0.39122650027275085,4.623830795288086
1701857395514275300,10.901275390625,8.819944381713867,0.37926238775253296,4.626223564147949
1701857395523869200,10.910869140625,8.82233715057373,0.3840480446815491,4.621438026428223
1701857395533462000,10.9204619140625,8.8438720703125,0.3840480446815491,4.6286163330078125
1701857395543054000,10.93005419921875,8.839086532592773,0.37447673082351685,4.614259243011475
1701857395552647200,10.939647216796875,8.81515884399414,0.38644084334373474,4.6046881675720215
1701857395562240800,10.94924072265625,8.819944381713867,0.37447673082351685,4.611866474151611
1701857395571833900,10.958833740234375,8.824729919433594,0.3768695592880249,4.616652011871338
1701857395581426000,10.968426025390626,8.824729919433594,0.37926238775253296,4.623830795288086
1701857395591018800,10.978018798828124,8.824729919433594,0.3840480446815491,4.609473705291748
1701857395600612600,10.987612548828125,8.846264839172363,0.3720839321613312,4.621438026428223
1701857395610205400,10.997205322265625,8.82951545715332,0.3720839321613312,4.607080936431885
1701857395619797500,11.006797607421875,8.82951545715332,0.3768695592880249,4.607080936431885
1701857395629390600,11.016390625,8.831908226013184,0.37447673082351685,4.6046881675720215
1701857395638984200,11.025984130859374,8.848658561706543,0.381655216217041,4.619044780731201
1701857395648577300,11.035577392578125,8.839086532592773,0.364905446767807,4.59511661529541
1701857395658169300,11.04516943359375,8.8438720703125,0.35054850578308105,4.592723846435547
1701857395667762200,11.05476220703125,8.834300994873047,0.364905446767807,4.6046881675720215
1701857395677356000,11.06435595703125,8.812766075134277,0.39601215720176697,4.640580177307129
1701857395686948900,11.073948974609374,8.83669376373291,0.39122650027275085,4.686044216156006
1701857395696541000,11.083541015625,8.913264274597168,0.35533416271209717,4.686044216156006
1701857395706134000,11.093134033203125,8.939884185791016,0.38644084334373474,4.686044216156006
1701857395715727600,11.1027275390625,8.863015174865723,0.41994038224220276,4.695615291595459
1701857395725320700,11.11232080078125,8.863015174865723,0.39122650027275085,4.753043174743652
1701857395734912800,11.121912841796876,8.975776672363281,0.4055834412574768,4.736293315887451
1701857395744505600,11.131505615234374,8.990134239196777,0.4175475537776947,4.7004008293151855
1701857395754099500,11.141099365234375,8.970991134643555,0.4103690981864929,4.698008060455322
1701857395763692300,11.1506923828125,8.99252700805664,0.3888336718082428,4.683651447296143
1701857395773284400,11.160284423828125,9.01406192779541,0.3936193287372589,4.6286163330078125
1701857395782877400,11.16987744140625,9.078668594360352,0.4055834412574768,4.645366191864014
1701857395792471000,11.179470947265624,9.121739387512207,0.41515472531318665,4.702793598175049
1701857395802064100,11.189064208984375,9.203095436096191,0.4055834412574768,4.772185802459717
1701857395811656200,11.19865625,9.15284538269043,0.3936193287372589,4.7386860847473145
1701857395821249000,11.2082490234375,8.978169441223145,0.3840480446815491,4.674079895019531
1701857395830843000,11.2178427734375,8.791230201721191,0.3936193287372589,4.611866474151611
1701857395840435700,11.227435791015624,8.6907320022583,0.3888336718082428,4.58793830871582
1701857395850027800,11.23702783203125,8.57348346710205,0.39840495586395264,4.568795680999756
1701857395859620900,11.246620849609375,8.606983184814453,0.40797626972198486,4.585545539855957
1701857395869214500,11.25621435546875,8.673981666564941,0.39840495586395264,4.575973987579346
1701857395878807600,11.2658076171875,8.80798053741455,0.4175475537776947,4.578367233276367
1701857395888399600,11.275399658203124,8.8438720703125,0.43190449476242065,4.631009101867676
1701857395897992400,11.284992431640624,8.748159408569336,0.4486542344093323,4.635794639587402
1701857395907586300,11.29458642578125,8.671588897705078,0.4654040038585663,4.6525444984436035
1701857395917179100,11.30417919921875,8.61894702911377,0.46061834692955017,4.614259243011475
1701857395926771200,11.313771240234376,8.537590980529785,0.4749752879142761,4.6046881675720215
1701857395936364300,11.3233642578125,8.542376518249512,0.48454657196998596,4.616652011871338
1701857395945958100,11.332958251953125,8.597412109375,0.46779683232307434,4.631009101867676
1701857395955551000,11.342551025390625,8.673981666564941,0.47976094484329224,4.659722805023193
1701857395965143000,11.35214306640625,8.7505521774292,0.4582255482673645,4.7004008293151855
1701857395974736100,11.361736083984376,8.803194046020508,0.47258245944976807,4.757828712463379
1701857395984329700,11.371329833984374,8.86780071258545,0.43190449476242065,4.757828712463379
1701857395993922600,11.380922607421875,8.824729919433594,0.45104706287384033,4.853541851043701
1701857396003514600,11.3905146484375,8.827122688293457,0.4749752879142761,4.832006454467773
1701857396013107700,11.400107666015625,8.841479301452637,0.4462614357471466,4.841577529907227
1701857396022701600,11.40970166015625,8.745766639709473,0.4534398913383484,4.808077812194824
1701857396032294400,11.41929443359375,8.731410026550293,0.4630111753940582,4.765007019042969
1701857396041886500,11.428886474609374,8.659625053405762,0.46061834692955017,4.765007019042969
1701857396051479600,11.4384794921875,8.640482902526855,0.45104706287384033,4.755435943603516
1701857396061073200,11.4480732421875,8.654839515686035,0.45583271980285645,4.736293315887451
1701857396070666000,11.457666015625,8.623732566833496,0.4701896607875824,4.741078853607178
1701857396080258300,11.46725830078125,8.63330364227295,0.4654040038585663,4.733900547027588
1701857396089851100,11.47685107421875,8.650053977966309,0.4630111753940582,4.717150688171387
1701857396099445000,11.486445068359375,8.647661209106445,0.4701896607875824,4.743471622467041
1701857396109037800,11.496037841796875,8.652446746826172,0.4701896607875824,4.7386860847473145
1701857396118630000,11.5056298828125,8.645268440246582,0.4893322288990021,4.757828712463379
1701857396128223000,11.515222900390626,8.666803359985352,0.4893322288990021,4.7626142501831055
1701857396137816600,11.524816650390624,8.664410591125488,0.4701896607875824,4.779364109039307
1701857396147409400,11.534409423828125,8.657232284545898,0.4941178858280182,4.772185802459717
1701857396157001700,11.544001708984375,8.647661209106445,0.49651068449020386,4.779364109039307
1701857396166594600,11.553594482421875,8.664410591125488,0.503689169883728,4.765007019042969
1701857396176188400,11.5631884765625,8.62612533569336,0.4821537733078003,4.7937211990356445
1701857396185781200,11.57278125,8.662017822265625,0.486939400434494,4.760221481323242
1701857396195373300,11.582373291015625,8.681160926818848,0.486939400434494,4.7697930335998535
1701857396204966400,11.59196630859375,8.693124771118164,0.5060819983482361,4.7937211990356445
1701857396214560000,11.60156005859375,8.786444664001465,0.4701896607875824,4.84397029876709
1701857396224153000,11.611153076171876,8.817551612854004,0.4941178858280182,4.8559346199035645
1701857396233745200,11.6207451171875,8.855836868286133,0.486939400434494,4.858327388763428
1701857396243338000,11.630337890625,8.848658561706543,0.4821537733078003,4.865505695343018
1701857396252931800,11.639931884765625,8.784051895141602,0.47976094484329224,4.858327388763428
1701857396262524700,11.649524658203125,8.798408508300781,0.4749752879142761,4.863112926483154
1701857396272116700,11.65911669921875,8.82233715057373,0.486939400434494,4.85114860534668
1701857396281709800,11.668709716796876,8.817551612854004,0.49651068449020386,4.829613208770752
1701857396291303400,11.678303466796875,8.74337387084961,0.49651068449020386,4.846363067626953
1701857396300896500,11.687896484375,8.724231719970703,0.5132604837417603,4.803292274475098
1701857396310488600,11.697488525390625,8.688339233398438,0.5180460810661316,4.796113967895508
1701857396320081400,11.707081298828125,8.673981666564941,0.5108676552772522,4.7937211990356445
1701857396329675300,11.71667529296875,8.70508861541748,0.5084748268127441,4.810471057891846
1701857396339268000,11.72626806640625,8.70508861541748,0.503689169883728,4.810471057891846
1701857396348860200,11.735860107421875,8.707481384277344,0.5228317379951477,4.8367919921875
1701857396358453200,11.745453369140625,8.695517539978027,0.5419743061065674,4.832006454467773
1701857396368047000,11.755047119140626,8.683553695678711,0.4893322288990021,4.839184761047363
1701857396377640000,11.764639892578124,8.702695846557617,0.5252245664596558,4.8559346199035645
1701857396387232000,11.77423193359375,8.726624488830566,0.5132604837417603,4.846363067626953
1701857396396825000,11.7838251953125,8.7505521774292,0.534795880317688,4.846363067626953
1701857396406418700,11.793418701171875,8.745766639709473,0.5132604837417603,4.887041091918945
1701857396416011500,11.803011474609375,8.760123252868652,0.5060819983482361,4.887041091918945
1701857396425603600,11.812603515625,8.769695281982422,0.5419743061065674,4.915754795074463
1701857396435196700,11.82219677734375,8.757730484008789,0.5419743061065674,4.932504653930664
1701857396444790500,11.83179052734375,8.731410026550293,0.5228317379951477,4.942076206207275
1701857396454383400,11.84138330078125,8.695517539978027,0.5778666734695435,4.958825588226318
1701857396463975400,11.850975341796875,8.659625053405762,0.537188708782196,4.9516472816467285
1701857396473568500,11.860568603515626,8.6907320022583,0.486939400434494,4.9516472816467285
1701857396483162000,11.870162109375,8.602197647094727,0.5659025311470032,4.90618371963501
1701857396492755000,11.8797548828125,8.506484031677246,0.6352944374084473,4.90618371963501
1701857396502347300,11.88934716796875,8.561519622802734,0.6185446381568909,4.937290191650391
1701857396511940000,11.898940185546875,8.623732566833496,0.6496513485908508,4.937290191650391
1701857396521534000,11.908533935546876,8.70508861541748,0.6209374666213989,5.001896858215332
1701857396531126800,11.918126708984374,8.851051330566406,0.6089733839035034,5.133800983428955
1701857396540718800,11.92771875,8.975776672363281,0.6376872062683105,5.126622676849365
1701857396550312000,11.93731201171875,9.042776107788086,0.6352944374084473,5.100301265716553
1701857396559905500,11.946905517578125,9.02841854095459,0.6592226624488831,5.102694511413574
1701857396569498600,11.95649853515625,9.009276390075684,0.6664010882377625,5.136193752288818
1701857396579090700,11.966090576171876,8.915657043457031,0.6735795736312866,5.133800983428955
1701857396588683500,11.97568359375,8.908478736877441,0.6687939167022705,5.076373100280762
1701857396598277400,11.98527734375,8.657232284545898,0.6711867451667786,5.040481090545654
1701857396607870200,11.9948701171875,8.403593063354492,0.7097710371017456,5.057230472564697
1701857396617462300,12.004462158203125,8.259724617004395,0.7145566344261169,5.126622676849365
1701857396627055400,12.014055419921876,8.293224334716797,0.7145566344261169,5.219942569732666
1701857396636649000,12.02364892578125,8.331509590148926,0.7217351198196411,5.279763221740723
1701857396646242000,12.033241943359375,8.338687896728516,0.7600203156471252,5.30129861831665
1701857396655834000,12.042834228515625,8.417949676513672,0.7073782086372375,5.44008207321167
1701857396665427200,12.05242724609375,8.556734085083008,0.6496513485908508,5.509474277496338
1701857396675020800,12.062020751953124,8.733802795410156,0.6759724020957947,5.499902725219727
1701857396684613600,12.071613525390624,8.72901725769043,0.7025925517082214,5.516652584075928
1701857396694206000,12.0812060546875,8.676374435424805,0.7624131441116333,5.499902725219727
1701857396703798800,12.090798828125,8.621339797973633,0.8246265053749084,5.504688262939453
1701857396713392400,12.100392333984376,8.657232284545898,0.836590588092804,5.478367328643799
1701857396722985500,12.1099853515625,8.585447311401367,0.8557332158088684,5.468796253204346
1701857396732577500,12.11957763671875,8.525627136230469,0.8772686123847961,5.528616905212402
1701857396742170600,12.129170654296875,8.489734649658203,0.8461619019508362,5.4759745597839355
1701857396751764200,12.13876416015625,8.417949676513672,0.8222336769104004,5.547759532928467
1701857396761357300,12.148357421875,8.223832130432129,0.8078767657279968,5.559723377227783
1701857396770949400,12.157949462890626,8.03958511352539,0.836590588092804,5.619843006134033
1701857396780542200,12.167542236328124,7.89123010635376,0.8437690734863281,5.595914840698242
1701857396790136000,12.177135986328125,7.780860900878906,0.8557332158088684,5.574080467224121
1701857396799729000,12.18672900390625,7.6253275871276855,0.9538389444351196,5.574080467224121
1701857396809321000,12.196321044921875,7.505686283111572,0.9801599979400635,5.61745023727417
1701857396818914000,12.2059140625,7.4602227210998535,1.0064810514450073,5.696413516998291
1701857396828507600,12.215507568359374,7.421937465667725,1.0064810514450073,5.80409049987793
1701857396838100500,12.2251005859375,7.386045455932617,1.0184451341629028,5.875874996185303
1701857396847692800,12.23469287109375,7.414759159088135,1.0064810514450073,5.942873954772949
1701857396857285600,12.24428564453125,7.517650604248047,0.9825528264045715,6.040979862213135
1701857396866879500,12.25387939453125,7.709076404571533,1.1309077739715576,6.122335910797119
1701857396876472300,12.263472412109374,7.742575645446777,1.1668001413345337,6.292525291442871
1701857396886064400,12.273064453125,7.742575645446777,1.1356934309005737,6.426523208618164
1701857396895657500,12.282657470703125,7.761718273162842,1.0926226377487183,6.460022926330566
1701857396905251000,12.2922509765625,7.761718273162842,1.0950154066085815,6.426523208618164
1701857396914844000,12.301843994140626,7.7353973388671875,1.1285150051116943,6.4289164543151855
1701857396924436200,12.311436279296874,7.666005611419678,1.2098709344863892,6.457630157470703
1701857396934029000,12.321029052734374,7.491329669952393,1.1548360586166382,6.529414653778076
1701857396943623000,12.330622802734375,7.390830993652344,1.1955139636993408,6.548557281494141
1701857396953215700,12.3402158203125,7.747361660003662,1.277169108390808,6.773781776428223
1701857396962807800,12.349807861328125,7.64447021484375,2.112563371658325,6.1944193840026855
1701857396972401000,12.35940087890625,7.227819919586182,0.8940183520317078,6.955636501312256
1701857396981994800,12.368994873046875,7.376473903656006,0.9011968374252319,7.23081111907959
1701857396991587600,12.378587646484375,7.139285564422607,1.1380863189697266,7.130312442779541
1701857397001179600,12.3881796875,6.756433963775635,1.0423734188079834,7.099205493927002
1701857397010772700,12.397772705078125,6.773183822631836,1.1644073724746704,6.914958477020264
1701857397020366300,12.407366455078124,7.010073184967041,1.3513466119766235,6.977171897888184
1701857397029959200,12.416959228515625,6.722934246063232,1.5332010984420776,6.871887683868408
1701857397039551200,12.42655126953125,5.037489891052246,1.327418327331543,6.541378974914551
1701857397049144300,12.436144287109375,6.823432922363281,1.1333006620407104,7.5086774826049805
1701857397058738200,12.44573828125,6.006882190704346,1.3154542446136475,6.967600345611572
1701857397068331000,12.4553310546875,5.882455348968506,1.4207384586334229,6.778567314147949
1701857397077923000,12.464923095703124,6.667600154876709,1.3369896411895752,7.278966426849365
1701857397087516200,12.47451611328125,6.658029079437256,1.2508480548858643,7.479963779449463
1701857397097109800,12.48410986328125,6.330212116241455,1.2891331911087036,7.319644451141357
1701857397106702600,12.49370263671875,6.2536420822143555,1.0854442119598389,7.45364236831665
1701857397116295000,12.503294921875,3.2416765689849854,0.716949462890625,8.226823806762695
