time,seconds_elapsed,z,y,x
1701713683524809200,0.191809326171875,6.703791618347168,7.7339019775390625,-1.2131611108779907
1701713683534402600,0.201402587890625,6.835396766662598,7.412964344024658,-1.4189438819885254
1701713683543996700,0.21099658203125,6.9598236083984375,6.7809600830078125,-1.5672988891601562
1701713683553591800,0.220591796875,6.864110946655273,6.1704912185668945,-1.7446668148040771
1701713683563186000,0.23018603515625,6.730112552642822,5.816353797912598,-1.9935203790664673
1701713683572779300,0.239779296875,6.327819347381592,5.502594947814941,-2.331207513809204
1701713683582373600,0.24937353515625,5.7532429695129395,4.794020175933838,-2.788236618041992
1701713683591968500,0.258968505859375,7.919943809509277,5.1529436111450195,-3.765106439590454
1701713683601562600,0.268562744140625,11.103893280029297,6.9583282470703125,-5.000401020050049
1701713683611156200,0.27815625,11.858230590820312,7.1234331130981445,-4.868795871734619
1701713683620750300,0.287750244140625,10.43360424041748,6.21356201171875,-2.8914270401000977
1701713683630345500,0.297345458984375,9.605388641357422,5.066802024841309,-0.6266204118728638
1701713683639939600,0.306939697265625,9.610174179077148,4.5185465812683105,0.6664010882377625
1701713683649533000,0.316532958984375,9.593423843383789,4.578367233276367,0.8051848411560059
1701713683659127000,0.326126953125,9.35623550415039,4.743771076202393,0.37417763471603394
1701713683668722200,0.33572216796875,9.35623550415039,4.894518852233887,-0.4133601188659668
1701713683678316300,0.34531640625,9.078668594360352,5.131408214569092,-0.9329017400741577
1701713683687910000,0.354909912109375,8.748159408569336,5.426024436950684,-0.9568299651145935
1701713683697504000,0.36450390625,8.425128936767578,5.483452320098877,-0.30568310618400574
1701713683707099100,0.37409912109375,8.166404724121094,5.3231329917907715,0.5850451588630676
1701713683716693200,0.383693359375,7.82901668548584,4.999803066253662,1.456331729888916
1701713683726286600,0.39328662109375,7.503293514251709,4.820341110229492,1.4419747591018677
1701713683735880700,0.402880615234375,7.359724044799805,5.821139335632324,-0.2027917206287384
1701713683745475800,0.412475830078125,5.566303730010986,4.53290319442749,0.6424728631973267
1701713683755070000,0.422070068359375,5.588138103485107,4.243371963500977,0.33110684156417847
1701713683764663300,0.431663330078125,5.061418056488037,6.096313953399658,-0.7007979154586792
1701713683774257700,0.441257568359375,6.097809314727783,7.051648139953613,-1.1988041400909424
1701713683783852500,0.4508525390625,6.751648426055908,6.618248462677002,-0.9400802254676819
1701713683793447000,0.460447021484375,7.567899703979492,5.694020748138428,-0.20757736265659332
1701713683803040300,0.470040283203125,8.894122123718262,4.925625324249268,0.32153555750846863
1701713683812634400,0.47963427734375,10.445568084716797,4.5185465812683105,0.4651049077510834
1701713683822229500,0.4892294921875,11.769696235656738,4.351048946380615,0.498604416847229
1701713683831823600,0.49882373046875,12.700803756713867,3.99900484085083,0.5057829022407532
1701713683841417000,0.5084169921875,13.220345497131348,3.604189157485962,0.3837489187717438
1701713683851011300,0.51801123046875,13.220345497131348,3.606581926345825,-0.052043892443180084
1701713683860606200,0.527606201171875,12.633804321289062,3.7740795612335205,-0.4420739710330963
1701713683870200300,0.537200439453125,11.563614845275879,3.9559340476989746,-0.50907301902771
1701713683879794000,0.5467939453125,10.498209953308105,4.116552352905273,-0.18843477964401245
1701713683889388000,0.556387939453125,9.282057762145996,4.269692897796631,0.15164513885974884
1701713683898983200,0.565983154296875,8.07787036895752,4.571188449859619,0.2928216755390167
1701713683908577300,0.575577392578125,7.153642177581787,5.050052165985107,0.21625134348869324
1701713683918170600,0.585170654296875,6.631708145141602,5.287240505218506,0.1947159469127655
1701713683927765000,0.594764892578125,6.315855503082275,5.2752766609191895,0.14925231039524078
1701713683937360000,0.60435986328125,6.344569206237793,5.24416971206665,0.09421738982200623
1701713683946954000,0.6139541015625,6.476174354553223,5.232205867767334,0.008075776509940624
1701713683956547600,0.623547607421875,6.8497538566589355,5.2992048263549805,-0.07118647545576096
1701713683966141700,0.6331416015625,7.331010341644287,5.337490081787109,-0.16689938306808472
1701713683975736800,0.64273681640625,7.71386194229126,5.296812057495117,-0.3774677813053131
1701713683985331000,0.6523310546875,8.305188179016113,5.24416971206665,-0.48035913705825806
1701713683994924300,0.66192431640625,8.987740516662598,5.143372058868408,-0.4612165689468384
1701713684004518400,0.671518310546875,9.461520195007324,5.0117669105529785,-0.355932354927063
1701713684014113500,0.681113525390625,9.720243453979492,4.899304389953613,-0.20757736265659332
1701713684023707600,0.690707763671875,9.741779327392578,4.851448059082031,0.0487537607550621
1701713684033301200,0.70030126953125,9.463912963867188,4.83469820022583,0.27846473455429077
1701713684042895400,0.709895263671875,9.064311027526855,4.913661479949951,0.24975086748600006
1701713684052490200,0.719490234375,8.525627136230469,5.069194793701172,0.16839489340782166
1701713684062084600,0.729084716796875,8.0324068069458,5.260919570922852,-0.032602209597826004
1701713684071678000,0.738677978515625,7.634898662567139,5.375775337219238,-0.29371899366378784
1701713684081272000,0.74827197265625,7.5702924728393555,5.356632709503174,-0.3798605799674988
1701713684090867200,0.7578671875,7.613363265991211,5.404489040374756,-0.4540380835533142
1701713684100461300,0.76746142578125,7.792825222015381,5.280062198638916,-0.34636107087135315
1701713684110054700,0.7770546875,8.242975234985352,5.1050872802734375,-0.1908276081085205
1701713684119649000,0.78664892578125,8.628518104553223,5.002195835113525,-0.030209386721253395
1701713684129244000,0.796243896484375,9.018847465515137,4.8059844970703125,0.18514464795589447
1701713684138838000,0.805838134765625,9.246166229248047,4.6887359619140625,0.4052843451499939
1701713684148431600,0.815431640625,9.456734657287598,4.6169514656066895,0.5635097622871399
1701713684158025700,0.825025634765625,9.265308380126953,4.612165451049805,0.5635097622871399
1701713684167620900,0.834620849609375,8.982954978942871,4.679164886474609,0.45553362369537354
1701713684177215000,0.844215087890625,8.793622970581055,4.683950424194336,0.1301097273826599
1701713684186808300,0.853808349609375,8.441878318786621,5.030909538269043,-0.3080759048461914
1701713684196402700,0.863402587890625,8.104190826416016,4.932804107666016,-0.07836493849754333
1701713684205997600,0.87299755859375,8.0922269821167,4.71744966506958,0.05353940650820732
1701713684215591700,0.882591796875,8.341080665588379,4.880161762237549,0.16839489340782166
1701713684225185300,0.892185302734375,8.384450912475586,4.882554531097412,0.3646063506603241
1701713684234779400,0.901779296875,8.321938514709473,4.734199523925781,0.13250255584716797
1701713684244374500,0.91137451171875,8.132905006408691,4.884947299957275,-0.14775680005550385
1701713684253968600,0.92096875,8.125726699829102,5.107480049133301,-0.07597211748361588
1701713684263562000,0.93056201171875,8.037192344665527,5.042873859405518,0.09661021083593369
1701713684273156000,0.940156005859375,8.020442008972168,5.20588493347168,0.5129613280296326
1701713684282751200,0.949751220703125,8.094619750976562,5.193920612335205,0.8147560954093933
1701713684292345300,0.959345458984375,8.132905006408691,5.148158073425293,1.0085747241973877
1701713684301938700,0.968938720703125,8.207082748413086,5.054837703704834,0.9798609018325806
1701713684311533000,0.978532958984375,8.28126049041748,5.018945693969727,0.8554341197013855
1701713684321128000,0.9881279296875,8.250153541564941,5.057230472564697,0.8243274092674255
1701713684330722000,0.99772216796875,8.216653823852539,5.0907301902771,0.8889335989952087
1701713684340315600,1.007315673828125,8.235795974731445,5.085944652557373,1.0974082946777344
1701713684349909800,1.01690966796875,8.549555778503418,5.018945693969727,1.3606188297271729
1701713684359505000,1.0265048828125,8.70508861541748,5.131408214569092,1.5185450315475464
1701713684369099000,1.03609912109375,8.8438720703125,5.150550842285156,1.5065809488296509
1701713684378692400,1.0456923828125,8.877371788024902,5.071587562561035,1.3845469951629639
1701713684388286500,1.055286376953125,9.030811309814453,5.052444934844971,1.2170493602752686
1701713684397881600,1.064881591796875,9.181559562683105,4.978267669677734,1.1404790878295898
1701713684407475700,1.074475830078125,9.286844253540039,4.95912504196167,1.150050401687622
1701713684417069300,1.0840693359375,9.267701148986816,4.961517810821533,1.1117652654647827
1701713684426663400,1.093663330078125,9.222237586975098,4.954339504241943,1.085145115852356
1701713684436258300,1.10325830078125,9.215059280395508,4.9639105796813965,1.0974082946777344
1701713684445852700,1.112852783203125,9.176774024963379,4.956732273101807,1.1093723773956299
1701713684455446000,1.122446044921875,9.174381256103516,4.95912504196167,1.176371455192566
1701713684465040100,1.1320400390625,9.126524925231934,4.920839786529541,1.2481560707092285
1701713684474635300,1.14163525390625,9.030811309814453,4.882554531097412,1.2266206741333008
1701713684484229400,1.1512294921875,8.851051330566406,4.887340068817139,1.2194422483444214
1701713684493822700,1.16082275390625,8.583054542541504,4.918447017669678,1.176371455192566
1701713684503417000,1.1704169921875,8.305188179016113,4.928018093109131,1.1644073724746704
1701713684513012000,1.180011962890625,8.130512237548828,4.944767951965332,1.1787642240524292
1701713684522606000,1.189606201171875,8.03958511352539,4.990231513977051,1.1835498809814453
1701713684532199700,1.19919970703125,8.099405288696289,5.004588603973389,1.169192910194397
1701713684541793800,1.208793701171875,8.187939643859863,5.018945693969727,1.181157112121582
1701713684551389000,1.218388916015625,8.238189697265625,5.02851676940918,1.176371455192566
1701713684560983000,1.227983154296875,8.28843879699707,5.050052165985107,1.054038405418396
1701713684570576400,1.237576416015625,8.415556907653809,5.009374141693115,0.8889335989952087
1701713684580170500,1.24717041015625,8.504091262817383,5.030909538269043,0.745364248752594
1701713684589765600,1.256765625,8.57348346710205,5.038087844848633,0.6400800347328186
1701713684599359700,1.26635986328125,8.764909744262695,5.042873859405518,0.5778666734695435
1701713684608953000,1.275953125,8.85344409942627,4.990231513977051,0.6065805554389954
1701713684618547500,1.28554736328125,8.827122688293457,4.9878387451171875,0.6424728631973267
1701713684628142300,1.295142333984375,8.645268440246582,5.030909538269043,0.6185446381568909
1701713684637736700,1.30473681640625,8.413164138793945,5.066802024841309,0.5324030518531799
1701713684647330000,1.314330078125,8.28126049041748,5.085944652557373,0.34307095408439636
1701713684656924200,1.323924072265625,8.159226417541504,5.133800983428955,0.21146570146083832
1701713684666519300,1.333519287109375,8.190332412719727,5.1529436111450195,0.12053844332695007
1701713684676113400,1.343113525390625,8.293224334716797,5.117051124572754,0.02961117960512638
1701713684685706800,1.352706787109375,8.348258972167969,5.052444934844971,-0.047258246690034866
1701713684695301000,1.362301025390625,8.528019905090332,4.97348165512085,0.0008973084622994065
1701713684704896000,1.37189599609375,8.673981666564941,4.918447017669678,0.11814561486244202
1701713684714490000,1.381489990234375,8.650053977966309,4.880161762237549,0.247358039021492
1701713684724083700,1.391083740234375,8.513663291931152,4.906482696533203,0.17318053543567657
1701713684733677800,1.400677734375,8.30279541015625,4.949553489685059,-0.01824527233839035
1701713684743273000,1.41027294921875,8.058727264404297,5.047659397125244,-0.15254244208335876
1701713684752867000,1.4198671875,7.872087478637695,5.114658355712891,-0.15972091257572174
1701713684762460400,1.42946044921875,7.725826263427734,5.184349536895752,-0.1621137410402298
1701713684772054500,1.439054443359375,7.58943510055542,5.215456008911133,-0.2626122832298279
1701713684781649700,1.448649658203125,7.4602227210998535,5.227420330047607,-0.41096729040145874
1701713684791243800,1.458243896484375,7.378866672515869,5.253741264343262,-0.5712863802909851
1701713684800837000,1.467837158203125,7.5080790519714355,5.186742305755615,-0.5521438121795654
1701713684810431500,1.477431396484375,7.682755470275879,5.143372058868408,-0.4061816334724426
1701713684820026400,1.4870263671875,7.996514320373535,5.133800983428955,-0.26979073882102966
1701713684829620500,1.496620361328125,8.226224899291992,5.119443893432617,-0.23629122972488403
1701713684839214000,1.506214111328125,8.290831565856934,5.109872817993164,-0.3128615617752075
1701713684848808200,1.51580810546875,8.269295692443848,5.117051124572754,-0.3774677813053131
1701713684858403300,1.5254033203125,8.130512237548828,5.131408214569092,-0.3535395562648773
1701713684867997400,1.53499755859375,7.977371692657471,5.136193752288818,-0.2626122832298279
1701713684877590800,1.5445908203125,7.927122116088867,5.160121917724609,-0.18843477964401245
1701713684887185200,1.55418505859375,7.941479206085205,5.1050872802734375,-0.11904292553663254
1701713684896780000,1.563780029296875,8.101798057556152,4.995017051696777,-0.05922235921025276
1701713684906374100,1.5733740234375,8.240582466125488,4.937589645385742,-0.0975075215101242
1701713684915967700,1.5829677734375,8.298009872436523,4.887340068817139,-0.2267199456691742
1701713684925561900,1.592561767578125,8.374580383300781,4.8299126625061035,-0.27696922421455383
1701713684935156700,1.60215673828125,8.345866203308105,4.794020175933838,-0.267397940158844
1701713684944750800,1.611750732421875,8.28843879699707,4.796412944793701,-0.2554338276386261
1701713684954344400,1.621344482421875,8.142476081848145,4.8466620445251465,-0.3080759048461914
1701713684963938600,1.6309384765625,8.05394172668457,4.906482696533203,-0.3846462368965149
1701713684973533700,1.64053369140625,8.089834213256836,4.9878387451171875,-0.35832518339157104
1701713684983127800,1.6501279296875,8.17836856842041,5.02133846282959,-0.267397940158844
1701713684992721200,1.65972119140625,8.223832130432129,5.042873859405518,-0.2027917206287384
1701713685002315500,1.6693154296875,8.269295692443848,5.057230472564697,-0.25064817070961
1701713685011910400,1.678910400390625,8.305188179016113,5.047659397125244,-0.39182472229003906
1701713685021504500,1.68850439453125,8.415556907653809,5.0356950759887695,-0.4660021960735321
1701713685031098000,1.69809814453125,8.410771369934082,5.066802024841309,-0.4731806814670563
1701713685040692200,1.707692138671875,8.348258972167969,5.157729148864746,-0.46360939741134644
1701713685050287000,1.717287109375,8.290831565856934,5.251348495483398,-0.4492524564266205
1701713685059881500,1.726881591796875,8.197511672973633,5.3303117752075195,-0.4492524564266205
1701713685069474800,1.736474853515625,8.104190826416016,5.411667346954346,-0.4372883439064026
1701713685079069000,1.74606884765625,8.051548957824707,5.49302339553833,-0.3320041298866272
1701713685088664000,1.7556640625,8.116155624389648,5.543272972106934,-0.15254244208335876
1701713685098258200,1.765258056640625,8.152048110961914,5.579164981842041,-0.1333998590707779
1701713685107851500,1.7748515625,8.190332412719727,5.509773254394531,-0.3008974492549896
1701713685117445600,1.784445556640625,8.307580947875977,5.437988758087158,-0.5018945336341858
1701713685127040800,1.794040771484375,8.372187614440918,5.402096271514893,-0.5760720372200012
1701713685136635000,1.803634765625,8.362615585327148,5.3542399406433105,-0.49232324957847595
1701713685146228500,1.813228515625,8.305188179016113,5.344668388366699,-0.39900317788124084
1701713685155822600,1.822822509765625,8.257331848144531,5.315954685211182,-0.31046873331069946
1701713685165417500,1.83241748046875,8.247760772705078,5.320740222930908,-0.3487538993358612
1701713685175011800,1.84201171875,8.233403205871582,5.390131950378418,-0.50907301902771
1701713685184605200,1.851605224609375,7.998907089233398,5.292026519775391,-0.39182472229003906
1701713685194199300,1.86119921875,7.874480247497559,5.186742305755615,-0.3128615617752075
1701713685203794400,1.87079443359375,7.790432453155518,5.232205867767334,-0.4253242313861847
1701713685213388500,1.880388427734375,7.733004570007324,5.179563522338867,-0.5641079545021057
1701713685222982000,1.88998193359375,7.709076404571533,5.071587562561035,-0.6601199507713318
1701713685232576000,1.899575927734375,7.852944850921631,5.071587562561035,-0.913759171962738
1701713685242171100,1.909171142578125,8.132905006408691,4.942375183105469,-1.0070792436599731
1701713685251765200,1.91876513671875,8.398807525634766,4.82751989364624,-1.119541883468628
1701713685261358800,1.92835888671875,8.760123252868652,4.612165451049805,-0.9185447692871094
1701713685270953000,1.937952880859375,8.891729354858398,4.691128730773926,-0.7366902828216553
1701713685280547800,1.9475478515625,8.874979019165039,4.83469820022583,-0.5955137610435486
1701713685290142200,1.95714208984375,8.544769287109375,4.937589645385742,-0.5760720372200012
1701713685299735600,1.966735595703125,8.111370086669922,4.951946258544922,-0.5497509837150574
1701713685309329700,1.97632958984375,7.694719314575195,4.978267669677734,-0.5760720372200012
1701713685318924800,1.9859248046875,7.83619499206543,4.995017051696777,-0.5593222975730896
1701713685328519000,1.995518798828125,8.199904441833496,4.911268711090088,-0.40378883481025696
1701713685338112300,2.0051123046875,8.446663856506348,4.753342151641846,-0.09990034252405167
1701713685347706400,2.014706298828125,8.563912391662598,4.7030930519104,0.08464609831571579
1701713685357301500,2.024301513671875,8.738588333129883,4.777270317077637,0.06311069428920746
1701713685366895600,2.0338955078125,8.810373306274414,4.808377265930176,0.041575293987989426
1701713685376489200,2.0434892578125,8.72183895111084,4.815555572509766,0.020039889961481094
1701713685386083300,2.053083251953125,8.74337387084961,4.599902629852295,0.03918246924877167
1701713685395678200,2.06267822265625,8.973383903503418,4.458725929260254,0.27367907762527466
1701713685405272600,2.0722724609375,9.136096000671387,4.53290319442749,0.3047857880592346
1701713685414866000,2.081865966796875,9.1624174118042,4.575973987579346,0.31435707211494446
1701713685424460000,2.0914599609375,9.054739952087402,4.71027135848999,0.125324085354805
1701713685434055200,2.10105517578125,9.069096565246582,4.930410861968994,-0.5234299302101135
1701713685443649300,2.110649169921875,8.654839515686035,4.621737003326416,-0.3032902777194977
1701713685453242600,2.12024267578125,8.740981101989746,4.7365922927856445,-0.5066801905632019
1701713685462836700,2.129836669921875,8.73619556427002,4.76530647277832,-0.4707878530025482
1701713685472431900,2.139431884765625,8.855836868286133,4.738985061645508,-0.36311084032058716
1701713685482026000,2.14902587890625,9.023633003234863,4.693521499633789,-0.33918261528015137
1701713685491619600,2.15861962890625,9.294022560119629,4.65523624420166,-0.25782662630081177
1701713685501213700,2.168213623046875,9.516854286193848,4.619344234466553,0.03439682722091675
1701713685510808600,2.17780859375,9.54796028137207,4.607080936431885,0.13250255584716797
1701713685520402700,2.187402587890625,9.451948165893555,4.573581218719482,0.12053844332695007
1701713685529996300,2.196996337890625,9.430413246154785,4.5185465812683105,0.13250255584716797
1701713685539590400,2.20659033203125,9.449555397033691,4.5185465812683105,0.20428723096847534
1701713685549185500,2.216185546875,9.346664428710938,4.5113677978515625,0.24496522545814514
1701713685558779600,2.225779541015625,9.344271659851074,4.475475788116455,0.30239295959472656
1701713685568373000,2.235373046875,9.234201431274414,4.5113677978515625,0.3000001311302185
1701713685577967000,2.244967041015625,9.136096000671387,4.516153812408447,0.30957141518592834
1701713685587562200,2.254562255859375,9.109774589538574,4.528117656707764,0.3287140130996704
1701713685597156400,2.26415625,9.033205032348633,4.573581218719482,0.32153555750846863
1701713685606749700,2.273749755859375,8.982954978942871,4.547260284423828,0.3071786165237427
1701713685616344000,2.283343994140625,8.908478736877441,4.5257248878479,0.31914272904396057
1701713685625939000,2.29293896484375,8.764909744262695,4.523332118988037,0.36699917912483215
1701713685635533000,2.302532958984375,8.6907320022583,4.499403953552246,0.3981058597564697
1701713685645126700,2.312126708984375,8.592626571655273,4.482654094696045,0.4052843451499939
1701713685654720800,2.321720703125,8.549555778503418,4.480261325836182,0.376570463180542
1701713685664316000,2.33131591796875,8.606983184814453,4.437190532684326,0.4004986882209778
1701713685673910000,2.340909912109375,8.640482902526855,4.465904235839844,0.5201398134231567
1701713685683503400,2.35050341796875,8.676374435424805,4.441976070404053,0.7214360237121582
1701713685693097500,2.360097412109375,8.745766639709473,4.331906318664551,0.8386843204498291
1701713685702692600,2.369692626953125,8.714659690856934,4.224229335784912,0.7980063557624817
1701713685712286700,2.37928662109375,8.745766639709473,4.17637300491333,0.7046862840652466
1701713685721880000,2.388880126953125,8.740981101989746,4.11415958404541,0.6783652305603027
1701713685731474200,2.39847412109375,8.72183895111084,3.996612071990967,0.7094719409942627
1701713685741069300,2.4080693359375,8.681160926818848,3.723830223083496,0.747757077217102
1701713685750663400,2.417663330078125,8.889336585998535,3.3693933486938477,0.4914259612560272
1701713685760257000,2.427257080078125,9.291629791259766,3.051147937774658,-0.052043892443180084
1701713685769851100,2.43685107421875,9.847063064575195,2.675175666809082,-0.5473581552505493
1701713685779446000,2.446446044921875,10.335497856140137,2.2489542961120605,-0.8754739761352539
1701713685789040000,2.4560400390625,10.74257755279541,1.7174484729766846,-0.6720840334892273
1701713685798633700,2.4656337890625,11.156535148620605,1.3010972738265991,0.02961117960512638
1701713685808227800,2.475227783203125,11.386545181274414,0.9729815125465393,0.32632118463516235
1701713685817823000,2.484822998046875,10.99860954284668,0.623330295085907,0.4507479667663574
1701713685827417000,2.4944169921875,10.491031646728516,0.4749752879142761,0.2521436810493469
1701713685837010400,2.504010498046875,9.358628273010254,0.3888336718082428,0.17557336390018463
1701713685846604300,2.513604248046875,7.548757076263428,-0.16899310052394867,1.693520188331604
1701713685856199400,2.523199462890625,5.896812438964844,-0.15942180156707764,3.340679407119751
1701713685865793500,2.53279345703125,4.876871585845947,0.6376872062683105,3.8264224529266357
1701713685875387000,2.542386962890625,4.1730828285217285,1.1309077739715576,3.654139280319214
1701713685884981200,2.551981201171875,3.19860577583313,0.8485547304153442,4.008575916290283
1701713685894576000,2.561576171875,2.5378875732421875,0.7648059129714966,4.329214572906494
1701713685904170200,2.571170166015625,2.181057929992676,1.1237293481826782,4.384249210357666
1701713685913763800,2.580763916015625,2.0542383193969727,1.705484390258789,4.18564510345459
1701713685923358000,2.59035791015625,2.3967108726501465,2.222633123397827,3.958326816558838
1701713685932952800,2.599952880859375,2.604886531829834,1.6959130764007568,4.456333160400391
1701713685942547200,2.609547119140625,2.775076150894165,0.9897312521934509,4.863112926483154
1701713685952140500,2.619140625,3.0861430168151855,0.5419743061065674,5.373083114624023
1701713685961734700,2.628734619140625,3.4142587184906006,0.33379876613616943,5.813661575317383
1701713685971329800,2.638329833984375,3.7971103191375732,0.3433700501918793,5.772983551025391
1701713685980924000,2.647923828125,4.218546390533447,0.4414757788181305,5.554937839508057
1701713685990517200,2.657517333984375,4.40757942199707,0.47258245944976807,5.509474277496338
1701713686000111400,2.667111328125,4.29033088684082,0.22133609652519226,5.976373672485352
1701713686009706500,2.67670654296875,4.146761417388916,-0.22402802109718323,6.591628074645996
1701713686019300600,2.686300537109375,4.194618225097656,-0.5210371017456055,7.465606689453125
1701713686028894000,2.69589404296875,4.264009952545166,-0.5808576941490173,8.351249694824219
1701713686038488300,2.70548828125,4.180261135101318,-0.7722834944725037,9.11276626586914
1701713686048083200,2.715083251953125,3.9864425659179688,-1.0190433263778687,9.88833999633789
1701713686057677300,2.72467724609375,3.6320056915283203,-1.0764710903167725,10.407880783081055
1701713686067271000,2.73427099609375,3.088535785675049,-1.2942179441452026,11.169097900390625
1701713686076865000,2.743864990234375,2.5235304832458496,-1.394716501235962,12.222537994384766
1701713686086460000,2.7534599609375,1.781456470489502,-1.4976078271865845,13.072587966918945
1701713686096054300,2.76305419921875,1.017547845840454,-1.7180466651916504,13.525131225585938
1701713686105647600,2.772647705078125,-4.41685152053833,-4.229313850402832,19.313966751098633
1701713686115241700,2.78224169921875,0.1582254022359848,1.4087743759155273,9.773484230041504
1701713686124836900,2.7918369140625,-0.06699903309345245,-0.906281590461731,11.394322395324707
1701713686134431000,2.801430908203125,-5.156831741333008,-2.0889341831207275,13.69741439819336
1701713686144024300,2.8110244140625,-13.806586265563965,-0.600000262260437,15.332609176635742
1701713686153618400,2.820618408203125,-15.801004409790039,0.961017370223999,15.392430305480957
1701713686163213600,2.830213623046875,-12.784253120422363,1.8972092866897583,12.390335083007812
1701713686172807700,2.8398076171875,-5.894120216369629,-0.9421738982200623,25.809284210205078
1701713686182401000,2.849401123046875,-3.0643084049224854,0.42711883783340454,28.255945205688477
1701713686191995400,2.858995361328125,-0.732502818107605,-0.4660021960735321,19.330717086791992
1701713686201590300,2.86859033203125,1.2403794527053833,-3.139981508255005,9.730413436889648
1701713686211184400,2.878184326171875,1.812563180923462,-4.11206579208374,8.308178901672363
1701713686220778000,2.887778076171875,2.822932481765747,-5.000401020050049,7.906185150146484
1701713686230372000,2.8973720703125,3.9696927070617676,-4.4258246421813965,5.50229549407959
1701713686239967000,2.906967041015625,4.8553361892700195,-2.958127021789551,3.6684961318969727
1701713686249561300,2.916561279296875,4.316651821136475,-3.3867413997650146,2.6437699794769287
1701713686259154700,2.92615478515625,2.1092731952667236,-2.80977201461792,1.9016958475112915
1701713686268748800,2.935748779296875,-0.24885354936122894,-2.733201742172241,3.122633457183838
1701713686278344000,2.945343994140625,-0.8018946647644043,-2.7810580730438232,5.784947872161865
1701713686287938000,2.95493798828125,-1.8649061918258667,-3.827319860458374,10.1183500289917
1701713686297531400,2.964531494140625,7.606184959411621,-7.29392147064209,12.984053611755371
1701713686307125500,2.97412548828125,-2.2429721355438232,-3.4489548206329346,8.348856925964355
1701713686316720600,2.983720703125,-4.383351802825928,-4.176671981811523,7.95643424987793
1701713686326314800,2.993314697265625,-3.5120654106140137,-5.567799091339111,9.029017448425293
1701713686335908000,3.002908203125,-5.25972318649292,-2.4720849990844727,9.222835540771484
1701713686345502500,3.01250244140625,3.098107099533081,-10.621739387512207,8.993124961853027
1701713686355097300,3.022097412109375,1.6351951360702515,-4.653142929077148,1.3558331727981567
1701713686364691500,3.03169140625,-6.215057849884033,-2.476870536804199,5.013860702514648
1701713686374285000,3.04128515625,-5.810371398925781,-4.145565032958984,9.964909553527832
1701713686383879200,3.050879150390625,-0.8521439433097839,-8.648857116699219,4.322035789489746
1701713686393474300,3.060474365234375,-1.7380865812301636,-13.56162166595459,3.5273196697235107
1701713686403068400,3.070068359375,0.03858426585793495,-8.917152404785156,14.264812469482422
1701713686412661800,3.079661865234375,1.1159526109695435,-8.598608016967773,7.834400653839111
1701713686422255900,3.089255859375,-3.7250266075134277,-8.541180610656738,7.475177764892578
1701713686431851000,3.09885107421875,-5.50139856338501,-8.943473815917969,9.196515083312988
1701713686441445000,3.108445068359375,-4.1991047859191895,-11.205887794494629,9.538987159729004
1701713686451038500,3.11803857421875,-0.3900300860404968,-16.446468353271484,8.679366111755371
1701713686460632600,3.127632568359375,-0.5934200286865234,-16.738691329956055,5.942873954772949
1701713686470227700,3.137227783203125,-0.8377870321273804,-15.349957466125488,5.471189022064209
1701713686479821800,3.14682177734375,-0.9382855892181396,-12.472289085388184,4.492225646972656
1701713686489415200,3.156415283203125,-1.7380865812301636,-8.785248756408691,6.251847267150879
1701713686499009500,3.166009521484375,-1.6085749864578247,-7.952247142791748,6.438487529754639
1701713686508604400,3.1756044921875,-2.3150558471679688,-1.0357930660247803,2.4212374687194824
1701713686518198500,3.185198486328125,-1.4123635292053223,-5.455037593841553,6.280561447143555
1701713686527791900,3.1947919921875,-0.7851449251174927,-5.527121067047119,6.292525291442871
1701713686537386200,3.20438623046875,-0.3756731450557709,-5.596513271331787,5.554937839508057
1701713686546981000,3.213981201171875,-0.37806597352027893,-5.699404239654541,5.9213385581970215
1701713686556575500,3.223575439453125,-0.11724831163883209,-7.5427751541137695,5.851946830749512
1701713686566168800,3.2331689453125,-0.05503492057323456,-8.58185863494873,5.1529436111450195
1701713686575763000,3.242762939453125,-0.5144568681716919,-9.331110954284668,3.6589248180389404
1701713686585358000,3.252358154296875,0.263509601354599,-9.300004005432129,2.6102705001831055
1701713686594952200,3.2619521484375,-1.6396816968917847,-8.749356269836426,2.806781053543091
1701713686604545500,3.271545654296875,-2.099402666091919,-9.034400939941406,2.277667999267578
1701713686614139600,3.2811396484375,-1.9079769849777222,-9.599406242370605,3.2614171504974365
1701713686623734800,3.29073486328125,-2.6739792823791504,-12.450753211975098,2.9790642261505127
1701713686633329000,3.300328857421875,-1.1635099649429321,-15.046069145202637,8.459226608276367
1701713686642922200,3.309922119140625,-1.4889339208602905,-8.50289535522461,10.151848793029785
1701713686652516600,3.3195166015625,-1.7114664316177368,-8.519644737243652,3.0628130435943604
1701713686662111500,3.329111572265625,-1.0579266548156738,-9.053544044494629,2.964707374572754
1701713686671705600,3.33870556640625,-0.5479564070701599,-9.27846908569336,3.1680972576141357
1701713686681299200,3.34829931640625,-0.610468864440918,-9.23300552368164,3.311666488647461
1701713686690893300,3.357893310546875,-0.6870391964912415,-9.213862419128418,3.709174156188965
1701713686700488200,3.36748828125,-2.482553482055664,-4.4497528076171875,2.050050735473633
1701713686710082300,3.377082275390625,-0.8784649968147278,-0.5617151260375977,0.41485562920570374
1701713686719676000,3.386676025390625,0.3089732229709625,-5.409573554992676,4.015754699707031
1701713686729270000,3.39627001953125,-0.5359922647476196,-5.067399978637695,3.187239646911621
1701713686738865200,3.405865234375,-0.6008976101875305,-4.289134502410889,1.5281163454055786
1701713686748459300,3.415459228515625,-0.576670229434967,-4.262813568115234,0.7357929348945618
1701713686758052600,3.425052490234375,-1.201795220375061,-3.923032760620117,0.5225326418876648
1701713686767646700,3.434646728515625,-1.1778669357299805,-3.827319860458374,0.98703932762146
1701713686777241900,3.444241943359375,-2.11615252494812,-5.031507968902588,2.107478618621826
1701713686786836000,3.4538359375,-2.6021945476531982,-6.685845375061035,2.244168519973755
1701713686796429300,3.46342919921875,-2.918346405029297,-6.980162620544434,0.8865407705307007
1701713686806023700,3.473023681640625,-2.9063823223114014,-7.624131202697754,-0.6960122585296631
1701713686815618600,3.48261865234375,-2.827120065689087,-8.256134986877441,-0.46360939741134644
1701713686825212700,3.492212646484375,-0.49292147159576416,-9.57787036895752,0.7740781307220459
1701713686834806000,3.501805908203125,0.031405795365571976,-9.838688850402832,1.1596217155456543
1701713686844400400,3.511400390625,-1.0483554601669312,-13.66929817199707,2.6964120864868164
1701713686853995300,3.520995361328125,-3.545564889907837,-20.21725845336914,3.7354953289031982
1701713686863589400,3.53058935546875,-0.8665009140968323,-26.693132400512695,5.808876037597656
1701713686873183000,3.540182861328125,0.5772684812545776,-26.779273986816406,8.887541770935059
1701713686882777000,3.549777099609375,0.41904306411743164,-18.984355926513672,5.6222357749938965
1701713686892372200,3.559372314453125,-0.5910272002220154,-11.366207122802734,1.4611172676086426
1701713686901966300,3.56896630859375,-1.292722463607788,-9.960722923278809,0.8937192559242249
1701713686911559700,3.5785595703125,-1.2472587823867798,-9.7669038772583,1.0803594589233398
1701713686921153800,3.58815380859375,-1.5798611640930176,-9.628120422363281,1.2601202726364136
1701713686930749000,3.5977490234375,-1.587039589881897,-9.697511672973633,1.272084355354309
1701713686940343000,3.607343017578125,-1.6061822175979614,-9.64965534210205,1.4898312091827393
1701713686949936400,3.616936279296875,-1.2999008893966675,-9.824331283569336,1.5041881799697876
1701713686959530500,3.626530517578125,-1.1802598237991333,-9.862616539001465,1.4347963333129883
1701713686969125600,3.636125732421875,-1.2616157531738281,-10.025628089904785,1.4012967348098755
1701713686978719700,3.6457197265625,-1.280758261680603,-10.135697364807129,1.2577273845672607
1701713686988313000,3.65531298828125,-1.3573286533355713,-10.446764945983887,1.3749756813049316
1701713686997907500,3.664907470703125,-1.2496516704559326,-10.557133674621582,1.0974082946777344
1701713687007502300,3.67450244140625,-1.1416754722595215,-10.62413215637207,0.9655039310455322
1701713687017096400,3.684096435546875,-0.9598209857940674,-10.679167747497559,0.8003991842269897
1701713687026689800,3.693689697265625,-0.5814558863639832,-10.636096954345703,0.24975086748600006
1701713687036284200,3.7032841796875,-1.2424731254577637,-10.712666511535645,0.7262216806411743
1701713687045879000,3.712879150390625,-0.8090731501579285,-10.628918647766113,1.3773685693740845
1701713687055473400,3.722473388671875,-1.0196415185928345,-10.786844253540039,0.6975077986717224
1701713687065066800,3.732066650390625,-0.6990033388137817,-10.31755256652832,0.7549355626106262
1701713687074660900,3.741660888671875,-1.1826525926589966,-9.486943244934082,0.48424747586250305
1701713687084256000,3.751256103515625,-2.0228323936462402,-8.529216766357422,0.6903293132781982
1701713687093850000,3.76085009765625,-2.293520450592041,-8.490931510925293,1.1524431705474854
1701713687103443500,3.770443359375,-0.8353942036628723,-9.14686393737793,0.898504912853241
1701713687113037600,3.78003759765625,-1.0028917789459229,-9.81236743927002,1.090229868888855
1701713687122632700,3.7896328125,-1.074676513671875,-9.955936431884766,1.169192910194397
1701713687132226800,3.799226806640625,-1.0698908567428589,-9.853045463562012,1.1596217155456543
1701713687141820200,3.808820068359375,-0.9574281573295593,-10.051948547363281,0.9343972206115723
1701713687151414500,3.81841455078125,-0.9885348677635193,-10.078269958496094,0.9104689955711365
1701713687161009400,3.828009521484375,-1.0698908567428589,-10.049555778503418,0.9583254456520081
1701713687170603500,3.837603515625,-1.225723385810852,-9.984950065612793,1.0157532691955566
1701713687180197000,3.847197021484375,-1.3214362859725952,-9.92243766784668,1.0660024881362915
1701713687189791200,3.856791259765625,-1.3525429964065552,-9.869794845581055,0.9990034699440002
1701713687199386000,3.86638623046875,-1.3645070791244507,-9.809974670410156,1.0348957777023315
1701713687208980200,3.875980224609375,-1.4219348430633545,-9.714262008666992,1.114158034324646
1701713687218573800,3.88557373046875,-1.43389892578125,-9.675976753234863,1.1572288274765015
1701713687228168000,3.89516796875,-1.4841482639312744,-9.620942115783691,1.291226863861084
1701713687237763000,3.90476318359375,-1.4985052347183228,-9.608977317810059,1.425225019454956
1701713687247357200,3.914357177734375,-1.5176477432250977,-9.589835166931152,1.6166508197784424
1701713687256950500,3.923950439453125,-1.5080764293670654,-9.585049629211426,1.7724833488464355
1701713687266544600,3.933544677734375,-1.5128620862960815,-9.56351375579834,1.9423737525939941
1701713687276139800,3.943139892578125,-1.5176477432250977,-9.5324068069458,2.0715861320495605
1701713687285734000,3.95273388671875,-1.5655041933059692,-9.482157707214355,2.191227436065674
1701713687295327200,3.9623271484375,-1.5296118259429932,-9.494122505187988,2.363809585571289
1701713687304921600,3.971921630859375,-1.5702898502349854,-9.486943244934082,2.50498628616333
1701713687314516500,3.9815166015625,-1.555932879447937,-9.503693580627441,2.6270201206207275
1701713687324110600,3.991110595703125,-1.5726827383041382,-9.477372169494629,2.7466611862182617
1701713687333704000,4.000703857421875,-1.5798611640930176,-9.427123069763184,2.857030153274536
1701713687343298300,4.01029833984375,-1.6085749864578247,-9.37178897857666,2.940778970718384
1701713687352893200,4.01989306640625,-1.6372889280319214,-9.314361572265625,3.019742250442505
1701713687362487300,4.0294873046875,-1.673181176185608,-9.244969367980957,3.067598581314087
1701713687372081000,4.039080810546875,-1.673181176185608,-9.218647956848145,3.1417760848999023
1701713687381675000,4.048675048828125,-1.6516457796096802,-9.187541961669922,3.184846878051758
1701713687391270000,4.058269775390625,-1.5726827383041382,-9.189934730529785,3.2590243816375732
1701713687400864300,4.0678642578125,-1.500898003578186,-9.199505805969238,3.321237802505493
1701713687410457600,4.07745751953125,-1.4482558965682983,-9.204291343688965,3.3454651832580566
1701713687420051700,4.0870517578125,-1.3860424757003784,-9.24736213684082,3.388535976409912
1701713687429646800,4.096646728515625,-1.3094722032546997,-9.338289260864258,3.3981072902679443
1701713687439241000,4.106240966796875,-1.2711870670318604,-9.345467567443848,3.3236305713653564
1701713687448834300,4.115834228515625,-1.2352946996688843,-9.323932647705078,3.2159535884857178
1701713687458428400,4.125428466796875,-1.1754741668701172,-9.304789543151855,3.0963125228881836
1701713687468023600,4.1350234375,-1.129711389541626,-9.326325416564941,2.9958138465881348
1701713687477617700,4.14461767578125,-1.0842477083206177,-9.414859771728516,2.9001009464263916
1701713687487211000,4.1542109375,-1.0244271755218506,-9.467801094055176,2.763411045074463
1701713687496805400,4.163805419921875,-0.9885348677635193,-9.55633544921875,2.631805896759033
1701713687506400300,4.173400146484375,-0.9693922996520996,-9.601799011230469,2.4762723445892334
1701713687515994400,4.182994384765625,-0.885643482208252,-9.690333366394043,2.3350958824157715
1701713687525587700,4.192587646484375,-0.8138588070869446,-9.77408218383789,2.1960129737854004
1701713687535182000,4.20218212890625,-0.7755736112594604,-9.841081619262695,2.018944025039673
1701713687544777000,4.21177685546875,-0.6870391964912415,-9.900901794433594,1.882553219795227
1701713687554371000,4.22137109375,-0.6248258352279663,-9.975079536437988,1.7533408403396606
1701713687563964700,4.230964599609375,-0.5790630578994751,-10.037591934204102,1.6094722747802734
1701713687573558800,4.240558837890625,-0.4905286431312561,-10.054341316223145,1.4946168661117554
1701713687583154000,4.25015380859375,-0.39481574296951294,-10.080662727355957,1.3989039659500122
1701713687592748000,4.259748046875,-0.2847459018230438,-10.116555213928223,1.334297776222229
1701713687602341400,4.26934130859375,-0.23449662327766418,-10.111769676208496,1.267298698425293
1701713687611935500,4.278935546875,-0.22013968229293823,-10.109376907348633,1.1859427690505981
1701713687621530600,4.288530517578125,-0.23688943684101105,-10.126126289367676,1.118943691253662
1701713687631124700,4.298124755859375,-0.2392822653055191,-10.135697364807129,1.0564311742782593
1701713687640718000,4.307718017578125,-0.22492532432079315,-10.157233238220215,1.01814603805542
1701713687650312200,4.317312255859375,-0.23688943684101105,-10.166804313659668,0.9631111025810242
1701713687659907300,4.3269072265625,-0.24167509377002716,-10.162018775939941,0.9032905697822571
1701713687669501400,4.33650146484375,-0.24406790733337402,-10.138090133666992,0.865005373954773
1701713687679094800,4.3460947265625,-0.25363919138908386,-10.128519058227539,0.8171489238739014
1701713687688689200,4.355689208984375,-0.28953152894973755,-10.104591369628906,0.7740781307220459
1701713687698284000,4.365283935546875,-0.2967100143432617,-10.08305549621582,0.776470959186554
1701713687707878100,4.374878173828125,-0.31345975399017334,-10.066306114196777,0.8003991842269897
1701713687717471700,4.3844716796875,-0.31345975399017334,-10.054341316223145,0.8482556343078613
1701713687727065900,4.39406591796875,-0.3158525824546814,-10.056734085083008,0.9032905697822571
1701713687736660700,4.40366064453125,-0.32303106784820557,-10.10698413848877,0.9583254456520081
1701713687746254800,4.4132548828125,-0.31106695532798767,-10.123733520507812,1.0109676122665405
1701713687755848400,4.422848388671875,-0.28953152894973755,-10.066306114196777,1.0660024881362915
1701713687765442600,4.432442626953125,-0.24646073579788208,-10.039984703063965,1.1476575136184692
1701713687775037700,4.44203759765625,-0.2584248483181,-10.001699447631836,1.2098709344863892
1701713687784631800,4.4516318359375,-0.2871387302875519,-9.965508460998535,1.2768700122833252
1701713687794225200,4.46122509765625,-0.31824541091918945,-9.951150894165039,1.3630115985870361
1701713687803819300,4.4708193359375,-0.31345975399017334,-9.948758125305176,1.42043936252594
1701713687813414400,4.480414306640625,-0.2967100143432617,-9.946365356445312,1.480259895324707
1701713687823008500,4.490008544921875,-0.29431718587875366,-9.958329200744629,1.511366605758667
1701713687832601900,4.499601806640625,-0.2991028428077698,-9.98255729675293,1.5089738368988037
1701713687842196200,4.5091962890625,-0.2919243574142456,-10.013663291931152,1.4898312091827393
1701713687851791000,4.518791015625,-0.28235307335853577,-10.042377471923828,1.4371891021728516
1701713687861385200,4.52838525390625,-0.30149564146995544,-10.049555778503418,1.3869398832321167
1701713687870978600,4.537978515625,-0.3278166949748993,-10.037591934204102,1.3390833139419556
1701713687880573000,4.547572998046875,-0.3397808074951172,-10.018449783325195,1.329512119293213
1701713687890167800,4.557167724609375,-0.3732803463935852,-10.016056060791016,1.32711923122406
1701713687899762000,4.566761962890625,-0.38285163044929504,-10.011270523071289,1.3438689708709717
1701713687909355500,4.57635546875,-0.3732803463935852,-9.99691390991211,1.3630115985870361
1701713687918949600,4.58594970703125,-0.3900300860404968,-9.99691390991211,1.3869398832321167
1701713687928544800,4.595544677734375,-0.3684946894645691,-10.0040922164917,1.4084752798080444
1701713687938139000,4.605138916015625,-0.349352091550827,-10.016056060791016,1.4300106763839722
1701713687947732200,4.614732177734375,-0.31345975399017334,-10.030413627624512,1.449153184890747
1701713687957326300,4.624326416015625,-0.30149564146995544,-10.039984703063965,1.456331729888916
1701713687966921500,4.63392138671875,-0.275174617767334,-10.049555778503418,1.4324034452438354
1701713687976515600,4.643515625,-0.2560320198535919,-10.06152057647705,1.4060823917388916
1701713687986109000,4.65310888671875,-0.2153540402650833,-10.063913345336914,1.4060823917388916
1701713687995703000,4.662703125,-0.21774685382843018,-10.032806396484375,1.3965110778808594
1701713688005298200,4.672298095703125,-0.2153540402650833,-10.020842552185059,1.3845469951629639
1701713688014892300,4.681892333984375,-0.24167509377002716,-10.020842552185059,1.3677972555160522
1701713688024485600,4.691485595703125,-0.24167509377002716,-10.025628089904785,1.3438689708709717
1701713688034080000,4.701080078125,-0.2632105052471161,-10.039984703063965,1.3127623796463013
1701713688043675000,4.7106748046875,-0.2679961323738098,-10.051948547363281,1.2625130414962769
1701713688053269000,4.72026904296875,-0.2799602448940277,-10.073484420776367,1.2074781656265259
1701713688062862300,4.7298623046875,-0.2392822653055191,-10.06152057647705,1.150050401687622
1701713688072456700,4.739456787109375,-0.2105683982372284,-10.018449783325195,1.1165509223937988
1701713688082051600,4.749051513671875,-0.19381862878799438,-9.951150894165039,1.1404790878295898
1701713688091645700,4.758645751953125,-0.1579262912273407,-10.016056060791016,1.0564311742782593
1701713688101239300,4.7682392578125,-0.16510476171970367,-10.023235321044922,0.9846464991569519
1701713688110833400,4.77783349609375,-0.2273181527853012,-10.001699447631836,0.9200403094291687
1701713688120428500,4.787428466796875,-0.1818545162677765,-10.001699447631836,0.8578268885612488
1701713688130022700,4.797022705078125,-0.20578274130821228,-9.965508460998535,0.8745766878128052
1701713688139616000,4.806615966796875,-0.37806597352027893,-9.967901229858398,0.8506484627723694
1701713688149210000,4.816210205078125,-0.4378865361213684,-9.972686767578125,0.7980063557624817
1701713688158805200,4.82580517578125,-0.4043870270252228,-9.98255729675293,0.778863787651062
1701713688168399400,4.8353994140625,-0.4163511395454407,-10.028020858764648,0.8003991842269897
1701713688177992700,4.84499267578125,-0.43549370765686035,-10.07587718963623,0.6903293132781982
1701713688187586800,4.8545869140625,-0.349352091550827,-10.09023380279541,0.6520441770553589
1701713688197182000,4.864181884765625,-0.2847459018230438,-10.039984703063965,0.7046862840652466
1701713688206776000,4.873776123046875,-0.23210379481315613,-10.006484985351562,0.7716853022575378
1701713688216369400,4.883369384765625,-0.18903298676013947,-9.967901229858398,0.8267202377319336
1701713688225963800,4.8929638671875,-0.1579262912273407,-9.903294563293457,0.9104689955711365
1701713688235558700,4.90255859375,-0.12921242415905,-9.838688850402832,0.9702895879745483
1701713688245152800,4.91215283203125,-0.11006984114646912,-9.838688850402832,1.0564311742782593
1701713688254746400,4.921746337890625,-0.14356936514377594,-9.874580383300781,1.090229868888855
1701713688264340500,4.931340576171875,-0.23449662327766418,-9.92961597442627,1.046859860420227
1701713688273935400,4.940935302734375,-0.2560320198535919,-9.994521141052246,0.989432156085968
1701713688283529500,4.950529541015625,-0.28953152894973755,-10.030413627624512,0.9343972206115723
1701713688293123000,4.960123046875,-0.34217363595962524,-10.023235321044922,0.8841479420661926
1701713688302717200,4.96971728515625,-0.35892340540885925,-10.018449783325195,0.8793623447418213
1701713688312312300,4.979312255859375,-0.5216353535652161,-10.016056060791016,0.8745766878128052
1701713688321906400,4.988906494140625,-0.6056832075119019,-10.039984703063965,0.8937192559242249
1701713688331499800,4.998499755859375,-0.5216353535652161,-10.071091651916504,0.9320043921470642
1701713688341094000,5.008093994140625,-0.3684946894645691,-10.085448265075684,0.9224331378936768
1701713688350689000,5.01768896484375,-0.19621145725250244,-10.2385892868042,1.0492527484893799
1701713688360283100,5.027283203125,-0.03080759197473526,-10.171589851379395,0.9391828775405884
1701713688369876500,5.03687646484375,0.20608185231685638,-9.872187614440918,0.8027920126914978
1701713688379470800,5.046470947265625,0.11515458673238754,-9.43190860748291,0.589830756187439
1701713688389065700,5.056065673828125,-0.016450656577944756,-9.553942680358887,0.7046862840652466
1701713688398659800,5.065659912109375,-0.39481574296951294,-9.690333366394043,0.7501499056816101
1701713688408253200,5.075253173828125,0.05294119939208031,-9.786046028137207,0.8386843204498291
1701713688417847600,5.08484765625,0.23718854784965515,-9.7669038772583,0.9320043921470642
1701713688427442400,5.0944423828125,0.34247273206710815,-9.915258407592773,1.0926226377487183
1701713688437036500,5.10403662109375,0.2922234535217285,-9.750154495239258,0.9415757060050964
1701713688446630100,5.113630126953125,0.22761724889278412,-9.575477600097656,1.054038405418396
1701713688456224300,5.123224365234375,0.1295115202665329,-9.587442398071289,1.1309077739715576
1701713688465819100,5.132819091796875,-0.06699903309345245,-9.163613319396973,0.776470959186554
1701713688475413500,5.14241357421875,0.033798620104789734,-9.027222633361816,0.7501499056816101
1701713688485006800,5.1520068359375,0.11994023621082306,-8.950652122497559,0.7214360237121582
1701713688494601000,5.16160107421875,0.2946162819862366,-9.173184394836426,0.9176474809646606
1701713688504196000,5.171196044921875,0.2587239444255829,-9.345467567443848,1.0516455173492432
1701713688513790200,5.180790283203125,0.40229329466819763,-9.68076229095459,1.3606188297271729
1701713688523383600,5.190383544921875,0.43100717663764954,-9.992128372192383,1.5807584524154663
1701713688532977700,5.199977783203125,0.5195416212081909,-10.334301948547363,1.851446509361267
1701713688542572800,5.20957275390625,0.5437689423561096,-10.233803749084473,1.5448660850524902
1701713688552167000,5.2191669921875,0.584446907043457,-10.016056060791016,1.4682958126068115
1701713688561760300,5.22876025390625,0.5099703073501587,-9.977771759033203,1.5017952919006348
1701713688571354400,5.238354248046875,0.35443684458732605,-9.876974105834961,1.3654043674468994
1701713688580949500,5.247949462890625,0.28504499793052673,-9.685547828674316,1.2194422483444214
1701713688590543600,5.257543701171875,0.2515454888343811,-9.489336013793945,1.0277173519134521
1701713688600137200,5.26713720703125,0.16061821579933167,-9.27846908569336,0.8817551732063293
1701713688609731300,5.2767314453125,0.09361918270587921,-9.218647956848145,0.8075776696205139
1701713688619326200,5.286326171875,0.23001007735729218,-9.103793144226074,0.714257538318634
1701713688628920300,5.29592041015625,0.47168517112731934,-9.211469650268555,0.745364248752594
1701713688638514000,5.305513916015625,0.4501497745513916,-9.36461067199707,0.8434699773788452
1701713688648108000,5.31510791015625,0.44775694608688354,-9.506086349487305,1.1165509223937988
1701713688657703000,5.324702880859375,0.40229329466819763,-9.872187614440918,1.573580026626587
1701713688667297300,5.33429736328125,0.5796613097190857,-10.379765510559082,2.145763635635376
1701713688676890600,5.343890625,0.3975076675415039,-10.240982055664062,2.145763635635376
1701713688686484700,5.353484619140625,0.40707895159721375,-10.080662727355957,2.4308087825775146
1701713688696080000,5.363079833984375,0.35443684458732605,-9.92961597442627,2.6341986656188965
1701713688705674000,5.372674072265625,0.25633111596107483,-9.735796928405762,2.7035903930664062
1701713688715267300,5.382267333984375,0.11515458673238754,-9.56351375579834,2.6988048553466797
1701713688724861400,5.391861328125,0.22522443532943726,-9.412467002868652,2.6365914344787598
1701713688734456600,5.40145654296875,0.24436701834201813,-9.199505805969238,2.4595224857330322
1701713688744050700,5.41105078125,0.30658039450645447,-8.88125991821289,2.2322044372558594
1701713688753644000,5.42064404296875,0.3520440459251404,-8.72782039642334,2.0572292804718018
1701713688763238400,5.43023828125,0.3041875660419464,-8.668000221252441,1.815554141998291
1701713688772833300,5.439833251953125,0.4453641176223755,-8.622536659240723,1.7533408403396606
1701713688782427400,5.449427490234375,0.4262215197086334,-8.6033935546875,1.6983058452606201
1701713688792020700,5.459020751953125,0.16061821579933167,-8.529216766357422,1.6238292455673218
1701713688801615000,5.468614990234375,-0.03320041298866272,-8.550751686096191,1.4850455522537231
1701713688811210000,5.4782099609375,-0.11964113265275955,-8.526823043823242,1.334297776222229
1701713688820804400,5.487804443359375,-0.2392822653055191,-8.380861282348633,1.2218350172042847
1701713688830397700,5.497397705078125,-0.32303106784820557,-8.548358917236328,1.3630115985870361
1701713688839991800,5.50699169921875,-0.4618147611618042,-9.046364784240723,1.5951154232025146
1701713688849587000,5.5165869140625,-0.519242525100708,-9.235398292541504,1.705484390258789
1701713688859181000,5.52618115234375,-0.6702894568443298,-9.470193862915039,1.72941255569458
1701713688868774400,5.5357744140625,-0.7157530784606934,-9.735796928405762,1.7270197868347168
1701713688878368500,5.545368408203125,-0.6990033388137817,-9.81236743927002,1.7461622953414917
1701713688887963600,5.554963623046875,-0.5288137793540955,-9.850652694702148,1.7796618938446045
1701713688897557800,5.564557861328125,-0.46899324655532837,-9.675976753234863,1.5927225351333618
1701713688907151000,5.574151123046875,-0.643968403339386,-9.506086349487305,1.1835498809814453
1701713688916745200,5.5837451171875,-0.6942176818847656,-9.235398292541504,0.7956135272979736
1701713688926340400,5.59334033203125,-1.5296118259429932,-8.356932640075684,0.06789634376764297
1701713688935934500,5.6029345703125,-1.2544373273849487,-7.35613489151001,-0.01824527233839035
1701713688945527800,5.61252783203125,-0.9574281573295593,-7.0423760414123535,0.12771691381931305
1701713688955122200,5.6221220703125,-2.372483730316162,-7.616952896118164,-0.20518454909324646
1701713688964717000,5.631717041015625,-2.1975085735321045,-8.83071231842041,0.28564319014549255
1701713688974311200,5.641311279296875,-2.496910333633423,-9.764511108398438,0.5826523303985596
1701713688983904800,5.65090478515625,-1.9319051504135132,-10.226624488830566,1.085145115852356
1701713688993499000,5.660498779296875,-1.4123635292053223,-10.63370418548584,1.0133603811264038
1701713689003093800,5.67009375,-0.5647061467170715,-10.877771377563477,1.0926226377487183
1701713689012688000,5.67968798828125,-1.2544373273849487,-10.98305606842041,1.7796618938446045
1701713689022281500,5.689281494140625,0.39990049600601196,-10.808380126953125,1.82273268699646
1701713689031875600,5.69887548828125,-0.9981061220169067,-9.68794059753418,1.4826527833938599
1701713689041470700,5.708470703125,-1.0172487497329712,-9.434301376342773,1.906481385231018
1701713689051064800,5.71806494140625,-1.4841482639312744,-9.4390869140625,2.105085611343384
1701713689060658200,5.727658203125,-1.2496516704559326,-7.681559085845947,2.6820549964904785
1701713689070252300,5.737252197265625,-1.6325032711029053,-7.179066181182861,3.1178479194641113
1701713689079847400,5.746847412109375,-2.144866466522217,-7.837391376495361,3.8168511390686035
1701713689089441500,5.756441650390625,-2.027618169784546,-8.792427062988281,5.009075164794922
1701713689099035000,5.766034912109375,-2.123331069946289,-9.494122505187988,5.040481090545654
1701713689108629200,5.775629150390625,-1.8481563329696655,-9.79083251953125,5.298905849456787
1701713689118224100,5.78522412109375,-1.4051851034164429,-9.903294563293457,5.186442852020264
1701713689127818200,5.794818359375,-1.6013965606689453,-8.325826644897461,4.839184761047363
1701713689137411600,5.80441162109375,-2.0108683109283447,-8.790034294128418,4.468297004699707
1701713689147006000,5.814005859375,-2.33180570602417,-10.506585121154785,4.300500392913818
1701713689156600800,5.823600830078125,-2.592623233795166,-11.457134246826172,4.432105541229248
1701713689166195000,5.83319482421875,-2.774477958679199,-12.254542350769043,4.357928276062012
1701713689175788500,5.84278857421875,-2.8414769172668457,-12.189637184143066,4.197608947753906
1701713689185382700,5.852382568359375,-3.0667014122009277,-12.117852210998535,4.0803608894348145
1701713689194977800,5.861977783203125,-3.289233922958374,-11.689537048339844,4.13060998916626
1701713689204572000,5.871572021484375,-3.442673683166504,-11.761321067810059,4.345963954925537
1701713689214165200,5.881165283203125,-3.4378879070281982,-11.723036766052246,4.4874396324157715
1701713689223759400,5.89075927734375,-3.265305519104004,-11.421241760253906,4.695615291595459
1701713689233354500,5.9003544921875,-3.2006993293762207,-11.165209770202637,4.894219398498535
1701713689242948600,5.909948486328125,-3.279662609100342,-11.062019348144531,5.102694511413574
1701713689252542000,5.9195419921875,-3.3634114265441895,-10.645668029785156,5.078765869140625
1701713689262136000,5.929135986328125,-3.576671600341797,-10.43958568572998,5.207978248596191
1701713689271731200,5.938731201171875,-3.9499518871307373,-10.358230590820312,5.406582832336426
1701713689281325300,5.9483251953125,-4.225425720214844,-10.3319091796875,5.540580749511719
1701713689290918700,5.957918701171875,-4.4048871994018555,-10.252945899963379,5.61745023727417
1701713689300513000,5.967512939453125,-4.474279403686523,-10.171589851379395,5.581557750701904
1701713689310108000,5.97710791015625,-4.476672172546387,-10.023235321044922,5.473581790924072
1701713689319702000,5.986701904296875,-4.357030868530273,-9.70229721069336,5.36351203918457
1701713689329295400,5.99629541015625,-4.34745979309082,-9.41755199432373,5.291727066040039
1701713689338889700,6.0058896484375,-4.153641223907471,-9.020044326782227,5.117051124572754
1701713689348484600,6.015484619140625,-4.1297125816345215,-8.644071578979492,5.023731231689453
1701713689358078700,6.02507861328125,-4.146462440490723,-8.177172660827637,4.901398181915283
1701713689367672300,6.03467236328125,-3.9284164905548096,-7.741678714752197,4.693222522735596
1701713689377266400,6.044266357421875,-3.813561201095581,-7.521239757537842,4.896612644195557
1701713689386861300,6.053861328125,-3.741776466369629,-7.2867431640625,4.96121883392334
1701713689396455700,6.06345556640625,-3.662813186645508,-6.894021034240723,4.702793598175049
1701713689406049000,6.073049072265625,-3.521636724472046,-6.659524440765381,4.324428558349609
1701713689415643100,6.08264306640625,-3.61017107963562,-6.532405853271484,4.173680782318115
1701713689425238300,6.09223828125,-3.586242914199829,-6.472585201263428,3.8551363945007324
1701713689434832400,6.101832275390625,-4.022035598754883,-6.472585201263428,4.118646144866943
1701713689444425700,6.11142578125,-4.203890323638916,-6.422336101531982,3.8407795429229736
1701713689454019800,6.121019775390625,-4.258925437927246,-6.510870456695557,3.7378880977630615
1701713689463615000,6.130614990234375,-4.3809590339660645,-6.645167350769043,3.8790645599365234
1701713689473209000,6.140208984375,-4.53200626373291,-6.757630348205566,4.046861171722412
1701713689482802400,6.149802490234375,-4.716253280639648,-6.841379165649414,4.334000110626221
1701713689492396800,6.159396728515625,-4.8574299812316895,-7.03998327255249,4.674079895019531
1701713689501991700,6.16899169921875,-4.900500774383545,-7.183851718902588,4.901398181915283
1701713689511585800,6.178585693359375,-4.852644443511963,-7.222136974334717,4.908576488494873
1701713689521179100,6.18817919921875,-4.7473602294921875,-7.284350395202637,4.891826629638672
1701713689530773500,6.1977734375,-4.737788677215576,-7.269993305206299,4.755435943603516
1701713689540368400,6.207368408203125,-4.804787635803223,-7.248457908630371,4.626223564147949
1701713689549962500,6.21696240234375,-4.900500774383545,-7.238886833190918,4.571188449859619
1701713689559556000,6.22655615234375,-4.821537494659424,-7.186244487762451,4.575973987579346
1701713689569150200,6.236150146484375,-4.828716278076172,-7.1285176277160645,4.635794639587402
1701713689578745300,6.245745361328125,-4.934000492095947,-7.080661296844482,4.78893518447876
1701713689588339500,6.25533935546875,-4.809573650360107,-7.035197734832764,4.887041091918945
1701713689597932800,6.264932861328125,-4.737788677215576,-6.925127983093262,4.8559346199035645
1701713689607527000,6.27452685546875,-5.729015827178955,-8.08385181427002,4.3172502517700195
1701713689617122000,6.2841220703125,-3.5479576587677,-6.855735778808594,5.44008207321167
1701713689626716200,6.293716064453125,-4.948357105255127,-6.185446739196777,5.191228866577148
1701713689636309500,6.3033095703125,-4.859822750091553,-6.192625045776367,5.24626350402832
1701713689645903600,6.312903564453125,-4.886143684387207,-6.281159400939941,5.468796253204346
1701713689655498800,6.322498779296875,-5.173581600189209,-6.558726787567139,5.61745023727417
1701713689665092900,6.3320927734375,-5.048855781555176,-6.3840508460998535,5.782555103302002
1701713689674686200,6.341686279296875,-5.489434242248535,-6.429514408111572,5.523830890655518
1701713689684280600,6.351280517578125,-5.365007400512695,-6.364908218383789,5.497509956359863
1701713689693875500,6.36087548828125,-5.796014785766602,-6.527620315551758,5.43290376663208
1701713689703469600,6.370469482421875,-6.0879387855529785,-6.817451000213623,5.198407173156738
1701713689713063000,6.38006298828125,-5.879763603210449,-6.958627223968506,5.054837703704834
1701713689722657300,6.3896572265625,-5.9300127029418945,-6.972984313964844,4.920540809631348
1701713689732252200,6.399252197265625,-5.829514026641846,-7.075875759124756,4.946861743927002
1701713689741846300,6.40884619140625,-5.755336761474609,-7.10219669342041,5.050052165985107
1701713689751440000,6.41843994140625,-5.5468621253967285,-6.544369697570801,5.114658355712891
1701713689761034000,6.428033935546875,-5.5085768699646,-6.357729911804199,5.361119270324707
1701713689770629000,6.437629150390625,-5.434399127960205,-6.889235496520996,5.547759532928467
1701713689780223200,6.44722314453125,-5.422435283660889,-5.847759246826172,5.353940486907959
1701713689789816600,6.456816650390625,-5.463113307952881,-5.594120025634766,5.533402442932129
1701713689799410700,6.46641064453125,-5.506184101104736,-5.110470771789551,5.559723377227783
1701713689809005800,6.476005859375,-5.479863166809082,-5.3593244552612305,5.667699337005615
1701713689818600000,6.485599853515625,-5.4296135902404785,-5.577370643615723,5.595914840698242
1701713689828193300,6.495193359375,-5.520540714263916,-7.413562774658203,5.813661575317383
1701713689837787400,6.504787353515625,-5.38415002822876,-5.9937214851379395,5.274977684020996
1701713689847382500,6.514382568359375,-5.173581600189209,-5.00997257232666,5.717948913574219
1701713689856976600,6.5239765625,-5.077569484710693,-5.136792182922363,5.985944747924805
1701713689866570000,6.533570068359375,-5.164010524749756,-5.467001438140869,6.112764358520508
1701713689876164400,6.543164306640625,-5.343472003936768,-5.220541000366211,6.002694606781006
1701713689885759200,6.55275927734375,-5.422435283660889,-4.885246753692627,6.093621730804443
1701713689895353300,6.562353271484375,-5.618646621704102,-4.878067970275879,6.244668960571289
1701713689904947000,6.571947021484375,-5.913262844085693,-5.179862976074219,6.330810546875
1701713689914541000,6.581541015625,-6.0472612380981445,-4.210171222686768,6.381059646606445
1701713689924136000,6.591135986328125,-6.138188362121582,-3.3460633754730225,6.438487529754639
1701713689933730000,6.60072998046875,-6.408876419067383,-4.3779683113098145,6.70199728012085
1701713689943323600,6.61032373046875,-6.475875377655029,-4.8421759605407715,6.646663188934326
1701713689952917800,6.619917724609375,-6.447161674499512,-5.019543647766113,6.510272026062012
1701713689962513000,6.629512939453125,-6.408876419067383,-5.167898654937744,6.294918060302734
1701713689972107000,6.63910693359375,-6.523731708526611,-5.2492547035217285,6.0768723487854
1701713689981700400,6.648700439453125,-6.209972858428955,-5.057828903198242,5.976373672485352
1701713689991294500,6.65829443359375,-6.2413787841796875,-4.758427143096924,5.775376319885254
1701713690000889600,6.6678896484375,-6.272485256195068,-4.418646335601807,5.768198013305664
1701713690010483700,6.677483642578125,-5.9300127029418945,-4.23649263381958,5.880660533905029
1701713690020077000,6.6870771484375,-6.1573309898376465,-4.95493745803833,6.661019802093506
1701713690029671400,6.69667138671875,-5.257330417633057,-3.0993034839630127,5.447260856628418
1701713690039266300,6.706266357421875,-5.458327770233154,-3.52313232421875,5.758626937866211
1701713690048860400,6.7158603515625,-5.738586902618408,-3.7887356281280518,6.0864434242248535
1701713690058453800,6.725453857421875,-5.637789249420166,-3.844069480895996,6.2566328048706055
1701713690068048100,6.735048095703125,-5.815157413482666,-3.9158542156219482,6.278168201446533
1701713690077643000,6.74464306640625,-5.889334678649902,-4.071387767791748,6.285346984863281
1701713690087237000,6.754237060546875,-5.9539408683776855,-4.308277130126953,6.357131481170654
1701713690096830500,6.76383056640625,-5.901298999786377,-4.576572418212891,6.503093719482422
1701713690106424800,6.7734248046875,-5.755336761474609,-4.779962539672852,6.558128833770752
1701713690116019700,6.783019775390625,-5.644967555999756,-5.000401020050049,6.450451850891113
1701713690125614000,6.792614013671875,-5.635396480560303,-5.005186557769775,6.33798885345459
1701713690135207400,6.80220751953125,-5.702694416046143,-4.739284515380859,6.412166595458984
1701713690144801500,6.811801513671875,-5.870192050933838,-4.363312244415283,6.546164512634277
1701713690154396700,6.821396728515625,-6.176473617553711,-3.9804604053497314,6.639484405517578
1701713690163990800,6.83099072265625,-6.416054725646973,-3.875176191329956,6.766603469848633
1701713690173584100,6.840584228515625,-6.5883378982543945,-4.04985237121582,6.745068073272705
1701713690183178200,6.85017822265625,-6.573981285095215,-4.404289245605469,6.57966423034668
1701713690192773400,6.8597734375,-6.442375659942627,-4.878067970275879,6.242276191711426
1701713690202367500,6.869367431640625,-6.325127601623535,-5.285147190093994,5.74187707901001
1701713690211960800,6.8789609375,-6.186044692993164,-5.577370643615723,5.289334297180176
1701713690221555000,6.888554931640625,-6.107081413269043,-5.72333288192749,4.9037909507751465
1701713690231150000,6.898150146484375,-6.085546016693115,-5.73768949508667,4.621438026428223
1701713690240744200,6.907744140625,-6.121438503265381,-5.689833164215088,4.523332118988037
1701713690250337500,6.917337646484375,-6.193222999572754,-5.627619743347168,4.611866474151611
1701713690259932000,6.926931884765625,-6.356234073638916,-5.527121067047119,4.822434902191162
1701713690269526800,6.93652685546875,-6.528517246246338,-5.333003520965576,5.093122959136963
1701713690279121000,6.946120849609375,-6.6744794845581055,-5.14875602722168,5.332405090332031
1701713690288714500,6.955714599609375,-6.703193664550781,-5.012365341186523,5.531009674072266
1701713690298308600,6.96530859375,-6.655336856842041,-4.875675201416016,5.696413516998291
1701713690307903500,6.974903564453125,-6.590730667114258,-4.789533615112305,5.720341682434082
1701713690317497900,6.984497802734375,-6.600302219390869,-4.767998218536377,5.694020748138428
1701713690327091200,6.99409130859375,-6.559624195098877,-4.7727837562561035,5.62462854385376
1701713690336685300,7.003685302734375,-6.526124477386475,-4.808676242828369,5.586343765258789
1701713690346280400,7.013280517578125,-6.497410774230957,-4.846961498260498,5.552545070648193
1701713690355874600,7.02287451171875,-6.473482608795166,-4.90199613571167,5.5381879806518555
1701713690365468000,7.032468017578125,-6.435197353363037,-4.986044406890869,5.55015230178833
1701713690375062000,7.04206201171875,-6.332305908203125,-5.021936416625977,5.5621161460876465
1701713690384657200,7.0516572265625,-6.243771553039551,-5.002793788909912,5.600700378417969
1701713690394251300,7.061251220703125,-6.1334028244018555,-4.938187599182129,5.648557186126709
1701713690403844600,7.0708447265625,-6.059225082397461,-4.899603366851807,5.717948913574219
1701713690413439000,7.08043896484375,-5.999404430389404,-4.837389945983887,5.80409049987793
1701713690423033900,7.090033935546875,-5.927619934082031,-4.815854549407959,5.847161293029785
1701713690432628000,7.0996279296875,-5.901298999786377,-4.834997177124023,5.813661575317383
1701713690442221300,7.10922119140625,-5.865406513214111,-4.918745994567871,5.79691219329834
1701713690451815700,7.118815673828125,-5.846263885498047,-4.995615482330322,5.73469877243042
1701713690461410600,7.12841064453125,-5.824728488922119,-5.074578762054443,5.6916279792785645
1701713690471005000,7.1380048828125,-5.824728488922119,-5.1343994140625,5.655735492706299
1701713690480598300,7.147598388671875,-5.7888360023498535,-5.165505886077881,5.6294145584106445
1701713690490192400,7.1571923828125,-5.748157978057861,-5.208576679229736,5.615057468414307
1701713690499787500,7.16678759765625,-5.750551223754883,-5.263611793518066,5.593522071838379
1701713690509381600,7.176381591796875,-5.769693374633789,-5.354538917541504,5.535795211791992
1701713690518975000,7.18597509765625,-5.822335720062256,-5.438287734985352,5.461617469787598
1701713690528569000,7.195569091796875,-5.90369176864624,-5.522335529327393,5.3970112800598145
1701713690538164200,7.205164306640625,-5.963512420654297,-5.558228015899658,5.341976642608643
1701713690547758300,7.21475830078125,-5.977869033813477,-5.627619743347168,5.337191104888916
1701713690557351700,7.2243515625,-6.013761520385742,-5.665904998779297,5.375475883483887
1701713690566945800,7.23394580078125,-6.078367710113525,-5.699404239654541,5.480760097503662
1701713690576541000,7.243541015625,-6.317949295043945,-6.577869415283203,6.0864434242248535
1701713690586135000,7.253135009765625,-6.164509296417236,-5.007579803466797,5.033302307128906
1701713690595728400,7.262728271484375,-6.107081413269043,-5.505585670471191,5.3802618980407715
1701713690605322800,7.27232275390625,-6.215057849884033,-5.663512229919434,5.593522071838379
1701713690614917600,7.281917724609375,-6.294020652770996,-5.641976833343506,5.61027193069458
1701713690624511700,7.29151171875,-6.291627883911133,-5.630012512207031,5.547759532928467
1701713690634105300,7.301105224609375,-6.258128643035889,-5.653940677642822,5.468796253204346
1701713690643699500,7.310699462890625,-6.209972858428955,-5.682654857635498,5.44008207321167
1701713690653294300,7.32029443359375,-6.1812591552734375,-5.680262088775635,5.411368370056152
1701713690662888700,7.329888671875,-6.176473617553711,-5.641976833343506,5.387440204620361
1701713690672482000,7.33948193359375,-6.1669020652771,-5.563013553619385,5.344369411468506
1701713690682076200,7.349076171875,-6.1334028244018555,-5.54387092590332,5.377869129180908
1701713690691671300,7.35867138671875,-6.0400824546813965,-5.553442478179932,5.330012321472168
1701713690701265400,7.368265380859375,-5.987440586090088,-5.517549991607666,5.291727066040039
1701713690710858800,7.377858642578125,-5.9539408683776855,-5.517549991607666,5.303691387176514
1701713690720452900,7.387452880859375,-5.8821563720703125,-5.574977874755859,5.277370452880859
1701713690730048000,7.397048095703125,-5.819942951202393,-5.601298809051514,5.251049518585205
1701713690739642000,7.40664208984375,-5.803193092346191,-5.665904998779297,5.219942569732666
1701713690749235500,7.4162353515625,-5.78644323348999,-5.704190254211426,5.227120876312256
1701713690758829800,7.425829833984375,-5.748157978057861,-5.747261047363281,5.2869415283203125
1701713690768424700,7.4354248046875,-5.719444274902344,-5.7496538162231445,5.365904808044434
1701713690778018800,7.445018798828125,-5.700301647186279,-5.740082263946533,5.4041900634765625
1701713690787612200,7.454612060546875,-5.688337802886963,-5.759224891662598,5.392225742340088
1701713690797206500,7.46420654296875,-5.705087184906006,-5.802295684814453,5.349154949188232
1701713690806801400,7.473801513671875,-5.714658737182617,-5.842973709106445,5.282155990600586
1701713690816395500,7.4833955078125,-5.755336761474609,-5.8597235679626465,5.251049518585205
1701713690825989000,7.492989013671875,-5.812764644622803,-5.847759246826172,5.253442287445068
1701713690835583200,7.502583251953125,-5.865406513214111,-5.823831081390381,5.306084156036377
1701713690845178400,7.512178466796875,-5.939583778381348,-5.783153057098389,5.349154949188232
1701713690854772500,7.5217724609375,-6.013761520385742,-5.716154098510742,5.408975601196289
1701713690864365800,7.53136572265625,-6.025725841522217,-5.653940677642822,5.4520463943481445
1701713690873960000,7.5409599609375,-6.049654006958008,-5.594120025634766,5.48793888092041
1701713690883555000,7.55055517578125,-6.075974941253662,-5.519942760467529,5.504688262939453
1701713690893149200,7.560149169921875,-6.085546016693115,-5.455037593841553,5.509474277496338
1701713690902742500,7.569742431640625,-6.0879387855529785,-5.400002479553223,5.528616905212402
1701713690912336600,7.579336669921875,-6.09033203125,-5.395216941833496,5.547759532928467
1701713690921931800,7.588931884765625,-6.107081413269043,-5.364109992980957,5.559723377227783
1701713690931526000,7.59852587890625,-6.123831272125244,-5.337789058685303,5.531009674072266
1701713690941119200,7.608119140625,-6.140581130981445,-5.333003520965576,5.459224700927734
1701713690950713600,7.617713623046875,-6.138188362121582,-5.356931686401367,5.36351203918457
1701713690960308500,7.62730859375,-6.123831272125244,-5.378467082977295,5.2869415283203125
1701713690969902600,7.636902587890625,-6.09033203125,-5.385645389556885,5.253442287445068
1701713690979496200,7.64649609375,-6.083153247833252,-5.395216941833496,5.205585479736328
1701713690989090300,7.65609033203125,-6.0711894035339355,-5.361717224121094,5.210371494293213
1701713690998685200,7.665685302734375,-5.951548099517822,-5.2971110343933105,5.2151570320129395
1701713691008279600,7.675279541015625,-5.8343000411987305,-5.1152567863464355,5.37069034576416
1701713691017873000,7.684872802734375,-6.0640106201171875,-5.1320061683654785,5.430510997772217
1701713691027467000,7.694467041015625,-6.236593246459961,-5.206183910369873,5.30129861831665
1701713691037062100,7.704062255859375,-6.186044692993164,-5.237290382385254,5.169693470001221
1701713691046656300,7.71365625,-6.04247522354126,-5.182255744934082,5.009075164794922
1701713691056249600,7.72324951171875,-5.970690727233887,-5.1152567863464355,4.970789909362793
1701713691065843700,7.73284375,-6.186044692993164,-5.275575637817383,5.112265586853027
1701713691075438800,7.74243896484375,-6.432804584503174,-5.646762371063232,5.339583873748779
1701713691085033000,7.752032958984375,-6.538088798522949,-5.9554362297058105,5.5381879806518555
1701713691094626300,7.761626220703125,-6.444768905639648,-5.967400550842285,5.615057468414307
1701713691104220400,7.771220458984375,-6.28205680847168,-5.7257256507873535,5.61027193069458
1701713691113815600,7.780815673828125,-6.068796634674072,-5.416752338409424,5.547759532928467
1701713691123409700,7.79040966796875,-5.884549140930176,-5.199005603790283,5.5381879806518555
1701713691133003300,7.800003173828125,-5.791228771209717,-5.146363258361816,5.576473236083984
1701713691142597400,7.809597412109375,-5.815157413482666,-5.196612358093262,5.658128261566162
1701713691152192300,7.819192138671875,-5.956333637237549,-5.325825214385986,5.710770130157471
1701713691161786400,7.828786376953125,-6.080760478973389,-5.457430362701416,5.758626937866211
1701713691171380000,7.8383798828125,-6.0640106201171875,-5.548656463623047,5.80409049987793
1701713691180974000,7.84797412109375,-5.956333637237549,-5.567799091339111,5.806483268737793
1701713691190569200,7.8575693359375,-5.913262844085693,-5.531907081604004,5.80409049987793
1701713691200163300,7.867163330078125,-5.913262844085693,-5.522335529327393,5.756234169006348
1701713691209756700,7.876756591796875,-5.9539408683776855,-5.529513835906982,5.701199054718018
1701713691219350800,7.886350830078125,-5.963512420654297,-5.54387092590332,5.595914840698242
1701713691228946000,7.89594580078125,-5.968297958374023,-5.574977874755859,5.4759745597839355
1701713691238540000,7.9055400390625,-5.9539408683776855,-5.574977874755859,5.385047435760498
1701713691248133400,7.91513330078125,-5.9539408683776855,-5.582156181335449,5.344369411468506
1701713691257727700,7.924727783203125,-5.982655048370361,-5.567799091339111,5.318048477172852
1701713691267322600,7.934322509765625,-6.025725841522217,-5.507978439331055,5.298905849456787
1701713691276916700,7.943916748046875,-6.037689685821533,-5.457430362701416,5.313262462615967
1701713691286510000,7.953510009765625,-6.052046775817871,-5.397609710693359,5.3347978591918945
1701713691296104400,7.9631044921875,-6.052046775817871,-5.364109992980957,5.325226783752441
1701713691305699300,7.97269921875,-6.052046775817871,-5.349753379821777,5.282155990600586
1701713691315293400,7.98229345703125,-6.044867992401123,-5.344967365264893,5.212764263153076
1701713691324887000,7.991886962890625,-6.0472612380981445,-5.368896007537842,5.164907455444336
1701713691334481200,8.001481201171876,-6.066403388977051,-5.416752338409424,5.148158073425293
1701713691344076300,8.011076171875,-6.095117568969727,-5.486144065856934,5.109872817993164
1701713691353670400,8.02067041015625,-6.102295875549316,-5.531907081604004,5.069194793701172
1701713691363263700,8.030263671875,-6.099903106689453,-5.582156181335449,5.066802024841309
1701713691372857900,8.03985791015625,-6.085546016693115,-5.586941719055176,5.100301265716553
1701713691382453000,8.049452880859375,-6.068796634674072,-5.565406322479248,5.150550842285156
1701713691392047000,8.059047119140626,-6.114260196685791,-5.493621826171875,5.255835056304932
1701713691401640400,8.068640380859375,-6.190830230712891,-5.42871618270874,5.344369411468506
1701713691411234600,8.078234619140625,-6.27487850189209,-5.371288776397705,5.466403484344482
1701713691420829700,8.08782958984375,-6.327520370483398,-5.340181827545166,5.552545070648193
1701713691430423800,8.097423828125,-6.368198394775391,-5.318646430969238,5.6222357749938965
1701713691440017200,8.10701708984375,-6.339484691619873,-5.318646430969238,5.643771171569824
1701713691449611500,8.116611572265626,-6.310770511627197,-5.301896572113037,5.665306568145752
1701713691459206400,8.126206298828125,-6.27487850189209,-5.301896572113037,5.662913799285889
1701713691468800500,8.135800537109375,-6.236593246459961,-5.292325496673584,5.660521030426025
1701713691478393900,8.145393798828126,-6.207580089569092,-5.289932727813721,5.627021312713623
1701713691487988200,8.15498828125,-6.145366668701172,-5.280361175537109,5.593522071838379
1701713691497583000,8.1645830078125,-6.107081413269043,-5.282754421234131,5.55015230178833
1701713691507177500,8.174177490234374,-6.066403388977051,-5.26600456237793,5.497509956359863
1701713691516770800,8.183770751953125,-6.04247522354126,-5.26600456237793,5.44008207321167
1701713691526365000,8.193364990234375,-6.018547058105469,-5.289932727813721,5.3970112800598145
1701713691535960000,8.2029599609375,-6.004190444946289,-5.318646430969238,5.361119270324707
1701713691545554200,8.21255419921875,-5.999404430389404,-5.352146148681641,5.361119270324707
1701713691555147500,8.2221474609375,-5.9922261238098145,-5.371288776397705,5.387440204620361
1701713691564741600,8.23174169921875,-6.011368751525879,-5.373681545257568,5.408975601196289
1701713691574336800,8.241336669921875,-6.006583213806152,-5.376074314117432,5.430510997772217
1701713691583931000,8.250930908203125,-6.008975982666016,-5.354538917541504,5.437689304351807
1701713691593524200,8.260524169921876,-6.006583213806152,-5.354538917541504,5.456831932067871
1701713691603118600,8.27011865234375,-6.004190444946289,-5.352146148681641,5.473581790924072
1701713691612713500,8.27971337890625,-6.004190444946289,-5.352146148681641,5.4759745597839355
1701713691622307600,8.2893076171875,-6.03529691696167,-5.330610752105713,5.480760097503662
1701713691631901200,8.298901123046875,-6.09033203125,-5.330610752105713,5.483152866363525
1701713691641495300,8.308495361328125,-6.116652965545654,-5.325825214385986,5.480760097503662
1701713691651090200,8.318090087890624,-6.126224040985107,-5.321039199829102,5.471189022064209
1701713691660684300,8.327684326171875,-6.142973899841309,-5.318646430969238,5.456831932067871
1701713691670278000,8.33727783203125,-6.145366668701172,-5.318646430969238,5.447260856628418
1701713691679872000,8.3468720703125,-6.150152206420898,-5.313860893249512,5.430510997772217
1701713691689467000,8.356466796875,-6.15254545211792,-5.318646430969238,5.447260856628418
1701713691699061200,8.366061279296876,-6.1669020652771,-5.299503803253174,5.442475318908691
1701713691708654600,8.375654541015624,-6.174080848693848,-5.2731828689575195,5.442475318908691
1701713691718248700,8.385248779296875,-6.178866386413574,-5.263611793518066,5.456831932067871
1701713691727843800,8.39484375,-6.2051873207092285,-5.246861934661865,5.483152866363525
1701713691737438000,8.40443798828125,-6.215057849884033,-5.227719306945801,5.483152866363525
1701713691747031300,8.41403125,-6.224628925323486,-5.222933769226074,5.459224700927734
1701713691756625400,8.42362548828125,-6.246164321899414,-5.220541000366211,5.456831932067871
1701713691766220500,8.433220458984374,-6.284449577331543,-5.213362216949463,5.464010715484619
1701713691775814700,8.442814697265625,-6.305984973907471,-5.194219589233398,5.4759745597839355
1701713691785408000,8.452407958984375,-6.320342063903809,-5.187041282653809,5.5142598152160645
1701713691795002400,8.46200244140625,-6.315556049346924,-5.187041282653809,5.531009674072266
1701713691804597200,8.47159716796875,-6.346662998199463,-5.208576679229736,5.528616905212402
1701713691814191400,8.48119140625,-6.361020088195801,-5.2253265380859375,5.535795211791992
1701713691823785000,8.490784912109374,-6.349055767059326,-5.230112075805664,5.535795211791992
1701713691833379000,8.500379150390625,-6.327520370483398,-5.232504844665527,5.535795211791992
1701713691842974000,8.509973876953126,-6.310770511627197,-5.220541000366211,5.50229549407959
1701713691852568000,8.519568115234375,-6.294020652770996,-5.230112075805664,5.473581790924072
1701713691862161700,8.52916162109375,-6.238986015319824,-5.239683151245117,5.442475318908691
1701713691871755800,8.538755859375,-6.215057849884033,-5.285147190093994,5.413761138916016
1701713691881351000,8.548350830078125,-6.183651924133301,-5.304289817810059,5.389832973480225
1701713691890945000,8.557945068359375,-6.164509296417236,-5.294718265533447,5.361119270324707
1701713691900538400,8.567538330078126,-6.162116527557373,-5.287539958953857,5.344369411468506
1701713691910132500,8.577132568359374,-6.164509296417236,-5.304289817810059,5.356333255767822
1701713691919727600,8.5867275390625,-6.10468864440918,-5.301896572113037,5.406582832336426
1701713691929321700,8.59632177734375,-6.116652965545654,-5.277968406677246,5.454439163208008
1701713691938915000,8.6059150390625,-6.1334028244018555,-5.275575637817383,5.490331649780273
1701713691948509400,8.615509521484375,-6.145366668701172,-5.280361175537109,5.509474277496338
1701713691958104300,8.625104248046876,-6.1573309898376465,-5.251647472381592,5.519045352935791
1701713691967698400,8.634698486328125,-6.178866386413574,-5.251647472381592,5.509474277496338
1701713691977291800,8.644291748046875,-6.183651924133301,-5.254040241241455,5.490331649780273
1701713691986886100,8.65388623046875,-6.188437461853027,-5.2731828689575195,5.468796253204346
1701713691996481000,8.66348095703125,-6.1812591552734375,-5.277968406677246,5.459224700927734
1701713692006075100,8.6730751953125,-6.188437461853027,-5.268397331237793,5.437689304351807
1701713692015668700,8.682668701171876,-6.190830230712891,-5.294718265533447,5.459224700927734
1701713692025262800,8.692262939453125,-6.2051873207092285,-5.289932727813721,5.466403484344482
1701713692034858000,8.70185791015625,-6.22702169418335,-5.299503803253174,5.461617469787598
1701713692044452000,8.7114521484375,-6.250949859619141,-5.2971110343933105,5.444868087768555
1701713692054045400,8.72104541015625,-6.22702169418335,-5.304289817810059,5.437689304351807
1701713692063639600,8.7306396484375,-6.21266508102417,-5.323431968688965,5.437689304351807
1701713692073234700,8.740234619140624,-6.3514485359191895,-5.395216941833496,5.437689304351807
1701713692082828800,8.749828857421875,-5.999404430389404,-5.2971110343933105,5.523830890655518
1701713692092422100,8.759422119140625,-6.066403388977051,-5.196612358093262,5.5692949295043945
1701713692102016300,8.769016357421876,-6.150152206420898,-5.194219589233398,5.571687698364258
1701713692111611400,8.778611328125,-6.169294834136963,-5.2013983726501465,5.6294145584106445
1701713692121205500,8.78820556640625,-6.147759437561035,-5.206183910369873,5.631807327270508
1701713692130798800,8.797798828125,-6.147759437561035,-5.227719306945801,5.648557186126709
1701713692140393000,8.80739306640625,-6.126224040985107,-5.215754985809326,5.648557186126709
1701713692149988000,8.816988037109375,-6.09033203125,-5.239683151245117,5.634200096130371
1701713692159582200,8.826582275390624,-6.0640106201171875,-5.2492547035217285,5.607879161834717
1701713692169175800,8.83617578125,-6.052046775817871,-5.2492547035217285,5.571687698364258
1701713692178770000,8.84577001953125,-6.059225082397461,-5.215754985809326,5.571687698364258
1701713692188364800,8.85536474609375,-6.068796634674072,-5.14875602722168,5.588736534118652
1701713692197959000,8.864958984375,-6.09033203125,-5.1080780029296875,5.6222357749938965
1701713692207552500,8.874552490234375,-6.0640106201171875,-5.112864017486572,5.638985633850098
1701713692217146600,8.884146728515624,-6.059225082397461,-5.155934810638428,5.634200096130371
1701713692226741500,8.893741455078125,-6.15972375869751,-5.234897613525391,5.588736534118652
1701713692236335900,8.9033359375,-5.91087007522583,-5.277968406677246,5.61745023727417
1701713692245929200,8.91292919921875,-5.9539408683776855,-5.2109694480896,5.497509956359863
1701713692255523300,8.9225234375,-6.04247522354126,-5.2109694480896,5.420939922332764
1701713692265118500,8.932118408203126,-6.123831272125244,-5.2253265380859375,5.387440204620361
1701713692274712600,8.941712646484374,-6.236593246459961,-5.258825778961182,5.411368370056152
1701713692284306000,8.951305908203125,-6.334698677062988,-5.2971110343933105,5.4520463943481445
1701713692293900000,8.960900146484375,-6.387341022491455,-5.32821798324585,5.542973518371582
1701713692303495200,8.9704951171875,-6.389733791351318,-5.330610752105713,5.6222357749938965
1701713692313089300,8.98008935546875,-6.621837615966797,-5.395216941833496,5.600700378417969
1701713692322682600,8.9896826171875,-6.387341022491455,-5.5606207847595215,5.801697731018066
1701713692332277000,8.999277099609374,-5.975476264953613,-5.048257350921631,5.660521030426025
1701713692341871900,9.008871826171875,-6.107081413269043,-5.033900737762451,5.528616905212402
1701713692351466000,9.018466064453126,-6.0879387855529785,-5.0841498374938965,5.464010715484619
1701713692361059300,9.028059326171874,-6.059225082397461,-5.100899696350098,5.4759745597839355
1701713692370653700,9.03765380859375,-6.080760478973389,-5.122435092926025,5.511867046356201
1701713692380248600,9.04724853515625,-6.092724800109863,-5.124827861785889,5.516652584075928
1701713692389843000,9.056843017578124,-6.128616809844971,-5.129613399505615,5.528616905212402
1701713692399436300,9.066436279296875,-6.1573309898376465,-5.158327579498291,5.526223659515381
1701713692409030400,9.076030517578126,-6.178866386413574,-5.182255744934082,5.531009674072266
1701713692418625500,9.08562548828125,-6.176473617553711,-5.1774702072143555,5.490331649780273
1701713692428219600,9.0952197265625,-6.164509296417236,-5.199005603790283,5.454439163208008
1701713692437813000,9.10481298828125,-6.238986015319824,-5.184648513793945,5.464010715484619
1701713692447407000,9.114406982421874,-6.248557090759277,-5.2013983726501465,5.473581790924072
1701713692457002200,9.124002197265625,-6.284449577331543,-5.1774702072143555,5.456831932067871
1701713692466596400,9.133596435546876,-6.308377742767334,-5.199005603790283,5.459224700927734
1701713692476189700,9.143189697265624,-6.337091445922852,-5.151148796081543,5.459224700927734
1701713692485783800,9.15278369140625,-6.346662998199463,-5.170291423797607,5.466403484344482
1701713692495379000,9.16237890625,-6.372983932495117,-5.184648513793945,5.456831932067871
1701713692504973000,9.17197314453125,-6.3442702293396,-5.232504844665527,5.48793888092041
1701713692514566400,9.18156640625,-6.262914180755615,-5.388038158416748,5.43290376663208
1701713692524160500,9.191160400390626,-6.461518287658691,-5.72333288192749,5.648557186126709
1701713692533755600,9.200755615234375,-5.941977024078369,-5.055436134338379,5.4759745597839355
1701713692543349800,9.210349853515625,-6.114260196685791,-5.012365341186523,5.437689304351807
1701713692552943400,9.219943359375,-6.04247522354126,-5.045864582061768,5.361119270324707
1701713692562537500,9.229537353515624,-5.994618892669678,-5.067399978637695,5.3802618980407715
1701713692572132400,9.23913232421875,-6.023332595825195,-5.136792182922363,5.389832973480225
1701713692581726500,9.2487265625,-6.078367710113525,-5.2253265380859375,5.461617469787598
1701713692591320000,9.258320068359374,-6.126224040985107,-5.282754421234131,5.55733060836792
1701713692600914200,9.2679140625,-6.140581130981445,-5.277968406677246,5.542973518371582
1701713692610509000,9.277509033203126,-6.188437461853027,-5.2971110343933105,5.483152866363525
1701713692620103200,9.287103271484375,-6.1334028244018555,-5.385645389556885,5.497509956359863
1701713692629696800,9.29669677734375,-6.0161542892456055,-5.42153787612915,5.492724418640137
1701713692639291000,9.306290771484376,-6.011368751525879,-5.467001438140869,5.5692949295043945
1701713692648886000,9.315885986328125,-6.04247522354126,-5.4071807861328125,5.545366287231445
1701713692658480000,9.325480224609375,-6.044867992401123,-5.378467082977295,5.542973518371582
1701713692668073500,9.335073486328126,-6.0711894035339355,-5.313860893249512,5.485546112060547
1701713692677667600,9.34466748046875,-6.119045734405518,-5.275575637817383,5.447260856628418
1701713692687262700,9.3542626953125,-6.145366668701172,-5.220541000366211,5.3970112800598145
1701713692696856800,9.36385693359375,-6.195616245269775,-5.2013983726501465,5.394618511199951
1701713692706450200,9.3734501953125,-6.202794551849365,-5.199005603790283,5.437689304351807
1701713692716044300,9.383044189453125,-6.202794551849365,-5.215754985809326,5.509474277496338
1701713692725639400,9.392639404296874,-6.222236156463623,-5.189434051513672,5.56450891494751
1701713692735233500,9.402233642578125,-6.248557090759277,-5.184648513793945,5.586343765258789
1701713692744827000,9.411826904296875,-6.224628925323486,-5.199005603790283,5.55015230178833
1701713692754421200,9.421421142578126,-6.2174506187438965,-5.191826820373535,5.5142598152160645
1701713692764016000,9.43101611328125,-6.234200477600098,-5.251647472381592,5.48793888092041
1701713692773610200,9.4406103515625,-6.238986015319824,-5.323431968688965,5.437689304351807
1701713692783203800,9.450203857421876,-6.234200477600098,-5.361717224121094,5.408975601196289
1701713692792798000,9.4597978515625,-6.238986015319824,-5.378467082977295,5.394618511199951
1701713692802392800,9.469392822265625,-6.238986015319824,-5.368896007537842,5.394618511199951
1701713692811987000,9.478987060546874,-6.229414463043213,-5.333003520965576,5.375475883483887
1701713692821580500,9.48858056640625,-6.198009014129639,-5.299503803253174,5.368297576904297
1701713692831174700,9.498174560546875,-6.171687602996826,-5.258825778961182,5.30847692489624
1701713692840769500,9.50776953125,-6.164509296417236,-5.213362216949463,5.260620594024658
1701713692850364000,9.517364013671875,-6.176473617553711,-5.191826820373535,5.227120876312256
1701713692859957200,9.526957275390625,-6.2051873207092285,-5.199005603790283,5.219942569732666
1701713692869551400,9.53655126953125,-6.222236156463623,-5.213362216949463,5.2151570320129395
1701713692879146500,9.546146484375,-6.253343105316162,-5.246861934661865,5.229514122009277
1701713692888740600,9.55574072265625,-6.27487850189209,-5.277968406677246,5.234299659729004
1701713692898334000,9.565333984375,-6.3131632804870605,-5.306682586669922,5.243870735168457
1701713692907928000,9.574927978515625,-6.337091445922852,-5.318646430969238,5.217549800872803
1701713692917523200,9.584523193359376,-6.356234073638916,-5.318646430969238,5.2151570320129395
1701713692927117300,9.594117431640624,-6.358626842498779,-5.306682586669922,5.188836097717285
1701713692936710700,9.603710693359375,-6.353841304779053,-5.285147190093994,5.193621635437012
1701713692946305000,9.613304931640625,-6.327520370483398,-5.294718265533447,5.217549800872803
1701713692955900000,9.62289990234375,-6.332305908203125,-5.275575637817383,5.181657314300537
1701713692965494000,9.632493896484375,-6.327520370483398,-5.261219024658203,5.196014404296875
1701713692975087400,9.64208740234375,-6.334698677062988,-5.292325496673584,5.222335338592529
1701713692984681700,9.651681640625,-6.337091445922852,-5.275575637817383,5.248656272888184
1701713692994276600,9.661276611328125,-6.334698677062988,-5.316253662109375,5.2941203117370605
1701713693003870700,9.67087060546875,-6.320342063903809,-5.285147190093994,5.291727066040039
1701713693013464000,9.680464111328124,-6.315556049346924,-5.261219024658203,5.322834014892578
1701713693023058400,9.690058349609375,-6.317949295043945,-5.234897613525391,5.349154949188232
1701713693032653300,9.6996533203125,-6.301199436187744,-5.227719306945801,5.351547718048096
1701713693042247400,9.709247314453124,-6.305984973907471,-5.189434051513672,5.315655708312988
1701713693051841000,9.718841064453125,-6.279664039611816,-5.175076961517334,5.320441246032715
1701713693061435100,9.72843505859375,-6.327520370483398,-5.179862976074219,5.320441246032715
1701713693071030300,9.7380302734375,-6.372983932495117,-5.213362216949463,5.368297576904297
1701713693080624400,9.747624267578125,-6.368198394775391,-5.237290382385254,5.365904808044434
1701713693090217700,9.7572177734375,-6.329913139343262,-5.227719306945801,5.325226783752441
1701713693099811800,9.766811767578124,-6.315556049346924,-5.234897613525391,5.282155990600586
1701713693109407000,9.776406982421875,-6.284449577331543,-5.230112075805664,5.2390851974487305
1701713693119001000,9.7860009765625,-6.310770511627197,-5.208576679229736,5.227120876312256
1701713693128594400,9.795594482421874,-6.337091445922852,-5.143970489501953,5.140979290008545
1701713693138188500,9.8051884765625,-6.339484691619873,-5.093721389770508,5.100301265716553
1701713693147783700,9.81478369140625,-6.325127601623535,-5.069792747497559,5.100301265716553
1701713693157377800,9.824377685546875,-6.317949295043945,-5.088935375213623,5.138586521148682
1701713693166971100,9.83397119140625,-6.3131632804870605,-5.105685234069824,5.172086238861084
1701713693176565500,9.8435654296875,-6.341877460479736,-5.172684192657471,5.198407173156738
1701713693186160400,9.853160400390625,-6.3825554847717285,-5.254040241241455,5.222335338592529
1701713693195754500,9.86275439453125,-6.439982891082764,-5.361717224121094,5.24626350402832
1701713693205347800,9.872347900390626,-6.461518287658691,-5.435894966125488,5.258227825164795
1701713693214942200,9.881942138671874,-6.435197353363037,-5.447858810424805,5.277370452880859
1701713693224537000,9.891537109375,-6.420840263366699,-5.431109428405762,5.289334297180176
1701713693234131200,9.901131103515626,-6.4064836502075195,-5.385645389556885,5.30129861831665
1701713693243724500,9.910724609375,-6.4064836502075195,-5.356931686401367,5.30129861831665
1701713693253319000,9.92031884765625,-6.3825554847717285,-5.2971110343933105,5.30129861831665
1701713693262913800,9.929913818359376,-6.3753767013549805,-5.179862976074219,5.289334297180176
1701713693272508000,9.9395078125,-6.356234073638916,-5.160720348358154,5.258227825164795
1701713693282101500,9.9491015625,-6.353841304779053,-5.098506927490234,5.234299659729004
1701713693291695600,9.958695556640626,-6.368198394775391,-4.971687316894531,5.219942569732666
1701713693301290500,9.96829052734375,-6.272485256195068,-5.409573554992676,5.44008207321167
1701713693310884600,9.977884521484375,-6.3442702293396,-5.263611793518066,5.3802618980407715
1701713693320478200,9.987478271484376,-6.411269187927246,-5.163113117218018,5.341976642608643
1701713693330072300,9.997072265625,-6.358626842498779,-5.2731828689575195,5.382654666900635
1701713693339667500,10.00666748046875,-6.411269187927246,-5.261219024658203,5.382654666900635
1701713693349261600,10.016261474609376,-6.387341022491455,-5.127220630645752,5.2869415283203125
1701713693358855000,10.02585498046875,-6.3753767013549805,-5.043471813201904,5.198407173156738
1701713693368449000,10.035448974609375,-6.3131632804870605,-4.993222713470459,5.167300701141357
1701713693378044200,10.045044189453124,-6.3993048667907715,-4.940580368041992,5.119443893432617
1701713693387638300,10.05463818359375,-6.509375095367432,-5.07218599319458,5.24626350402832
1701713693397231600,10.064231689453125,-6.526124477386475,-5.155934810638428,5.42572546005249
1701713693406825700,10.07382568359375,-6.416054725646973,-5.14157772064209,5.361119270324707
1701713693416420900,10.0834208984375,-6.332305908203125,-5.277968406677246,5.461617469787598
1701713693426015000,10.093014892578125,-6.193222999572754,-5.289932727813721,5.4041900634765625
1701713693435608300,10.1026083984375,-6.1669020652771,-5.26600456237793,5.325226783752441
1701713693445202400,10.112202392578125,-6.174080848693848,-5.237290382385254,5.255835056304932
1701713693454797600,10.121797607421875,-6.250949859619141,-5.309075355529785,5.356333255767822
1701713693464391700,10.1313916015625,-6.353841304779053,-5.3593244552612305,5.406582832336426
1701713693473985000,10.140985107421875,-6.423233509063721,-5.311468124389648,5.389832973480225
1701713693483579400,10.150579345703125,-6.4375901222229,-5.254040241241455,5.373083114624023
1701713693493174300,10.16017431640625,-6.3753767013549805,-5.227719306945801,5.306084156036377
1701713693502768400,10.169768310546875,-6.337091445922852,-5.222933769226074,5.279763221740723
1701713693512361700,10.17936181640625,-6.341877460479736,-5.2253265380859375,5.2869415283203125
1701713693521956000,10.1889560546875,-6.341877460479736,-5.220541000366211,5.277370452880859
1701713693531551000,10.198551025390625,-6.377769470214844,-5.20379114151001,5.227120876312256
1701713693541145000,10.20814501953125,-6.404090881347656,-5.246861934661865,5.212764263153076
1701713693550738400,10.217738525390626,-6.447161674499512,-5.251647472381592,5.167300701141357
1701713693560332800,10.227332763671875,-6.463911056518555,-5.220541000366211,5.1290154457092285
1701713693569927700,10.236927734375,-6.466304302215576,-5.146363258361816,5.107480049133301
1701713693579521800,10.246521728515624,-6.466304302215576,-5.172684192657471,5.112265586853027
1701713693589115400,10.256115478515625,-6.4686970710754395,-5.153541564941406,5.093122959136963
1701713693598709500,10.26570947265625,-6.466304302215576,-5.179862976074219,5.102694511413574
1701713693608304400,10.275304443359374,-6.461518287658691,-5.206183910369873,5.117051124572754
1701713693617898500,10.2848984375,-6.4686970710754395,-5.20379114151001,5.138586521148682
1701713693627492000,10.2944921875,-6.447161674499512,-5.189434051513672,5.169693470001221
1701713693637086200,10.304086181640624,-6.416054725646973,-5.215754985809326,5.179264545440674
1701713693646681000,10.31368115234375,-6.3825554847717285,-5.242076396942139,5.167300701141357
1701713693656275200,10.323275146484375,-6.361020088195801,-5.282754421234131,5.164907455444336
1701713693665868800,10.332868896484374,-6.370591163635254,-5.282754421234131,5.160121917724609
1701713693675463000,10.342462890625,-6.356234073638916,-5.32821798324585,5.169693470001221
1701713693685058000,10.35205810546875,-6.3825554847717285,-5.268397331237793,5.124229907989502
1701713693694652200,10.361652099609374,-6.3825554847717285,-5.234897613525391,5.124229907989502
1701713693704245500,10.37124560546875,-6.3753767013549805,-5.3353962898254395,5.181657314300537
1701713693713839600,10.380839599609375,-6.416054725646973,-5.232504844665527,5.191228866577148
1701713693723434800,10.390434814453124,-6.401698112487793,-5.306682586669922,5.200799942016602
1701713693733028900,10.40002880859375,-6.428019046783447,-5.258825778961182,5.203192710876465
1701713693742622200,10.409622314453125,-6.387341022491455,-5.534299850463867,5.332405090332031
1701713693752216300,10.41921630859375,-6.425626277923584,-5.2013983726501465,5.172086238861084
1701713693761811500,10.4288115234375,-6.358626842498779,-5.227719306945801,5.267798900604248
1701713693771405600,10.438405517578126,-6.310770511627197,-5.299503803253174,5.3108696937561035
1701713693780999000,10.4479990234375,-6.298806667327881,-5.471786975860596,5.416153907775879
1701713693790593000,10.457593017578125,-6.3131632804870605,-5.5606207847595215,5.454439163208008
1701713693800188200,10.467188232421876,-6.396912097930908,-4.851747035980225,5.059623718261719
1701713693809782300,10.4767822265625,-6.310770511627197,-4.753641128540039,5.064409255981445
1701713693819375600,10.486375732421875,-6.169294834136963,-5.167898654937744,5.322834014892578
1701713693828970000,10.495969970703126,-6.21266508102417,-5.3353962898254395,5.485546112060547
1701713693838564900,10.50556494140625,-6.246164321899414,-5.385645389556885,5.535795211791992
1701713693848159000,10.515158935546875,-6.253343105316162,-5.546263694763184,5.61745023727417
1701713693857752300,10.52475244140625,-6.224628925323486,-5.579763412475586,5.636592864990234
1701713693867346700,10.5343466796875,-6.195616245269775,-5.527121067047119,5.535795211791992
1701713693876941600,10.543941650390625,-6.21984338760376,-5.438287734985352,5.43290376663208
1701713693886535700,10.55353564453125,-6.253343105316162,-5.409573554992676,5.368297576904297
1701713693896129000,10.56312890625,-6.296413898468018,-5.349753379821777,5.298905849456787
1701713693905723400,10.572723388671875,-6.27487850189209,-5.337789058685303,5.172086238861084
1701713693915318300,10.582318359375,-6.303592205047607,-5.292325496673584,5.150550842285156
1701713693924912400,10.591912353515625,-6.418447494506836,-5.208576679229736,5.2390851974487305
1701713693934505700,10.601505615234375,-6.459125518798828,-5.261219024658203,5.270191669464111
1701713693944100000,10.61110009765625,-6.490232467651367,-5.337789058685303,5.258227825164795
1701713693953695000,10.620695068359375,-6.4926252365112305,-5.306682586669922,5.172086238861084
1701713693963289000,10.6302890625,-6.466304302215576,-5.261219024658203,5.062016487121582
1701713693972882700,10.639882568359376,-6.456732749938965,-5.234897613525391,4.977968215942383
1701713693982476800,10.649476806640624,-6.4926252365112305,-5.268397331237793,4.970789909362793
1701713693992071700,10.65907177734375,-6.50698184967041,-5.287539958953857,4.963611602783203
1701713694001665800,10.668665771484376,-6.514160633087158,-5.301896572113037,4.915754795074463
1701713694011259400,10.67825927734375,-6.509375095367432,-5.318646430969238,4.791328430175781
1701713694020853500,10.687853515625,-6.542874336242676,-5.352146148681641,4.77457857131958
1701713694030448400,10.697448486328126,-6.595516681671143,-5.2971110343933105,4.894219398498535
1701713694040042500,10.70704248046875,-6.619444847106934,-5.146363258361816,4.918148040771484
1701713694049636000,10.716635986328125,-6.62423038482666,-5.021936416625977,4.920540809631348
1701713694059230200,10.726230224609376,-6.576374053955078,-5.029115200042725,4.944468975067139
1701713694068825300,10.735825439453125,-6.557231426239014,-5.050650596618652,4.970789909362793
1701713694078419500,10.74541943359375,-6.5165534019470215,-5.038686275482178,4.925326347351074
1701713694088012800,10.7550126953125,-6.490232467651367,-5.088935375213623,4.908576488494873
1701713694097607000,10.76460693359375,-6.511767864227295,-5.139184951782227,4.9277191162109375
1701713694107202000,10.7742021484375,-6.559624195098877,-5.206183910369873,4.973182678222656
1701713694116796200,10.783796142578124,-6.619444847106934,-5.2253265380859375,5.006682395935059
1701713694126389500,10.793389404296875,-6.664908409118652,-5.232504844665527,5.030909538269043
1701713694135983600,10.802983642578125,-6.633801460266113,-5.2109694480896,5.059623718261719
1701713694145578800,10.812578857421874,-6.667301177978516,-5.2181477546691895,5.088337421417236
1701713694155172900,10.8221728515625,-6.636194705963135,-5.215754985809326,5.093122959136963
1701713694164766200,10.83176611328125,-6.614659309387207,-5.199005603790283,5.143372058868408
1701713694174360300,10.8413603515625,-6.576374053955078,-5.14157772064209,5.138586521148682
1701713694183955500,10.85095556640625,-6.581159591674805,-5.151148796081543,5.14576530456543
1701713694193549600,10.860549560546875,-6.607480525970459,-5.304289817810059,5.248656272888184
1701713694203143000,10.870142822265626,-6.605087757110596,-5.318646430969238,5.313262462615967
1701713694212737000,10.879737060546875,-6.597909450531006,-5.26600456237793,5.322834014892578
1701713694222332200,10.889332275390625,-6.545267105102539,-5.199005603790283,5.248656272888184
1701713694231926300,10.89892626953125,-6.432804584503174,-5.234897613525391,5.155336380004883
1701713694241519600,10.90851953125,-6.435197353363037,-5.230112075805664,5.2390851974487305
1701713694251113700,10.91811376953125,-6.449554443359375,-5.254040241241455,5.282155990600586
1701713694260708900,10.927708984375,-6.428019046783447,-5.275575637817383,5.2390851974487305
1701713694270303000,10.937302978515625,-6.416054725646973,-5.2253265380859375,5.265406131744385
1701713694279896300,10.946896240234375,-6.4926252365112305,-5.589334487915039,5.648557186126709
1701713694289490400,10.956490478515626,-6.5165534019470215,-5.478965759277344,5.454439163208008
1701713694299085600,10.96608544921875,-6.466304302215576,-5.031507968902588,5.0979084968566895
1701713694308679700,10.9756796875,-6.3514485359191895,-4.976472854614258,4.997110843658447
1701713694318273000,10.98527294921875,-6.363412857055664,-4.957330226898193,4.96839714050293
1701713694327867100,10.9948671875,-6.332305908203125,-4.916353225708008,5.026124000549316
1701713694337462300,11.004462158203125,-6.349055767059326,-4.95493745803833,5.160121917724609
1701713694347056400,11.014056396484374,-6.327520370483398,-5.014758110046387,5.229514122009277
1701713694356649700,11.023649658203125,-6.3514485359191895,-5.0362935066223145,5.260620594024658
1701713694366244000,11.033244140625,-6.380162239074707,-5.1152567863464355,5.274977684020996
1701713694375839000,11.0428388671875,-6.4064836502075195,-5.179862976074219,5.274977684020996
1701713694385433000,11.05243310546875,-6.404090881347656,-5.208576679229736,5.30847692489624
1701713694395026400,11.0620263671875,-6.392126560211182,-5.093721389770508,5.224728107452393
1701713694404620800,11.071620849609374,-6.356234073638916,-5.076971530914307,5.186442852020264
1701713694414215700,11.081215576171875,-6.339484691619873,-4.976472854614258,5.14576530456543
1701713694423809800,11.090809814453126,-6.380162239074707,-4.925924301147461,5.14576530456543
1701713694433403100,11.100403076171874,-6.413661956787109,-4.880460739135742,5.172086238861084
1701713694442997500,11.10999755859375,-6.420840263366699,-4.909174919128418,5.229514122009277
1701713694452592400,11.11959228515625,-6.428019046783447,-5.105685234069824,5.243870735168457
1701713694462186500,11.1291865234375,-6.418447494506836,-5.117649555206299,5.222335338592529
1701713694471779800,11.13877978515625,-6.4375901222229,-5.122435092926025,5.270191669464111
1701713694481374200,11.148374267578125,-6.404090881347656,-5.208576679229736,5.320441246032715
1701713694490969000,11.157968994140624,-6.384948253631592,-5.2492547035217285,5.344369411468506
1701713694500563200,11.167563232421875,-6.377769470214844,-5.254040241241455,5.36351203918457
1701713694510156800,11.17715673828125,-6.435197353363037,-5.32821798324585,5.4281182289123535
1701713694519751000,11.1867509765625,-6.435197353363037,-5.380859851837158,5.394618511199951
1701713694529345800,11.196345703125,-6.451947212219238,-5.3904314041137695,5.332405090332031
1701713694538940000,11.20593994140625,-6.480660915374756,-5.438287734985352,5.282155990600586
1701713694548533500,11.215533447265624,-6.483053684234619,-5.4071807861328125,5.212764263153076
1701713694558127600,11.225127685546875,-6.521338939666748,-5.409573554992676,5.155336380004883
1701713694567722500,11.234722412109376,-6.5165534019470215,-5.378467082977295,5.133800983428955
1701713694577316600,11.244316650390624,-6.511767864227295,-5.26600456237793,5.100301265716553
1701713694586910200,11.25391015625,-6.518946170806885,-5.194219589233398,5.143372058868408
1701713694596504300,11.26350439453125,-6.495018005371094,-5.160720348358154,5.157729148864746
1701713694606099200,11.27309912109375,-6.478268146514893,-5.143970489501953,5.148158073425293
1701713694615693300,11.282693359375,-6.521338939666748,-5.100899696350098,5.181657314300537
1701713694625287000,11.292286865234376,-6.538088798522949,-5.065007209777832,5.188836097717285
1701713694634881000,11.301881103515624,-6.521338939666748,-5.07218599319458,5.186442852020264
1701713694644476000,11.311475830078125,-6.547659873962402,-4.969294548034668,5.140979290008545
1701713694654070000,11.321070068359376,-6.485446453094482,-4.981258392333984,5.186442852020264
1701713694663663600,11.33066357421875,-6.473482608795166,-4.995615482330322,5.14576530456543
1701713694673257700,11.3402578125,-6.49980354309082,-5.055436134338379,5.167300701141357
1701713694682852600,11.3498525390625,-6.495018005371094,-5.081757068634033,5.148158073425293
1701713694692446700,11.35944677734375,-6.504589080810547,-5.07936429977417,5.124229907989502
1701713694702040300,11.369040283203125,-6.526124477386475,-5.050650596618652,5.136193752288818
1701713694711634400,11.378634521484376,-6.528517246246338,-5.050650596618652,5.1529436111450195
1701713694721229600,11.3882294921875,-6.526124477386475,-5.067399978637695,5.148158073425293
1701713694730823700,11.39782373046875,-6.559624195098877,-5.088935375213623,5.157729148864746
1701713694740417000,11.4074169921875,-6.576374053955078,-5.088935375213623,5.131408214569092
1701713694750011100,11.41701123046875,-6.585945129394531,-5.117649555206299,5.140979290008545
1701713694759606300,11.426606201171875,-6.56201696395874,-5.127220630645752,5.1290154457092285
1701713694769200400,11.436200439453126,-6.559624195098877,-5.1152567863464355,5.124229907989502
1701713694778793700,11.445793701171874,-6.545267105102539,-5.1343994140625,5.150550842285156
1701713694788387800,11.455387939453125,-6.528517246246338,-5.096114158630371,5.200799942016602
1701713694797983000,11.46498291015625,-6.523731708526611,-5.067399978637695,5.210371494293213
1701713694807577000,11.4745771484375,-6.526124477386475,-5.14157772064209,5.258227825164795
1701713694817170400,11.48417041015625,-6.495018005371094,-5.160720348358154,5.231906890869141
1701713694826764500,11.4937646484375,-6.456732749938965,-5.1080780029296875,5.191228866577148
1701713694836359700,11.503359619140625,-6.444768905639648,-5.153541564941406,5.186442852020264
1701713694845953800,11.512953857421875,-6.4375901222229,-5.189434051513672,5.231906890869141
1701713694855547100,11.522547119140626,-6.451947212219238,-5.189434051513672,5.265406131744385
1701713694865141200,11.532141357421875,-6.4686970710754395,-5.165505886077881,5.284548759460449
1701713694874736400,11.541736328125,-6.473482608795166,-5.165505886077881,5.267798900604248
1701713694884330500,11.55133056640625,-6.483053684234619,-5.160720348358154,5.248656272888184
1701713694893923800,11.560923828125,-6.509375095367432,-5.1343994140625,5.241477966308594
1701713694903518000,11.57051806640625,-6.497410774230957,-5.1320061683654785,5.253442287445068
1701713694913113000,11.580113037109374,-6.514160633087158,-5.117649555206299,5.253442287445068
1701713694922707200,11.589707275390625,-6.521338939666748,-5.143970489501953,5.291727066040039
1701713694932300500,11.599300537109375,-6.542874336242676,-5.1080780029296875,5.296513080596924
1701713694941894700,11.608894775390626,-6.552445888519287,-5.002793788909912,5.2630133628845215
1701713694951489800,11.61848974609375,-6.56919527053833,-4.95493745803833,5.2630133628845215
1701713694961084000,11.628083984375,-6.545267105102539,-4.931009292602539,5.212764263153076
1701713694970677200,11.63767724609375,-6.55483865737915,-4.918745994567871,5.205585479736328
1701713694980271400,11.647271240234375,-6.533303260803223,-4.96211576461792,5.243870735168457
1701713694989866500,11.656866455078125,-6.518946170806885,-5.019543647766113,5.282155990600586
1701713694999460600,11.666460693359374,-6.502196311950684,-5.062614440917969,5.318048477172852
1701713695009054000,11.676053955078125,-6.49980354309082,-5.1080780029296875,5.30847692489624
1701713695018648000,11.68564794921875,-6.4926252365112305,-5.117649555206299,5.3347978591918945
1701713695028243200,11.6952431640625,-6.50698184967041,-5.048257350921631,5.325226783752441
1701713695037837300,11.70483740234375,-6.528517246246338,-5.021936416625977,5.3347978591918945
1701713695047430700,11.7144306640625,-6.538088798522949,-5.021936416625977,5.337191104888916
1701713695057024800,11.724024658203126,-6.56201696395874,-5.007579803466797,5.313262462615967
1701713695066620000,11.733619873046875,-6.5883378982543945,-5.007579803466797,5.320441246032715
1701713695076214000,11.743214111328125,-6.894918441772461,-5.304289817810059,5.588736534118652
1701713695085807400,11.752807373046876,-6.416054725646973,-4.978865623474121,5.0979084968566895
1701713695095401500,11.7624013671875,-6.621837615966797,-4.787140846252441,5.093122959136963
1701713695104996600,11.77199658203125,-6.545267105102539,-4.88763952255249,5.107480049133301
1701713695114590700,11.7815908203125,-6.585945129394531,-4.983651161193848,5.167300701141357
1701713695124184000,11.79118408203125,-6.607480525970459,-4.986044406890869,5.169693470001221
1701713695133778200,11.800778076171875,-6.605087757110596,-4.986044406890869,5.186442852020264
1701713695143373300,11.810373291015624,-6.595516681671143,-4.964509010314941,5.1290154457092285
1701713695152967400,11.819967529296875,-6.6577301025390625,-5.002793788909912,5.1840500831604
1701713695162560800,11.829560791015625,-6.662515640258789,-4.966901779174805,5.172086238861084
1701713695172155000,11.83915478515625,-6.63140869140625,-4.986044406890869,5.133800983428955
1701713695181750000,11.84875,-6.600302219390869,-4.983651161193848,5.030909538269043
1701713695191344000,11.85834423828125,-6.621837615966797,-5.103292465209961,5.117051124572754
1701713695200937500,11.8679375,-6.633801460266113,-5.127220630645752,5.138586521148682
1701713695210531600,11.877531494140625,-6.62423038482666,-5.167898654937744,5.167300701141357
1701713695220126700,11.887126708984376,-6.63140869140625,-5.175076961517334,5.174479007720947
1701713695229720800,11.896720947265624,-6.652944087982178,-5.122435092926025,5.179264545440674
1701713695239314200,11.906314208984375,-6.655336856842041,-5.069792747497559,5.181657314300537
1701713695248908300,11.915908203125,-6.662515640258789,-5.026721954345703,5.222335338592529
1701713695258503400,11.92550341796875,-6.629015922546387,-5.050650596618652,5.260620594024658
1701713695268097500,11.93509765625,-6.63140869140625,-4.942973613739014,5.265406131744385
1701713695277691000,11.94469091796875,-6.645765781402588,-4.870889663696289,5.320441246032715
1701713695287285000,11.954284912109374,-6.621837615966797,-4.7967119216918945,5.330012321472168
1701713695296880000,11.963880126953125,-6.626623153686523,-4.756033897399902,5.330012321472168
1701713695306474200,11.97347412109375,-6.645765781402588,-4.7249274253845215,5.375475883483887
1701713695316067600,11.983067626953124,-6.6744794845581055,-4.689034938812256,5.399404525756836
1701713695325661700,11.99266162109375,-6.6984076499938965,-4.684249401092529,5.389832973480225
1701713695335256800,12.0022568359375,-6.6984076499938965,-4.734498500823975,5.4281182289123535
1701713695344851000,12.011850830078124,-6.672086715698242,-4.753641128540039,5.373083114624023
1701713695354444300,12.0214443359375,-6.67926549911499,-4.7727837562561035,5.349154949188232
1701713695364038400,12.031038330078125,-6.662515640258789,-4.83260440826416,5.356333255767822
1701713695373633500,12.040633544921874,-6.664908409118652,-4.875675201416016,5.377869129180908
1701713695383227600,12.0502275390625,-6.684051036834717,-4.945366382598877,5.454439163208008
1701713695392821000,12.059821044921875,-6.669693946838379,-4.880460739135742,5.437689304351807
1701713695402415000,12.0694150390625,-6.700800895690918,-4.703392028808594,5.315655708312988
1701713695412010200,12.07901025390625,-6.710371971130371,-4.492823600769043,5.251049518585205
1701713695421604400,12.088604248046876,-6.717550277709961,-4.703392028808594,5.3802618980407715
1701713695431197700,12.09819775390625,-6.734300136566162,-4.70817756652832,5.375475883483887
1701713695440791800,12.107791748046875,-6.818347930908203,-4.971687316894531,5.416153907775879
1701713695450387000,12.117386962890626,-6.736692905426025,-5.627619743347168,5.619843006134033
1701713695459981000,12.12698095703125,-6.361020088195801,-4.8206400871276855,5.468796253204346
1701713695469574400,12.136574462890625,-7.136593341827393,-5.2109694480896,5.2941203117370605
1701713695479168500,12.14616845703125,-6.202794551849365,-4.94775915145874,5.365904808044434
1701713695488763600,12.155763671875,-6.854240417480469,-4.935794830322266,5.30847692489624
1701713695498357800,12.165357666015625,-6.645765781402588,-4.861318111419678,5.528616905212402
1701713695507951000,12.174951171875,-6.545267105102539,-4.834997177124023,5.507081508636475
1701713695517545200,12.184545166015624,-6.973881721496582,-5.0602216720581055,5.540580749511719
1701713695527140400,12.194140380859375,-6.62423038482666,-4.815854549407959,5.4520463943481445
1701713695536734500,12.203734375,-6.68644380569458,-4.851747035980225,5.255835056304932
1701713695546327800,12.213327880859374,-6.684051036834717,-4.779962539672852,5.057230472564697
1701713695555922000,12.222921875,-6.7055864334106445,-4.76321268081665,5.1050872802734375
1701713695565517000,12.23251708984375,-6.746264457702637,-4.6387858390808105,5.167300701141357
1701713695575111200,12.242111083984375,-7.251449108123779,-4.892425060272217,4.355535507202148
1701713695584704500,12.25170458984375,-6.820741176605225,-6.850950241088867,4.073182582855225
1701713695594298600,12.261298583984376,-6.710371971130371,-5.826223850250244,5.710770130157471
1701713695603893800,12.270893798828125,-6.461518287658691,-5.2109694480896,5.248656272888184
1701713695613487900,12.28048779296875,-6.511767864227295,-5.194219589233398,5.162514686584473
1701713695623081200,12.290081298828126,-6.6816582679748535,-5.404788017272949,4.889433860778809
1701713695632675300,12.29967529296875,-6.99541711807251,-5.213362216949463,5.02851676940918
1701713695642270500,12.3092705078125,-7.249056339263916,-5.019543647766113,4.9037909507751465
1701713695651864600,12.318864501953126,-7.196413993835449,-4.82542610168457,5.023731231689453
1701713695661458000,12.3284580078125,-7.110272407531738,-4.8206400871276855,5.157729148864746
1701713695671052000,12.338052001953125,-6.629015922546387,-5.371288776397705,5.777769565582275
1701713695680647200,12.347647216796876,-6.935596466064453,-4.868496894836426,5.940481185913086
1701713695690241300,12.3572412109375,-6.87099027633667,-4.574179649353027,5.985944747924805
1701713695699834600,12.366834716796875,-6.780063152313232,-4.293920040130615,5.799304962158203
1701713695709428700,12.3764287109375,-6.595516681671143,-4.303491592407227,5.394618511199951
1701713695719023900,12.38602392578125,-6.341877460479736,-4.744070053100586,5.358726501464844
1701713695728618000,12.395617919921875,-6.626623153686523,-4.533501625061035,5.408975601196289
1701713695738211300,12.40521142578125,-6.621837615966797,-4.710570335388184,5.641378402709961
1701713695747805400,12.414805419921874,-6.619444847106934,-4.993222713470459,6.002694606781006
1701713695757400600,12.424400634765625,-6.432804584503174,-4.351347923278809,5.930910110473633
1701713695766994700,12.43399462890625,-6.140581130981445,-3.4393835067749023,6.033801555633545
1701713695776588000,12.443588134765625,-6.15972375869751,-3.4561331272125244,6.297310829162598
1701713695786182100,12.45318212890625,-6.559624195098877,-4.040280818939209,6.259026050567627
1701713695795777000,12.462777099609376,-6.724729061126709,-4.179064750671387,6.211169242858887
1701713695805371400,12.472371337890625,-6.593123912811279,-3.7887356281280518,6.318846225738525
