time,seconds_elapsed,z,y,x
1697701678876019500,0.18401953125,-0.023212196305394173,1.9432578086853027,-0.21211670339107513
1697701678885612300,0.1936123046875,-0.009773556143045425,1.9102721214294434,-0.19745637476444244
1697701678895204600,0.20320458984375,-0.08185353130102158,1.6097352504730225,-0.30740886926651
1697701678904798000,0.2127978515625,-0.2089097648859024,1.2835427522659302,-0.44301697611808777
1697701678914391800,0.222391845703125,-0.3005368411540985,1.0404255390167236,-0.5639647245407104
1697701678923984600,0.231984619140625,-0.29565006494522095,0.8742751479148865,-0.6629219651222229
1697701678933577000,0.241576904296875,-0.20157960057258606,0.8315158486366272,-0.7020162343978882
1697701678943170000,0.251170166015625,-0.0916270911693573,0.7899782061576843,-0.6641436815261841
1697701678952764200,0.26076416015625,-0.024433890357613564,0.5590779781341553,-0.5419742465019226
1697701678962357000,0.27035693359375,0.007330167107284069,0.20600824058055878,-0.3477247953414917
1697701678971949300,0.27994921875,0.05008947476744652,-0.2154763638973236,-0.12048961967229843
1697701678981542400,0.28954248046875,0.1429382562637329,-0.6652126908302307,0.10185877978801727
1697701678991136300,0.29913623046875,0.25289076566696167,-0.9498674869537354,0.3107685446739197
1697701679000729300,0.308729248046875,0.3310792148113251,-1.090362310409546,0.4793623983860016
1697701679010321700,0.31832177734375,0.3396310806274414,-1.0317209959030151,0.6090146899223328
1697701679019914800,0.327914794921875,0.2602209448814392,-0.4953971207141876,0.6676560640335083
1697701679029508600,0.337508544921875,0.13927318155765533,-0.2435753494501114,0.6908682584762573
1697701679039101700,0.347101806640625,0.05497625470161438,-0.2716743052005768,0.684759795665741
1697701679048694000,0.356694091796875,0.05131116881966591,-0.42194274067878723,0.6810947060585022
1697701679058287000,0.366287109375,0.1172826737165451,-0.5125008225440979,0.6933116316795349
1697701679067881000,0.375880859375,0.1698155403137207,-0.5589252710342407,0.70797199010849
1697701679077474000,0.38547412109375,0.1698155403137207,-0.6126797795295715,0.7165238261222839
1697701679087066400,0.39506640625,0.16737215220928192,-0.6639909744262695,0.6969767212867737
1697701679096659500,0.404659423828125,0.17592400312423706,-0.6688777208328247,0.6346703171730042
1697701679106253300,0.41425341796875,0.15271180868148804,-0.6077930331230164,0.550373375415802
1697701679115846400,0.423846435546875,0.10750912129878998,-0.4978405237197876,0.44515493512153625
1697701679125438700,0.433438720703125,0.07085828483104706,-0.41949936747550964,0.32665055990219116
1697701679135031800,0.44303173828125,0.06352811306715012,-0.39384377002716064,0.2044811248779297
1697701679144625700,0.452625732421875,0.08918370306491852,-0.38040512800216675,0.09575030952692032
1697701679154218800,0.46221875,0.07696675509214401,-0.3352024257183075,-0.06306997686624527
1697701679163811000,0.47181103515625,0.04153761267662048,-0.33886751532554626,-0.2817533016204834
1697701679173404200,0.481404052734375,0.062306419014930725,-0.3901786804199219,-0.5297572612762451
1697701679182998000,0.490998046875,0.1588202863931656,-0.39384377002716064,-0.7398887276649475
1697701679192591000,0.500591064453125,0.2626643180847168,-0.32909396290779114,-0.8889354467391968
1697701679202183200,0.51018310546875,0.33474430441856384,-0.20081603527069092,-0.9378032684326172
1697701679211776500,0.519776611328125,0.3836120665073395,-0.07986827939748764,-0.881605327129364
1697701679221370400,0.529370361328125,0.390942245721817,-0.02489202655851841,-0.755770742893219
1697701679230963200,0.538963134765625,0.3396310806274414,0.03008422814309597,-0.5835118293762207
1697701679240555500,0.548555419921875,0.23945212364196777,0.056961506605148315,-0.3965925872325897
1697701679250148900,0.55814892578125,0.12583453953266144,0.012980503961443901,-0.24998924136161804
1697701679259742500,0.567742431640625,0.047646086663007736,-0.0847550556063652,-0.1656923145055771
1697701679269335600,0.57733544921875,0.025655584409832954,-0.18249061703681946,-0.11926792562007904
1697701679278928000,0.586927978515625,0.05008947476744652,-0.25090551376342773,-0.07528692483901978
1697701679288521000,0.59652099609375,0.10995250940322876,-0.2838912606239319,-0.039857782423496246
1697701679298114800,0.60611474609375,0.18936264514923096,-0.26067906618118286,-0.016645587980747223
1697701679307708000,0.6157080078125,0.2736595869064331,-0.19837264716625214,-0.004428642801940441
1697701679317300200,0.62530029296875,0.33352261781692505,-0.12629267573356628,-0.01175880990922451
1697701679326893300,0.634893310546875,0.367730051279068,-0.1238492801785469,-0.055739812552928925
1697701679336487200,0.644487060546875,0.35917818546295166,-0.2166980654001236,-0.1241547018289566
1697701679346080300,0.654080322265625,0.31031039357185364,-0.3205420970916748,-0.19256959855556488
1697701679355672600,0.663672607421875,0.2748812735080719,-0.35352784395217896,-0.2536543309688568
1697701679365265700,0.673265625,0.2773246467113495,-0.25945737957954407,-0.28786176443099976
1697701679374859500,0.682859619140625,0.2993151545524597,-0.10308047384023666,-0.2939702570438385
1697701679384452600,0.69245263671875,0.30908870697021484,0.01175880990922451,-0.2951919436454773
1697701679394044700,0.702044677734375,0.29687178134918213,0.058183200657367706,-0.2951919436454773
1697701679403638000,0.711637939453125,0.2638860046863556,0.05207473039627075,-0.2927485406398773
1697701679413231900,0.72123193359375,0.2223484069108963,0.055739812552928925,-0.2927485406398773
1697701679422824700,0.73082470703125,0.18814095854759216,0.3501681983470917,-0.3843756318092346
1697701679432417000,0.7404169921875,0.1441599577665329,0.8559496998786926,-0.5847335457801819
1697701679442010000,0.750010009765625,0.09773556143045425,0.8608365058898926,-0.5505260825157166
1697701679451604000,0.75960400390625,0.09040539711713791,0.6617003083229065,-0.4869979918003082
1697701679461197000,0.769197021484375,0.11483928561210632,0.42102646827697754,-0.45889899134635925
1697701679470789400,0.778789306640625,0.1429382562637329,0.2304421216249466,-0.3868190348148346
1697701679480382500,0.788382568359375,0.14171656966209412,0.07406523078680038,-0.29030516743659973
1697701679489976300,0.797976318359375,0.11239589750766754,-0.06154286116361618,-0.1901262104511261
1697701679499569400,0.8075693359375,0.07574506103992462,-0.1495048701763153,-0.10216420143842697
1697701679509161700,0.81716162109375,0.0525328628718853,-0.1763821393251419,-0.05329642444849014
1697701679518754600,0.826754638671875,0.05375456064939499,-0.14217470586299896,-0.0459662564098835
1697701679528348700,0.8363486328125,0.08185353130102158,-0.06765133142471313,-0.0716218426823616
1697701679537941500,0.84594140625,0.12827792763710022,0.014202198944985867,-0.11438114941120148
1697701679547533800,0.855533935546875,0.17348061501979828,0.06306997686624527,-0.1644706279039383
1697701679557127000,0.865126953125,0.1979145109653473,0.05329642444849014,-0.21089501678943634
1697701679566720800,0.874720703125,0.19913621246814728,-0.005344913341104984,-0.25121092796325684
1697701679576313900,0.88431396484375,0.18814095854759216,-0.0859767496585846,-0.27197974920272827
1697701679585906200,0.89390625,0.17592400312423706,-0.15561333298683167,-0.26464956998825073
1697701679595499300,0.903499267578125,0.16492876410484314,-0.22402822971343994,-0.23532891273498535
1697701679605093000,0.913093017578125,0.15149012207984924,-0.2814478874206543,-0.1889045089483261
1697701679614686200,0.922686279296875,0.13682979345321655,-0.31687700748443604,-0.13026317954063416
1697701679624278500,0.932278564453125,0.13438639044761658,-0.3071034550666809,-0.06062658876180649
1697701679633871600,0.94187158203125,0.14171656966209412,-0.25945737957954407,0.004123218823224306
1697701679643465500,0.951465576171875,0.15271180868148804,-0.2020377367734909,0.051769305020570755
1697701679653058300,0.961058349609375,0.16370706260204315,-0.14828316867351532,0.07009471952915192
1697701679662650600,0.970650634765625,0.18081079423427582,-0.10918894410133362,0.052990999072790146
1697701679672244000,0.980243896484375,0.20524467527866364,-0.08719844371080399,0.01511846948415041
1697701679681837600,0.989837646484375,0.23334364593029022,-0.0847550556063652,-0.03374931216239929
1697701679691430700,0.9994306640625,0.2602209448814392,-0.10308047384023666,-0.08139539510011673
1697701679701023000,1.00902294921875,0.28098973631858826,-0.15561333298683167,-0.11926792562007904
1697701679710616000,1.018615966796875,0.284654825925827,-0.24724042415618896,-0.12659808993339539
1697701679720210000,1.0282099609375,0.25777754187583923,-0.3327590525150299,-0.08139539510011673
1697701679729803000,1.037802978515625,0.21746163070201874,-0.3620797097682953,0.009009997360408306
1697701679739395000,1.04739501953125,0.1844758689403534,-0.3461976945400238,0.10308047384023666
1697701679748988400,1.056988525390625,0.17714570462703705,-0.30221667885780334,0.16538690030574799
1697701679758582300,1.066582275390625,0.19302773475646973,-0.2692309319972992,0.18004722893238068
1697701679768175000,1.076175048828125,0.2211267054080963,-0.2667875289916992,0.1495048701763153
1697701679777767400,1.085767333984375,0.2504473626613617,-0.28633466362953186,0.08719844371080399
1697701679787360500,1.095360595703125,0.27121618390083313,-0.3071034550666809,0.005344913341104984
1697701679796954400,1.104954345703125,0.26877278089523315,-0.3486410677433014,-0.08017370104789734
1697701679806547500,1.11454736328125,0.284654825925827,-0.444085955619812,-0.14370182156562805
1697701679816139800,1.124139892578125,0.3249707520008087,-0.5381564497947693,-0.15836215019226074
1697701679825732900,1.13373291015625,0.3310792148113251,-0.5137225389480591,-0.13514995574951172
1697701679835326700,1.14332666015625,0.33718767762184143,-0.444085955619812,-0.10949437320232391
1697701679844919600,1.15291943359375,0.3286358118057251,-0.270452618598938,-0.06673506647348404
1697701679854511900,1.162511962890625,0.33352261781692505,-0.10674555599689484,-0.0325276181101799
1697701679864105200,1.172105224609375,0.3555130958557129,0.009315420873463154,-0.0325276181101799
1697701679873699000,1.181698974609375,0.37506023049354553,0.0850604772567749,-0.06306997686624527
1697701679883292000,1.1912919921875,0.3921639323234558,0.13392825424671173,-0.10460758954286575
1697701679892884200,1.20088427734375,0.4092676639556885,0.17180079221725464,-0.1363716572523117
1697701679902477300,1.210477294921875,0.4178195297718048,0.19501298666000366,-0.15836215019226074
1697701679912071200,1.2200712890625,0.41171106696128845,0.2304421216249466,-0.17180079221725464
1697701679921664300,1.229664306640625,0.4068242609500885,0.2817533016204834,-0.17913095653057098
1697701679931256300,1.23925634765625,0.4092676639556885,0.31473904848098755,-0.17302247881889343
1697701679940849700,1.248849609375,0.41171106696128845,0.3086305856704712,-0.15469707548618317
1697701679950443500,1.258443603515625,0.41171106696128845,0.27686652541160583,-0.1253764033317566
1697701679960036400,1.268036376953125,0.4043808877468109,0.2536543309688568,-0.08872556686401367
1697701679969628700,1.277628662109375,0.393385648727417,0.23288552463054657,-0.06062658876180649
1697701679979221800,1.2872216796875,0.38605546951293945,0.19867807626724243,-0.04840964451432228
1697701679988815600,1.296815673828125,0.38849884271621704,0.1754658818244934,-0.05085303261876106
1697701679998408700,1.30640869140625,0.3970507085323334,0.14736689627170563,-0.07040014863014221
1697701680008001000,1.3160009765625,0.4080459773540497,0.10949437320232391,-0.09605573117733002
1697701680017594000,1.325593994140625,0.4080459773540497,0.08017370104789734,-0.11560284346342087
1697701680027188000,1.33518798828125,0.3970507085323334,0.06917845457792282,-0.1241547018289566
1697701680036780800,1.34478076171875,0.38483378291130066,0.06551336497068405,-0.12048961967229843
1697701680046373000,1.354373046875,0.3836120665073395,0.07406523078680038,-0.11315945535898209
1697701680055966200,1.36396630859375,0.3970507085323334,0.09605573117733002,-0.10094250738620758
1697701680065560000,1.37356005859375,0.41415444016456604,0.1119377613067627,-0.08139539510011673
1697701680075153200,1.383153076171875,0.42637139558792114,0.11682453751564026,-0.055739812552928925
1697701680084745500,1.392745361328125,0.4214846193790436,0.10460758954286575,-0.03374931216239929
1697701680094338300,1.40233837890625,0.41415444016456604,0.0850604772567749,-0.016645587980747223
1697701680103932400,1.411932373046875,0.41171106696128845,0.06795676052570343,-0.0032069480512291193
1697701680113525200,1.421525146484375,0.4056025743484497,0.05085303261876106,0.0065666078589856625
1697701680123117600,1.43111767578125,0.38605546951293945,0.03497100621461868,0.013896775431931019
1697701680132710700,1.440710693359375,0.36039987206459045,0.02641914412379265,0.02367033064365387
1697701680142304500,1.450304443359375,0.3298575282096863,0.03008422814309597,0.03588727489113808
1697701680151897600,1.459897705078125,0.3029802441596985,0.04718795046210289,0.05543438717722893
1697701680161490000,1.469489990234375,0.2883199155330658,0.06917845457792282,0.07498150318861008
1697701680171082800,1.479082763671875,0.2870981991291046,0.09483403712511063,0.08719844371080399
1697701680180676900,1.4886767578125,0.29442837834358215,0.10216420143842697,0.08842013776302338
1697701680190269700,1.498269775390625,0.30786702036857605,0.07650861889123917,0.06887302547693253
1697701680199862000,1.507862060546875,0.32008397579193115,0.039857782423496246,0.034665580838918686
1697701680209455000,1.517455078125,0.3139754831790924,0.008093725889921188,0.0029015245381742716
1697701680219049000,1.527049072265625,0.29687178134918213,-0.01511846948415041,-0.022754060104489326
1697701680228642000,1.53664208984375,0.2736595869064331,-0.02367033064365387,-0.04107947647571564
1697701680238234400,1.546234375,0.25533416867256165,-0.02244863659143448,-0.054518118500709534
1697701680247827500,1.555827392578125,0.24189551174640656,-0.010231691412627697,-0.06673506647348404
1697701680257421300,1.56542138671875,0.23212195932865143,0.008093725889921188,-0.07040014863014221
1697701680267014100,1.57501416015625,0.22601348161697388,0.037414394319057465,-0.06184828653931618
1697701680276606500,1.5846064453125,0.22967857122421265,0.08383878320455551,-0.05085303261876106
1697701680286199600,1.594199462890625,0.23823043704032898,0.12904147803783417,-0.04107947647571564
1697701680295793400,1.60379345703125,0.24556060135364532,0.14736689627170563,-0.039857782423496246
1697701680305386500,1.613386474609375,0.24678228795528412,0.14125843346118927,-0.0459662564098835
1697701680314978600,1.622978515625,0.24189551174640656,0.12171131372451782,-0.055739812552928925
1697701680324571600,1.632571533203125,0.23090025782585144,0.09483403712511063,-0.0594048947095871
1697701680334165500,1.64216552734375,0.2235700935125351,0.06184828653931618,-0.054518118500709534
1697701680343758600,1.651758544921875,0.22723518311977386,0.012980503961443901,-0.04352286830544472
1697701680353351000,1.661350830078125,0.24067382514476776,-0.04077405482530594,-0.03374931216239929
1697701680362944000,1.670944091796875,0.25533416867256165,-0.07986827939748764,-0.025197450071573257
1697701680372537900,1.680537841796875,0.26755109429359436,-0.08108997344970703,-0.016645587980747223
1697701680382131000,1.690130859375,0.26755109429359436,-0.050547610968351364,-0.005650337319821119
1697701680391723000,1.699722900390625,0.2651077210903168,-0.020005248486995697,0.005344913341104984
1697701680401316000,1.709316162109375,0.28098973631858826,0.005650337319821119,0.011453386396169662
1697701680410910000,1.718909912109375,0.3139754831790924,0.022754060104489326,0.009009997360408306
1697701680420503000,1.7285029296875,0.34451785683631897,0.015423892997205257,0.0004581354442052543
1697701680430095400,1.738095458984375,0.3640649616718292,-0.02733541466295719,-0.004428642801940441
1697701680439688400,1.7476884765625,0.37139514088630676,-0.09941539168357849,-0.0032069480512291193
1697701680449282300,1.7572822265625,0.36284327507019043,-0.2032594233751297,0.007788302376866341
1697701680458875100,1.766875244140625,0.33718767762184143,-0.3095468580722809,0.03833066672086716
1697701680468467500,1.776467529296875,0.31031039357185364,-0.3962871730327606,0.0847550556063652
1697701680478060500,1.786060546875,0.2907632887363434,-0.45263782143592834,0.13484452664852142
1697701680487654400,1.795654296875,0.29442837834358215,-0.4734066128730774,0.1751604527235031
1697701680497247500,1.80524755859375,0.3151971995830536,-0.4367557764053345,0.19592925906181335
1697701680506839600,1.814839599609375,0.3298575282096863,-0.33764582872390747,0.19959434866905212
1697701680516433000,1.824432861328125,0.3164188861846924,-0.2276933193206787,0.18493400514125824
1697701680526026500,1.834026611328125,0.27976804971694946,-0.16050012409687042,0.16050012409687042
1697701680535619600,1.84361962890625,0.2480039894580841,-0.13240113854408264,0.1360662281513214
1697701680545212000,1.8532119140625,0.2235700935125351,-0.1360662281513214,0.11285403370857239
1697701680554805000,1.862804931640625,0.20035789906978607,-0.16660858690738678,0.08719844371080399
1697701680564398800,1.87239892578125,0.17958909273147583,-0.19348587095737457,0.06032116711139679
1697701680573992000,1.881991943359375,0.16248537600040436,-0.22158484160900116,0.03955236077308655
1697701680583584000,1.891583984375,0.15271180868148804,-0.2545706033706665,0.021226942539215088
1697701680593177000,1.901177001953125,0.1453816443681717,-0.2851129472255707,0.0016798300202935934
1697701680602771000,1.91077099609375,0.13316470384597778,-0.31199023127555847,-0.022754060104489326
1697701680612364000,1.920364013671875,0.10384403169155121,-0.3107685446739197,-0.04107947647571564
1697701680621956400,1.929956298828125,0.05008947476744652,-0.2777827978134155,-0.05329642444849014
1697701680631549400,1.939549560546875,-0.01588202826678753,-0.2423536479473114,-0.06917845457792282
1697701680641143000,1.94914306640625,-0.07085828483104706,-0.2154763638973236,-0.09361234307289124
1697701680650736000,1.958736083984375,-0.10384403169155121,-0.21425467729568481,-0.12293300777673721
1697701680660328400,1.968328369140625,-0.1172826737165451,-0.23258009552955627,-0.15836215019226074
1697701680669921500,1.977921630859375,-0.11483928561210632,-0.2582356929779053,-0.1913478970527649
1697701680679515400,1.987515380859375,-0.1050657257437706,-0.293664813041687,-0.22433365881443024
1697701680689108500,1.9971083984375,-0.09284878522157669,-0.3327590525150299,-0.2536543309688568
1697701680698700500,2.006700439453125,-0.08185353130102158,-0.3449759781360626,-0.2695363461971283
1697701680708293600,2.016293701171875,-0.08063183724880219,-0.3217637836933136,-0.25976279377937317
1697701680717887500,2.025887451171875,-0.09651386737823486,-0.2692309319972992,-0.2304421216249466
1697701680727480600,2.03548046875,-0.1172826737165451,-0.20081603527069092,-0.19989976286888123
1697701680737073000,2.045072998046875,-0.129499614238739,-0.13973131775856018,-0.1766875684261322
1697701680746666000,2.054666015625,-0.129499614238739,-0.10552386194467545,-0.1656923145055771
1697701680756259800,2.064259765625,-0.129499614238739,-0.10308047384023666,-0.1644706279039383
1697701680765852700,2.073852783203125,-0.13560809195041656,-0.13117945194244385,-0.1754658818244934
1697701680775445000,2.083445068359375,-0.1429382562637329,-0.16538690030574799,-0.18768282234668732
1697701680785038000,2.0930380859375,-0.1441599577665329,-0.18737739324569702,-0.2011214643716812
1697701680794632000,2.1026318359375,-0.14782503247261047,-0.20570281147956848,-0.22189027070999146
1697701680804225000,2.11222509765625,-0.15271180868148804,-0.20692451298236847,-0.24876753985881805
1697701680813817000,2.121817138671875,-0.15149012207984924,-0.18615570664405823,-0.2707580327987671
1697701680823410200,2.13141015625,-0.14660334587097168,-0.15561333298683167,-0.2817533016204834
1697701680833004000,2.141004150390625,-0.1429382562637329,-0.1250709742307663,-0.2829749882221222
1697701680842597000,2.15059716796875,-0.13560809195041656,-0.09575030952692032,-0.2805316150188446
1697701680852189400,2.160189453125,-0.12339114397764206,-0.08231166750192642,-0.27442312240600586
1697701680861782300,2.1697822265625,-0.10140064358711243,-0.09330692142248154,-0.2658712565898895
1697701680871376100,2.179376220703125,-0.08185353130102158,-0.12140589207410812,-0.26220619678497314
1697701680880969200,2.18896923828125,-0.07207997888326645,-0.16905197501182556,-0.26220619678497314
1697701680890561500,2.1985615234375,-0.06841489672660828,-0.23868857324123383,-0.26342788338661194
1697701680900154600,2.208154541015625,-0.07207997888326645,-0.3071034550666809,-0.2573194205760956
1697701680909748500,2.21774853515625,-0.0794101431965828,-0.3596363365650177,-0.25121092796325684
1697701680919341300,2.22734130859375,-0.09407047927379608,-0.3852919042110443,-0.24021568894386292
1697701680928933600,2.23693359375,-0.09895725548267365,-0.3694098889827728,-0.22555534541606903
1697701680938526700,2.246526611328125,-0.0916270911693573,-0.33764582872390747,-0.21211670339107513
1697701680948120600,2.25612060546875,-0.07574506103992462,-0.3058817684650421,-0.21333840489387512
1697701680957713700,2.265713623046875,-0.05497625470161438,-0.2826695740222931,-0.22311195731163025
1697701680967305700,2.2753056640625,-0.029320668429136276,-0.270452618598938,-0.23166382312774658
1697701680976899000,2.284899169921875,-0.0036650835536420345,-0.2680092453956604,-0.2292204350233078
1697701680986492700,2.29449267578125,0.02076880633831024,-0.2802261710166931,-0.21333840489387512
1697701680996085800,2.304085693359375,0.05497625470161438,-0.3107685446739197,-0.18279604613780975
1697701681005678000,2.313677978515625,0.08918370306491852,-0.36574479937553406,-0.15836215019226074
1697701681015271000,2.32327099609375,0.11361759155988693,-0.44042086601257324,-0.15714046359062195
1697701681024864800,2.33286474609375,0.14049486815929413,-0.5100574493408203,-0.18035265803337097
1697701681034457900,2.342457763671875,0.16248537600040436,-0.5772506594657898,-0.22066856920719147
1697701681044050200,2.35205029296875,0.17836740612983704,-0.6456655263900757,-0.2695363461971283
1697701681053643300,2.361643310546875,0.19302773475646973,-0.70797199010849,-0.30252209305763245
1697701681063237000,2.371237060546875,0.1820324808359146,-0.7666133046150208,-0.2976353168487549
1697701681072830000,2.380829833984375,0.15393351018428802,-0.81425940990448,-0.26098448038101196
1697701681082422300,2.39042236328125,0.13316470384597778,-0.8362498879432678,-0.20356485247612
1697701681092015400,2.400015380859375,0.13560809195041656,-0.837471604347229,-0.13148486614227295
1697701681101609200,2.409609130859375,0.16492876410484314,-0.8179244995117188,-0.06184828653931618
1697701681111202000,2.4192021484375,0.20524467527866364,-0.7800519466400146,-0.015423892997205257
1697701681120794400,2.42879443359375,0.2345653474330902,-0.7507312893867493,-0.005650337319821119
1697701681130387500,2.438387451171875,0.2516690790653229,-0.7385143637657166,-0.038636088371276855
1697701681139981300,2.447981201171875,0.2626643180847168,-0.7348492741584778,-0.1241547018289566
1697701681149574400,2.457574462890625,0.2773246467113495,-0.7446228265762329,-0.2658712565898895
1697701681159166500,2.46716650390625,0.3029802441596985,-0.7934905886650085,-0.42957833409309387
1697701681168759600,2.476759521484375,0.30664533376693726,-0.8655705451965332,-0.5688515305519104
1697701681178353400,2.486353515625,0.2980934679508209,-0.8997780084609985,-0.6519267559051514
1697701681187946500,2.495946533203125,0.2993151545524597,-0.9071081876754761,-0.6678087711334229
1697701681197538600,2.50553857421875,0.31886225938796997,-0.9217684864997864,-0.6250494718551636
1697701681207132000,2.5151318359375,0.367730051279068,-0.9315420985221863,-0.5370874404907227
1697701681216725500,2.5247255859375,0.43981003761291504,-0.8961129188537598,-0.4381301999092102
1697701681226318600,2.534318603515625,0.5057815313339233,-0.8777875304222107,-0.36360684037208557
1697701681235911000,2.543910888671875,0.5338805317878723,-0.92054682970047,-0.333064466714859
1697701681245503700,2.553503662109375,0.522885262966156,-0.998735249042511,-0.3623851239681244
1697701681255097900,2.563097900390625,0.48012593388557434,-1.0683718919754028,-0.46867257356643677
1697701681264690700,2.572690673828125,0.4178195297718048,-1.1086877584457397,-0.6445965766906738
1697701681274283000,2.582282958984375,0.36039987206459045,-1.1209046840667725,-0.8412894010543823
1697701681283876000,2.5918759765625,0.3042019307613373,-1.1306782960891724,-1.0037747621536255
1697701681293470000,2.601469970703125,0.25289076566696167,-1.0854755640029907,-1.0587509870529175
1697701681303062800,2.611062744140625,0.22967857122421265,-0.9339854717254639,-0.9671239256858826
1697701681312655000,2.620655029296875,0.2211267054080963,-0.7690566778182983,-0.7643226385116577
1697701681322248200,2.630248291015625,0.22479179501533508,-0.6310052275657654,-0.5175403356552124
1697701681331842000,2.639842041015625,0.24433889985084534,-0.5015056133270264,-0.30740886926651
1697701681341435000,2.649434814453125,0.2492256760597229,-0.40850409865379333,-0.21211670339107513
1697701681351027200,2.659027099609375,0.23090025782585144,-0.3620797097682953,-0.2414373755455017
1697701681360620300,2.668620361328125,0.1966928243637085,-0.3718532621860504,-0.36727190017700195
1697701681370214100,2.678214111328125,0.16248537600040436,-0.4477510452270508,-0.5456393361091614
1697701681379807000,2.687806884765625,0.13682979345321655,-0.5491516590118408,-0.7154548764228821
1697701681389399300,2.6973994140625,0.1172826737165451,-0.6346703171730042,-0.8241856694221497
1697701681398992400,2.706992431640625,0.10995250940322876,-0.6725428104400635,-0.8425110578536987
1697701681408586200,2.716586181640625,0.10873081535100937,-0.656660795211792,-0.7802046537399292
1697701681418179000,2.726178955078125,0.09773556143045425,-0.5980194807052612,-0.6800256967544556
1697701681427771400,2.735771484375,0.08551861345767975,-0.5247178077697754,-0.6055023670196533
1697701681437364500,2.745364501953125,0.06841489672660828,-0.47951510548591614,-0.6067240238189697
1697701681446958300,2.754958251953125,0.061084724962711334,-0.45508119463920593,-0.669030487537384
1697701681456551200,2.76455126953125,0.08796200156211853,-0.4489727318286896,-0.755770742893219
1697701681466143500,2.7741435546875,0.11117420345544815,-0.4734066128730774,-0.8290724158287048
1697701681475736600,2.783736572265625,0.10750912129878998,-0.5234960913658142,-0.8742751479148865
1697701681485330400,2.793330322265625,0.0916270911693573,-0.5760289430618286,-0.8877137899398804
1697701681494923300,2.80292333984375,0.07452336698770523,-0.5980194807052612,-0.8522846102714539
1697701681504515600,2.812515625,0.062306419014930725,-0.573585569858551,-0.7679877281188965
1697701681514108700,2.822108642578125,0.0525328628718853,-0.5076140761375427,-0.645818293094635
1697701681523702500,2.83170263671875,0.045202698558568954,-0.40728241205215454,-0.5236487984657288
1697701681533295400,2.84129541015625,0.05131116881966591,-0.3083251416683197,-0.43324342370033264
1697701681542887700,2.8508876953125,0.061084724962711334,-0.24479703605175018,-0.3868190348148346
1697701681552480800,2.860480712890625,0.05741964280605316,-0.23746687173843384,-0.3855973184108734
1697701681562074400,2.870074462890625,0.021990500390529633,-0.28755635023117065,-0.4014793634414673
1697701681571667500,2.87966748046875,-0.03665083646774292,-0.3229855000972748,-0.41736137866973877
1697701681581259800,2.889259765625,-0.09407047927379608,-0.2790044844150543,-0.43446511030197144
1697701681590852600,2.8988525390625,-0.11117420345544815,-0.10796725004911423,-0.4491254389286041
1697701681600446500,2.908446533203125,-0.07207997888326645,0.13148486614227295,-0.4894413650035858
1697701681610039600,2.91803955078125,-0.014660334214568138,0.3501681983470917,-0.5725166201591492
1697701681619631900,2.9276318359375,0.023212196305394173,0.5273138880729675,-0.6702521443367004
1697701681629224700,2.937224609375,0.01710372418165207,0.6116108298301697,-0.7594358325004578
1697701681638818600,2.946818603515625,-0.02076880633831024,0.5993938446044922,-0.8290724158287048
1697701681648411600,2.95641162109375,-0.08796200156211853,0.5285356044769287,-0.8510629534721375
1697701681658003700,2.966003662109375,-0.1954711228609085,0.3831539452075958,-0.8168554902076721
1697701681667596800,2.9755966796875,-0.34818294644355774,0.14492350816726685,-0.724006712436676
1697701681677190700,2.985190673828125,-0.5106683373451233,-0.15683503448963165,-0.5419742465019226
1697701681686783700,2.99478369140625,-0.6658235192298889,-0.47829338908195496,-0.27442312240600586
1697701681696375800,3.004375732421875,-0.7806627750396729,-0.7934905886650085,0.020005248486995697
1697701681705969000,3.013968994140625,-0.8429692387580872,-1.0940274000167847,0.2533488869667053
1697701681715562800,3.023562744140625,-0.8674030900001526,-1.3908991813659668,0.3620797097682953
1697701681725155600,3.033155517578125,-0.8319739699363708,-1.6340163946151733,0.3449759781360626
1697701681734748000,3.042747802734375,-0.7220214605331421,-1.8209357261657715,0.22647161781787872
1697701681744341000,3.052341064453125,-0.652384877204895,-1.7818413972854614,0.05543438717722893
1697701681753934800,3.061934814453125,-0.5534276366233826,-1.475196123123169,-0.11682453751564026
1697701681763527700,3.071527587890625,-0.3823903799057007,-1.1025793552398682,-0.2536543309688568
1697701681773120000,3.0811201171875,-0.10995250940322876,-0.8582404255867004,-0.3574983477592468
1697701681782712800,3.090712890625,0.22723518311977386,-0.6933116316795349,-0.4405735731124878
1697701681792306700,3.100306640625,0.24067382514476776,-0.5650337338447571,-0.462564080953598
1697701681801899800,3.109899658203125,0.026877280324697495,-0.5234960913658142,-0.4515688419342041
1697701681811491800,3.119491943359375,-0.2357870489358902,-0.5845808386802673,-0.4246915578842163
1697701681821085000,3.1290849609375,-0.44958359003067017,-0.846023440361023,-0.39048412442207336
1697701681830678800,3.1386787109375,-0.5986303091049194,-1.2516260147094727,-0.35383328795433044
1697701681840272000,3.14827197265625,-0.6865923404693604,-1.6523418426513672,-0.3171824514865875
1697701681849864000,3.157864013671875,-0.7134696245193481,-1.9247796535491943,-0.28908345103263855
1697701681859457000,3.16745703125,-0.6584933400154114,-2.0664963722229004,-0.2670929729938507
1697701681869051000,3.17705078125,-0.5387672781944275,-2.0958168506622314,-0.24021568894386292
1697701681878643700,3.186643798828125,-0.38483378291130066,-2.010298252105713,-0.2047865390777588
1697701681888236000,3.196236083984375,-0.23212195932865143,-1.8551430702209473,-0.15836215019226074
1697701681897829000,3.2058291015625,-0.11239589750766754,-1.7122048139572144,-0.0984991192817688
1697701681907423000,3.215423095703125,-0.03420744836330414,-1.6034740209579468,-0.036192700266838074
1697701681917015800,3.225015869140625,-0.004886778071522713,-1.4996299743652344,0.017561858519911766
1697701681926608100,3.234608154296875,-0.012216945178806782,-1.4031161069869995,0.05665608495473862
1697701681936201000,3.244200927734375,-0.021990500390529633,-1.3334795236587524,0.0713164210319519
1697701681945794800,3.253794921875,-0.023212196305394173,-1.299272060394287,0.034665580838918686
1697701681955387600,3.2633876953125,0.009773556143045425,-1.3371446132659912,-0.058183200657367706
1697701681964980000,3.27297998046875,0.19302773475646973,-1.4874130487442017,-0.1632489264011383
1697701681974573000,3.282572998046875,0.4471401870250702,-1.6205778121948242,-0.2536543309688568
1697701681984167000,3.2921669921875,0.7244648337364197,-1.742747187614441,-0.30374380946159363
1697701681993759700,3.301759765625,1.0640959739685059,-1.9125627279281616,-0.30130040645599365
1697701682003352000,3.31135205078125,1.2913310527801514,-2.033510446548462,-0.3452814221382141
1697701682012945000,3.32094482421875,1.3707412481307983,-2.2546372413635254,-0.3855973184108734
1697701682022538800,3.330538818359375,1.3414205312728882,-2.3902454376220703,-0.5224271416664124
1697701682032131800,3.3401318359375,1.2937744855880737,-2.507528066635132,-0.7166765332221985
1697701682041724000,3.349723876953125,1.3878449201583862,-2.693225622177124,-0.9206995368003845
1697701682051317000,3.35931689453125,1.7433581352233887,-2.987653970718384,-1.0648595094680786
1697701682060910800,3.368910888671875,2.3126676082611084,-3.217332601547241,-1.1479346752166748
1697701682070503700,3.378503662109375,2.9235150814056396,-3.2478749752044678,-1.1845855712890625
1697701682080096000,3.388095947265625,3.456173896789551,-3.042630195617676,-1.1833637952804565
1697701682089688800,3.397688720703125,3.9204177856445312,-2.695668935775757,-1.1406044960021973
1697701682099282700,3.40728271484375,4.311512470245361,-2.4281177520751953,-1.0233218669891357
1697701682108875300,3.416875244140625,4.539969444274902,-2.059166193008423,-0.8364025950431824
1697701682118467300,3.42646728515625,4.549743175506592,-1.6291296482086182,-0.6055023670196533
1697701682128060400,3.436060302734375,4.403139591217041,-1.434880256652832,-0.31473904848098755
1697701682137654300,3.445654296875,4.200338363647461,-1.4458754062652588,0.04321744292974472
1697701682147247000,3.4552470703125,3.9045357704162598,-1.3713520765304565,0.4634803533554077
1697701682156839400,3.46483935546875,3.4292964935302734,-1.1025793552398682,1.2235270738601685
1697701682166432300,3.474432373046875,2.945505380630493,-1.1587772369384766,2.270519256591797
1697701682176026000,3.484026123046875,2.519134044647217,-1.489856481552124,3.205115556716919
1697701682185619200,3.493619140625,2.0817675590515137,-1.428771734237671,4.057858467102051
1697701682195211300,3.503211181640625,1.6932686567306519,-1.2015365362167358,4.645493507385254
1697701682204804400,3.512804443359375,1.4806936979293823,-1.0072871446609497,4.860511779785156
1697701682214398200,3.522398193359375,1.5332266092300415,-0.8423583507537842,4.816530704498291
1697701682223991000,3.531990966796875,1.666391372680664,-0.6371136903762817,4.625946521759033
1697701682233583400,3.541583251953125,1.7409147024154663,-0.2667875289916992,4.392602443695068
1697701682243176200,3.55117626953125,1.6908252239227295,0.22066856920719147,4.222786903381348
1697701682252770000,3.56077001953125,1.5283398628234863,0.3965925872325897,4.116499900817871
1697701682262363000,3.57036279296875,1.3304253816604614,0.2585411071777344,4.044419765472412
1697701682271955200,3.579955078125,1.1129636764526367,0.18523943424224854,4.048084735870361
1697701682281548000,3.589548095703125,0.8906152844429016,0.30374380946159363,4.1238298416137695
1697701682291142000,3.599141845703125,0.6560499668121338,0.5383091568946838,4.216678619384766
1697701682300735000,3.60873486328125,0.3921639323234558,0.8205205798149109,4.282649993896484
1697701682310327000,3.6183271484375,0.13560809195041656,0.9695672988891602,4.248442649841309
1697701682319920000,3.627920166015625,-0.05619794875383377,1.0782980918884277,4.041976451873779
1697701682329514000,3.637513916015625,-0.1710372269153595,1.2163496017456055,3.6950149536132812
1697701682339106800,3.64710693359375,-0.24556060135364532,1.2737692594528198,3.3077378273010254
1697701682348699100,3.65669921875,-0.3017585575580597,1.2737692594528198,2.938786268234253
1697701682358292000,3.6662919921875,-0.34818294644355774,1.2810994386672974,2.6333625316619873
1697701682367885800,3.6758857421875,-0.40193748474121094,1.1711468696594238,2.401240587234497
1697701682377478700,3.685478759765625,-0.4679090082645416,0.9194778203964233,2.268075942993164
1697701682387071000,3.695071044921875,-0.5326588153839111,0.5248705148696899,2.23020339012146
1697701682396664000,3.7046640625,-0.5961869359016418,-0.052990999072790146,2.0750482082366943
1697701682406257700,3.714257568359375,-0.6939224600791931,-0.7715001106262207,1.4593141078948975
1697701682415850800,3.723850830078125,-0.726908266544342,-1.3334795236587524,0.40972578525543213
1697701682425442800,3.73344287109375,-0.5888567566871643,-1.5509412288665771,-0.4918847680091858
1697701682435036000,3.743035888671875,-0.4324798583984375,-1.6389031410217285,-0.8266290426254272
1697701682444629800,3.752629638671875,-0.39949411153793335,-1.900345802307129,-0.7802046537399292
1697701682454222600,3.76222265625,-0.3799470067024231,-2.354816198348999,-0.5688515305519104
1697701682463814700,3.771814697265625,-0.3115321099758148,-2.771414041519165,-0.3318427801132202
1697701682473407700,3.78140771484375,-0.1844758689403534,-2.944894552230835,-0.1632489264011383
1697701682483001600,3.791001708984375,-0.03176405653357506,-2.8483808040618896,-0.10582929104566574
1697701682492594400,3.800594482421875,0.04031591862440109,-2.7665271759033203,-0.20600824058055878
1697701682502186800,3.810186767578125,-0.047646086663007736,-2.773857355117798,-0.44546034932136536
1697701682511779600,3.819779541015625,-0.3115321099758148,-2.82883358001709,-0.7545490860939026
1697701682521373400,3.82937353515625,-0.7171346545219421,-2.8276119232177734,-1.0086615085601807
1697701682530966300,3.83896630859375,-1.0909732580184937,-2.8019564151763916,-1.1320526599884033
1697701682540558600,3.84855859375,-1.3806675672531128,-2.78607439994812,-1.1198357343673706
1697701682550151400,3.8581513671875,-1.6262280941009521,-2.7750790119171143,-0.9854493141174316
1697701682559745300,3.867745361328125,-1.7667230367660522,-2.7934045791625977,-0.7533273696899414
1697701682569338000,3.877338134765625,-1.8436896800994873,-2.7787442207336426,-0.46867257356643677
1697701682578930400,3.886930419921875,-1.9328734874725342,-2.615037202835083,-0.22677704691886902
1697701682588523500,3.8965234375,-2.0354957580566406,-2.3963537216186523,-0.12048961967229843
1697701682598117000,3.9061171875,-2.0501561164855957,-2.0750482082366943,-0.1632489264011383
1697701682607710200,3.915710205078125,-2.022057056427002,-1.8844637870788574,-0.2548760175704956
1697701682617302300,3.92530224609375,-2.0550429821014404,-1.8551430702209473,-0.36727190017700195
1697701682626895400,3.934895263671875,-2.1588869094848633,-1.7390820980072021,-0.4491254389286041
1697701682636489000,3.944489013671875,-2.0721466541290283,-1.483747959136963,-0.4014793634414673
1697701682646082000,3.95408203125,-1.7007514238357544,-1.3518049716949463,-0.21822518110275269
1697701682655674000,3.963674072265625,-1.1312891244888306,-1.2907202243804932,-0.03497100621461868
1697701682665267200,3.97326708984375,-0.4727957844734192,-1.1147962808609009,0.07742489129304886
1697701682674860800,3.98286083984375,0.11117420345544815,-0.7568397521972656,0.01511846948415041
1697701682684454000,3.992453857421875,0.6035171151161194,-0.24724042415618896,-0.18768282234668732
1697701682694046000,4.0020458984375,1.0152281522750854,0.1388150453567505,-0.4515688419342041
1697701682703639000,4.01163916015625,1.3719629049301147,0.25976279377937317,-0.7142331600189209
1697701682713233000,4.02123291015625,1.7164808511734009,0.32695600390434265,-1.0086615085601807
1697701682722825700,4.03082568359375,2.2112669944763184,0.20234315097332,-1.3226370811462402
1697701682732417800,4.040417724609375,2.939397096633911,-0.0065666078589856625,-1.579192876815796
1697701682742011000,4.050010986328125,3.641871452331543,0.08139539510011673,-1.6537162065505981
1697701682751604700,4.059604736328125,4.1268839836120605,0.6568135023117065,-1.4105989933013916
1697701682761197600,4.069197509765625,4.33105993270874,1.4057122468948364,-0.8962656259536743
1697701682770789600,4.07878955078125,4.183234691619873,1.8455222845077515,-0.31596073508262634
1697701682780382700,4.0883828125,3.7481586933135986,1.7331264019012451,0.1495048701763153
1697701682789976600,4.0979765625,3.246042251586914,1.287207841873169,0.3889569938182831
1697701682799569400,4.1075693359375,2.8709821701049805,0.6800256967544556,0.376740038394928
1697701682809161500,4.117161376953125,2.7549211978912354,0.10338589549064636,0.16538690030574799
1697701682818754600,4.126754638671875,2.9699394702911377,-0.35108447074890137,-0.08261708915233612
1697701682828348400,4.136348388671875,3.451287031173706,-0.5894675850868225,-0.2292204350233078
1697701682837941200,4.145941162109375,4.208890438079834,-0.5222744345664978,-0.38193225860595703
1697701682847533300,4.155533203125,5.1361565589904785,-0.28999972343444824,-0.5383091568946838
1697701682857126400,4.16512646484375,6.074418067932129,-0.009009997360408306,-0.5920637249946594
1697701682866720300,4.17472021484375,6.804991245269775,0.28664007782936096,-0.5236487984657288
1697701682876313000,4.18431298828125,7.070098876953125,0.4002576768398285,-0.4136963188648224
1697701682885905200,4.1939052734375,6.735354423522949,0.3465031087398529,-0.35627666115760803
1697701682895498200,4.203498291015625,5.885055065155029,0.4503471553325653,-0.4540122151374817
1697701682905091800,4.213091796875,4.560738563537598,0.49921491742134094,-0.7997517585754395
1697701682914685000,4.222684814453125,3.0126986503601074,-0.0004581354442052543,-1.5400986671447754
1697701682924277000,4.232277099609375,1.6456224918365479,-0.2802261710166931,-2.3268699645996094
1697701682933870000,4.2418701171875,0.6426113247871399,0.42224815487861633,-2.4404876232147217
1697701682943463700,4.251463623046875,0.20646637678146362,1.028208613395691,-1.922489047050476
1697701682953056800,4.261056884765625,0.03420744836330414,1.1564866304397583,-1.1149489879608154
1697701682962648800,4.27064892578125,-0.09651386737823486,0.9475768208503723,-0.30985227227211
1697701682972242000,4.280241943359375,-0.09529217332601547,0.6226060390472412,0.35108447074890137
1697701682981835500,4.28983544921875,0.03665083646774292,0.4637857675552368,0.8619054555892944
1697701682991428600,4.2994287109375,0.2211267054080963,0.4637857675552368,1.2345223426818848
1697701683001020700,4.309020751953125,0.34573954343795776,0.441795289516449,1.4996299743652344
1697701683010613500,4.318613525390625,0.44103172421455383,0.3196258246898651,1.6755540370941162
1697701683020207400,4.328207275390625,0.5473191738128662,0.08994726091623306,1.7317520380020142
1697701683029800200,4.33780029296875,0.7085828185081482,-0.14095300436019897,1.6291296482086182
1697701683039392500,4.347392578125,0.9761339426040649,-0.45508119463920593,1.365243673324585
1697701683048985300,4.3569853515625,1.3182083368301392,-0.9584193229675293,1.0427162647247314
1697701683058579200,4.3665791015625,1.6798299551010132,-1.4446537494659424,0.7140804529190063
1697701683068172000,4.376172119140625,1.9791451692581177,-1.7134265899658203,0.36696648597717285
1697701683077764400,4.385764404296875,2.152625799179077,-1.8111621141433716,0.007788302376866341
1697701683087357200,4.395357177734375,2.1049797534942627,-1.860029935836792,-0.30740886926651
1697701683096951000,4.404950927734375,1.8288767337799072,-1.6340163946151733,-0.4796678125858307
1697701683106543900,4.4145439453125,1.4000619649887085,-0.9779664874076843,-0.4637857675552368
1697701683116136200,4.42413623046875,0.8527427911758423,-0.34008920192718506,-0.3049654960632324
1697701683125729000,4.43372900390625,0.36039987206459045,-0.031000498682260513,-0.08261708915233612
1697701683135323000,4.443322998046875,0.14171656966209412,-0.05543438717722893,0.09086353331804276
1697701683144915700,4.452915771484375,0.46302223205566406,-0.1763821393251419,0.18249061703681946
1697701683154507800,4.4625078125,1.0066763162612915,-0.13362284004688263,0.23258009552955627
1697701683164100900,4.472100830078125,1.3255385160446167,-0.06032116711139679,0.12751436233520508
1697701683173694500,4.481694580078125,1.5430002212524414,-0.11529742181301117,-0.03008422814309597
1697701683183287600,4.49128759765625,1.7323628664016724,-0.296108216047287,-0.20845162868499756
1697701683192879600,4.500879638671875,1.8740793466567993,-0.5589252710342407,-0.4149180054664612
1697701683202472700,4.51047265625,1.9070651531219482,-0.7385143637657166,-0.6226060390472412
1697701683212066300,4.52006640625,1.6578394174575806,-0.6725428104400635,-0.8217422962188721
1697701683221659100,4.5296591796875,0.9651386737823486,-0.35474956035614014,-0.9634588360786438
1697701683231251500,4.53925146484375,-0.024433890357613564,0.12904147803783417,-1.0001096725463867
1697701683240844300,4.54884423828125,-0.8258655071258545,0.48333290219306946,-0.913369357585907
1697701683250438100,4.558438232421875,-0.8991671800613403,0.252432644367218,-0.6629219651222229
1697701683260031000,4.568031005859375,-0.6731536984443665,-0.12873606383800507,-0.48577627539634705
1697701683269623000,4.577623046875,-0.5839699506759644,-0.402395635843277,-0.5322006940841675
1697701683279216000,4.587216064453125,-0.49234288930892944,-0.9315420985221863,-0.5615213513374329
1697701683288810000,4.59681005859375,-0.22967857122421265,-1.2479609251022339,-0.7362236380577087
1697701683298402800,4.60640283203125,0.30908870697021484,-1.0292776823043823,-1.3214153051376343
1697701683307995000,4.615994873046875,0.6426113247871399,0.20356485247612,-1.4301460981369019
1697701683317588000,4.625587890625,0.781884491443634,1.7148009538650513,-1.4423631429672241
1697701683327181600,4.635181640625,0.836860716342926,2.1704931259155273,-1.3507360219955444
1697701683336774400,4.6447744140625,0.9028322696685791,1.4069339036941528,-1.0013313293457031
1697701683346366700,4.65436669921875,1.0836430788040161,0.15714046359062195,-0.5285356044769287
1697701683355959600,4.66395947265625,1.3548592329025269,-0.9278770089149475,0.004123218823224306
1697701683365553400,4.673553466796875,1.6553961038589478,-1.4446537494659424,0.4378247857093811
1697701683375146200,4.683146240234375,1.8362069129943848,-1.3896775245666504,0.6224533319473267
1697701683384738300,4.69273828125,1.776343822479248,-1.0671501159667969,0.5037962794303894
1697701683394331400,4.702331298828125,1.5478869676589966,-0.6835380792617798,0.02733541466295719
1697701683403925200,4.71192529296875,1.3951750993728638,-0.44042086601257324,-0.6714738607406616
1697701683413518000,4.72151806640625,1.3438639640808105,-0.7470661997795105,-1.349514365196228
1697701683423110100,4.731110107421875,1.2400199174880981,-1.318819284439087,-1.760003685951233
1697701683432703200,4.740703125,1.225359559059143,-1.4642008543014526,-1.7453433275222778
1697701683442296800,4.750296875,1.4183872938156128,-1.063485026359558,-1.325080394744873
1697701683451889700,4.7598896484375,1.761683464050293,-0.8509102463722229,-0.695907711982727
1697701683461482000,4.76948193359375,2.065885543823242,-0.5943543910980225,-0.0594048947095871
1697701683471074800,4.77907470703125,2.3945212364196777,-0.23502348363399506,0.5870242118835449
1697701683480668700,4.788668701171875,2.6742892265319824,0.017867282032966614,1.1184613704681396
1697701683490261500,4.798261474609375,2.9577224254608154,0.40636613965034485,1.1575555801391602
1697701683499853600,4.807853515625,3.150750160217285,0.677582323551178,0.70797199010849
1697701683509446700,4.81744677734375,2.4983654022216797,0.4136963188648224,-0.15469707548618317
1697701683519040500,4.82704052734375,1.650509238243103,-0.469741553068161,-1.0379822254180908
1697701683528633300,4.83663330078125,1.1581664085388184,-1.5057384967803955,-1.2126845121383667
1697701683538225400,4.846225341796875,0.833195686340332,-1.4703093767166138,-0.7166765332221985
1697701683547818200,4.855818359375,0.5851916670799255,-0.46729815006256104,-0.05329642444849014
1697701683557412000,4.865412109375,0.48012593388557434,0.2573194205760956,0.4146125912666321
1697701683567005000,4.8750048828125,0.3799470067024231,0.23655059933662415,0.6908682584762573
1697701683576597200,4.88459716796875,0.09040539711713791,0.020310672000050545,0.8863393664360046
1697701683586190000,4.894190185546875,0.05619794875383377,0.15958385169506073,0.92054682970047
1697701683595784000,4.903783935546875,0.07696675509214401,0.4662291705608368,0.7104153633117676
1697701683605376800,4.913376708984375,0.16492876410484314,0.9145910739898682,0.2411319613456726
1697701683614968800,4.92296875,0.25777754187583923,0.7398887276649475,-0.15347537398338318
1697701683624562000,4.93256201171875,0.3042019307613373,0.06184828653931618,-0.2658712565898895
1697701683634155500,4.942155517578125,0.3164188861846924,-0.4428642690181732,-0.21089501678943634
1697701683643748400,4.951748291015625,0.2626643180847168,-0.7556180357933044,-0.15347537398338318
1697701683653340700,4.961340576171875,0.20524467527866364,-0.9743013978004456,-0.17913095653057098
1697701683662933500,4.97093359375,0.1588202863931656,-1.1038010120391846,-0.30985227227211
1697701683672527400,4.98052734375,0.09407047927379608,-0.9254335761070251,-0.5969504714012146
1697701683682120200,4.9901201171875,-0.04153761267662048,-0.4330907166004181,-1.0355387926101685
1697701683691712300,4.999712158203125,-0.2919849753379822,0.08017370104789734,-1.5327684879302979
1697701683701305300,5.009305419921875,-0.624285876750946,-0.007788302376866341,-1.625617265701294
1697701683710899000,5.01889892578125,-0.8539644479751587,-0.33764582872390747,-0.9573503732681274
1697701683720492000,5.028491943359375,-1.0628741979599,0.21944688260555267,-0.46134239435195923
1697701683730084000,5.038083984375,-1.109298586845398,0.3721587061882019,-0.06917845457792282
1697701683739677000,5.047677001953125,-0.7623373866081238,-0.004123218823224306,0.21181128919124603
1697701683749270800,5.057270751953125,-0.2736595869064331,-0.47951510548591614,0.31565532088279724
1697701683758863600,5.066863525390625,-0.2089097648859024,-0.7715001106262207,0.4414898455142975
1697701683768456000,5.0764560546875,-0.21746163070201874,-0.7201889157295227,0.5111264586448669
1697701683778048800,5.086048828125,-0.2748812735080719,-0.4978405237197876,0.4818057715892792
1697701683787642400,5.095642333984375,-0.36284327507019043,-0.2020377367734909,0.3755183517932892
1697701683797235500,5.1052353515625,-0.38605546951293945,0.10094250738620758,0.25212720036506653
1697701683806827500,5.11482763671875,-0.3946073353290558,0.32695600390434265,0.12995775043964386
1697701683816420400,5.12442041015625,-0.4471401870250702,0.4381301999092102,-0.0007635590736754239
1697701683826014200,5.13401416015625,-0.4752391576766968,0.335507869720459,-0.055739812552928925
1697701683835607000,5.14360693359375,-0.5265503525733948,0.2560977041721344,-0.020310672000050545
1697701683845199400,5.153199462890625,-0.5534276366233826,0.2145601063966751,0.07498150318861008
1697701683854792200,5.162792236328125,-0.554649293422699,0.18279604613780975,0.188599094748497
1697701683864385800,5.1723857421875,-0.5558710098266602,0.21089501678943634,0.21914145350456238
1697701683873979000,5.181978759765625,-0.5534276366233826,0.26464956998825073,0.20814619958400726
1697701683883571000,5.191571044921875,-0.5204418897628784,0.2805316150188446,0.21058958768844604
1697701683893163800,5.201163818359375,-0.4581354558467865,0.26220619678497314,0.23258009552955627
1697701683902757600,5.210757568359375,-0.37261682748794556,0.2145601063966751,0.26434415578842163
1697701683912350500,5.2203505859375,-0.29442837834358215,0.14858859777450562,0.3107685446739197
1697701683921942800,5.22994287109375,-0.21868331730365753,0.12904147803783417,0.3364241421222687
1697701683931535600,5.23953564453125,-0.13316470384597778,0.09483403712511063,0.37918344140052795
1697701683941129500,5.24912939453125,-0.03787253051996231,0.0325276181101799,0.4500417113304138
1697701683950722300,5.258722412109375,0.028098974376916885,-0.011453386396169662,0.5320479869842529
1697701683960314400,5.268314453125,0.0390942245721817,-0.0029015245381742716,0.6065713167190552
1697701683969907200,5.2779072265625,0.05375456064939499,0.05085303261876106,0.6554391384124756
1697701683979501000,5.2875009765625,0.07696675509214401,0.12171131372451782,0.6688777208328247
1697701683989094000,5.297093994140625,0.08674030750989914,0.1522536724805832,0.6627692580223083
1697701683998686200,5.306686279296875,0.08796200156211853,0.14492350816726685,0.648108959197998
1697701684008279000,5.316279052734375,0.08796200156211853,0.14492350816726685,0.6322268843650818
1697701684017873000,5.325872802734375,0.08063183724880219,0.15714046359062195,0.6187883019447327
1697701684027465700,5.3354658203125,0.06719319522380829,0.1889045089483261,0.6114581227302551
1697701684037057800,5.345057861328125,0.06352811306715012,0.26220619678497314,0.610236406326294
1697701684046651000,5.35465087890625,0.06841489672660828,0.37704548239707947,0.6224533319473267
1697701684056244500,5.364244384765625,0.0659715011715889,0.5126535892486572,0.6505523324012756
1697701684065837300,5.37383740234375,0.05619794875383377,0.6470399498939514,0.6835380792617798
1697701684075429600,5.3834296875,0.0390942245721817,0.7447755336761475,0.7165238261222839
1697701684085022500,5.3930224609375,0.013438640162348747,0.7777612805366516,0.7348492741584778
1697701684094616300,5.4026162109375,-0.008551862090826035,0.7765395641326904,0.731184184551239
1697701684104209200,5.412209228515625,-0.030542362481355667,0.7374453544616699,0.7067502737045288
1697701684113801200,5.42180126953125,-0.042759306728839874,0.7130114436149597,0.6957550048828125
1697701684123394000,5.43139404296875,-0.05375456064939499,0.7191199064254761,0.731184184551239
1697701684132988000,5.44098779296875,-0.05864133685827255,0.7142331600189209,0.7947123050689697
1697701684142580700,5.450580810546875,-0.04031591862440109,0.6580352187156677,0.7702783942222595
1697701684152173000,5.460173095703125,-0.012216945178806782,0.571294903755188,0.5955760478973389
1697701684161766000,5.469765869140625,0.010995250195264816,0.5358657836914062,0.3486410677433014
1697701684171359500,5.479359375,0.01710372418165207,0.7227849960327148,0.15439164638519287
1697701684180952600,5.48895263671875,0.008551862090826035,0.9695672988891602,0.15561333298683167
1697701684190544600,5.498544677734375,-0.029320668429136276,0.9561286568641663,0.2716743052005768
1697701684200137500,5.508137451171875,-0.04886778071522713,0.6592568755149841,0.3083251416683197
1697701684209731300,5.5177314453125,-0.04031591862440109,0.32817769050598145,0.2044811248779297
1697701684219324200,5.52732421875,-0.05497625470161438,0.08750387281179428,-0.017867282032966614
1697701684228916500,5.53691650390625,-0.15149012207984924,-0.10063708573579788,-0.2560977041721344
1697701684238509300,5.54650927734375,-0.35917818546295166,-0.30099499225616455,-0.4136963188648224
1697701684248103200,5.556103271484375,-0.6035171151161194,-0.42453885078430176,-0.40514445304870605
1697701684257696000,5.565696044921875,-0.8893936276435852,-0.19592925906181335,-0.3086305856704712
1697701684267288000,5.5752880859375,-1.2487244606018066,0.2536543309688568,-0.3049654960632324
1697701684276881000,5.584880859375,-1.5455962419509888,0.6164975762367249,-0.48455458879470825
1697701684286474800,5.594474853515625,-1.4588559865951538,0.8339592218399048,-0.7777612805366516
1697701684296067600,5.604067626953125,-1.0469921827316284,0.7166765332221985,-0.9768974781036377
1697701684305659600,5.61365966796875,-0.5864133834838867,0.28786176443099976,-0.9720106720924377
1697701684315252700,5.623252685546875,-0.2638860046863556,-0.08353336155414581,-0.7899782061576843
1697701684324846300,5.632846435546875,-0.30664533376693726,-0.1507265567779541,-0.5041016936302185
1697701684334439400,5.642439453125,-0.1979145109653473,-0.5332696437835693,-0.03008422814309597
1697701684344031500,5.652031494140625,-0.03542914241552353,-1.0793671607971191,0.14583978056907654
1697701684353624300,5.661624267578125,-0.1954711228609085,-0.28877803683280945,0.0981936976313591
1697701684363218200,5.67121826171875,-0.0036650835536420345,0.0007635590736754239,0.43293800950050354
1697701684372811000,5.68081103515625,0.11239589750766754,0.06062658876180649,0.6603258848190308
1697701684382403300,5.6904033203125,0.25289076566696167,-0.08842013776302338,0.80937260389328
1697701684391996200,5.69999609375,0.33230090141296387,-0.3071034550666809,0.8814526200294495
1697701684401589800,5.70958984375,0.37383851408958435,-0.3486410677433014,0.8741224408149719
1697701684411182800,5.719182861328125,0.38605546951293945,-0.03833066672086716,0.7434011101722717
1697701684420775000,5.72877490234375,0.41537612676620483,0.5407525300979614,0.4647020399570465
1697701684430367700,5.73836767578125,0.4691306948661804,1.0477557182312012,0.0859767496585846
1697701684439961600,5.747961669921875,0.47890424728393555,1.135717749595642,-0.24510246515274048
1697701684449554400,5.757554443359375,0.4202629029750824,0.8083036541938782,-0.439351886510849
1697701684459146500,5.767146484375,0.3261924386024475,0.24510246515274048,-0.5126535892486572
1697701684468739600,5.776739501953125,0.2089097648859024,-0.32909396290779114,-0.5358657836914062
1697701684478333400,5.78633349609375,0.06719319522380829,-0.7250757217407227,-0.5615213513374329
1697701684487926300,5.79592626953125,-0.09284878522157669,-0.8509102463722229,-0.5883986353874207
1697701684497518300,5.805518310546875,-0.2504473626613617,-0.7091936469078064,-0.5749599933624268
1697701684507111200,5.815111083984375,-0.3799470067024231,-0.3987305462360382,-0.5016583204269409
1697701684516705000,5.824705078125,-0.4727957844734192,-0.07620319724082947,-0.4002576768398285
1697701684526297900,5.8342978515625,-0.5216635465621948,0.12904147803783417,-0.32939937710762024
1697701684535890000,5.843889892578125,-0.5302154421806335,0.20600824058055878,-0.28786176443099976
1697701684545483000,5.85348291015625,-0.5070032477378845,0.17180079221725464,-0.25121092796325684
1697701684555076600,5.86307666015625,-0.4459185004234314,0.07406523078680038,-0.2170034945011139
1697701684564669400,5.87266943359375,-0.36284327507019043,-0.017561858519911766,-0.1656923145055771
1697701684574261800,5.88226171875,-0.27976804971694946,-0.029778804630041122,-0.11438114941120148
1697701684583854600,5.8918544921875,-0.20280128717422485,0.04107947647571564,-0.08994726091623306
1697701684593448400,5.901448486328125,-0.11483928561210632,0.14003673195838928,-0.11315945535898209
1697701684603041300,5.911041259765625,-0.012216945178806782,0.24998924136161804,-0.1766875684261322
1697701684612633300,5.92063330078125,0.05741964280605316,0.3220692276954651,-0.23777230083942413
1697701684622226400,5.930226318359375,0.09407047927379608,0.3184041380882263,-0.27808821201324463
1697701684631820000,5.939820068359375,0.11606097966432571,0.25976279377937317,-0.30374380946159363
1697701684641413000,5.9494130859375,0.11483928561210632,0.2170034945011139,-0.3086305856704712
1697701684651005200,5.959005126953125,0.0647498071193695,0.22677704691886902,-0.30130040645599365
1697701684660598000,5.968597900390625,-0.024433890357613564,0.22677704691886902,-0.3318427801132202
1697701684670191900,5.97819189453125,-0.12583453953266144,0.19256959855556488,-0.4271349310874939
1697701684679784700,5.98778466796875,-0.22845686972141266,0.1766875684261322,-0.5737382769584656
1697701684689376800,5.997376708984375,-0.3298575282096863,0.18768282234668732,-0.7227849960327148
1697701684698969900,6.006969970703125,-0.4471401870250702,0.19745637476444244,-0.8217422962188721
1697701684708563500,6.0165634765625,-0.5680879354476929,0.22433365881443024,-0.8425110578536987
1697701684718156500,6.026156494140625,-0.675597071647644,0.2829749882221222,-0.8009734749794006
1697701684727748600,6.03574853515625,-0.7623373866081238,0.3318427801132202,-0.724006712436676
1697701684737341400,6.045341552734375,-0.8356390595436096,0.2585411071777344,-0.6201626658439636
1697701684746935300,6.054935302734375,-0.948034942150116,-0.0981936976313591,-0.5175403356552124
1697701684756528000,6.064528076171875,-1.1068552732467651,-0.6224533319473267,-0.45889899134635925
1697701684766120200,6.0741201171875,-1.284153699874878,-1.0512681007385254,-0.4234698712825775
1697701684775713300,6.08371337890625,-1.4014363288879395,-1.0512681007385254,-0.3318427801132202
1697701684785307100,6.09330712890625,-1.4380871057510376,-0.39140036702156067,-0.13514995574951172
1697701684794900000,6.10289990234375,-1.472294569015503,0.6299362182617188,0.09941539168357849
1697701684804492000,6.112491943359375,-1.4942851066589355,1.3177502155303955,0.25945737957954407
1697701684814084900,6.1220849609375,-1.4136532545089722,1.4289244413375854,0.2790044844150543
1697701684823678700,6.1316787109375,-1.260941505432129,1.1870288848876953,0.1629435122013092
1697701684833271600,6.141271484375,-1.09219491481781,0.8290724158287048,-0.037414394319057465
1697701684842863600,6.150863525390625,-0.9101623892784119,0.45523393154144287,-0.252432644367218
1697701684852456700,6.160456787109375,-0.6939224600791931,0.072843536734581,-0.43080002069473267
1697701684862050300,6.17005029296875,-0.4569137394428253,-0.319320410490036,-0.5138752460479736
1697701684871643400,6.179643310546875,-0.2492256760597229,-0.6957550048828125,-0.4784461259841919
1697701684881235500,6.1892353515625,-0.12216944992542267,-0.9950701594352722,-0.36482852697372437
1697701684890828300,6.198828369140625,-0.05619794875383377,-1.119683027267456,-0.22433365881443024
1697701684900422100,6.208422119140625,-0.0012216945178806782,-0.9975135922431946,-0.09239064902067184
1697701684910015000,6.218014892578125,0.05375456064939499,-0.6700994372367859,0.02489202655851841
1697701684919607300,6.227607177734375,0.11606097966432571,-0.2692309319972992,0.12140589207410812
1697701684929200000,6.2372001953125,0.19058434665203094,0.06429167091846466,0.2020377367734909
1697701684938793700,6.246793701171875,0.28221142292022705,0.29030516743659973,0.270452618598938
1697701684948386800,6.25638671875,0.4202629029750824,0.4527905285358429,0.32542887330055237
1697701684957979000,6.265978759765625,0.6096255779266357,0.5871769189834595,0.35108447074890137
1697701684967571700,6.27557177734375,0.833195686340332,0.6897992491722107,0.3327590525150299
1697701684977165600,6.28516552734375,1.0579874515533447,0.7105680704116821,0.2924431264400482
1697701684986758400,6.29475830078125,1.2595670223236084,0.6323796510696411,0.26434415578842163
1697701684996350700,6.304350830078125,1.41594398021698,0.4760027229785919,0.24601873755455017
1697701685005943600,6.313943603515625,1.5051276683807373,0.25121092796325684,0.25090551376342773
1697701685015537400,6.323537353515625,1.5039058923721313,-0.04321744292974472,0.31565532088279724
1697701685025130200,6.333130126953125,1.3963968753814697,-0.40972578525543213,0.448820024728775
1697701685034722300,6.342722412109375,1.2094775438308716,-0.8020424246788025,0.6077930331230164
1697701685044315100,6.352315185546875,1.0103414058685303,-1.0549331903457642,0.7153021693229675
1697701685053909000,6.361908935546875,0.856407880783081,-0.9962918758392334,0.7324058413505554
1697701685063501800,6.371501708984375,0.730573296546936,-0.624896764755249,0.6676560640335083
1697701685073094100,6.38109423828125,0.6340594291687012,-0.04688252881169319,0.5686988234519958
1697701685082687000,6.39068701171875,0.5680879354476929,0.4747810363769531,0.4756973087787628
1697701685092280800,6.40028076171875,0.4947862923145294,0.6983511447906494,0.42072105407714844
1697701685101873700,6.409873779296875,0.3640649616718292,0.6653653979301453,0.43049460649490356
1697701685111465700,6.4194658203125,0.17470231652259827,0.6299362182617188,0.5160132050514221
1697701685121058600,6.42905859375,-0.01832541823387146,0.6665870547294617,0.6224533319473267
1697701685130652400,6.43865234375,-0.1954711228609085,0.6580352187156677,0.6933116316795349
1697701685140245200,6.448245361328125,-0.3396310806274414,0.5529694557189941,0.7446228265762329
1697701685149837600,6.457837646484375,-0.44958359003067017,0.36727190017700195,0.7262973785400391
1697701685159430400,6.467430419921875,-0.49112120270729065,0.2536543309688568,0.448820024728775
1697701685169024300,6.477024169921875,-0.474017471075058,0.3721587061882019,0.02244863659143448
1697701685178617000,6.4866171875,-0.30908870697021484,0.6482616662979126,-0.06062658876180649
1697701685188209200,6.496209228515625,0.09284878522157669,0.8290724158287048,0.22524993121623993
1697701685197802200,6.50580224609375,0.45202696323394775,0.543195903301239,0.49646610021591187
1697701685207395800,6.515395751953125,0.5155550837516785,-0.08842013776302338,0.399952232837677
1697701685216988700,6.52498876953125,0.45447036623954773,-0.6395570635795593,-0.017867282032966614
1697701685226581000,6.5345810546875,0.4190412163734436,-1.0561549663543701,-0.5028799772262573
1697701685236173800,6.544173828125,0.4056025743484497,-1.397007703781128,-0.8938222527503967
1697701685245767700,6.553767578125,0.3005368411540985,-1.4263283014297485,-1.1137272119522095
1697701685255360500,6.563360595703125,0.045202698558568954,-0.9278770089149475,-1.0538642406463623
1697701685264952600,6.57295263671875,-0.2736595869064331,-0.06887302547693253,-0.5602996349334717
1697701685274545700,6.582545654296875,-0.6316160559654236,0.7130114436149597,-0.025197450071573257
1697701685284139300,6.59213916015625,-0.8393041491508484,1.0782980918884277,0.16660858690738678
1697701685293732000,6.601732177734375,-0.7379034757614136,0.9280297160148621,0.08353336155414581
1697701685303324400,6.611324462890625,-0.5497625470161438,0.5041016936302185,-0.06673506647348404
1697701685312917200,6.620917236328125,-0.4337015450000763,0.22189027070999146,-0.10705098509788513
1697701685322511000,6.630510986328125,-0.31031039357185364,0.08139539510011673,-0.008093725889921188
1697701685332104000,6.64010400390625,-0.10995250940322876,-0.10063708573579788,0.11529742181301117
1697701685341696000,6.649696044921875,0.0036650835536420345,-0.36696648597717285,0.1910424828529358
1697701685351289000,6.6592890625,0.05741964280605316,-0.5748072862625122,0.22647161781787872
1697701685360882700,6.668882568359375,0.130721315741539,-0.5858024954795837,0.2289150059223175
1697701685370475500,6.6784755859375,0.19180603325366974,-0.4428642690181732,0.20936790108680725
1697701685380067800,6.68806787109375,0.1820324808359146,-0.28755635023117065,0.2032594233751297
1697701685389660700,6.69766064453125,0.1441599577665329,-0.188599094748497,0.21791976690292358
1697701685399254500,6.707254638671875,0.13805148005485535,-0.12629267573356628,0.25945737957954407
1697701685408847400,6.716847412109375,0.14904673397541046,-0.09697200357913971,0.30099499225616455
1697701685418439400,6.726439453125,0.1710372269153595,-0.1495048701763153,0.3107685446739197
1697701685428032300,6.7360322265625,0.1966928243637085,-0.23991025984287262,0.2851129472255707
1697701685437626000,6.745626220703125,0.1954711228609085,-0.27533939480781555,0.21791976690292358
1697701685447219000,6.755218994140625,0.17836740612983704,-0.2032594233751297,0.111632339656353
1697701685456811300,6.764811279296875,0.17470231652259827,-0.0713164210319519,-0.02764083817601204
1697701685466404000,6.774404052734375,0.17592400312423706,0.05085303261876106,-0.16935740411281586
1697701685475998000,6.783998046875,0.14049486815929413,0.10338589549064636,-0.26220619678497314
1697701685485590800,6.7935908203125,0.06963659077882767,0.11438114941120148,-0.284196674823761
1697701685495182800,6.803182861328125,-0.012216945178806782,0.13026317954063416,-0.26464956998825073
1697701685504776000,6.81277587890625,-0.09040539711713791,0.14248012006282806,-0.2304421216249466
1697701685514369500,6.82236962890625,-0.15515519678592682,0.12781979143619537,-0.19623468816280365
1697701685523962400,6.83196240234375,-0.2113531529903412,0.06306997686624527,-0.17424418032169342
1697701685533554700,6.8415546875,-0.26999449729919434,-0.033443886786699295,-0.18401773273944855
1697701685543147500,6.8511474609375,-0.30786702036857605,-0.09452861547470093,-0.22189027070999146
1697701685552741000,6.8607412109375,-0.32252734899520874,-0.05787777900695801,-0.26220619678497314
1697701685562334200,6.870334228515625,-0.32130566239356995,0.04840964451432228,-0.2939702570438385
1697701685571926300,6.87992626953125,-0.32130566239356995,0.1620272397994995,-0.3061871826648712
1697701685581519000,6.88951904296875,-0.33230090141296387,0.2157817929983139,-0.31473904848098755
1697701685591113000,6.899113037109375,-0.35917818546295166,0.20234315097332,-0.3379512429237366
1697701685600705800,6.908705810546875,-0.3921639323234558,0.1779092699289322,-0.3880407214164734
1697701685610297900,6.9182978515625,-0.4337015450000763,0.27686652541160583,-0.4808894991874695
1697701685619891000,6.927890869140625,-0.46424391865730286,0.5187620520591736,-0.5774033665657043
1697701685629484500,6.937484619140625,-0.4715740978717804,0.752105712890625,-0.62627112865448
1697701685639077600,6.94707763671875,-0.4837910234928131,0.8559496998786926,-0.6164975762367249
1697701685648669700,6.956669677734375,-0.5057815313339233,0.8034168481826782,-0.5798467397689819
1697701685658262500,6.966262451171875,-0.5534276366233826,0.645818293094635,-0.5981721878051758
1697701685667856400,6.9758564453125,-0.6548282504081726,0.36849361658096313,-0.7569924592971802
1697701685677449200,6.98544921875,-0.7843278646469116,0.02641914412379265,-1.0330954790115356
1697701685687041300,6.995041259765625,-0.9455915689468384,-0.3071034550666809,-1.2810994386672974
1697701685696634400,7.00463427734375,-1.1373976469039917,-0.46607646346092224,-1.325080394744873
1697701685706228000,7.01422802734375,-1.2792668342590332,-0.33886751532554626,-1.0954018831253052
1697701685715820800,7.02382080078125,-1.3721156120300293,-0.15439164638519287,-0.7508839964866638
1697701685725413000,7.0334130859375,-1.4759596586227417,-0.24479703605175018,-0.465007483959198
1697701685735006000,7.043005859375,-1.5504831075668335,-0.5063923597335815,-0.2817533016204834
1697701685744599800,7.052599853515625,-1.4845114946365356,-0.5515950918197632,-0.15958385169506073
1697701685754192600,7.062192626953125,-1.3244695663452148,-0.23380178213119507,-0.058183200657367706
1697701685763784700,7.07178466796875,-1.171757698059082,0.3868190348148346,0.05665608495473862
1697701685773377500,7.08137744140625,-1.0469921827316284,1.0538642406463623,0.16783028841018677
1697701685782971400,7.090971435546875,-0.9016105532646179,1.3079767227172852,0.19837264716625214
1697701685792564200,7.100564208984375,-0.7000309824943542,1.0831849575042725,0.12873606383800507
1697701685802156300,7.11015625,-0.4715740978717804,0.6445965766906738,0.0065666078589856625
1697701685811749400,7.119749267578125,-0.26755109429359436,0.1766875684261322,-0.08139539510011673
1697701685821343000,7.129343017578125,-0.09651386737823486,-0.2777827978134155,-0.07895200699567795
1697701685830935800,7.138935791015625,0.0647498071193695,-0.6835380792617798,0.031000498682260513
1697701685840528100,7.148528076171875,0.21501824259757996,-0.9914051294326782,0.19837264716625214
1697701685850121000,7.158120849609375,0.3665083646774292,-1.1416735649108887,0.3706315755844116
1697701685859714800,7.16771484375,0.5143333673477173,-1.090362310409546,0.5172349214553833
1697701685869307600,7.1773076171875,0.6389462351799011,-0.8484668135643005,0.6200099587440491
1697701685878899700,7.186899658203125,0.7476770281791687,-0.5063923597335815,0.6652126908302307
1697701685888492500,7.196492431640625,0.8527427911758423,-0.12140589207410812,0.6493306159973145
1697701685898086400,7.20608642578125,0.9700254201889038,0.26342788338661194,0.5845808386802673
1697701685907679200,7.21567919921875,1.100746750831604,0.5602996349334717,0.506239652633667
1697701685917271300,7.225271240234375,1.2241379022598267,0.7301151752471924,0.45615020394325256
1697701685926864400,7.234864501953125,1.3340904712677002,0.7496622800827026,0.4647020399570465
1697701685936458000,7.2444580078125,1.4208307266235352,0.6067240238189697,0.5405998229980469
1697701685946050800,7.25405078125,1.4501514434814453,0.35261157155036926,0.6114581227302551
1697701685955643100,7.26364306640625,1.3792930841445923,0.06306997686624527,0.633448600769043
1697701685965236000,7.273236083984375,1.1972606182098389,-0.19837264716625214,0.6542174220085144
1697701685974829800,7.282829833984375,0.9553651213645935,-0.3889569938182831,0.7201889157295227
1697701685984422700,7.292422607421875,0.758672297000885,-0.4611896872520447,0.8191461563110352
1697701685994014700,7.3020146484375,0.6572716236114502,-0.3571929335594177,0.8741224408149719
1697701686003607600,7.311607666015625,0.5986303091049194,-0.06032116711139679,0.8411366939544678
1697701686013201400,7.321201416015625,0.5375455617904663,0.36605021357536316,0.7495095729827881
1697701686022794200,7.330794189453125,0.4459185004234314,0.778982937335968,0.679872989654541
1697701686032386300,7.34038623046875,0.3274141252040863,1.052642583847046,0.6896465420722961
1697701686041979400,7.3499794921875,0.19424942135810852,1.075854778289795,0.7678350210189819
1697701686051573000,7.359572998046875,0.11972606182098389,0.8290724158287048,0.8594620823860168
1697701686061165800,7.369165771484375,0.10140064358711243,0.39170581102371216,0.9009997248649597
1697701686070758000,7.3787578125,-0.008551862090826035,0.04230117425322533,0.8008207678794861
1697701686080351000,7.38835107421875,-0.14782503247261047,0.1388150453567505,0.5809157490730286
1697701686089944600,7.397944580078125,-0.17225892841815948,0.5578562617301941,0.3498627543449402
1697701686099537400,7.407537353515625,-0.08918370306491852,0.7508839964866638,0.11285403370857239
1697701686109129700,7.417129638671875,-0.029320668429136276,0.5077667832374573,-0.16080553829669952
1697701686118722600,7.42672265625,-0.03176405653357506,0.038636088371276855,-0.44790375232696533
1697701686128316400,7.43631640625,-0.09040539711713791,-0.49417543411254883,-0.7191199064254761
1697701686137909200,7.4459091796875,-0.17592400312423706,-0.9474241137504578,-0.9109259843826294
1697701686147501300,7.455501220703125,-0.25289076566696167,-1.12823486328125,-0.9683456420898438
1697701686157094100,7.46509423828125,-0.2357870489358902,-0.9474241137504578,-0.7997517585754395
1697701686166688000,7.47468798828125,-0.16004198789596558,-0.555260181427002,-0.4381301999092102
1697701686176280800,7.48428076171875,-0.19058434665203094,-0.1898207813501358,-0.11682453751564026
1697701686185873000,7.493872802734375,-0.3005368411540985,0.11682453751564026,0.007788302376866341
1697701686195466000,7.503466064453125,-0.3567348122596741,0.36971530318260193,-0.06429167091846466
1697701686205059600,7.5130595703125,-0.2993151545524597,0.5590779781341553,-0.18768282234668732
1697701686214652400,7.52265234375,-0.20768806338310242,0.6287145614624023,-0.2438807636499405
1697701686224244500,7.532244384765625,-0.12094775587320328,0.5566345453262329,-0.22066856920719147
1697701686233837600,7.541837646484375,-0.03176405653357506,0.36482852697372437,-0.12293300777673721
1697701686243431200,7.55143115234375,0.0525328628718853,0.03130592033267021,0.03833066672086716
1697701686253024000,7.56102392578125,0.10262233763933182,-0.3901786804199219,0.20570281147956848
1697701686262616000,7.570615966796875,0.10750912129878998,-0.70308518409729,0.3449759781360626
1697701686272209200,7.580209228515625,0.09040539711713791,-0.7812736630439758,0.4268295168876648
1697701686281802800,7.589802734375,0.047646086663007736,-0.6554391384124756,0.44393324851989746
1697701686291395600,7.5993955078125,0.007330167107284069,-0.4158342778682709,0.41827765107154846
1697701686300988000,7.60898779296875,0.007330167107284069,-0.19592925906181335,0.35597124695777893
1697701686310580700,7.618580810546875,0.029320668429136276,-0.04688252881169319,0.2692309319972992
1697701686320174300,7.62817431640625,0.043981000781059265,0.04963133856654167,0.19837264716625214
1697701686329767400,7.637767333984375,0.046424392610788345,0.12171131372451782,0.14095300436019897
1697701686339359500,7.647359375,0.05131116881966591,0.14858859777450562,0.06765133142471313
1697701686348952300,7.656952392578125,0.05864133685827255,0.07895200699567795,-0.04352286830544472
1697701686358546200,7.666546142578125,0.047646086663007736,-0.09452861547470093,-0.17180079221725464
1697701686368139000,7.676138916015625,-0.0036650835536420345,-0.2851129472255707,-0.2695363461971283
1697701686377731000,7.68573095703125,-0.1050657257437706,-0.40483900904655457,-0.31229567527770996
1697701686387324000,7.695323974609375,-0.2480039894580841,-0.4428642690181732,-0.2964136302471161
1697701686396917800,7.704917724609375,-0.3958290219306946,-0.40972578525543213,-0.23655059933662415
1697701686406510600,7.714510498046875,-0.499673068523407,-0.34253260493278503,-0.1656923145055771
1697701686416102700,7.7241025390625,-0.5289937257766724,-0.24724042415618896,-0.12048961967229843
1697701686425695500,7.733695556640625,-0.4691306948661804,-0.12873606383800507,-0.1119377613067627
1697701686435289300,7.743289306640625,-0.33718767762184143,0.0007635590736754239,-0.12659808993339539
1697701686444882200,7.752882080078125,-0.20402298867702484,0.13026317954063416,-0.14125843346118927
1697701686454474200,7.76247412109375,-0.10995250940322876,0.2157817929983139,-0.1620272397994995
1697701686464067000,7.772067138671875,-0.042759306728839874,0.26342788338661194,-0.20600824058055878
1697701686473661000,7.781660888671875,0.014660334214568138,0.28541839122772217,-0.2658712565898895
1697701686483253800,7.791253662109375,0.0525328628718853,0.26342788338661194,-0.30374380946159363
1697701686492845800,7.800845703125,0.05008947476744652,0.18768282234668732,-0.31473904848098755
1697701686502438700,7.810438720703125,0.009773556143045425,0.1388150453567505,-0.3501681983470917
1697701686512032500,7.820032470703125,-0.047646086663007736,0.2304421216249466,-0.43446511030197144
1697701686521625300,7.829625244140625,-0.11606097966432571,0.43080002069473267,-0.5456393361091614
1697701686531217400,7.839217529296875,-0.21501824259757996,0.5920637249946594,-0.645818293094635
1697701686540810500,7.848810546875,-0.365286648273468,0.603058934211731,-0.7154548764228821
1697701686550404000,7.858404052734375,-0.546097457408905,0.5077667832374573,-0.7569924592971802
1697701686559997000,7.867996826171875,-0.7110261917114258,0.44668206572532654,-0.7911999225616455
1697701686569589000,7.877589111328125,-0.836860716342926,0.4259132444858551,-0.8425110578536987
1697701686579182000,7.88718212890625,-0.9358180165290833,0.3342861533164978,-0.8938222527503967
1697701686588775700,7.896775634765625,-1.0164498090744019,0.1644706279039383,-0.9158127307891846
1697701686598368500,7.906368408203125,-1.1141854524612427,0.008093725889921188,-0.8718317747116089
1697701686607960800,7.9159609375,-1.2462811470031738,-0.07498150318861008,-0.752105712890625
1697701686617553700,7.9255537109375,-1.344016671180725,-0.05665608495473862,-0.5908420085906982
1697701686627147300,7.935147216796875,-1.3366864919662476,0.07650861889123917,-0.41980478167533875
1697701686636740000,7.944739990234375,-1.2328424453735352,0.28908345103263855,-0.2939702570438385
1697701686646332200,7.954332275390625,-1.0934165716171265,0.4747810363769531,-0.2560977041721344
1697701686655925200,7.96392529296875,-0.9309312105178833,0.5822901725769043,-0.2817533016204834
1697701686665518800,7.973518798828125,-0.7537854909896851,0.6348230242729187,-0.31229567527770996
1697701686675111700,7.983111572265625,-0.5790832042694092,0.6409314870834351,-0.3110739588737488
1697701686684704000,7.9927041015625,-0.4214846193790436,0.5920637249946594,-0.2695363461971283
1697701686694296800,8.002296875,-0.3042019307613373,0.4527905285358429,-0.18646112084388733
1697701686703890400,8.011890380859375,-0.21501824259757996,0.1889045089483261,-0.07040014863014221
1697701686713483300,8.021483154296876,-0.12705622613430023,-0.13240113854408264,0.051769305020570755
1697701686723075300,8.031075439453126,-0.029320668429136276,-0.39384377002716064,0.16783028841018677
1697701686732668400,8.04066845703125,0.08429691940546036,-0.4978405237197876,0.2692309319972992
1697701686742262000,8.050261962890625,0.22967857122421265,-0.4721849262714386,0.33886751532554626
1697701686751854800,8.059854736328125,0.3701734244823456,-0.402395635843277,0.3742966651916504
1697701686761447000,8.069447021484375,0.4960079789161682,-0.31199023127555847,0.38040512800216675
1697701686771040000,8.0790400390625,0.6340594291687012,-0.18737739324569702,0.36696648597717285
1697701686780633600,8.088633544921874,0.7879929542541504,-0.04321744292974472,0.3486410677433014
1697701686790226400,8.098226318359375,0.9614735841751099,0.09483403712511063,0.3449759781360626
1697701686799818500,8.107818603515625,1.138619303703308,0.19867807626724243,0.35474956035614014
1697701686809411600,8.11741162109375,1.290109395980835,0.24510246515274048,0.3865135908126831
1697701686819005200,8.127005126953126,1.3902883529663086,0.22066856920719147,0.4378247857093811
1697701686828598000,8.136597900390624,1.3951750993728638,0.14248012006282806,0.5147915482521057
1697701686838190000,8.146190185546875,1.2607887983322144,0.009315420873463154,0.6187883019447327
1697701686847783200,8.155783203125,1.0482138395309448,-0.15439164638519287,0.70797199010849
1697701686857376800,8.165376708984375,0.8197570443153381,-0.28755635023117065,0.7788302302360535
1697701686866969600,8.174969482421876,0.6462764143943787,-0.30221667885780334,0.8191461563110352
1697701686876561700,8.184561767578124,0.577861487865448,-0.1372879147529602,0.7666133046150208
1697701686886154500,8.194154541015624,0.5717530250549316,0.12904147803783417,0.6151232123374939
1697701686895748400,8.203748291015625,0.5424323678016663,0.35261157155036926,0.4695888161659241
1697701686905341200,8.213341064453125,0.43614494800567627,0.4943281412124634,0.4683671295642853
1697701686914933200,8.222933349609375,0.2626643180847168,0.548082709312439,0.633448600769043
1697701686924526000,8.232526123046876,0.06963659077882767,0.5273138880729675,0.860683798789978
1697701686934120000,8.242119873046875,-0.07452336698770523,0.4955498278141022,1.0158389806747437
1697701686943712800,8.251712646484375,-0.15393351018428802,0.3599417507648468,1.0304993391036987
1697701686953304800,8.261304931640625,-0.16859383881092072,-0.0029015245381742716,0.8716790676116943
1697701686962897700,8.270897705078125,-0.2223484069108963,-0.2557922899723053,0.5967977643013
1697701686972491500,8.280491455078124,-0.24311721324920654,0.05085303261876106,0.4549284875392914
1697701686982084400,8.29008447265625,-0.0781884491443634,0.5822901725769043,0.5650337338447571
1697701686991676400,8.299676513671875,0.11117420345544815,0.6128324866294861,0.5919110178947449
1697701687001269200,8.309269287109375,0.1698155403137207,0.1620272397994995,0.33764582872390747
1697701687010863000,8.318863037109375,0.16615045070648193,-0.3217637836933136,-0.06673506647348404
1697701687020456000,8.3284560546875,0.16004198789596558,-0.7177455425262451,-0.43568679690361023
1697701687030048000,8.338048095703124,0.16126367449760437,-1.0219475030899048,-0.6274928450584412
1697701687039640800,8.347640869140625,0.13560809195041656,-1.1306782960891724,-0.5896202921867371
1697701687049234700,8.357234619140625,0.06841489672660828,-0.9339854717254639,-0.3367295563220978
1697701687058827500,8.36682763671875,0.0024433890357613564,-0.49173203110694885,-0.008093725889921188
1697701687068419600,8.376419677734376,-0.042759306728839874,-0.09941539168357849,0.1250709742307663
1697701687078012400,8.386012451171876,-0.06352811306715012,0.10827267915010452,-0.06429167091846466
1697701687087606000,8.39560595703125,-0.03665083646774292,0.21089501678943634,-0.41980478167533875
1697701687097198800,8.40519873046875,-0.0012216945178806782,0.2927485406398773,-0.6397097706794739
1697701687106791200,8.414791259765625,0.009773556143045425,0.30007871985435486,-0.617719292640686
1697701687116384000,8.424384033203125,0.004886778071522713,0.18768282234668732,-0.4869979918003082
1697701687125977600,8.4339775390625,-0.006108472589403391,0.03497100621461868,-0.333064466714859
1697701687135570400,8.4435703125,-0.008551862090826035,-0.0725381150841713,-0.17180079221725464
1697701687145162500,8.45316259765625,-0.030542362481355667,-0.18004722893238068,-0.008093725889921188
1697701687154755600,8.462755615234375,-0.08674030750989914,-0.30343836545944214,0.11651911586523056
1697701687164349200,8.47234912109375,-0.10628741979598999,-0.3694098889827728,0.21181128919124603
1697701687173942000,8.48194189453125,-0.0781884491443634,-0.3987305462360382,0.31687700748443604
1697701687183534000,8.4915341796875,-0.042759306728839874,-0.3987305462360382,0.399952232837677
1697701687193127000,8.501126953125,0.0024433890357613564,-0.36818817257881165,0.4146125912666321
1697701687202720800,8.510720703125,0.062306419014930725,-0.33031564950942993,0.36452311277389526
1697701687212313600,8.520313720703125,0.11361759155988693,-0.24601873755455017,0.28633466362953186
1697701687221905700,8.52990576171875,0.16004198789596558,-0.06642963737249374,0.1898207813501358
1697701687231498500,8.53949853515625,0.2113531529903412,0.1913478970527649,0.04321744292974472
1697701687241092400,8.54909228515625,0.25655585527420044,0.44546034932136536,-0.1375933438539505
1697701687250685200,8.558685302734375,0.2638860046863556,0.6103891134262085,-0.27686652541160583
1697701687260277200,8.56827734375,0.2089097648859024,0.6018372774124146,-0.3245126008987427
1697701687269870000,8.5778701171875,0.1172826737165451,0.44668206572532654,-0.27442312240600586
1697701687279463700,8.587463623046874,0.012216945178806782,0.2707580327987671,-0.18035265803337097
1697701687289056500,8.597056396484374,-0.09651386737823486,0.20967331528663635,-0.11926792562007904
1697701687298648800,8.60664892578125,-0.16737215220928192,0.28908345103263855,-0.12293300777673721
1697701687308241700,8.61624169921875,-0.17348061501979828,0.4821111857891083,-0.16080553829669952
1697701687317835300,8.625835205078126,-0.11361759155988693,0.6409314870834351,-0.2157817929983139
1697701687327428000,8.635427978515626,-0.01710372418165207,0.728893518447876,-0.28786176443099976
1697701687337020200,8.645020263671874,0.01710372418165207,0.8461761474609375,-0.36360684037208557
1697701687346613000,8.654613037109375,0.0012216945178806782,1.004996418952942,-0.41736137866973877
1697701687356206800,8.664206787109375,0.008551862090826035,1.1186140775680542,-0.45889899134635925
1697701687365799700,8.673799560546875,0.0036650835536420345,1.1894723176956177,-0.5346440672874451
1697701687375391700,8.683391845703126,-0.03787253051996231,1.3299671411514282,-0.6604785919189453
1697701687384984600,8.692984619140624,-0.09284878522157669,1.585301399230957,-0.8046385645866394
1697701687394578400,8.702578369140625,-0.14782503247261047,1.899276852607727,-0.9206995368003845
1697701687404171300,8.712171142578125,-0.20646637678146362,2.1130733489990234,-0.983005940914154
1697701687413763300,8.721763427734375,-0.2748812735080719,2.1020781993865967,-1.0098832845687866
1697701687423356200,8.731356201171875,-0.3823903799057007,1.8552958965301514,-1.0098832845687866
1697701687432949800,8.74094970703125,-0.5790832042694092,1.4875657558441162,-0.9805625677108765
1697701687442542600,8.75054248046875,-0.790436327457428,1.2505570650100708,-0.9487984776496887
1697701687452134700,8.760134765625,-0.9101623892784119,1.099066972732544,-0.8889354467391968
1697701687461727700,8.769727783203125,-0.962695300579071,0.8974873423576355,-0.7643226385116577
1697701687471321300,8.7793212890625,-0.999346137046814,0.6421532034873962,-0.5969504714012146
1697701687480914200,8.7889140625,-1.035996913909912,0.439351886510849,-0.43202173709869385
1697701687490506200,8.79850634765625,-1.0494356155395508,0.36849361658096313,-0.3196258246898651
1697701687500099000,8.80809912109375,-0.9969027042388916,0.4039227366447449,-0.26464956998825073
1697701687509693000,8.81769287109375,-0.8319739699363708,0.5126535892486572,-0.24998924136161804
1697701687519285800,8.82728564453125,-0.6255075931549072,0.5749599933624268,-0.2707580327987671
1697701687528877800,8.8368779296875,-0.47890424728393555,0.6470399498939514,-0.28908345103263855
1697701687538470700,8.846470703125,-0.44103172421455383,0.783869743347168,-0.28908345103263855
1697701687548064300,8.856064208984375,-0.47890424728393555,0.8192988634109497,-0.2939702570438385
1697701687557657000,8.865656982421875,-0.5082249045372009,0.7569924592971802,-0.29885703325271606
1697701687567249200,8.875249267578125,-0.4837910234928131,0.6983511447906494,-0.26342788338661194
1697701687576842200,8.88484228515625,-0.4068242609500885,0.6006155610084534,-0.1889045089483261
1697701687586435800,8.894435791015624,-0.26632940769195557,0.4027010500431061,-0.10216420143842697
1697701687596028700,8.904028564453125,-0.05131116881966591,0.16080553829669952,-0.020310672000050545
1697701687605620700,8.913620849609375,0.20280128717422485,0.009315420873463154,0.0456608310341835
1697701687615213600,8.923213623046875,0.41415444016456604,0.020310672000050545,0.09452861547470093
1697701687624807400,8.932807373046876,0.5522059202194214,0.13392825424671173,0.1360662281513214
1697701687634400300,8.942400146484376,0.660936713218689,0.24632415175437927,0.18126893043518066
1697701687643992300,8.951992431640624,0.7525638341903687,0.3110739588737488,0.24968381226062775
1697701687653585200,8.961585205078125,0.8380824327468872,0.3452814221382141,0.3315373361110687
1697701687663178800,8.9711787109375,0.9248227477073669,0.3990359604358673,0.4243861436843872
1697701687672771600,8.980771484375,1.0103414058685303,0.5089884996414185,0.5135698318481445
1697701687682363600,8.99036376953125,1.0848647356033325,0.6445965766906738,0.5625903010368347
1697701687691956500,8.99995654296875,1.1190721988677979,0.7765395641326904,0.5723638534545898
1697701687701550300,9.00955029296875,1.110520362854004,0.9060391783714294,0.5589252710342407
1697701687711143200,9.01914306640625,1.0702043771743774,1.0306520462036133,0.5467082858085632
1697701687720735200,9.0287353515625,0.9981244206428528,1.1271659135818481,0.5418215394020081
1697701687730328000,9.038328125,0.8674030900001526,1.1711468696594238,0.5381564497947693
1697701687739921700,9.047921630859374,0.6719319820404053,1.1369394063949585,0.5332696437835693
1697701687749514500,9.057514404296874,0.43981003761291504,1.0709679126739502,0.5172349214553833
1697701687759106800,9.06710693359375,0.23334364593029022,1.0355387926101685,0.4903576374053955
1697701687768699400,9.076699462890625,0.13316470384597778,1.0868499279022217,0.448820024728775
1697701687778293200,9.086293212890626,0.06841489672660828,1.2212363481521606,0.43171629309654236
1697701687787886000,9.095885986328126,-0.009773556143045425,1.4313678741455078,0.47081053256988525
1697701687797478100,9.10547802734375,-0.08063183724880219,1.6964755058288574,0.5332696437835693
1697701687807071000,9.115071044921875,-0.1832541823387146,1.8052064180374146,0.578472375869751
1697701687816664800,9.124664794921875,-0.30664533376693726,1.6146219968795776,0.6065713167190552
1697701687826257400,9.13425732421875,-0.34940463304519653,1.185807228088379,0.5674771070480347
1697701687835849700,9.143849609375,-0.31886225938796997,0.6360446810722351,0.40728241205215454
1697701687845442600,9.153442626953124,-0.3518480062484741,0.3746020793914795,0.14583978056907654
1697701687855036200,9.1630361328125,-0.30786702036857605,0.728893518447876,0.10918894410133362
1697701687864629000,9.17262890625,0.16370706260204315,1.4154858589172363,0.42927291989326477
1697701687874221000,9.182220947265625,0.8771766424179077,1.8418571949005127,0.7605048418045044
1697701687883814000,9.19181396484375,1.296217918395996,1.584079623222351,0.786160409450531
1697701687893407700,9.20140771484375,1.4086138010025024,1.0856282711029053,0.48791423439979553
1697701687903000600,9.21100048828125,1.439156174659729,0.8938222527503967,-0.06429167091846466
1697701687912592600,9.220592529296875,1.462368369102478,0.9035958051681519,-0.7667660117149353
1697701687922185500,9.230185546875,1.4269392490386963,0.7716528177261353,-1.3751698732376099
1697701687931779000,9.239779052734375,1.1606098413467407,0.3086305856704712,-1.5535372495651245
1697701687941372000,9.249371826171876,0.7574505805969238,-0.24724042415618896,-1.145491361618042
1697701687950964000,9.2589638671875,0.32374903559684753,-0.23380178213119507,-0.5285356044769287
1697701687960556800,9.268556884765625,-0.17592400312423706,0.27320143580436707,-0.11560284346342087
1697701687970150400,9.278150390625,-0.5949652194976807,0.8840487003326416,0.017561858519911766
1697701687979743200,9.2877431640625,-0.7110261917114258,1.4619102478027344,-0.04352286830544472
1697701687989335300,9.297335205078125,-0.5253286361694336,1.9359276294708252,-0.18035265803337097
1697701687998928400,9.306928466796874,-0.21990501880645752,2.392841339111328,-0.30007871985435486
1697701688008522000,9.31652197265625,-0.08185353130102158,2.8851842880249023,-0.32939937710762024
1697701688018114800,9.32611474609375,-0.07085828483104706,3.1283016204833984,-0.23288552463054657
1697701688027707000,9.335706787109375,0.01954711228609085,2.9670379161834717,-0.04474456235766411
1697701688037299700,9.3452998046875,0.17470231652259827,2.4465959072113037,0.1629435122013092
1697701688046893300,9.354893310546874,0.3298575282096863,1.6976972818374634,0.3474193811416626
1697701688056486100,9.364486083984374,0.46424391865730286,0.9536852836608887,0.48547086119651794
1697701688066078200,9.374078125,0.5680879354476929,0.4760027229785919,0.5467082858085632
1697701688075671000,9.383671142578125,0.6047387719154358,0.488219678401947,0.5123481154441833
1697701688085265000,9.393264892578125,0.577861487865448,1.0221002101898193,0.3694098889827728
1697701688094857700,9.402857666015626,0.517998456954956,1.7465649843215942,0.13973131775856018
1697701688104449800,9.41244970703125,0.45324867963790894,2.273115396499634,-0.07406523078680038
1697701688114042600,9.422042724609375,0.41537612676620483,2.439265727996826,-0.1913478970527649
1697701688123636200,9.43163623046875,0.38849884271621704,2.337865114212036,-0.22189027070999146
1697701688133229000,9.44122900390625,0.34696123003959656,2.152167558670044,-0.21944688260555267
1697701688142821000,9.450821044921875,0.2993151545524597,2.0067858695983887,-0.22189027070999146
1697701688152414000,9.4604140625,0.2748812735080719,1.9114937782287598,-0.23532891273498535
1697701688162007800,9.4700078125,0.26999449729919434,1.821088433265686,-0.2438807636499405
1697701688171600400,9.479600341796875,0.2724378705024719,1.750230073928833,-0.23166382312774658
1697701688181192700,9.489192626953125,0.2736595869064331,1.709914207458496,-0.2145601063966751
1697701688190785500,9.49878564453125,0.2748812735080719,1.680593490600586,-0.22066856920719147
1697701688200379100,9.508379150390626,0.284654825925827,1.6708199977874756,-0.252432644367218
1697701688209972000,9.517971923828124,0.2858765125274658,1.6732633113861084,-0.2695363461971283
1697701688219564000,9.52756396484375,0.2724378705024719,1.631725788116455,-0.23532891273498535
1697701688229156900,9.537156982421875,0.25777754187583923,1.5254383087158203,-0.1656923145055771
1697701688238750500,9.54675048828125,0.25655585527420044,1.4057122468948364,-0.10582929104566574
1697701688248343300,9.55634326171875,0.28098973631858826,1.3091983795166016,-0.09483403712511063
1697701688257935400,9.565935302734376,0.3176405727863312,1.2346750497817993,-0.14125843346118927
1697701688267528200,9.575528076171874,0.34573954343795776,1.122279167175293,-0.21211670339107513
1697701688277122000,9.5851220703125,0.3518480062484741,0.936581552028656,-0.27686652541160583
1697701688286714600,9.594714599609375,0.33230090141296387,0.7386670708656311,-0.32817769050598145
1697701688296306700,9.604306640625,0.2919849753379822,0.6201626658439636,-0.34161633253097534
1697701688305899800,9.613899658203126,0.237008735537529,0.6470399498939514,-0.3220692276954651
1697701688315493400,9.623493408203124,0.1563768982887268,0.8425110578536987,-0.28664007782936096
1697701688325086200,9.633086181640625,0.07452336698770523,0.9866710305213928,-0.2145601063966751
1697701688334678300,9.64267822265625,0.05986303091049194,0.8852704167366028,-0.1375933438539505
1697701688344271000,9.65227099609375,0.09407047927379608,0.6910209655761719,-0.04718795046210289
1697701688353864700,9.66186474609375,0.08185353130102158,0.5896202921867371,0.10308047384023666
1697701688363457500,9.67145751953125,0.006108472589403391,0.5896202921867371,0.27411770820617676
1697701688373049600,9.681049560546874,-0.08674030750989914,0.5969504714012146,0.33764582872390747
1697701688382642400,9.690642333984375,-0.14904673397541046,0.6299362182617188,0.21425467729568481
1697701688392236000,9.700236083984375,-0.1429382562637329,0.7948650121688843,-0.08750387281179428
1697701688401828900,9.709828857421876,-0.09895725548267365,1.0819631814956665,-0.48577627539634705
1697701688411421000,9.7194208984375,-0.03176405653357506,1.4325895309448242,-0.8718317747116089
1697701688421013800,9.729013671875,0.026877280324697495,1.8027629852294922,-1.1393828392028809
1697701688430607600,9.738607666015625,-0.012216945178806782,2.198591947555542,-1.255443811416626
1697701688440200400,9.748200439453125,-0.14049486815929413,2.672609567642212,-1.2762126922607422
1697701688449792500,9.75779248046875,-0.21257483959197998,3.1637306213378906,-1.2456703186035156
1697701688459385300,9.76738525390625,-0.2211267054080963,3.511913537979126,-1.2200146913528442
1697701688468979000,9.77697900390625,-0.2516690790653229,3.67073392868042,-1.2212363481521606
1697701688478571800,9.78657177734375,-0.3176405727863312,3.7159366607666016,-1.2200146913528442
1697701688488163800,9.796163818359375,-0.3836120665073395,3.740370512008667,-1.2016892433166504
1697701688497756700,9.805756591796875,-0.41415444016456604,3.7562525272369385,-1.177255392074585
1697701688507350300,9.815350341796876,-0.43614494800567627,3.6731772422790527,-1.1613733768463135
1697701688516943000,9.824943115234374,-0.4874561131000519,3.4459421634674072,-1.154043197631836
1697701688526535200,9.83453515625,-0.5656445622444153,3.173504114151001,-1.1564866304397583
1697701688536128000,9.8441279296875,-0.6328377723693848,2.953599214553833,-1.190693974494934
1697701688545721600,9.8537216796875,-0.6658235192298889,2.649397373199463,-1.209019422531128
1697701688555314400,9.863314453125,-0.6817055344581604,2.218139171600342,-1.2041326761245728
1697701688564906500,9.872906494140626,-0.6621584296226501,1.7893242835998535,-1.1870288848876953
1697701688574499300,9.882499267578124,-0.6132906675338745,1.3886085748672485,-1.1406044960021973
1697701688584093000,9.892093017578125,-0.5754181146621704,1.0147700309753418,-1.0624160766601562
1697701688593685800,9.901685791015625,-0.5351021885871887,0.7203416228294373,-0.9781191945075989
1697701688603277800,9.91127783203125,-0.47768256068229675,0.5370874404907227,-0.9072608947753906
1697701688612870700,9.92087060546875,-0.4080459773540497,0.4271349310874939,-0.8669449687004089
1697701688622464500,9.930464599609374,-0.3286358118057251,0.3843756318092346,-0.8620582222938538
1697701688632057300,9.940057373046875,-0.24311721324920654,0.4088095426559448,-0.8632798790931702
1697701688641649400,9.9496494140625,-0.16248537600040436,0.5212054252624512,-0.8547280430793762
1697701688651242200,9.9592421875,-0.10384403169155121,0.7191199064254761,-0.8229639530181885
1697701688660835800,9.9688359375,-0.07452336698770523,0.9915578365325928,-0.760657548904419
1697701688670428700,9.9784287109375,-0.09040539711713791,1.3299671411514282,-0.6885775923728943
1697701688680020700,9.988020751953124,-0.10873081535100937,1.5987399816513062,-0.6409314870834351
1697701688689613600,9.997613525390625,-0.13316470384597778,1.7758857011795044,-0.6079457402229309
1697701688699207200,10.007207275390625,-0.1563768982887268,1.8968334197998047,-0.5627430081367493
1697701688708800000,10.016800048828125,-0.16492876410484314,1.9322625398635864,-0.4943281412124634
1697701688718392000,10.02639208984375,-0.15515519678592682,1.8736212253570557,-0.3953709006309509
1697701688727985000,10.03598486328125,-0.14171656966209412,1.7490084171295166,-0.2707580327987671
1697701688737578500,10.04557861328125,-0.15271180868148804,1.686702013015747,-0.1375933438539505
1697701688747171300,10.05517138671875,-0.16737215220928192,1.634169101715088,-0.020310672000050545
1697701688756763400,10.064763427734375,-0.14782503247261047,1.5535372495651245,0.05787777900695801
1697701688766356200,10.074356201171875,-0.15026842057704926,1.538877010345459,0.09086353331804276
1697701688775949800,10.08394970703125,-0.1698155403137207,1.492452621459961,0.08353336155414581
1697701688785542700,10.093542724609375,-0.19424942135810852,1.4142640829086304,0.0725381150841713
1697701688795134700,10.103134765625,-0.20768806338310242,1.2810994386672974,0.08108997344970703
1697701688804727600,10.1127275390625,-0.22479179501533508,1.1344960927963257,0.11285403370857239
1697701688814321200,10.122321044921875,-0.24311721324920654,0.9341381788253784,0.15439164638519287
1697701688823914000,10.1319140625,-0.261442631483078,0.7618792653083801,0.20081603527069092
1697701688833506000,10.141506103515624,-0.2504473626613617,0.6421532034873962,0.2557922899723053
1697701688843099000,10.151098876953125,-0.17470231652259827,0.5920637249946594,0.3107685446739197
1697701688852692500,10.1606923828125,-0.013438640162348747,0.5920637249946594,0.3584146201610565
1697701688862285300,10.170285400390625,0.21868331730365753,0.6873558759689331,0.37918344140052795
1697701688871877400,10.17987744140625,0.4605788290500641,0.8938222527503967,0.3584146201610565
1697701688881470200,10.18947021484375,0.6340594291687012,1.130831003189087,0.28755635023117065
1697701688891063800,10.199063720703125,0.781884491443634,1.2444485425949097,0.13484452664852142
1697701688900656600,10.20865673828125,1.0066763162612915,0.9988879561424255,-0.1522536724805832
1697701688910248700,10.218248779296875,1.0970816612243652,0.6091674566268921,-0.45889899134635925
1697701688919841500,10.227841552734375,0.9504783153533936,0.783869743347168,-0.21822518110275269
1697701688929435100,10.23743505859375,1.132510781288147,1.419150948524475,0.40972578525543213
1697701688939028000,10.247028076171874,1.5918679237365723,1.8394137620925903,0.7507312893867493
1697701688948620000,10.2566201171875,1.6456224918365479,1.7929893732070923,0.5699204802513123
1697701688958212900,10.266212890625,1.2339115142822266,1.6769284009933472,0.15561333298683167
1697701688967806700,10.275806640625,0.6927008032798767,1.7367914915084839,-0.2683146595954895
1697701688977399300,10.2853994140625,0.2101314514875412,1.9273757934570312,-0.5810684561729431
1697701688986991400,10.294991455078126,-0.1453816443681717,1.9933472871780396,-0.7411104440689087
1697701688996584200,10.304584228515624,-0.284654825925827,1.648829460144043,-0.755770742893219
1697701689006177800,10.314177734375,-0.20157960057258606,1.0159916877746582,-0.5578562617301941
1697701689015770600,10.3237705078125,-0.04031591862440109,0.465007483959198,-0.17180079221725464
1697701689025362700,10.33336279296875,0.0647498071193695,0.28664007782936096,0.2044811248779297
1697701689034955500,10.34295556640625,0.1575985997915268,0.48455458879470825,0.4756973087787628
1697701689044549400,10.35254931640625,0.3432961702346802,0.9353598356246948,0.6407787799835205
1697701689054142000,10.362141845703125,0.6084038615226746,1.4399197101593018,0.6884248852729797
1697701689063734000,10.371734130859375,0.8600729703903198,1.7893242835998535,0.6077930331230164
1697701689073326800,10.381326904296875,1.0115630626678467,1.8785080909729004,0.41827765107154846
1697701689082920400,10.39092041015625,1.0445488691329956,1.7477867603302002,0.19226416945457458
1697701689092513300,10.40051318359375,0.9822424054145813,1.4802355766296387,0.011453386396169662
1697701689102105300,10.410105224609374,0.841747522354126,1.2114628553390503,-0.09972081333398819
1697701689111698200,10.4196982421875,0.660936713218689,1.1479346752166748,-0.14125843346118927
1697701689121291800,10.429291748046875,0.4813476502895355,1.3947169780731201,-0.09116895496845245
1697701689130884600,10.438884521484376,0.29442837834358215,1.7819942235946655,0.031000498682260513
1697701689140476700,10.4484765625,0.0781884491443634,2.080087661743164,0.08231166750192642
1697701689150069500,10.458069580078124,-0.0781884491443634,2.1973702907562256,0.07742489129304886
1697701689159663000,10.4676630859375,-0.13682979345321655,2.1216251850128174,0.09575030952692032
1697701689169256000,10.477255859375,-0.16492876410484314,1.9493663311004639,0.1629435122013092
1697701689178848000,10.486847900390625,-0.12094775587320328,1.8003195524215698,0.25945737957954407
1697701689188440800,10.49644091796875,0.0036650835536420345,1.680593490600586,0.3461976945400238
1697701689198034400,10.506034423828124,0.16126367449760437,1.5767494440078735,0.39506545662879944
1697701689207627300,10.515627197265625,0.3029802441596985,1.444806456565857,0.3987305462360382
1697701689217219300,10.52521923828125,0.3970507085323334,1.2530004978179932,0.3620797097682953
1697701689226812200,10.534812255859375,0.45202696323394775,1.1002886295318604,0.296108216047287
1697701689236405800,10.54440576171875,0.5008947253227234,1.1283875703811646,0.20570281147956848
1697701689245998600,10.55399853515625,0.5363239049911499,1.3214153051376343,0.08231166750192642
1697701689255590700,10.563590576171874,0.5448757410049438,1.5132213830947876,-0.036192700266838074
1697701689265183500,10.57318359375,0.5253286361694336,1.569419264793396,-0.09972081333398819
1697701689274777000,10.582777099609375,0.47890424728393555,1.4802355766296387,-0.10827267915010452
1697701689284370000,10.592369873046875,0.45080527663230896,1.3238587379455566,-0.08261708915233612
1697701689293962000,10.6019619140625,0.46302223205566406,1.1638166904449463,-0.03374931216239929
1697701689303554800,10.611554931640624,0.5008947253227234,1.042868971824646,0.021226942539215088
1697701689313148400,10.6211484375,0.5265503525733948,0.9659022092819214,0.05787777900695801
1697701689322741200,10.6307412109375,0.5131117105484009,0.9426900148391724,0.06887302547693253
1697701689332333000,10.6403330078125,0.4605788290500641,0.9622371196746826,0.06398624926805496
1697701689341926100,10.649926025390625,0.38849884271621704,1.028208613395691,0.06032116711139679
1697701689351519700,10.659519775390624,0.3286358118057251,1.1393828392028809,0.05665608495473862
1697701689361112300,10.6691123046875,0.2773246467113495,1.2346750497817993,0.03955236077308655
1697701689370704400,10.678704345703125,0.2235700935125351,1.240783452987671,0.018783552572131157
1697701689380297200,10.688297119140625,0.16737215220928192,1.144269585609436,0.0016798300202935934
1697701689389891000,10.69789111328125,0.11361759155988693,0.9756757616996765,-0.022754060104489326
1697701689399483600,10.707483642578126,0.0794101431965828,0.7899782061576843,-0.06184828653931618
1697701689409075700,10.71707568359375,0.0659715011715889,0.6348230242729187,-0.12904147803783417
1697701689418668500,10.72666845703125,0.062306419014930725,0.5016583204269409,-0.22677704691886902
1697701689428262100,10.73626220703125,0.0659715011715889,0.43202173709869385,-0.32573428750038147
1697701689437855000,10.74585498046875,0.0525328628718853,0.37826716899871826,-0.42102646827697754
1697701689447447000,10.755447021484375,0.03665083646774292,0.3086305856704712,-0.5004366040229797
1697701689457040000,10.765039794921876,0.03298575058579445,0.2279987335205078,-0.5297572612762451
1697701689466633500,10.774633544921874,-0.010995250195264816,0.1913478970527649,-0.5041016936302185
1697701689476226300,10.784226318359375,-0.1185043677687645,0.25976279377937317,-0.41980478167533875
1697701689485818400,10.793818359375,-0.23334364593029022,0.3452814221382141,-0.28541839122772217
1697701689495411200,10.8034111328125,-0.2724378705024719,0.3061871826648712,-0.2170034945011139
1697701689505004800,10.8130048828125,-0.25655585527420044,0.19379130005836487,-0.3086305856704712
1697701689514597600,10.82259765625,-0.2870981991291046,0.0984991192817688,-0.4772244095802307
1697701689524189400,10.832189453125,-0.3787252902984619,0.023975754156708717,-0.6617003083229065
1697701689533782300,10.8417822265625,-0.4874561131000519,-0.051769305020570755,-0.8620582222938538
1697701689543376100,10.851376220703125,-0.577861487865448,-0.04321744292974472,-1.066081166267395
1697701689552969000,10.860968994140626,-0.5876350402832031,0.16813570261001587,-1.2847645282745361
1697701689562560800,10.870560791015626,-0.5265503525733948,0.5248705148696899,-1.5071128606796265
1697701689572153600,10.880153564453124,-0.5302154421806335,0.9121476411819458,-1.663489818572998
1697701689581747200,10.889747314453125,-0.6145123243331909,1.3421841859817505,-1.709914207458496
1697701689591340000,10.899340087890625,-0.6927008032798767,1.7819942235946655,-1.6378341913223267
1697701689600932000,10.90893212890625,-0.707361102104187,2.1619410514831543,-1.4814573526382446
1697701689610525000,10.91852490234375,-0.6658235192298889,2.44781756401062,-1.2823210954666138
1697701689620118500,10.928118408203124,-0.6316160559654236,2.5211193561553955,-1.0709679126739502
1697701689629711400,10.93771142578125,-0.6927008032798767,2.2486815452575684,-0.8498412370681763
1697701689639303400,10.947303466796875,-0.8576295375823975,1.6744850873947144,-0.6226060390472412
1697701689648896300,10.956896240234375,-1.1080769300460815,1.0184351205825806,-0.46012070775032043
1697701689658489900,10.96648974609375,-1.3892194032669067,0.5602996349334717,-0.4772244095802307
1697701689668082700,10.976082763671876,-1.5810253620147705,0.3599417507648468,-0.6592568755149841
1697701689677674500,10.985674560546874,-1.5871338844299316,0.36482852697372437,-0.9023740887641907
1697701689687267300,10.995267333984375,-1.4063230752944946,0.6213843822479248,-1.074633002281189
1697701689696861200,11.004861083984375,-1.0995250940322876,0.9744541049003601,-1.0489774942398071
1697701689706453800,11.014453857421875,-0.7757760286331177,1.1002886295318604,-0.9170344471931458
1697701689716045800,11.0240458984375,-0.47768256068229675,0.9439117312431335,-0.7728744745254517
1697701689725638700,11.033638671875,-0.2883199155330658,0.6788040399551392,-0.6617003083229065
1697701689735232300,11.043232177734374,-0.25411245226860046,0.36482852697372437,-0.5822901725769043
1697701689744825000,11.0528251953125,-0.31031039357185364,-0.009009997360408306,-0.5138752460479736
1697701689754417200,11.062417236328125,-0.4092676639556885,-0.36574479937553406,-0.43568679690361023
1697701689764010000,11.072010009765625,-0.5204418897628784,-0.6090146899223328,-0.34283801913261414
1697701689773603600,11.081603515625,-0.6206207871437073,-0.7177455425262451,-0.23777230083942413
1697701689783196400,11.091196533203124,-0.6890357136726379,-0.6749862432479858,-0.13270656764507294
1697701689792788500,11.10078857421875,-0.7085828185081482,-0.5015056133270264,-0.039857782423496246
1697701689802381000,11.110381103515625,-0.6731536984443665,-0.26312246918678284,0.029778804630041122
1697701689811975000,11.119974853515625,-0.5839699506759644,-0.02367033064365387,0.07986827939748764
1697701689821567500,11.1295673828125,-0.45447036623954773,0.15469707548618317,0.1104106456041336
1697701689831159600,11.13915966796875,-0.2980934679508209,0.2560977041721344,0.1238492801785469
1697701689840752400,11.14875244140625,-0.13927318155765533,0.28908345103263855,0.13362284004688263
1697701689850346000,11.158345947265625,0.030542362481355667,0.2927485406398773,0.15561333298683167
1697701689859938800,11.167938720703125,0.24067382514476776,0.27686652541160583,0.17271706461906433
1697701689869531000,11.17753076171875,0.48012593388557434,0.22555534541606903,0.17393875122070312
1697701689879123700,11.187123779296876,0.7207997441291809,0.14614520967006683,0.16905197501182556
1697701689888717300,11.19671728515625,0.9309312105178833,0.04474456235766411,0.17882554233074188
1697701689898310100,11.20631005859375,1.09219491481781,-0.06642963737249374,0.2154763638973236
1697701689907902000,11.21590185546875,1.2058124542236328,-0.18126893043518066,0.27533939480781555
1697701689917494800,11.225494873046875,1.266897201538086,-0.28999972343444824,0.3461976945400238
1697701689927088600,11.235088623046876,1.2607887983322144,-0.3962871730327606,0.4133908748626709
1697701689936681200,11.24468115234375,1.1826002597808838,-0.4563029110431671,0.48669254779815674
1697701689946273300,11.254273193359374,1.0298885107040405,-0.43919917941093445,0.5625903010368347
1697701689955866000,11.2638662109375,0.8050966858863831,-0.36452311277389526,0.6322268843650818
1697701689965459700,11.273459716796875,0.5607577562332153,-0.2985515892505646,0.6749862432479858
1697701689975052500,11.283052490234375,0.3787252902984619,-0.2557922899723053,0.6713211536407471
1697701689984644600,11.29264453125,0.2883199155330658,-0.19348587095737457,0.6151232123374939
1697701689994237400,11.302237548828124,0.2651077210903168,-0.07864658534526825,0.5184566378593445
1697701690003831000,11.3118310546875,0.26877278089523315,0.07773031294345856,0.4133908748626709
1697701690013423600,11.321423583984375,0.2773246467113495,0.20722992718219757,0.3046600818634033
1697701690023015700,11.331015625,0.28098973631858826,0.28541839122772217,0.20081603527069092
1697701690032608500,11.3406083984375,0.27121618390083313,0.3232909142971039,0.11651911586523056
1697701690042202000,11.3502021484375,0.24311721324920654,0.3489464819431305,0.07742489129304886
1697701690051795000,11.359794921875,0.19913621246814728,0.4246915578842163,0.11285403370857239
1697701690061387000,11.369386962890625,0.10995250940322876,0.5260922312736511,0.23624517023563385
1697701690070979800,11.378979736328125,0,0.5370874404907227,0.3987305462360382
1697701690080573400,11.388573486328125,-0.09407047927379608,0.3843756318092346,0.49646610021591187
1697701690090166300,11.398166259765626,-0.18814095854759216,0.34405970573425293,0.4928010404109955
1697701690099758000,11.407758056640626,-0.21501824259757996,0.5737382769584656,0.4610369801521301
1697701690109351000,11.417350830078124,-0.05375456064939499,0.7582141757011414,0.5442649126052856
1697701690118944500,11.426944580078125,0.1954711228609085,0.6201626658439636,0.6016845703125
1697701690128537300,11.436537353515625,0.3640649616718292,0.21089501678943634,0.4634803533554077
1697701690138129400,11.44612939453125,0.46668729186058044,-0.3071034550666809,0.12873606383800507
1697701690147722200,11.45572216796875,0.5363239049911499,-0.7739434838294983,-0.3465031087398529
1697701690157315800,11.46531591796875,0.5326588153839111,-1.0598199367523193,-0.8266290426254272
1697701690166908700,11.47490869140625,0.4300364851951599,-1.050046443939209,-1.1235008239746094
1697701690176500500,11.48450048828125,0.25533416867256165,-0.7055285573005676,-1.1870288848876953
1697701690186093300,11.49409326171875,-0.01710372418165207,-0.18004722893238068,-1.1149489879608154
1697701690195687000,11.50368701171875,-0.3567348122596741,0.358720064163208,-1.0159916877746582
1697701690205279700,11.51327978515625,-0.5131117105484009,0.7105680704116821,-0.8412894010543823
1697701690214871800,11.522871826171874,-0.3274141252040863,0.5578562617301941,-0.6641436815261841
1697701690224464600,11.532464599609375,-0.12827792763710022,-0.017561858519911766,-0.6201626658439636
1697701690234058200,11.542058349609375,-0.16370706260204315,-0.45263782143592834,-0.6384881138801575
1697701690243651000,11.551651123046875,-0.19302773475646973,-0.45385950803756714,-0.6067240238189697
1697701690253243000,11.561242919921876,-0.17225892841815948,-0.23624517023563385,-0.4931064546108246
1697701690262835700,11.570835693359374,-0.17592400312423706,-0.07009471952915192,-0.27686652541160583
1697701690272429300,11.58042919921875,-0.2113531529903412,0.012980503961443901,0.017561858519911766
1697701690282022100,11.590022216796875,-0.21501824259757996,0.06429167091846466,0.33886751532554626
1697701690291614200,11.5996142578125,-0.11483928561210632,0.09727742522954941,0.6407787799835205
1697701690301207000,11.60920703125,0.045202698558568954,0.11926792562007904,0.8533536195755005
1697701690310800600,11.618800537109376,0.13805148005485535,0.07040014863014221,0.8802309036254883
1697701690320393500,11.6283935546875,0.2101314514875412,-0.04932591691613197,0.7128587365150452
1697701690329985300,11.6379853515625,0.2761029601097107,-0.14339639246463776,0.45981526374816895
1697701690339578000,11.647578125,0.2748812735080719,-0.15805672109127045,0.2276933193206787
1697701690349171700,11.657171630859375,0.21501824259757996,-0.07498150318861008,0.06398624926805496
1697701690358764500,11.6667646484375,0.15026842057704926,0.09483403712511063,-0.06306997686624527
1697701690368356600,11.676356689453126,0.10384403169155121,0.28786176443099976,-0.19623468816280365
1697701690377949400,11.685949462890624,0.0794101431965828,0.41980478167533875,-0.34405970573425293
1697701690387543000,11.69554296875,0.046424392610788345,0.4491254389286041,-0.48333290219306946
1697701690397135600,11.705135498046875,-0.007330167107284069,0.39170581102371216,-0.5725166201591492
1697701690406727700,11.714727783203125,-0.06841489672660828,0.24021568894386292,-0.5688515305519104
1697701690416320500,11.724320556640626,-0.11117420345544815,0.015423892997205257,-0.488219678401947
1697701690425914000,11.7339140625,-0.1441599577665329,-0.16783028841018677,-0.38071054220199585
1697701690435507000,11.7435068359375,-0.15026842057704926,-0.18371231853961945,-0.32695600390434265
1697701690445099000,11.75309912109375,-0.09773556143045425,-0.01511846948415041,-0.36849361658096313
1697701690454691600,11.762691650390625,-0.023212196305394173,0.23777230083942413,-0.45767730474472046
1697701690464285400,11.772285400390626,0.04031591862440109,0.45645561814308167,-0.5419742465019226
1697701690473878000,11.7818779296875,0.0525328628718853,0.6103891134262085,-0.6079457402229309
1697701690483470000,11.791469970703124,-0.021990500390529633,0.7178982496261597,-0.6384881138801575
1697701690493063000,11.80106298828125,-0.13927318155765533,0.7631009221076965,-0.6445965766906738
1697701690502656500,11.810656494140625,-0.23090025782585144,0.8156337738037109,-0.6800256967544556
1697701690512249300,11.820249267578125,-0.30664533376693726,0.9585720896720886,-0.7667660117149353
1697701690521841400,11.82984130859375,-0.3811686933040619,1.1564866304397583,-0.8791618943214417
1697701690531434000,11.83943408203125,-0.43981003761291504,1.343405842781067,-0.9683456420898438
1697701690541027600,11.849027587890625,-0.5143333673477173,1.3886085748672485,-0.9451334476470947
1697701690550620400,11.858620361328125,-0.6597150564193726,1.1796988248825073,-0.7826480269432068
1697701690560212500,11.86821240234375,-0.8918370008468628,0.6250494718551636,-0.6116108298301697
1697701690569805300,11.877805419921875,-1.115407109260559,0.04840964451432228,-0.6018372774124146
1697701690579399000,11.88739892578125,-1.236507534980774,-0.293664813041687,-0.6800256967544556
1697701690588991500,11.896991455078124,-1.2731584310531616,-0.4611896872520447,-0.700794517993927
1697701690598583600,11.90658349609375,-1.251167893409729,-0.48073679208755493,-0.617719292640686
1697701690608176400,11.91617626953125,-1.2487244606018066,-0.5063923597335815,-0.5065450668334961
1697701690617770000,11.92577001953125,-1.2988139390945435,-0.5882459282875061,-0.4100312292575836
1697701690627362800,11.93536279296875,-1.306144118309021,-0.5809157490730286,-0.30985227227211
1697701690636955000,11.944954833984376,-1.2340642213821411,-0.4953971207141876,-0.2145601063966751
1697701690646547500,11.95454736328125,-1.1044118404388428,-0.32665055990219116,-0.13270656764507294
1697701690656141000,11.96414111328125,-0.9529217481613159,-0.031000498682260513,-0.06306997686624527
1697701690665734000,11.97373388671875,-0.7855495810508728,0.31473904848098755,-0.020310672000050545
1697701690675326000,11.983325927734375,-0.5876350402832031,0.5932853817939758,-0.014202198944985867
1697701690684918800,11.992918701171876,-0.4178195297718048,0.7496622800827026,-0.0032069480512291193
1697701690694512400,12.002512451171874,-0.34573954343795776,0.695907711982727,0.07009471952915192
1697701690704105000,12.01210498046875,-0.25533416867256165,0.3733803927898407,0.21791976690292358
1697701690713697000,12.021697021484375,-0.10750912129878998,-0.15927842259407043,0.4121691882610321
1697701690723289900,12.031289794921875,0.07207997888326645,-0.6835380792617798,0.5833591222763062
1697701690732883500,12.040883544921876,0.25655585527420044,-0.9877400398254395,0.6920899152755737
1697701690742476300,12.050476318359374,0.4605788290500641,-1.0146173238754272,0.7299624681472778
1697701690752068000,12.060068115234374,0.6694886088371277,-0.8594620823860168,0.70308518409729
