time,seconds_elapsed,z,y,x
1701864816987465000,0.16246484375,9.806385040283203,3.8985064029693604,0.6329016089439392
1701864816997057500,0.1720576171875,8.819944381713867,4.418047904968262,0.0032901312224566936
1701864817006649300,0.1816494140625,9.411270141601562,4.609473705291748,-0.4899304509162903
1701864817016242000,0.191241943359375,8.980562210083008,4.3534417152404785,-0.5688936114311218
1701864817025835300,0.200835205078125,8.396414756774902,4.010969161987305,-0.36311084032058716
1701864817035427800,0.210427734375,8.764909744262695,4.056731700897217,-0.5617151260375977
1701864817045019600,0.22001953125,8.987740516662598,4.324728012084961,-0.7199404835700989
1701864817054612200,0.2296123046875,9.04516887664795,4.434797763824463,-0.7821539044380188
1701864817064205600,0.23920556640625,9.128917694091797,4.233800411224365,-0.7462615370750427
1701864817073798100,0.248798095703125,9.119346618652344,3.9320058822631836,-0.4660021960735321
1701864817083390000,0.258389892578125,9.382556915283203,3.6496527194976807,0.20907287299633026
1701864817092982500,0.267982421875,9.717850685119629,3.5060834884643555,1.054038405418396
1701864817102575900,0.277575927734375,9.897313117980957,3.527618885040283,1.851446509361267
1701864817112168400,0.28716845703125,9.997811317443848,3.5754752159118652,2.4858436584472656
1701864817121760300,0.29676025390625,9.909276962280273,3.6185460090637207,2.775674343109131
1701864817131352800,0.306352783203125,9.780064582824707,3.6233317852020264,2.7035903930664062
1701864817140946200,0.3159462890625,9.624530792236328,3.481856107711792,2.2728824615478516
1701864817150538800,0.325538818359375,9.559925079345703,3.31675124168396,1.6552350521087646
1701864817160130600,0.335130615234375,9.428020477294922,3.048755168914795,1.1309077739715576
1701864817169723100,0.34472314453125,9.294022560119629,2.737389087677002,1.0205388069152832
1701864817179316500,0.35431640625,9.183952331542969,2.9291141033172607,1.4515460729599
1701864817188909000,0.363908935546875,8.884550094604492,3.3119657039642334,2.1577277183532715
1701864817198500900,0.3735009765625,8.616554260253906,3.489034414291382,3.046063184738159
1701864817208093400,0.383093505859375,8.58784008026123,3.4917263984680176,4.034897327423096
1701864817217686800,0.392686767578125,8.855836868286133,3.4917263984680176,4.78175687789917
1701864817227279400,0.402279296875,9.207880973815918,3.6113674640655518,5.408975601196289
1701864817236871200,0.41187109375,9.65803050994873,3.716651678085327,5.8734822273254395
1701864817246463700,0.421463623046875,9.691530227661133,4.013361930847168,6.1103715896606445
1701864817256057000,0.43105712890625,9.282057762145996,4.207479476928711,6.107978820800781
1701864817265649700,0.440649658203125,8.17119026184082,4.063910007476807,6.388238430023193
1701864817275241500,0.450241455078125,6.7779693603515625,3.793222188949585,6.888637065887451
1701864817284834000,0.459833984375,6.045167446136475,3.661616802215576,7.2451677322387695
1701864817294427400,0.469427490234375,6.514459609985352,3.635295867919922,7.077670097351074
1701864817304020000,0.47902001953125,7.5463643074035645,3.90568470954895,6.651448726654053
1701864817313611800,0.48861181640625,8.276473999023438,4.034897327423096,6.570092678070068
1701864817323204400,0.498204345703125,8.183154106140137,3.628117322921753,6.847959518432617
1701864817332797700,0.507797607421875,7.740182876586914,3.6257245540618896,7.410571575164795
1701864817342390300,0.517390380859375,7.474579811096191,3.855435371398926,7.573283672332764
1701864817351982000,0.526982177734375,7.05553674697876,3.8530426025390625,7.630711555480957
1701864817361574700,0.53657470703125,7.421937465667725,4.001397609710693,7.499105930328369
1701864817371168000,0.54616796875,7.876873016357422,3.99900484085083,7.300501823425293
1701864817380760600,0.555760498046875,8.07069206237793,3.6329028606414795,7.185347080230713
1701864817390352400,0.565352294921875,8.185546875,3.1540393829345703,7.467999458312988
1701864817399945000,0.574945068359375,8.319544792175293,2.770888566970825,7.9612202644348145
1701864817409538300,0.584538330078125,7.893622875213623,2.8761727809906006,8.416155815124512
1701864817419131000,0.594130859375,7.505686283111572,3.2186455726623535,8.47597599029541
1701864817428722700,0.60372265625,7.445865631103516,3.5922250747680664,8.241180419921875
1701864817438315300,0.613315185546875,7.472187042236328,3.7669010162353516,7.865507125854492
1701864817447908600,0.62290869140625,7.441080093383789,3.7022948265075684,7.420143127441406
1701864817457501200,0.632501220703125,7.244569778442383,3.4989049434661865,7.0800628662109375
1701864817467093000,0.642093017578125,7.091429233551025,3.3143584728240967,6.790531635284424
1701864817476685600,0.651685546875,6.904788970947266,3.1492536067962646,6.605985164642334
1701864817486279000,0.66127880859375,6.703791618347168,2.8977081775665283,6.656234264373779
1701864817495871500,0.67087158203125,6.531209468841553,2.641676187515259,6.742675304412842
1701864817505463300,0.68046337890625,6.509674072265625,2.4095723628997803,6.737889289855957
1701864817515056000,0.69005615234375,6.5288166999816895,2.323131799697876,6.634698867797852
1701864817524649200,0.699649169921875,6.502495765686035,2.356631278991699,6.407381057739258
1701864817534241800,0.70924169921875,6.617351055145264,2.4598217010498047,6.139384746551514
1701864817543833600,0.71883349609375,6.689135551452637,2.4981069564819336,6.069693565368652
1701864817553426400,0.728426513671875,6.720541477203369,2.53399920463562,6.136693000793457
1701864817563019800,0.738019775390625,6.567101955413818,2.4023938179016113,6.306882381439209
1701864817572612000,0.747612060546875,6.533602237701416,2.3279173374176025,6.328417778015137
1701864817582204000,0.757203857421875,6.610172748565674,2.354238271713257,6.175277233123779
1701864817591796700,0.766796630859375,6.564708709716797,2.2872393131256104,6.074479579925537
1701864817601390000,0.77639013671875,6.502495765686035,2.1771695613861084,6.072086334228516
1701864817610982400,0.785982421875,6.512066841125488,2.0694925785064697,6.081657886505127
1701864817620574200,0.79557421875,6.650850772857666,2.009671926498413,6.163312911987305
1701864817630167000,0.8051669921875,6.921538829803467,1.8565312623977661,6.2877397537231445
1701864817639760400,0.814760498046875,6.87607479095459,1.3824533224105835,6.687341213226318
1701864817649352700,0.824352783203125,7.005287170410156,1.4087743759155273,6.8264241218566895
1701864817658944500,0.833944580078125,7.225427150726318,1.5140584707260132,6.7881388664245605
1701864817668537300,0.843537353515625,7.354938507080078,1.688734531402588,6.637091636657715
1701864817678130700,0.853130615234375,7.122535705566406,1.3298112154006958,6.812067031860352
1701864817687723300,0.86272314453125,6.962216377258301,1.3537393808364868,6.924529552459717
1701864817697314800,0.872314697265625,7.050751209259033,1.6121642589569092,6.812067031860352
1701864817706907600,0.88190771484375,7.1010003089904785,1.6600207090377808,6.833602428436279
1701864817716501000,0.8915009765625,7.129714012145996,1.7653049230575562,6.809674263000488
1701864817726093600,0.901093505859375,7.3022966384887695,1.5738791227340698,6.9460649490356445
1701864817735685000,0.91068505859375,7.304689407348633,1.2987045049667358,7.226025104522705
1701864817745278000,0.92027783203125,7.352545738220215,1.3010972738265991,7.412964344024658
1701864817754871300,0.929871337890625,7.405188083648682,1.4590235948562622,7.45364236831665
1701864817764463900,0.9394638671875,7.58943510055542,1.5499508380889893,7.513463020324707
1701864817774055400,0.949055419921875,7.58225679397583,1.4446666240692139,7.719245910644531
1701864817783648300,0.958648193359375,7.33340311050415,1.3992030620574951,7.7838521003723145
1701864817793241600,0.96824169921875,6.900003433227539,1.4207384586334229,7.8439717292785645
1701864817802834200,0.977834228515625,6.49770975112915,1.485344648361206,7.927720546722412
1701864817812425700,0.98742578125,6.0762739181518555,1.6289139986038208,7.95643424987793
1701864817822018600,0.9970185546875,5.638387680053711,1.8349958658218384,7.927720546722412
1701864817831612000,1.00661181640625,5.3007001876831055,1.8972092866897583,7.910970687866211
1701864817841204500,1.01620458984375,4.781158924102783,1.88285231590271,7.769495010375977
1701864817850796000,1.025796142578125,4.381258487701416,1.8230317831039429,7.822137355804443
1701864817860388900,1.035388916015625,4.2592244148254395,1.8565312623977661,7.997112274169922
1701864817869982200,1.044982177734375,4.3549370765686035,1.9642082452774048,7.997112274169922
1701864817879574800,1.05457470703125,4.525126934051514,2.0144574642181396,7.7838521003723145
1701864817889166600,1.06416650390625,4.623232364654541,1.9402800798416138,7.6474609375
1701864817898759200,1.07375927734375,4.587339878082275,1.7676976919174194,7.635497093200684
1701864817908352500,1.0833525390625,4.551447868347168,1.4997016191482544,7.712067604064941
1701864817917945000,1.092945068359375,4.522733688354492,1.2532408237457275,7.877471446990967
1701864817927537000,1.102536865234375,4.419543266296387,1.0974082946777344,7.927720546722412
1701864817937129500,1.11212939453125,4.522733688354492,1.0088738203048706,7.951648712158203
1701864817946722800,1.121722900390625,4.78594446182251,0.994516909122467,8.018648147583008
1701864817956315400,1.1313154296875,4.903192520141602,1.0351948738098145,7.992326736450195
1701864817965907200,1.1409072265625,4.838586330413818,0.9969097375869751,7.927720546722412
1701864817975499800,1.150499755859375,4.733302116394043,0.905982494354248,7.896613597869873
1701864817985093000,1.160093017578125,4.695017337799072,0.7648059129714966,7.690532207489014
1701864817994685700,1.169685791015625,4.675874710083008,0.5850451588630676,7.475177764892578
1701864818004277500,1.179277587890625,4.6734819412231445,0.3840480446815491,7.444071292877197
1701864818013870000,1.1888701171875,4.967798709869385,0.2309073805809021,7.439285755157471
1701864818023463400,1.19846337890625,5.410770416259766,-0.0038883367087692022,7.594819068908691
1701864818033056000,1.208055908203125,5.78434944152832,-0.28624141216278076,7.8077802658081055
1701864818042647800,1.217647705078125,6.09541654586792,-0.5473581552505493,7.987541198730469
1701864818052240400,1.227240478515625,6.327819347381592,-0.6981059908866882,8.054539680480957
1701864818061833700,1.236833740234375,6.4594244956970215,-0.7387840151786804,8.040183067321777
1701864818071426300,1.24642626953125,6.416353702545166,-0.7603194117546082,8.071290016174316
1701864818081018000,1.25601806640625,6.157928943634033,-0.7890332937240601,7.968398571014404
1701864818090610700,1.265610595703125,5.9183478355407715,-0.8177471160888672,7.752745151519775
1701864818100204000,1.2752041015625,5.755635738372803,-0.7962117195129395,7.6666035652160645
1701864818109796600,1.284796630859375,5.6288161277771,-0.8273184299468994,7.690532207489014
1701864818119388400,1.294388427734375,5.563910961151123,-0.9493523836135864,7.700103282928467
1701864818128981000,1.30398095703125,5.609673500061035,-1.0860424041748047,7.716853141784668
1701864818138574300,1.31357421875,5.762814044952393,-1.1961122751235962,7.987541198730469
1701864818148167000,1.3231669921875,5.868098258972168,-1.2008978128433228,8.18375301361084
1701864818157758700,1.3327587890625,5.8082780838012695,-1.155434250831604,8.178966522216797
1701864818167351300,1.342351318359375,5.650351524353027,-1.0405787229537964,8.147860527038574
1701864818176944600,1.351944580078125,5.3557353019714355,-0.9493523836135864,8.121539115905762
1701864818186537200,1.361537109375,4.8074798583984375,-0.9254241585731506,7.989933967590332
1701864818196129000,1.37112890625,4.357329845428467,-0.999900758266449,7.685746192932129
1701864818205721600,1.3807216796875,4.268795490264893,-1.1410772800445557,7.401000499725342
1701864818215315000,1.39031494140625,4.369294166564941,-1.2918251752853394,7.271788120269775
1701864818224907500,1.399907470703125,4.587339878082275,-1.4162518978118896,7.226025104522705
1701864818234499300,1.409499267578125,4.912764072418213,-1.5382858514785767,7.3052873611450195
1701864818244092000,1.419091796875,5.322235584259033,-1.6917256116867065,7.539783954620361
1701864818253685200,1.428685302734375,5.707779407501221,-1.801795482635498,7.934898853302002
1701864818263277800,1.43827783203125,5.982954025268555,-1.9142581224441528,8.253144264221191
1701864818272869600,1.44786962890625,6.121737480163574,-2.03629207611084,8.401798248291016
1701864818282462200,1.457462158203125,6.169893264770508,-2.1658036708831787,8.487939834594727
1701864818292055600,1.4670556640625,6.128916263580322,-2.2591235637664795,8.519046783447266
1701864818301648100,1.476648193359375,6.116951942443848,-2.3979074954986572,8.502297401428223
1701864818311240000,1.486239990234375,6.150750637054443,-2.601297378540039,8.605188369750977
1701864818320832500,1.49583251953125,6.093023777008057,-2.7571299076080322,8.815756797790527
1701864818330425900,1.50542578125,6.042774677276611,-2.826521635055542,8.880363464355469
1701864818340018400,1.515018310546875,6.157928943634033,-2.864806890487671,8.8109712600708
1701864818349610200,1.5246103515625,6.267998695373535,-2.927020311355591,8.81814956665039
1701864818359202800,1.534202880859375,6.368497371673584,-2.9868409633636475,8.962018013000488
1701864818368796200,1.543796142578125,6.464210510253906,-3.0275187492370605,9.088837623596191
1701864818378388700,1.553388671875,6.468996047973633,-3.077768087387085,9.143872261047363
1701864818387980500,1.56298046875,6.495316982269287,-3.063411235809326,9.203693389892578
1701864818397573000,1.572572998046875,6.634100914001465,-3.022733211517334,9.2826566696167
1701864818407166500,1.58216650390625,6.555137634277344,-2.9341988563537598,9.287442207336426
1701864818416759000,1.591759033203125,6.275177478790283,-2.9174489974975586,9.182157516479492
1701864818426350800,1.601350830078125,6.011667728424072,-2.8600213527679443,8.846863746643066
1701864818435943400,1.610943359375,5.810670852661133,-2.8002007007598877,8.466404914855957
1701864818445536800,1.620536865234375,5.5737810134887695,-2.8049862384796143,8.238787651062012
1701864818455129300,1.63012939453125,5.341378211975098,-2.8384859561920166,8.092824935913086
1701864818464721200,1.63972119140625,5.202594757080078,-2.8552355766296387,8.102396965026855
1701864818474313700,1.649313720703125,4.998905658721924,-2.7667012214660645,8.114360809326172
1701864818483907000,1.658906982421875,4.800301551818848,-2.6611177921295166,8.097610473632812
1701864818493499600,1.668499755859375,4.7931227684021,-2.632404088973999,8.18375301361084
1701864818503091500,1.678091552734375,4.8074798583984375,-2.5438694953918457,8.245965957641602
1701864818512684000,1.68768408203125,4.733302116394043,-2.4098715782165527,8.193324089050293
1701864818522277400,1.69727734375,4.675874710083008,-2.347658157348633,8.169395446777344
1701864818531870000,1.706869873046875,4.572983264923096,-2.3548367023468018,8.143074989318848
1701864818541461800,1.716461669921875,4.309473514556885,-2.4146571159362793,8.111968040466309
1701864818551054300,1.726054443359375,4.043870449066162,-2.452942371368408,8.033004760742188
1701864818560647700,1.735647705078125,3.933800458908081,-2.5199413299560547,8.092824935913086
1701864818570240300,1.745240234375,3.8210387229919434,-2.5654048919677734,8.243573188781738
1701864818579832000,1.75483203125,3.591327667236328,-2.649153709411621,8.257929801940918
1701864818589424600,1.764424560546875,3.5410783290863037,-2.7738797664642334,8.241180419921875
1701864818599018000,1.77401806640625,3.777967929840088,-2.9341988563537598,8.3057861328125
1701864818608610600,1.783610595703125,4.199403762817383,-3.077768087387085,8.487939834594727
1701864818618202400,1.793202392578125,4.596911430358887,-3.2093734741210938,8.626724243164062
1701864818627795000,1.802794921875,5.001298427581787,-3.310171127319336,8.720044136047363
1701864818637388300,1.81238818359375,5.322235584259033,-3.446561813354492,9.005088806152344
1701864818646980900,1.82198095703125,5.403591632843018,-3.4944183826446533,9.364012718200684
1701864818656572700,1.83157275390625,5.082953453063965,-3.4633116722106934,9.402297019958496
1701864818666165500,1.84116552734375,4.680660247802734,-3.4154551029205322,9.206086158752441
1701864818675758600,1.850758544921875,4.393222332000732,-3.350848913192749,8.957232475280762
1701864818685351200,1.86035107421875,4.144368648529053,-3.3317065238952637,8.715258598327637
1701864818694943000,1.86994287109375,3.9529430866241455,-3.343670606613159,8.574081420898438
1701864818704535800,1.879535888671875,3.8856449127197266,-3.3843486309051514,8.542975425720215
1701864818714129000,1.88912890625,3.972085475921631,-3.4489548206329346,8.58604621887207
1701864818723721500,1.898721435546875,4.218546390533447,-3.5135610103607178,8.516654014587402
1701864818733313300,1.908313232421875,4.553840637207031,-3.5327036380767822,8.341678619384766
1701864818742906000,1.917906005859375,4.840979099273682,-3.484847068786621,8.286643981933594
1701864818752499500,1.92749951171875,5.030311584472656,-3.5350964069366455,8.308178901672363
1701864818762091800,1.937091796875,5.147559642791748,-3.5422747135162354,8.214859008789062
1701864818771683600,1.94668359375,5.135595798492432,-3.5327036380767822,8.078468322753906
1701864818781276400,1.9562763671875,5.023132801055908,-3.5566318035125732,8.028219223022461
1701864818790869800,1.965869873046875,4.833800792694092,-3.537489175796509,7.997112274169922
1701864818800462000,1.975462158203125,4.604089736938477,-3.5039896965026855,7.88704252243042
1701864818810054000,1.985053955078125,4.527519702911377,-3.475275754928589,7.836793422698975
1701864818819646700,1.994646728515625,4.625625133514404,-3.458526134490967,7.848757266998291
1701864818829240000,2.004239990234375,4.7596235275268555,-3.5039896965026855,7.870292663574219
1701864818838832600,2.01383251953125,4.929513931274414,-3.5350964069366455,7.83200740814209
1701864818848424200,2.023424072265625,5.114060401916504,-3.5662031173706055,7.781459331512451
1701864818858017000,2.03301708984375,5.271986484527588,-3.602095365524292,7.798209190368652
1701864818867610400,2.0426103515625,5.398806095123291,-3.6523447036743164,7.925327777862549
1701864818877203000,2.052202880859375,5.415555953979492,-3.671487331390381,8.107182502746582
1701864818886794500,2.06179443359375,5.3246283531188965,-3.697808265686035,8.274680137634277
1701864818896387300,2.07138720703125,5.099703311920166,-3.728914976119995,8.495118141174316
1701864818905980700,2.080980712890625,4.745266437530518,-3.681058645248413,8.643473625183105
1701864818915573200,2.0905732421875,4.319045066833496,-3.6355948448181152,8.648259162902832
1701864818925164800,2.100164794921875,3.9433717727661133,-3.563810110092163,8.598010063171387
1701864818934757600,2.109757568359375,3.6559338569641113,-3.5207393169403076,8.47597599029541
1701864818944351000,2.11935107421875,3.5075788497924805,-3.4800615310668945,8.3057861328125
1701864818953943600,2.128943603515625,3.5626137256622314,-3.484847068786621,8.078468322753906
1701864818963535000,2.13853515625,3.811467409133911,-3.5566318035125732,7.958827018737793
1701864818973128000,2.1481279296875,4.1347975730896,-3.6140594482421875,7.865507125854492
1701864818982721300,2.15772119140625,4.402793884277344,-3.657130241394043,7.740781307220459
1701864818992313900,2.16731396484375,4.637589454650879,-3.704986810684204,7.558926582336426
1701864819001905400,2.176905517578125,4.750051975250244,-3.7384862899780273,7.427321434020996
1701864819011498200,2.186498291015625,4.742873668670654,-3.8249270915985107,7.362715244293213
1701864819021091600,2.196091552734375,4.711766719818115,-3.9589250087738037,7.441678524017334
1701864819030684200,2.20568408203125,4.60648250579834,-4.047459602355957,7.534998416900635
1701864819040276000,2.21527587890625,4.395615100860596,-4.085744857788086,7.654639720916748
1701864819049868500,2.22486865234375,4.158725738525391,-4.157529354095459,7.714460372924805
1701864819059462000,2.2344619140625,4.034298896789551,-4.281956195831299,7.795815944671631
1701864819069054500,2.244054443359375,4.113262176513672,-4.382753849029541,7.930113315582275
1701864819078646300,2.253646240234375,4.3310089111328125,-4.461717128753662,8.044968605041504
1701864819088238800,2.26323876953125,4.470091819763184,-4.502394676208496,8.121539115905762
1701864819097832200,2.272832275390625,4.505984306335449,-4.540679931640625,8.128717422485352
1701864819107424800,2.2824248046875,4.4482574462890625,-4.502394676208496,8.006683349609375
1701864819117016600,2.2920166015625,4.211368083953857,-4.468895435333252,7.781459331512451
1701864819126609000,2.30160888671875,4.063013076782227,-4.442574501037598,7.661818027496338
1701864819136202500,2.311202392578125,4.091726779937744,-4.418646335601807,7.676175117492676
1701864819145795000,2.320795166015625,4.201796531677246,-4.358526229858398,7.70967435836792
1701864819155387000,2.330386962890625,4.223331928253174,-4.346562385559082,7.735995769500732
1701864819164979500,2.3399794921875,4.098905086517334,-4.404289245605469,7.7216386795043945
1701864819174572800,2.34957275390625,3.9314076900482178,-4.430610179901123,7.57806921005249
1701864819184165400,2.359165283203125,3.7372899055480957,-4.413860321044922,7.396214962005615
1701864819193757200,2.368757080078125,3.557828187942505,-4.3779683113098145,7.274180889129639
1701864819203349800,2.378349853515625,3.450151205062866,-4.363312244415283,7.17577600479126
1701864819212943000,2.387943115234375,3.4381871223449707,-4.392324924468994,7.267002582550049
1701864819222535700,2.39753564453125,3.6248271465301514,-4.385146617889404,7.573283672332764
1701864819232127500,2.40712744140625,3.749253988265991,-4.375575542449951,7.901399612426758
1701864819241720000,2.416719970703125,3.6511483192443848,-4.464109897613525,7.968398571014404
1701864819251313400,2.4263134765625,3.5243287086486816,-4.531108856201172,7.786244869232178
1701864819260906000,2.435906005859375,3.399901866912842,-4.595715045928955,7.575676441192627
1701864819270497800,2.445497802734375,3.330509901046753,-4.784748077392578,7.599604606628418
1701864819280090400,2.45509033203125,5.176273345947266,-5.902794361114502,8.138288497924805
1701864819289683700,2.46468359375,6.165107727050781,-5.057828903198242,7.530212879180908
1701864819299276300,2.4742763671875,3.10528564453125,-5.000401020050049,8.061718940734863
1701864819308868000,2.4838681640625,2.367997169494629,-5.677868843078613,8.667402267456055
1701864819318460700,2.493460693359375,2.542673110961914,-5.031507968902588,8.135895729064941
1701864819328054000,2.503053955078125,2.9904301166534424,-4.7967119216918945,7.616354465484619
1701864819337646600,2.512646484375,2.782254457473755,-5.000401020050049,7.36032247543335
1701864819347238400,2.52223828125,2.7702903747558594,-5.347360610961914,7.372286796569824
1701864819356831000,2.5318310546875,3.0478577613830566,-6.10169792175293,7.664210796356201
1701864819366424300,2.54142431640625,3.6248271465301514,-6.482156753540039,7.611568927764893
1701864819376017000,2.551016845703125,3.2608189582824707,-6.0487565994262695,7.408178806304932
1701864819385608700,2.560608642578125,2.8492536544799805,-5.9315080642700195,8.030611991882324
1701864819395201300,2.570201171875,3.5865421295166016,-5.86211633682251,9.804591178894043
1701864819404794600,2.579794677734375,3.9936211109161377,-5.711368560791016,10.302597045898438
1701864819414387200,2.58938720703125,2.94975209236145,-5.67547607421875,9.58205795288086
1701864819423979000,2.59897900390625,1.9537396430969238,-5.344967365264893,8.598010063171387
1701864819433571600,2.608571533203125,1.3576277494430542,-5.136792182922363,7.719245910644531
1701864819443165000,2.6181650390625,1.3360923528671265,-5.07936429977417,7.319644451141357
1701864819452757500,2.627757568359375,1.6447664499282837,-5.074578762054443,7.089634418487549
1701864819462349300,2.637349365234375,2.190629243850708,-5.172684192657471,7.218846797943115
1701864819471942000,2.64694189453125,2.698206663131714,-5.330610752105713,7.704888820648193
1701864819481535200,2.65653515625,2.9521448612213135,-5.517549991607666,8.511868476867676
1701864819491127800,2.6661279296875,2.925823926925659,-5.689833164215088,8.782257080078125
1701864819500719600,2.6757197265625,2.707777976989746,-5.8118672370910645,8.885149002075195
1701864819510312200,2.685312255859375,2.5857439041137695,-5.85493803024292,8.966803550720215
1701864819519905500,2.694905517578125,2.4828526973724365,-5.795117378234863,8.997910499572754
1701864819529498000,2.704498046875,2.1954147815704346,-5.685047626495361,8.219644546508789
1701864819539090000,2.71408984375,1.7838492393493652,-5.55104923248291,7.432106971740723
1701864819548682500,2.7236826171875,1.4557334184646606,-5.409573554992676,7.161418914794922
1701864819558275800,2.73327587890625,1.5035899877548218,-5.349753379821777,6.546164512634277
1701864819567868400,2.742868408203125,1.4413765668869019,-5.474180221557617,6.840780735015869
1701864819577460200,2.752460205078125,1.3815559148788452,-5.780760288238525,7.271788120269775
1701864819587052800,2.762052734375,1.3145569562911987,-5.981757640838623,7.534998416900635
1701864819596646100,2.771646240234375,1.2116655111312866,-6.012864112854004,7.8990068435668945
1701864819606238700,2.78123876953125,1.2379865646362305,-5.8597235679626465,7.920542240142822
1701864819615830500,2.79083056640625,-1.4482558965682983,-7.475776195526123,8.981161117553711
1701864819625423000,2.800423095703125,-1.074676513671875,-7.823034763336182,7.994719505310059
1701864819635016400,2.810016357421875,1.0821540355682373,-6.446264266967773,7.728816986083984
1701864819644609000,2.819609130859375,1.6399807929992676,-6.4701924324035645,7.585247993469238
1701864819654200800,2.829200927734375,3.0239295959472656,-7.451848030090332,7.9851484298706055
1701864819663793400,2.83879345703125,3.8473596572875977,-7.9713897705078125,7.700103282928467
1701864819673386800,2.84838671875,1.3671990633010864,-7.439883708953857,6.7642107009887695
1701864819682979300,2.857979248046875,1.1279168128967285,-7.176673412322998,7.310073375701904
1701864819692571100,2.867571044921875,1.4868401288986206,-6.608976364135742,7.0322065353393555
1701864819702163700,2.877163818359375,1.5490535497665405,-6.58265495300293,7.151847839355469
1701864819711757000,2.886757080078125,1.657029628753662,-6.82223653793335,7.2212395668029785
1701864819721349600,2.896349609375,1.7312071323394775,-6.776772975921631,6.737889289855957
1701864819730941400,2.90594140625,1.8149559497833252,-6.8772711753845215,6.464808464050293
1701864819740534000,2.915533935546875,1.6761722564697266,-7.080661296844482,6.4217376708984375
1701864819750127400,2.92512744140625,1.415055513381958,-7.179066181182861,6.438487529754639
1701864819759720000,2.934719970703125,1.7599210739135742,-7.281957626342773,6.438487529754639
1701864819769311700,2.944311767578125,1.659422516822815,-7.154839038848877,5.756234169006348
1701864819778904300,2.953904296875,1.5538392066955566,-7.186244487762451,4.942076206207275
1701864819788497700,2.96349755859375,1.599302887916565,-7.284350395202637,4.812863826751709
1701864819798090200,2.97309033203125,1.6016956567764282,-7.4709906578063965,5.172086238861084
1701864819807682000,2.98268212890625,2.0063817501068115,-7.9259257316589355,7.324429988861084
1701864819817274600,2.992274658203125,1.230808138847351,-7.581060409545898,10.740782737731934
1701864819826868000,3.001867919921875,0.35922250151634216,-6.597012042999268,9.48365306854248
1701864819836460500,3.01146044921875,0.5748756527900696,-7.028019428253174,7.463213920593262
1701864819846052400,3.02105224609375,0.7998009920120239,-7.6839518547058105,6.3978095054626465
1701864819855645000,3.03064501953125,0.8237292170524597,-7.5667033195495605,6.3978095054626465
1701864819865238300,3.04023828125,0.9290133714675903,-7.332206726074219,6.244668960571289
1701864819874830800,3.049830810546875,1.0319048166275024,-7.370491981506348,6.007480144500732
1701864819884422700,3.059422607421875,0.828514814376831,-7.35613489151001,6.024230003356934
1701864819894015200,3.06901513671875,0.8787640929222107,-7.497311592102051,5.780162334442139
1701864819903608600,3.078608642578125,1.048654556274414,-7.731808185577393,6.402595043182373
1701864819913201200,3.088201171875,1.2188440561294556,-7.746464252471924,6.457630157470703
1701864819922793000,3.09779296875,1.067797064781189,-7.557132244110107,6.158527374267578
1701864819932385500,3.107385498046875,0.7639086246490479,-7.9713897705078125,6.6418776512146
1701864819941979000,3.116978759765625,0.8309076428413391,-7.767999649047852,6.220740795135498
1701864819951571500,3.126571533203125,0.7663014531135559,-8.158029556274414,6.52462911605835
1701864819961163300,3.136163330078125,0.40229329466819763,-8.129315376281738,6.510272026062012
1701864819970755800,3.145755859375,0.6059823632240295,-8.033602714538574,6.342774391174316
1701864819980349200,3.15534912109375,0.5027918815612793,-7.973782539367676,5.9907307624816895
1701864819989941800,3.164941650390625,0.5147559642791748,-8.021638870239258,5.7394843101501465
1701864819999533600,3.174533447265625,0.5437689423561096,-8.126922607421875,5.67966365814209
1701864820009126100,3.184126220703125,0.6227321028709412,-8.146065711975098,5.909374713897705
1701864820018719500,3.193719482421875,0.6323033571243286,-8.06231689453125,6.163312911987305
1701864820028312000,3.20331201171875,0.5796613097190857,-8.086244583129883,6.282954216003418
1701864820037904000,3.21290380859375,0.24436701834201813,-8.086244583129883,4.721936225891113
1701864820047496400,3.222496337890625,0.4501497745513916,-9.276076316833496,3.395714521408081
1701864820057089800,3.23208984375,0.8739784955978394,-9.211469650268555,4.71236515045166
1701864820066682400,3.241682373046875,0.6346961855888367,-8.675178527832031,4.671687126159668
1701864820076274200,3.251274169921875,-0.7181459069252014,-7.959425449371338,4.314857482910156
1701864820085866800,3.26086669921875,-0.6607181429862976,-7.906783103942871,0.9320043921470642
1701864820095460000,3.270460205078125,8.86062240600586,-7.916354656219482,-7.485646724700928
1701864820105052700,3.280052734375,18.05653953552246,-8.849854469299316,-0.4325026869773865
1701864820114644500,3.28964453125,4.680660247802734,-9.683155059814453,3.725924015045166
1701864820124237000,3.299237060546875,-13.205689430236816,-6.831807613372803,9.519845008850098
1701864820133830400,3.308830322265625,-12.51865005493164,-3.640380620956421,12.660723686218262
1701864820143423000,3.318423095703125,-5.195116996765137,-4.782355308532715,15.026028633117676
1701864820153014800,3.328014892578125,-0.37806597352027893,-7.561917781829834,13.951053619384766
1701864820162607400,3.337607421875,1.9226330518722534,-9.37896728515625,8.286643981933594
1701864820172200700,3.34720068359375,1.683350682258606,-9.290432929992676,5.08355188369751
1701864820181793300,3.356793212890625,0.19651055335998535,-9.733404159545898,6.783353328704834
1701864820191385000,3.366385009765625,0.1821536272764206,-8.58185863494873,5.983551979064941
1701864820200977700,3.375977783203125,0.2228316068649292,-8.28724193572998,5.940481185913086
1701864820210571000,3.385571044921875,0.35443684458732605,-7.9881391525268555,5.8734822273254395
1701864820220163600,3.39516357421875,0.6681957244873047,-7.35613489151001,5.871089458465576
1701864820229755400,3.40475537109375,0.6538388133049011,-6.965806007385254,5.9452667236328125
1701864820239348000,3.414347900390625,0.3568296730518341,-6.6475605964660645,5.906981945037842
1701864820248941300,3.42394140625,0.02183450572192669,-6.589833736419678,5.890232086181641
1701864820258534000,3.433533935546875,-0.0526420995593071,-6.515655994415283,5.521438121795654
1701864820268125700,3.443125732421875,-0.040677983313798904,-6.4941205978393555,5.169693470001221
1701864820277718300,3.45271826171875,0.1534397453069687,-6.317051887512207,4.942076206207275
1701864820287311600,3.4623115234375,0.40707895159721375,-6.1710896492004395,5.267798900604248
1701864820296904200,3.471904296875,0.2706880569458008,-6.530013084411621,5.085944652557373
1701864820306496000,3.48149609375,0.024227328598499298,-6.834200382232666,5.253442287445068
1701864820316088600,3.491088623046875,-0.014057832770049572,-7.41117000579834,5.231906890869141
1701864820325682000,3.500681884765625,-0.5312066078186035,-7.6049885749816895,5.181657314300537
1701864820335274500,3.5102744140625,-0.8497511148452759,-7.940282821655273,5.114658355712891
1701864820344866300,3.5198662109375,-0.7181459069252014,-8.222636222839355,5.057230472564697
1701864820354459000,3.529458984375,-0.6200401782989502,-8.47178840637207,5.088337421417236
1701864820364052500,3.539052490234375,-0.885643482208252,-8.325826644897461,5.30129861831665
1701864820373644800,3.548644775390625,-1.2089736461639404,-8.009675025939941,5.258227825164795
1701864820383236600,3.558236572265625,-1.3860424757003784,-8.225028991699219,5.133800983428955
1701864820392829200,3.5678291015625,-1.129711389541626,-7.899604797363281,4.848755836486816
1701864820402422800,3.5774228515625,-1.2640085220336914,-8.476573944091797,4.633401870727539
1701864820412015000,3.58701513671875,-0.5359922647476196,-8.50289535522461,3.8001015186309814
1701864820421607000,3.59660693359375,-1.098604679107666,-8.59621524810791,4.6286163330078125
1701864820431199500,3.606199462890625,-1.500898003578186,-8.225028991699219,5.464010715484619
1701864820440793000,3.61579296875,-1.5272190570831299,-7.633702278137207,5.344369411468506
1701864820450385400,3.625385498046875,-1.4769697189331055,-8.316255569458008,5.073980331420898
1701864820459977200,3.634977294921875,-1.2424731254577637,-8.443074226379395,4.753043174743652
1701864820469569800,3.64456982421875,-1.1922239065170288,-8.572287559509277,4.540081977844238
1701864820479163400,3.654163330078125,-1.0914262533187866,-8.244171142578125,4.461118698120117
1701864820488755700,3.663755615234375,-1.3549357652664185,-8.395217895507812,4.207180500030518
1701864820498347500,3.673347412109375,-1.2472587823867798,-9.04397201538086,4.082753658294678
1701864820507940000,3.682940185546875,-1.716252088546753,-9.893723487854004,3.5249269008636475
1701864820517533400,3.692533447265625,-0.9885348677635193,-11.097911834716797,3.170490026473999
1701864820527126000,3.7021259765625,-0.643968403339386,-11.6485595703125,2.7972097396850586
1701864820536717800,3.7117177734375,-1.1416754722595215,-11.418848991394043,4.058825492858887
1701864820546310700,3.721310546875,-1.6013965606689453,-10.506585121154785,4.867898464202881
1701864820555903700,3.73090380859375,-1.1464611291885376,-10.018449783325195,5.009075164794922
1701864820565496300,3.740496337890625,-1.374078392982483,-9.81236743927002,5.004289627075195
1701864820575088000,3.750088134765625,-1.9390836954116821,-8.82114028930664,4.901398181915283
1701864820584681000,3.759680908203125,-2.1424734592437744,-9.5802640914917,4.925326347351074
1701864820594274300,3.7692744140625,-1.5176477432250977,-9.496515274047852,4.516153812408447
1701864820603866600,3.77886669921875,-1.0004990100860596,-9.659226417541504,5.205585479736328
1701864820613458400,3.78845849609375,-1.189831018447876,-9.39571762084961,5.24626350402832
1701864820623051300,3.79805126953125,-1.074676513671875,-9.060722351074219,5.148158073425293
1701864820632644600,3.80764453125,-1.2305090427398682,-8.62732219696045,4.3172502517700195
1701864820642237000,3.81723681640625,-1.0914262533187866,-8.34736156463623,3.982254981994629
1701864820651828700,3.826828857421875,-0.9382855892181396,-7.873283863067627,5.179264545440674
1701864820661421600,3.836421630859375,-0.7492526173591614,-7.5667033195495605,4.992325305938721
1701864820671015000,3.846014892578125,-1.1368898153305054,-6.905985355377197,4.355535507202148
1701864820680607200,3.855607177734375,-2.764906644821167,-8.282456398010254,5.971588134765625
1701864820690199000,3.865198974609375,-3.4235310554504395,-11.100603103637695,7.463213920593262
1701864820699791600,3.87479150390625,-2.8342983722686768,-12.687643051147461,6.658627033233643
1701864820709385200,3.88438525390625,-1.3405789136886597,-14.291731834411621,6.4289164543151855
1701864820718977500,3.8939775390625,0.5940182209014893,-14.18883991241455,5.605485916137695
1701864820728569300,3.9035693359375,-0.37806597352027893,-11.607881546020508,6.088836193084717
1701864820738162000,3.913161865234375,-0.24885354936122894,-9.451051712036133,4.609473705291748
1701864820747755500,3.922755615234375,-0.02841476909816265,-6.427121639251709,1.0492527484893799
1701864820757347800,3.932347900390625,-1.716252088546753,-3.317349433898926,-0.8635098934173584
1701864820766939600,3.941939697265625,-0.1986042857170105,-7.4709906578063965,3.804887056350708
1701864820776532200,3.9515322265625,0.17976079881191254,-8.902795791625977,3.273381471633911
1701864820786125800,3.961125732421875,-0.5000999569892883,-9.853045463562012,4.003790378570557
1701864820795718100,3.97071826171875,-0.21774685382843018,-9.206684112548828,4.027718544006348
1701864820805310000,3.98031005859375,0.03858426585793495,-8.165207862854004,3.467499017715454
1701864820814902500,3.989902587890625,-0.976570725440979,-7.7368927001953125,3.5105698108673096
1701864820824496000,3.99949609375,-2.1257238388061523,-7.724629878997803,4.073182582855225
1701864820834088400,4.00908837890625,-3.459423303604126,-7.772785186767578,5.08355188369751
1701864820843680300,4.01868017578125,-2.2597219944000244,-8.49571704864502,4.8559346199035645
1701864820853273000,4.028273193359375,-1.7883358001708984,-9.216255187988281,4.369892120361328
1701864820862866400,4.037866455078125,-1.3142578601837158,-9.5324068069458,4.2000017166137695
1701864820872458800,4.047458740234375,-0.33499518036842346,-9.520442962646484,4.027718544006348
1701864820882050600,4.057050537109375,-0.14356936514377594,-9.723833084106445,3.929612874984741
1701864820891643400,4.066643310546875,0.026620151475071907,-9.908080101013184,3.960719585418701
1701864820901236700,4.07623681640625,-1.1611171960830688,-10.217053413391113,3.5967116355895996
1701864820910829000,4.0858291015625,-1.807478427886963,-10.944770812988281,3.4722847938537598
1701864820920420900,4.0954208984375,-0.3517449200153351,-10.506585121154785,4.417748928070068
1701864820930013700,4.105013671875,-0.9550353288650513,-10.808380126953125,4.257429599761963
1701864820939607000,4.11460693359375,-1.1105687618255615,-10.939985275268555,4.276572227478027
1701864820949199400,4.124199462890625,-1.1105687618255615,-9.323932647705078,3.122633457183838
1701864820958791200,4.133791259765625,-1.2975081205368042,-9.209076881408691,3.1657042503356934
1701864820968383700,4.1433837890625,-1.4219348430633545,-9.079864501953125,3.512962818145752
1701864820977977300,4.152977294921875,-1.4889339208602905,-9.000901222229004,3.685245990753174
1701864820987569700,4.162569580078125,-0.88803631067276,-9.331110954284668,3.211168050765991
1701864820997161500,4.172161376953125,-0.31345975399017334,-9.987342834472656,2.8809585571289062
1701864821006754000,4.181754150390625,-0.4570291340351105,-10.154840469360352,3.0795626640319824
1701864821016347600,4.19134765625,-0.8736793398857117,-9.843474388122559,3.2709884643554688
1701864821025940000,4.20093994140625,-1.1368898153305054,-7.320242881774902,3.1585259437561035
1701864821035531800,4.21053173828125,-4.491028785705566,4.233800411224365,-0.2386840581893921
1701864821045124400,4.220124267578125,3.670290946960449,-0.5880361795425415,1.0660024881362915
1701864821054718000,4.229718017578125,0.7974081635475159,-2.570190668106079,2.1026928424835205
1701864821064310300,4.239310302734375,-2.195115566253662,-3.326920747756958,1.9160526990890503
1701864821073902000,4.248902099609375,-1.903191328048706,-4.957330226898193,1.394118309020996
1701864821083495000,4.258494873046875,-2.365305185317993,-7.0423760414123535,0.8171489238739014
1701864821093088300,4.268088134765625,-3.5814573764801025,-11.507383346557617,0.6305087804794312
1701864821102680600,4.2776806640625,-4.455136775970459,-20.219650268554688,3.9798622131347656
1701864821112272400,4.2872724609375,-3.7561333179473877,-27.660430908203125,10.230812072753906
1701864821121865200,4.296865234375,1.683350682258606,-19.956140518188477,6.9460649490356445
1701864821131458600,4.30645849609375,2.3392832279205322,-11.473883628845215,3.28773832321167
1701864821141051000,4.31605078125,-0.5670989751815796,-9.980164527893066,2.1122641563415527
1701864821150642700,4.325642578125,-0.9334999322891235,-10.494621276855469,2.5887351036071777
1701864821160235500,4.335235595703125,-0.7109674215316772,-10.877771377563477,2.8498518466949463
1701864821169828900,4.344828857421875,-1.0220344066619873,-10.782058715820312,2.732304334640503
1701864821179421400,4.35442138671875,-1.3716856241226196,-10.46351432800293,2.471486806869507
1701864821189013000,4.364012939453125,-1.4793626070022583,-10.059126853942871,2.315953254699707
1701864821198605600,4.37360546875,-1.3573286533355713,-9.539586067199707,2.191227436065674
1701864821208199200,4.38319921875,-1.472184181213379,-8.82114028930664,2.1409780979156494
1701864821217791500,4.39279150390625,-2.372483730316162,-7.607381343841553,2.3733808994293213
1701864821227383300,4.40238330078125,-0.8401798605918884,-7.29392147064209,3.0269205570220947
1701864821236975900,4.411975830078125,-0.7205387353897095,-8.043173789978027,3.1824541091918945
1701864821246569500,4.421569580078125,-1.8529419898986816,-8.950652122497559,3.2781670093536377
1701864821256161800,4.431161865234375,-1.5798611640930176,-9.1085786819458,3.0388846397399902
1701864821265753600,4.440753662109375,-1.5798611640930176,-9.54915714263916,3.16331148147583
1701864821275346200,4.45034619140625,-1.4889339208602905,-9.824331283569336,3.0005996227264404
1701864821284939800,4.459939697265625,-1.4123635292053223,-9.841081619262695,2.528914451599121
1701864821294532000,4.469531982421875,-1.3884353637695312,-9.506086349487305,1.9710876941680908
1701864821304124000,4.4791240234375,-0.2632105052471161,-8.921937942504883,0.898504912853241
1701864821313716500,4.488716552734375,-2.2357935905456543,-9.441479682922363,0.6711867451667786
1701864821323310000,4.49831005859375,-2.1592233180999756,-10.401301383972168,3.4292140007019043
1701864821332902400,4.50790234375,-0.2560320198535919,-9.920044898986816,2.770589590072632
1701864821342494200,4.517494140625,-1.4243277311325073,-9.881759643554688,2.926422119140625
1701864821352087000,4.527087158203125,-1.4578272104263306,-9.80518913269043,3.1250264644622803
1701864821361680400,4.536680419921875,-1.4219348430633545,-9.786046028137207,2.847458839416504
1701864821371272700,4.546272705078125,-1.3956137895584106,-9.635298728942871,2.7131617069244385
1701864821380864500,4.555864501953125,-1.3286148309707642,-9.54197883605957,2.5648066997528076
1701864821390457300,4.565457275390625,-1.2903295755386353,-9.489336013793945,2.4475584030151367
1701864821400050700,4.57505078125,-1.2329018115997314,-9.479764938354492,2.363809585571289
1701864821409643300,4.584643310546875,-1.1994023323059082,-9.515657424926758,2.356631278991699
1701864821419234800,4.59423486328125,-1.2329018115997314,-9.508479118347168,2.387737989425659
1701864821428827600,4.60382763671875,-1.2496516704559326,-9.520442962646484,2.402094841003418
1701864821438421000,4.6134208984375,-1.2185449600219727,-9.616155624389648,2.57437801361084
1701864821448013300,4.623013427734375,-1.2352946996688843,-9.558728218078613,2.5791637897491455
1701864821457605000,4.632605224609375,-1.3956137895584106,-9.390931129455566,2.6964120864868164
1701864821467197700,4.64219775390625,-1.4362918138504028,-9.328718185424805,2.7900311946868896
1701864821476791300,4.651791259765625,-1.3956137895584106,-9.393324851989746,2.895315408706665
1701864821486383600,4.661383544921875,-1.3836497068405151,-9.381360054016113,2.878565549850464
1701864821495975400,4.670975341796875,-1.4051851034164429,-9.369396209716797,2.8737800121307373
1701864821505568000,4.680568115234375,-1.3549357652664185,-9.400503158569336,2.847458839416504
1701864821515161600,4.69016162109375,-1.1922239065170288,-9.637691497802734,2.9599215984344482
1701864821524754000,4.69975390625,-1.225723385810852,-9.491728782653809,2.8211379051208496
1701864821534345700,4.709345703125,-1.3764712810516357,-9.343074798583984,2.8354947566986084
1701864821543938300,4.718938232421875,-1.3908281326293945,-9.27846908569336,2.9144580364227295
1701864821553532000,4.728531982421875,-1.4075778722763062,-9.273683547973633,2.9790642261505127
1701864821563124200,4.738124267578125,-1.409970760345459,-9.24018383026123,3.0245277881622314
1701864821572716000,4.747716064453125,-1.347757339477539,-9.280861854553223,3.13220477104187
1701864821582308900,4.757308837890625,-1.2735798358917236,-9.316754341125488,3.2350962162017822
1701864821591902200,4.766902099609375,-1.2448660135269165,-9.338289260864258,3.3236305713653564
1701864821601494500,4.77649462890625,-1.1754741668701172,-9.333503723144531,3.350250720977783
1701864821611086300,4.78608642578125,-0.976570725440979,-9.5802640914917,3.4866416454315186
1701864821620679200,4.79567919921875,-1.0411769151687622,-9.537193298339844,3.474677562713623
1701864821630272500,4.8052724609375,-1.09381902217865,-9.235398292541504,3.2997024059295654
1701864821639865000,4.814864990234375,-1.2592228651046753,-9.125328063964844,3.3670005798339844
1701864821649456600,4.82445654296875,-1.1994023323059082,-9.158827781677246,3.3981072902679443
1701864821659049200,4.83404931640625,-1.1560324430465698,-9.276076316833496,3.4220354557037354
1701864821668642800,4.843642822265625,-1.1512467861175537,-9.266505241394043,3.402892827987671
1701864821678235100,4.853235107421875,-1.1488540172576904,-9.264111518859863,3.3933215141296387
1701864821687827000,4.862826904296875,-1.1153544187545776,-9.273683547973633,3.3981072902679443
1701864821697419500,4.87241943359375,-1.0818549394607544,-9.314361572265625,3.3933215141296387
1701864821707013000,4.88201318359375,-1.0962119102478027,-9.309576034545898,3.3598220348358154
1701864821716605400,4.89160546875,-1.0339984893798828,-9.335896492004395,3.328416347503662
1701864821726197200,4.901197265625,-0.9885348677635193,-9.465408325195312,3.3020951747894287
1701864821735789800,4.910789794921875,-0.9669994711875916,-9.367003440856934,3.2350962162017822
1701864821745383400,4.920383544921875,-1.0842477083206177,-9.173184394836426,3.1752755641937256
1701864821754975700,4.929975830078125,-1.007677435874939,-9.311968803405762,3.1728827953338623
1701864821764567600,4.939567626953125,-0.9693922996520996,-9.398110389709473,3.1106693744659424
1701864821774160100,4.94916015625,-0.9598209857940674,-9.419944763183594,3.1345977783203125
1701864821783753700,4.958753662109375,-0.9454640746116638,-9.453444480895996,3.115455150604248
1701864821793346000,4.968345947265625,-0.9143573641777039,-9.486943244934082,3.081955671310425
1701864821802937900,4.977937744140625,-0.9071788787841797,-9.525228500366211,3.053241729736328
1701864821812530700,4.98753076171875,-0.9095717072486877,-9.561120986938477,3.036491870880127
1701864821822124000,4.9971240234375,-0.9406784176826477,-9.618548393249512,3.0317063331604004
1701864821831716400,5.00671630859375,-0.9693922996520996,-9.668798446655273,3.0077781677246094
1701864821841308200,5.01630810546875,-0.9789635539054871,-9.692726135253906,2.9862427711486816
1701864821850901000,5.02590087890625,-0.9957132935523987,-9.68794059753418,2.933600664138794
1701864821860494300,5.035494384765625,-0.9454640746116638,-9.65683364868164,2.919243574142456
1701864821870086700,5.045086669921875,-0.9119645357131958,-9.620942115783691,2.902493953704834
1701864821879678500,5.054678466796875,-0.8688937425613403,-9.601799011230469,2.9312076568603516
1701864821889271000,5.06427099609375,-0.854536771774292,-9.56351375579834,2.933600664138794
1701864821898864600,5.07386474609375,-0.8353942036628723,-9.558728218078613,2.9288148880004883
1701864821908457000,5.08345703125,-0.8306085467338562,-9.520442962646484,2.9072794914245605
1701864821918048800,5.093048828125,-0.7995018362998962,-9.5324068069458,2.864208698272705
1701864821927641300,5.102641357421875,-0.7707880139350891,-9.568299293518066,2.823530673980713
1701864821937235000,5.11223486328125,-0.8425726890563965,-9.518050193786621,2.825923442840576
1701864821946827300,5.1218271484375,-0.8186444640159607,-9.582656860351562,2.830709218978882
1701864821956419000,5.131419189453125,-0.8114659786224365,-9.628120422363281,2.794816732406616
1701864821966012000,5.141011962890625,-0.8593224287033081,-9.654440879821777,2.765803813934326
1701864821975605000,5.15060498046875,-0.8377870321273804,-9.690333366394043,2.7972097396850586
1701864821985197600,5.160197509765625,-0.8258228898048401,-9.704689979553223,2.749054193496704
1701864821994789400,5.169789306640625,-0.8018946647644043,-9.690333366394043,2.701197624206543
1701864822004382200,5.17938232421875,-0.8330013751983643,-9.635298728942871,2.6724836826324463
1701864822013975600,5.1889755859375,-0.8736793398857117,-9.625727653503418,2.6246273517608643
1701864822023568000,5.19856787109375,-0.91914302110672,-9.628120422363281,2.5791637897491455
1701864822033159700,5.20815966796875,-0.9574281573295593,-9.635298728942871,2.5169503688812256
1701864822042752500,5.21775244140625,-0.9526425004005432,-9.647262573242188,2.4930222034454346
1701864822052345900,5.227345947265625,-0.9143573641777039,-9.68076229095459,2.4930222034454346
1701864822061938200,5.236938232421875,-0.9000003933906555,-9.711869239807129,2.4762723445892334
1701864822071530000,5.246530029296875,-0.8808578252792358,-9.745368003845215,2.4786651134490967
1701864822081122600,5.25612255859375,-0.9023932218551636,-9.740582466125488,2.4619154930114746
1701864822090716200,5.265716064453125,-0.9334999322891235,-9.740582466125488,2.464308261871338
1701864822100308500,5.27530859375,-0.9526425004005432,-9.697511672973633,2.4164516925811768
1701864822109900300,5.284900390625,-0.921535849571228,-9.740582466125488,2.4547369480133057
1701864822119492900,5.294492919921875,-0.9669994711875916,-9.697511672973633,2.378166675567627
1701864822129086500,5.30408642578125,-0.976570725440979,-9.685547828674316,2.361416816711426
1701864822138678800,5.3136787109375,-0.9789635539054871,-9.675976753234863,2.330310106277466
1701864822148270600,5.3232705078125,-0.9502496719360352,-9.671191215515137,2.3207387924194336
1701864822157863200,5.33286328125,-0.9239286184310913,-9.678369522094727,2.2968106269836426
1701864822167456500,5.34245654296875,-0.8976075649261475,-9.668798446655273,2.275275230407715
1701864822177049000,5.352049072265625,-0.8593224287033081,-9.628120422363281,2.2872393131256104
1701864822186641000,5.361640869140625,-0.8162516355514526,-9.623334884643555,2.282453775405884
1701864822196233700,5.371233642578125,-0.7923234105110168,-9.589835166931152,2.299203395843506
1701864822205826800,5.380826904296875,-0.7731808423995972,-9.604191780090332,2.3183460235595703
1701864822215419400,5.39041943359375,-0.7731808423995972,-9.606584548950195,2.3422741889953613
1701864822225011200,5.40001123046875,-0.7492526173591614,-9.640084266662598,2.385344982147217
1701864822234604000,5.40960400390625,-0.732502818107605,-9.673583984375,2.402094841003418
1701864822244197400,5.419197265625,-0.7205387353897095,-9.683155059814453,2.426023006439209
1701864822253789700,5.428789794921875,-0.7133602499961853,-9.673583984375,2.471486806869507
1701864822263381500,5.438381591796875,-0.7277171611785889,-9.668798446655273,2.47387957572937
1701864822272974000,5.44797412109375,-0.7540382146835327,-9.675976753234863,2.4834508895874023
1701864822282567700,5.457567626953125,-0.7875377535820007,-9.68076229095459,2.4930222034454346
1701864822292160000,5.467159912109375,-0.8066803216934204,-9.678369522094727,2.488236427307129
1701864822301751800,5.476751708984375,-0.8162516355514526,-9.692726135253906,2.495414972305298
1701864822311344400,5.486344482421875,-0.8377870321273804,-9.68076229095459,2.464308261871338
1701864822320938000,5.49593798828125,-0.8401798605918884,-9.721440315246582,2.466701030731201
1701864822330530300,5.5055302734375,-0.8425726890563965,-9.745368003845215,2.4595224857330322
1701864822340122000,5.5151220703125,-0.7875377535820007,-9.7669038772583,2.466701030731201
1701864822349714700,5.524714599609375,-0.7133602499961853,-9.764511108398438,2.449951171875
1701864822359308000,5.53430810546875,-0.6846463680267334,-9.745368003845215,2.44277286529541
1701864822368900600,5.543900634765625,-0.6726822853088379,-9.738189697265625,2.4475584030151367
1701864822378492400,5.553492431640625,-0.6631109714508057,-9.704689979553223,2.4690937995910645
1701864822388085000,5.5630849609375,-0.6320042610168457,-9.678369522094727,2.4690937995910645
1701864822397678300,5.57267822265625,-0.6176473498344421,-9.652048110961914,2.497807741165161
1701864822407271000,5.58227099609375,-0.6152545213699341,-9.65683364868164,2.528914451599121
1701864822416862700,5.59186279296875,-0.6200401782989502,-9.630513191223145,2.5480570793151855
1701864822426455300,5.601455322265625,-0.6248258352279663,-9.630513191223145,2.5552353858947754
1701864822436048600,5.611048583984375,-0.643968403339386,-9.635298728942871,2.5408785343170166
1701864822445641200,5.62064111328125,-0.6535396575927734,-9.652048110961914,2.521735906600952
1701864822455233000,5.63023291015625,-0.6631109714508057,-9.678369522094727,2.497807741165161
1701864822464825600,5.63982568359375,-0.6678966283798218,-9.697511672973633,2.4858436584472656
1701864822474419200,5.649419189453125,-0.6702894568443298,-9.711869239807129,2.47387957572937
1701864822484011500,5.659011474609375,-0.6559324860572815,-9.714262008666992,2.471486806869507
1701864822493603300,5.668603271484375,-0.6870391964912415,-9.714262008666992,2.495414972305298
1701864822503196000,5.67819580078125,-0.6846463680267334,-9.692726135253906,2.497807741165161
1701864822512789200,5.687789306640625,-0.6774678826332092,-9.711869239807129,2.519343137741089
1701864822522381800,5.6973818359375,-0.6702894568443298,-9.714262008666992,2.5313072204589844
1701864822531973600,5.7069736328125,-0.6846463680267334,-9.716654777526855,2.5576283931732178
1701864822541566200,5.716566162109375,-0.6774678826332092,-9.709476470947266,2.591127872467041
1701864822551159600,5.72615966796875,-0.6942176818847656,-9.68076229095459,2.6030919551849365
1701864822560752000,5.735752197265625,-0.7085745930671692,-9.685547828674316,2.655734062194824
1701864822570344000,5.745343994140625,-0.7109674215316772,-9.671191215515137,2.6820549964904785
1701864822579936500,5.7549365234375,-0.6918248534202576,-9.637691497802734,2.677269458770752
1701864822589529900,5.76452978515625,-0.6631109714508057,-9.611370086669922,2.6748766899108887
1701864822599122400,5.774122314453125,-0.6320042610168457,-9.604191780090332,2.677269458770752
1701864822608714200,5.78371435546875,-0.6272186636924744,-9.606584548950195,2.6916263103485107
1701864822618306800,5.793306884765625,-0.6415755748748779,-9.599406242370605,2.6988048553466797
1701864822627900200,5.802900146484375,-0.6583253145217896,-9.575477600097656,2.694019079208374
1701864822637492700,5.81249267578125,-0.6559324860572815,-9.561120986938477,2.677269458770752
1701864822647084500,5.82208447265625,-0.6822535395622253,-9.56351375579834,2.638984203338623
1701864822656677000,5.831677001953125,-0.701396107673645,-9.558728218078613,2.6365914344787598
1701864822666270500,5.8412705078125,-0.6966105103492737,-9.568299293518066,2.653341293334961
1701864822675863000,5.850863037109375,-0.7157530784606934,-9.5802640914917,2.6796622276306152
1701864822685454800,5.860454833984375,-0.734895646572113,-9.592227935791016,2.6892335414886475
1701864822695047400,5.87004736328125,-0.732502818107605,-9.597013473510742,2.717947483062744
1701864822704640800,5.879640869140625,-0.732502818107605,-9.594620704650879,2.7299115657806396
1701864822714233300,5.8892333984375,-0.7301099896430969,-9.597013473510742,2.7442684173583984
1701864822723825200,5.8988251953125,-0.7372884750366211,-9.599406242370605,2.739482879638672
1701864822733417700,5.908417724609375,-0.7181459069252014,-9.608977317810059,2.725125789642334
1701864822743011000,5.918010986328125,-0.6894320249557495,-9.613762855529785,2.7227330207824707
1701864822752603600,5.927603759765625,-0.6655037999153137,-9.601799011230469,2.7299115657806396
1701864822762195500,5.937195556640625,-0.6631109714508057,-9.604191780090332,2.717947483062744
1701864822771788000,5.9467880859375,-0.6678966283798218,-9.599406242370605,2.6892335414886475
1701864822781381400,5.95638134765625,-0.6702894568443298,-9.597013473510742,2.677269458770752
1701864822790974000,5.965973876953125,-0.6702894568443298,-9.618548393249512,2.6653053760528564
1701864822800565800,5.975565673828125,-0.6846463680267334,-9.616155624389648,2.6653053760528564
1701864822810158300,5.985158447265625,-0.6894320249557495,-9.637691497802734,2.6581268310546875
1701864822819751700,5.994751708984375,-0.6894320249557495,-9.642477035522461,2.6485555171966553
1701864822829344300,6.00434423828125,-0.7085745930671692,-9.661619186401367,2.6270201206207275
1701864822838936000,6.01393603515625,-0.6918248534202576,-9.66640567779541,2.6174488067626953
1701864822848528600,6.023528564453125,-0.6774678826332092,-9.644869804382324,2.615056037902832
1701864822858122000,6.0331220703125,-0.6702894568443298,-9.654440879821777,2.629412889480591
1701864822867714600,6.042714599609375,-0.6798607110977173,-9.642477035522461,2.631805896759033
1701864822877306400,6.052306396484375,-0.7085745930671692,-9.635298728942871,2.6198415756225586
1701864822886899000,6.06189892578125,-0.732502818107605,-9.632905960083008,2.6198415756225586
1701864822896492300,6.0714921875,-0.7492526173591614,-9.640084266662598,2.5959134101867676
1701864822906084900,6.0810849609375,-0.732502818107605,-9.632905960083008,2.5863420963287354
1701864822915676700,6.0906767578125,-0.7372884750366211,-9.640084266662598,2.5863420963287354
1701864822925269200,6.100269287109375,-0.7420741319656372,-9.640084266662598,2.5863420963287354
1701864822934862600,6.109862548828125,-0.7396813035011292,-9.652048110961914,2.5959134101867676
1701864822944455200,6.119455078125,-0.7205387353897095,-9.654440879821777,2.591127872467041
1701864822954047000,6.129046875,-0.7037889361381531,-9.66640567779541,2.6102705001831055
1701864822963639600,6.1386396484375,-0.7157530784606934,-9.668798446655273,2.6174488067626953
1701864822973233000,6.14823291015625,-0.734895646572113,-9.692726135253906,2.622234582901001
1701864822982825500,6.157825439453125,-0.7205387353897095,-9.699904441833496,2.6054847240448
1701864822992417300,6.167417236328125,-0.7229315638542175,-9.68794059753418,2.6006991863250732
1701864823002009900,6.177009765625,-0.7037889361381531,-9.68076229095459,2.5887351036071777
1701864823011603200,6.186603271484375,-0.6870391964912415,-9.661619186401367,2.591127872467041
1701864823021195800,6.19619580078125,-0.6702894568443298,-9.661619186401367,2.5648066997528076
1701864823030787600,6.20578759765625,-0.6535396575927734,-9.64965534210205,2.560021162033081
1701864823040380200,6.215380126953125,-0.612861692905426,-9.632905960083008,2.5241286754608154
1701864823049973500,6.224973388671875,-0.612861692905426,-9.628120422363281,2.50498628616333
1701864823059566000,6.234566162109375,-0.6320042610168457,-9.613762855529785,2.495414972305298
1701864823069158000,6.244157958984375,-0.6367899179458618,-9.613762855529785,2.471486806869507
1701864823078750500,6.25375048828125,-0.6415755748748779,-9.620942115783691,2.4619154930114746
1701864823088343800,6.26334375,-0.6918248534202576,-9.601799011230469,2.426023006439209
1701864823097936400,6.272936279296875,-0.7085745930671692,-9.613762855529785,2.394916296005249
1701864823107528200,6.282528076171875,-0.7253243923187256,-9.599406242370605,2.3805594444274902
1701864823117120800,6.292120849609375,-0.7085745930671692,-9.608977317810059,2.3662025928497314
1701864823126714000,6.301714111328125,-0.6822535395622253,-9.604191780090332,2.354238271713257
1701864823136306700,6.311306640625,-0.6846463680267334,-9.613762855529785,2.339881420135498
1701864823145898500,6.3208984375,-0.6367899179458618,-9.625727653503418,2.347059965133667
1701864823155491000,6.330490966796875,-0.5934200286865234,-9.640084266662598,2.330310106277466
1701864823165084400,6.34008447265625,-0.5551348328590393,-9.68794059753418,2.363809585571289
1701864823174677000,6.349677001953125,-0.5527420043945312,-9.685547828674316,2.354238271713257
1701864823184268800,6.359268798828125,-0.6080760359764099,-9.539586067199707,2.2585253715515137
1701864823193861400,6.368861328125,-0.5886343717575073,-9.510871887207031,2.2728824615478516
1701864823203454700,6.378454833984375,-0.5407779216766357,-9.55633544921875,2.3207387924194336
1701864823213047300,6.38804736328125,-0.5000999569892883,-9.544371604919434,2.3183460235595703
1701864823222639000,6.39763916015625,-0.4546363055706024,-9.551549911499023,2.330310106277466
1701864823232231700,6.407231689453125,-0.4426721930503845,-9.551549911499023,2.3685953617095947
1701864823241825000,6.416824951171875,-0.40677985548973083,-9.561120986938477,2.3422741889953613
1701864823251417600,6.42641748046875,-0.4259224236011505,-9.539586067199707,2.2896320819854736
1701864823261009400,6.436009521484375,-0.43549370765686035,-9.635298728942871,2.308774709701538
1701864823270602000,6.44560205078125,-0.46899324655532837,-9.56351375579834,2.2322044372558594
1701864823280195300,6.4551953125,-0.4498506486415863,-9.467801094055176,2.1266210079193115
1701864823289788000,6.464787841796875,-0.40677985548973083,-9.448657989501953,2.0811574459075928
1701864823299379700,6.474379638671875,-0.39960137009620667,-9.422337532043457,2.0380866527557373
1701864823308972300,6.48397216796875,-0.39960137009620667,-9.427123069763184,2.0165512561798096
1701864823318565600,6.493565673828125,-0.38763725757598877,-9.460622787475586,1.9567307233810425
1701864823328158200,6.503158203125,-0.3756731450557709,-9.477372169494629,1.851446509361267
1701864823337750000,6.51275,-0.3206382393836975,-9.553942680358887,1.8753747940063477
1701864823347342600,6.522342529296875,-0.3086741268634796,-9.340682029724121,1.7581263780593872
1701864823356936000,6.53193603515625,-0.3038884699344635,-9.173184394836426,1.628614902496338
1701864823366528500,6.541528564453125,-0.29431718587875366,-9.170791625976562,1.6142579317092896
1701864823376120300,6.551120361328125,-0.2392822653055191,-9.23300552368164,1.6190435886383057
1701864823385713000,6.560712890625,-0.16510476171970367,-9.295218467712402,1.5520446300506592
1701864823395306200,6.57030615234375,-0.11006984114646912,-9.41755199432373,1.6381862163543701
1701864823404898800,6.57989892578125,-0.07657032459974289,-9.498908042907715,1.8729819059371948
1701864823414490600,6.58949072265625,-0.24167509377002716,-9.292825698852539,1.571187138557434
1701864823424083200,6.599083251953125,-0.1579262912273407,-9.120542526245117,1.3103694915771484
1701864823433676500,6.608676513671875,0.007477570790797472,-9.077471733093262,1.547258973121643
1701864823443269000,6.61826904296875,-0.13878370821475983,-9.14686393737793,1.542473316192627
1701864823452861000,6.62786083984375,-0.1698904037475586,-9.192327499389648,1.4994025230407715
1701864823462453500,6.63745361328125,-0.03320041298866272,-9.201898574829102,1.4084752798080444
1701864823472046800,6.647046875,-0.016450656577944756,-9.1683988571167,1.6477575302124023
1701864823481639400,6.656639404296875,-0.24167509377002716,-9.489336013793945,1.6310077905654907
1701864823491231200,6.666231201171875,-0.3397808074951172,-9.647262573242188,1.6381862163543701
1701864823500823800,6.67582373046875,-0.363709032535553,-9.745368003845215,1.6791633367538452
1701864823510417200,6.685417236328125,-0.33738797903060913,-9.661619186401367,1.6118651628494263
1701864823520009700,6.695009765625,-0.31345975399017334,-9.630513191223145,1.5951154232025146
1701864823529601500,6.7046015625,-0.275174617767334,-9.57069206237793,1.5496517419815063
1701864823539194000,6.714194091796875,-0.32542386651039124,-9.506086349487305,1.6357933282852173
1701864823548787500,6.723787353515625,-0.6487540602684021,-9.448657989501953,1.6453646421432495
1701864823558380000,6.733380126953125,-0.7420741319656372,-9.338289260864258,1.5329020023345947
1701864823567971800,6.742971923828125,-0.6655037999153137,-9.407681465148926,1.6453646421432495
1701864823577564400,6.752564453125,-0.5048855543136597,-9.321539878845215,1.5855441093444824
1701864823587157800,6.76215771484375,-0.349352091550827,-9.309576034545898,1.5831513404846191
1701864823596750300,6.771750244140625,-0.2153540402650833,-9.398110389709473,1.6166508197784424
1701864823606342100,6.781342041015625,-0.2225325107574463,-9.28564739227295,1.5831513404846191
1701864823615934700,6.790934814453125,-0.3038884699344635,-9.472586631774902,1.6381862163543701
1701864823625528000,6.800528076171875,-1.036391258239746,-9.197113037109375,1.4850455522537231
1701864823635120600,6.81012060546875,0.584446907043457,-8.871688842773438,1.9112670421600342
1701864823644712400,6.81971240234375,0.7208378314971924,-9.405288696289062,2.1577277183532715
1701864823654305000,6.829304931640625,0.19651055335998535,-9.714262008666992,2.3039891719818115
1701864823663898400,6.8388984375,-0.3278166949748993,-9.652048110961914,2.1984057426452637
1701864823673491000,6.848490966796875,-0.4546363055706024,-9.43190860748291,1.999801516532898
1701864823683082800,6.858082763671875,-0.6248258352279663,-9.393324851989746,1.9567307233810425
1701864823692675300,6.86767529296875,-0.7827520966529846,-9.515657424926758,2.0452651977539062
1701864823702268700,6.8772685546875,-0.7205387353897095,-9.573084831237793,2.0620148181915283
1701864823711861200,6.886861328125,-1.2089736461639404,-9.675976753234863,2.1649062633514404
1701864823721453000,6.896453125,-1.2448660135269165,-9.992128372192383,2.2896320819854736
1701864823731045600,6.906045654296875,-0.8736793398857117,-10.372587203979492,2.53609299659729
1701864823740639000,6.915638916015625,-0.6966105103492737,-10.671989440917969,2.488236427307129
1701864823750231600,6.9252314453125,-0.12921242415905,-10.791629791259766,2.162513494491577
1701864823759823400,6.9348232421875,0.3209373354911804,-10.351051330566406,1.7270197868347168
1701864823769416000,6.944416015625,0.17497515678405762,-9.824331283569336,1.1835498809814453
1701864823779009300,6.95400927734375,-0.07178468257188797,-9.144471168518066,0.8243274092674255
1701864823788601900,6.963601806640625,-0.7061817646026611,-8.857332229614258,0.6759724020957947
1701864823798193700,6.973193603515625,-1.43389892578125,-8.670392990112305,0.7214360237121582
1701864823807786200,6.9827861328125,-1.989332914352417,-8.8740816116333,0.9631111025810242
1701864823817379600,6.992379638671875,-1.9127626419067383,-9.15404224395752,1.0301101207733154
1701864823826972200,7.00197216796875,-1.6636099815368652,-9.36461067199707,1.073180913925171
1701864823836564000,7.01156396484375,-1.342971682548523,-9.503693580627441,1.1955139636993408
1701864823846156500,7.021156494140625,-0.7755736112594604,-9.1085786819458,1.3103694915771484
1701864823855750000,7.03075,-0.380458801984787,-7.767999649047852,1.1572288274765015
1701864823865342500,7.040342529296875,-0.5958128571510315,-7.013662338256836,1.3103694915771484
1701864823874934300,7.049934326171875,-0.9406784176826477,-7.1524457931518555,1.6118651628494263
1701864823884526800,7.05952685546875,-1.2161520719528198,-7.837391376495361,1.9974087476730347
1701864823894120200,7.0691201171875,-1.7285152673721313,-9.079864501953125,2.213061809539795
1701864823903712800,7.078712646484375,-1.92951238155365,-10.185946464538574,2.2393829822540283
1701864823913304300,7.08830419921875,-2.5016961097717285,-10.291231155395508,2.0165512561798096
1701864823922897200,7.097897216796875,-1.1201400756835938,-9.747760772705078,1.4611172676086426
1701864823932490500,7.107490478515625,-1.3262219429016113,-9.125328063964844,1.8801604509353638
1701864823942083000,7.1170830078125,-1.8242281675338745,-8.746963500976562,1.9926230907440186
1701864823951675000,7.1266748046875,-1.8409779071807861,-8.988937377929688,2.076371908187866
1701864823961267500,7.136267333984375,-1.80508553981781,-9.201898574829102,2.1816561222076416
1701864823970860800,7.14586083984375,-2.2310080528259277,-9.740582466125488,2.152942180633545
1701864823980453000,7.155453125,-2.1281166076660156,-10.540383338928223,1.815554141998291
1701864823990045200,7.165045166015625,-1.5391831398010254,-10.60977554321289,1.8490537405014038
1701864823999637500,7.174637451171875,-1.0890333652496338,-10.351051330566406,1.7581263780593872
1701864824009231000,7.184231201171875,-1.9438693523406982,-9.972686767578125,1.6357933282852173
1701864824018823700,7.19382373046875,-1.563111424446106,-9.987342834472656,1.6166508197784424
1701864824028415500,7.20341552734375,-1.319043517112732,-9.699904441833496,1.5927225351333618
1701864824038007800,7.2130078125,-1.8409779071807861,-9.876974105834961,1.4778671264648438
1701864824047601400,7.222601318359375,-1.1416754722595215,-10.173982620239258,2.1361923217773438
1701864824057194000,7.232194091796875,-1.92951238155365,-10.209875106811523,2.0787646770477295
1701864824066785500,7.24178564453125,-2.863311290740967,-10.686346054077148,1.6166508197784424
1701864824076378400,7.25137841796875,-3.868596076965332,-10.84427261352539,1.3558331727981567
1701864824085971700,7.2609716796875,-2.695514678955078,-10.418050765991211,1.9639091491699219
1701864824095564300,7.270564208984375,-3.01405930519104,-9.817152976989746,2.2968106269836426
1701864824105155800,7.28015576171875,-4.139284133911133,-10.08305549621582,2.741875648498535
1701864824114748400,7.28974853515625,-4.610969066619873,-10.939985275268555,3.357429265975952
1701864824124342000,7.299342041015625,-4.682754039764404,-11.435598373413086,4.030111312866211
1701864824133934300,7.308934326171875,-4.29960298538208,-11.440383911132812,4.415356159210205
1701864824143526100,7.318526123046875,-3.8662030696868896,-11.28485107421875,4.544867515563965
1701864824153118700,7.32811865234375,-3.892524242401123,-11.220244407653809,4.3483567237854
1701864824162712300,7.33771240234375,-4.280460834503174,-11.18195915222168,4.432105541229248
1701864824172304600,7.3473046875,-4.709074974060059,-11.09073257446289,4.6286163330078125
1701864824181896700,7.356896728515625,-4.895715236663818,-10.791629791259766,4.726722240447998
1701864824191489000,7.366489013671875,-4.687539577484131,-10.401301383972168,4.678865432739258
1701864824201082600,7.37608251953125,-4.414458751678467,-10.037591934204102,4.575973987579346
1701864824210675000,7.385675048828125,-4.017250061035156,-9.659226417541504,4.480261325836182
1701864824220266800,7.395266845703125,-3.6269209384918213,-9.244969367980957,4.274179458618164
1701864824229859600,7.404859619140625,-3.3394830226898193,-8.770891189575195,3.9487555027008057
1701864824239453000,7.414452880859375,-3.148057222366333,-8.138887405395508,3.639782428741455
1701864824249045500,7.42404541015625,-3.3394830226898193,-7.6289167404174805,3.498605728149414
1701864824258637000,7.433636962890625,-3.6843485832214355,-7.250850677490234,3.536890983581543
1701864824268229600,7.443229736328125,-4.065106391906738,-6.939484596252441,3.6110684871673584
1701864824277823200,7.4528232421875,-4.29960298538208,-6.714559555053711,3.8168511390686035
1701864824287415600,7.46241552734375,-4.541577339172363,-6.486942291259766,4.025325775146484
1701864824297007400,7.47200732421875,-4.838287353515625,-6.45822811126709,4.264608383178711
1701864824306600000,7.481599853515625,-5.266901969909668,-6.510870456695557,4.537689208984375
1701864824316193500,7.491193603515625,-5.901298999786377,-6.807879447937012,5.320441246032715
1701864824325785900,7.500785888671875,-6.195616245269775,-7.142874717712402,5.871089458465576
1701864824335377700,7.510377685546875,-6.339484691619873,-7.4015984535217285,6.285346984863281
1701864824344970500,7.519970458984375,-6.147759437561035,-7.456633567810059,6.543771743774414
1701864824354563600,7.5295634765625,-5.925227165222168,-7.193423271179199,6.613163471221924
1701864824364156200,7.53915625,-5.7720866203308105,-6.645167350769043,6.347560405731201
1701864824373748000,7.548748046875,-5.750551223754883,-6.0849480628967285,6.503093719482422
1701864824383340800,7.5583408203125,-6.0879387855529785,-5.66829776763916,6.237490653991699
1701864824392934100,7.56793408203125,-6.315556049346924,-5.002793788909912,6.036194324493408
1701864824402526500,7.5775263671875,-6.648158550262451,-4.293920040130615,6.079265117645264
1701864824412118300,7.5871181640625,-7.0648088455200195,-3.602095365524292,5.9907307624816895
1701864824421710800,7.5967109375,-7.419245719909668,-3.1854450702667236,5.930910110473633
1701864824431304400,7.606304443359375,-7.59870719909668,-2.998805046081543,6.32363224029541
1701864824440896800,7.615896728515625,-7.129415035247803,-2.9964120388031006,6.096014976501465
1701864824450488600,7.625488525390625,-6.449554443359375,-3.053839921951294,5.7634124755859375
1701864824460081200,7.6350810546875,-6.116652965545654,-3.2982068061828613,5.6916279792785645
1701864824469674500,7.644674560546875,-5.985047817230225,-3.791128396987915,5.844768524169922
1701864824479267000,7.65426708984375,-6.008975982666016,-4.315455436706543,6.060122489929199
1701864824488859000,7.66385888671875,-5.863013744354248,-4.631607532501221,6.165705680847168
1701864824498451500,7.673451416015625,-5.824728488922119,-4.837389945983887,6.081657886505127
1701864824508044800,7.683044921875,-5.9539408683776855,-5.2181477546691895,5.895017623901367
1701864824517637400,7.692637451171875,-6.119045734405518,-5.48375129699707,5.8734822273254395
1701864824527229200,7.702229248046875,-6.267699718475342,-5.716154098510742,5.830411434173584
1701864824536821800,7.71182177734375,-6.277271270751953,-5.898008823394775,5.792126178741455
1701864824546415000,7.7214150390625,-5.9922261238098145,-6.1399827003479,5.674878120422363
1701864824556007700,7.731007568359375,-6.15254545211792,-6.297909259796143,5.983551979064941
1701864824565599500,7.740599609375,-5.851049423217773,-6.297909259796143,5.780162334442139
1701864824575192000,7.750192138671875,-5.585147380828857,-6.094519138336182,5.619843006134033
1701864824584785400,7.759785400390625,-5.534897804260254,-5.833402633666992,5.389832973480225
1701864824594378000,7.7693779296875,-5.37697172164917,-5.5127644538879395,5.076373100280762
1701864824603969800,7.7789697265625,-5.305186748504639,-5.117649555206299,4.635794639587402
1701864824613562400,7.788562255859375,-5.2166523933410645,-4.811069011688232,4.6525444984436035
1701864824623155700,7.79815576171875,-5.43918514251709,-4.691427707672119,4.7865424156188965
1701864824632748300,7.807748291015625,-5.630610942840576,-4.660321235656738,5.011467933654785
1701864824642340000,7.817340087890625,-5.84865665435791,-4.679463863372803,5.30847692489624
1701864824651932700,7.8269326171875,-5.968297958374023,-4.784748077392578,5.717948913574219
1701864824661526000,7.836526123046875,-6.080760478973389,-4.986044406890869,6.050550937652588
1701864824671118600,7.84611865234375,-6.126224040985107,-5.182255744934082,6.371488571166992
1701864824680710400,7.85571044921875,-6.030511379241943,-5.419145107269287,6.536593437194824
1701864824690303000,7.865302978515625,-5.944369792938232,-5.457430362701416,6.383452415466309
1701864824699896300,7.874896240234375,-5.860620975494385,-5.304289817810059,6.093621730804443
1701864824709489000,7.884489013671875,-5.774479389190674,-5.069792747497559,5.981159210205078
1701864824719080700,7.894080810546875,-5.839085578918457,-4.492823600769043,5.744269847869873
1701864824728673300,7.90367333984375,-5.815157413482666,-4.121636867523193,5.717948913574219
1701864824738266600,7.9132666015625,-5.815157413482666,-3.9254255294799805,5.765805244445801
1701864824747859200,7.922859130859375,-5.817550182342529,-3.8392839431762695,5.997909069061279
1701864824757451000,7.932450927734375,-5.803193092346191,-3.7767715454101562,6.148955821990967
1701864824767043600,7.942043701171875,-5.669195175170898,-3.8006997108459473,6.32363224029541
1701864824776637000,7.951636962890625,-5.616253852844238,-3.906282901763916,6.366703033447266
1701864824786229500,7.9612294921875,-5.544469356536865,-4.0426740646362305,6.357131481170654
1701864824795821300,7.9708212890625,-5.396114349365234,-4.269991874694824,6.383452415466309
1701864824805414000,7.980413818359375,-5.362614631652832,-4.464109897613525,6.5150580406188965
1701864824815007200,7.99000732421875,-5.388935565948486,-4.729712963104248,6.57966423034668
1701864824824599800,7.999599853515625,-5.503791332244873,-5.0362935066223145,6.601199626922607
1701864824834191600,8.009191650390624,-5.666802406311035,-5.316253662109375,6.570092678070068
1701864824843784200,8.0187841796875,-5.7888360023498535,-5.54387092590332,6.479165554046631
1701864824853377500,8.02837744140625,-5.803193092346191,-5.570191860198975,6.474380016326904
1701864824862970000,8.03797021484375,-5.839085578918457,-5.553442478179932,6.443273067474365
1701864824872562000,8.04756201171875,-5.932405471801758,-5.713761329650879,6.369095802307129
1701864824882154500,8.057154541015626,-5.90369176864624,-5.716154098510742,6.119943141937256
1701864824891747800,8.066747802734374,-5.8582282066345215,-5.704190254211426,5.8351969718933105
1701864824901340400,8.07634033203125,-5.812764644622803,-5.7257256507873535,5.641378402709961
1701864824910932200,8.08593212890625,-5.72422981262207,-5.706583023071289,5.499902725219727
1701864824920524800,8.09552490234375,-5.66201639175415,-5.673083305358887,5.416153907775879
1701864824930118100,8.1051181640625,-5.637789249420166,-5.663512229919434,5.392225742340088
1701864824939710700,8.114710693359376,-5.611468315124512,-5.665904998779297,5.413761138916016
1701864824949302500,8.124302490234374,-5.664409637451172,-5.637190818786621,5.480760097503662
1701864824958895000,8.13389501953125,-5.726622581481934,-5.6084771156311035,5.545366287231445
1701864824968488400,8.143488525390625,-5.817550182342529,-5.574977874755859,5.61745023727417
1701864824978081000,8.1530810546875,-5.90369176864624,-5.529513835906982,5.684449195861816
1701864824987672800,8.1626728515625,-5.946762561798096,-5.491229057312012,5.694020748138428
1701864824997265400,8.172265380859375,-6.001797199249268,-5.435894966125488,5.7394843101501465
1701864825006858800,8.181858642578124,-6.09033203125,-5.402395248413086,5.698806285858154
1701864825016451300,8.191451416015624,-6.277271270751953,-5.313860893249512,5.662913799285889
1701864825026043100,8.201043212890625,-6.008975982666016,-5.280361175537109,5.727519989013672
1701864825035635700,8.2106357421875,-5.748157978057861,-5.232504844665527,5.828018665313721
1701864825045229000,8.22022900390625,-5.7720866203308105,-5.136792182922363,5.880660533905029
1701864825054821600,8.229821533203125,-5.982655048370361,-5.014758110046387,5.732305526733398
1701864825064413400,8.239413330078126,-6.121438503265381,-5.074578762054443,5.720341682434082
1701864825074006000,8.249006103515624,-5.927619934082031,-5.120042324066162,5.753840923309326
1701864825083599400,8.258599365234375,-5.688337802886963,-5.127220630645752,5.799304962158203
1701864825093192000,8.26819189453125,-5.6548380851745605,-5.165505886077881,5.930910110473633
1701864825102783700,8.27778369140625,-5.700301647186279,-5.242076396942139,6.012266159057617
1701864825112376300,8.287376220703125,-5.671587944030762,-5.321039199829102,6.052944183349609
1701864825121969700,8.2969697265625,-5.510969638824463,-5.287539958953857,6.005087375640869
1701864825131562200,8.306562255859374,-5.556433200836182,-5.213362216949463,5.954838275909424
1701864825141154000,8.316154052734374,-5.709873199462891,-5.2013983726501465,5.918945789337158
1701864825150746600,8.32574658203125,-5.836692810058594,-5.232504844665527,5.962016582489014
1701864825160340000,8.335340087890625,-5.889334678649902,-5.268397331237793,6.026622772216797
1701864825169932500,8.3449326171875,-5.896512985229492,-5.251647472381592,6.048158168792725
1701864825179524400,8.3545244140625,-5.894120216369629,-5.199005603790283,6.0385870933532715
1701864825189117000,8.364116943359376,-5.745765209197998,-5.155934810638428,5.947659969329834
1701864825198710300,8.373710205078124,-5.666802406311035,-5.105685234069824,5.871089458465576
1701864825208302800,8.383302734375,-5.673980712890625,-5.091328144073486,5.842375755310059
1701864825217894700,8.392894775390625,-5.707480430603027,-5.127220630645752,5.8734822273254395
1701864825227487200,8.4024873046875,-5.745765209197998,-5.153541564941406,5.895017623901367
1701864825237080600,8.41208056640625,-5.810371398925781,-5.194219589233398,5.909374713897705
1701864825246673200,8.421673095703126,-5.8821563720703125,-5.2181477546691895,5.938088417053223
1701864825256265000,8.431264892578126,-5.946762561798096,-5.227719306945801,5.930910110473633
1701864825265857500,8.440857421875,-5.970690727233887,-5.227719306945801,5.890232086181641
1701864825275451000,8.450450927734375,-5.96590518951416,-5.222933769226074,5.842375755310059
1701864825285043500,8.46004345703125,-5.946762561798096,-5.196612358093262,5.792126178741455
1701864825294635300,8.46963525390625,-5.944369792938232,-5.179862976074219,5.746662616729736
1701864825304227800,8.479227783203125,-5.934798240661621,-5.155934810638428,5.720341682434082
1701864825313821200,8.4888212890625,-5.932405471801758,-5.158327579498291,5.720341682434082
1701864825323413800,8.498413818359374,-5.937191009521484,-5.143970489501953,5.727519989013672
1701864825333005600,8.508005615234374,-5.934798240661621,-5.146363258361816,5.732305526733398
1701864825342598100,8.51759814453125,-5.908477306365967,-5.14157772064209,5.722734451293945
1701864825352191500,8.52719140625,-5.90369176864624,-5.155934810638428,5.732305526733398
1701864825361784000,8.5367841796875,-5.894120216369629,-5.189434051513672,5.753840923309326
1701864825371375600,8.546375732421875,-5.891727447509766,-5.170291423797607,5.768198013305664
1701864825380968400,8.555968505859376,-5.865406513214111,-5.191826820373535,5.8112688064575195
1701864825390561800,8.565561767578124,-5.865406513214111,-5.222933769226074,5.861518383026123
1701864825400154400,8.575154296875,-5.8749775886535645,-5.194219589233398,5.861518383026123
1701864825409746200,8.58474609375,-5.84865665435791,-5.2109694480896,5.911767482757568
1701864825419338800,8.5943388671875,-5.846263885498047,-5.179862976074219,5.902195930480957
1701864825428932000,8.60393212890625,-5.812764644622803,-5.163113117218018,5.878267765045166
1701864825438524700,8.613524658203126,-5.796014785766602,-5.155934810638428,5.861518383026123
1701864825448116500,8.623116455078126,-5.784050464630127,-5.14157772064209,5.851946830749512
1701864825457708800,8.632708740234374,-5.774479389190674,-5.1343994140625,5.832804203033447
1701864825467302400,8.642302490234375,-5.7720866203308105,-5.184648513793945,5.895017623901367
1701864825476895000,8.65189501953125,-5.7888360023498535,-5.2109694480896,5.914160251617432
1701864825486486800,8.66148681640625,-5.824728488922119,-5.187041282653809,5.8974103927612305
1701864825496079400,8.671079345703125,-5.846263885498047,-5.153541564941406,5.895017623901367
1701864825505672700,8.680672607421876,-5.839085578918457,-5.14157772064209,5.895017623901367
1701864825515265300,8.690265380859374,-5.836692810058594,-5.1152567863464355,5.875874996185303
1701864825524856800,8.69985693359375,-5.829514026641846,-5.208576679229736,5.985944747924805
1701864825534449700,8.70944970703125,-5.831906795501709,-5.182255744934082,5.942873954772949
1701864825544043000,8.71904296875,-5.798407554626465,-5.163113117218018,5.899803161621094
1701864825553635600,8.728635498046875,-5.793622016906738,-5.14875602722168,5.883053779602051
1701864825563227100,8.73822705078125,-5.745765209197998,-5.110470771789551,5.856732368469238
1701864825572819700,8.74781982421875,-5.714658737182617,-5.170291423797607,5.909374713897705
1701864825582413300,8.757413330078125,-5.7170515060424805,-5.220541000366211,5.9285173416137695
1701864825592005600,8.767005615234375,-5.7170515060424805,-5.280361175537109,5.9524455070495605
1701864825601597400,8.776597412109375,-5.733801364898682,-5.242076396942139,5.895017623901367
1701864825611190000,8.78618994140625,-5.714658737182617,-5.254040241241455,5.890232086181641
1701864825620783600,8.79578369140625,-5.733801364898682,-5.2492547035217285,5.868696689605713
1701864825630376000,8.8053759765625,-5.738586902618408,-5.244469165802002,5.849554061889648
1701864825639967700,8.8149677734375,-5.752943992614746,-5.208576679229736,5.777769565582275
1701864825649560600,8.824560546875,-5.755336761474609,-5.26600456237793,5.837589740753174
1701864825659154000,8.83415380859375,-5.793622016906738,-5.294718265533447,5.823233127593994
1701864825668746200,8.843746337890625,-5.815157413482666,-5.3353962898254395,5.839982986450195
1701864825678338000,8.853338134765625,-5.831906795501709,-5.277968406677246,5.792126178741455
1701864825687931000,8.862930908203126,-5.846263885498047,-5.263611793518066,5.792126178741455
1701864825697524200,8.872524169921874,-5.9060845375061035,-5.270790100097656,5.7634124755859375
1701864825707116500,8.882116455078124,-5.78644323348999,-5.230112075805664,5.820840358734131
1701864825716708400,8.891708251953125,-5.853442192077637,-5.220541000366211,5.80409049987793
1701864825726301000,8.901301025390625,-5.867799282073975,-5.220541000366211,5.825625896453857
1701864825735894500,8.91089453125,-5.851049423217773,-5.215754985809326,5.832804203033447
1701864825745486800,8.92048681640625,-5.819942951202393,-5.208576679229736,5.851946830749512
1701864825755078700,8.93007861328125,-5.805585861206055,-5.191826820373535,5.861518383026123
1701864825764671200,8.939671142578124,-5.798407554626465,-5.182255744934082,5.895017623901367
1701864825774264600,8.9492646484375,-5.774479389190674,-5.191826820373535,5.887839317321777
1701864825783857200,8.958857177734375,-5.743372440338135,-5.2013983726501465,5.914160251617432
1701864825793449000,8.968448974609375,-5.733801364898682,-5.2013983726501465,5.902195930480957
1701864825803041800,8.978041748046875,-5.731408596038818,-5.194219589233398,5.9213385581970215
1701864825812635100,8.98763525390625,-5.736194133758545,-5.20379114151001,5.950052738189697
1701864825822227500,8.9972275390625,-5.736194133758545,-5.2013983726501465,5.95962381362915
1701864825831819300,9.0068193359375,-5.721837043762207,-5.191826820373535,5.954838275909424
1701864825841411800,9.016411865234375,-5.712265968322754,-5.187041282653809,5.950052738189697
1701864825851005400,9.02600537109375,-5.736194133758545,-5.206183910369873,5.966802597045898
1701864825860597800,9.03559765625,-5.762515068054199,-5.2253265380859375,5.95962381362915
1701864825870189600,9.045189453125,-5.743372440338135,-5.232504844665527,5.954838275909424
1701864825879782100,9.0547822265625,-5.712265968322754,-5.234897613525391,5.957231044769287
1701864825889375700,9.064375732421874,-5.688337802886963,-5.237290382385254,5.933302879333496
1701864825898968000,9.073968017578125,-5.671587944030762,-5.2492547035217285,5.923731327056885
1701864825908560000,9.083559814453125,-5.652445316314697,-5.256433010101318,5.914160251617432
1701864825918152400,9.09315234375,-5.637789249420166,-5.244469165802002,5.914160251617432
1701864825927745800,9.102745849609375,-5.650052547454834,-5.246861934661865,5.9285173416137695
1701864825937338400,9.11233837890625,-5.659623622894287,-5.244469165802002,5.933302879333496
1701864825946930200,9.12193017578125,-5.666802406311035,-5.2492547035217285,5.9452667236328125
1701864825956522800,9.131522705078124,-5.690730571746826,-5.2492547035217285,5.9452667236328125
1701864825966116000,9.1411162109375,-5.6931233406066895,-5.237290382385254,5.9524455070495605
1701864825975708700,9.150708740234375,-5.702694416046143,-5.2181477546691895,5.942873954772949
1701864825985300500,9.160300537109375,-5.721837043762207,-5.2181477546691895,5.935695648193359
1701864825994893000,9.16989306640625,-5.707480430603027,-5.2253265380859375,5.930910110473633
1701864826004486400,9.179486328125,-5.733801364898682,-5.220541000366211,5.923731327056885
1701864826014079000,9.189078857421874,-5.729015827178955,-5.2181477546691895,5.923731327056885
1701864826023670800,9.1986708984375,-5.736194133758545,-5.220541000366211,5.9285173416137695
1701864826033263400,9.208263427734375,-5.745765209197998,-5.2253265380859375,5.916553020477295
1701864826042856700,9.217856689453125,-5.757729530334473,-5.2181477546691895,5.918945789337158
1701864826052449300,9.22744921875,-5.762515068054199,-5.189434051513672,5.899803161621094
1701864826062041000,9.237041015625,-5.776872158050537,-5.1320061683654785,5.871089458465576
1701864826071633700,9.246633544921876,-5.752943992614746,-5.232504844665527,5.9285173416137695
1701864826081227000,9.25622705078125,-5.7649078369140625,-5.175076961517334,5.8974103927612305
1701864826090819600,9.265819580078125,-5.7649078369140625,-5.208576679229736,5.911767482757568
1701864826100411400,9.275411376953125,-5.743372440338135,-5.239683151245117,5.9045891761779785
1701864826110004000,9.28500390625,-5.7409796714782715,-5.306682586669922,5.9285173416137695
1701864826119597300,9.294597412109376,-5.745765209197998,-5.230112075805664,5.890232086181641
1701864826129190000,9.30418994140625,-5.760122299194336,-5.258825778961182,5.86630392074585
1701864826138781700,9.31378173828125,-5.748157978057861,-5.256433010101318,5.883053779602051
1701864826148374300,9.323374267578124,-5.760122299194336,-5.261219024658203,5.8974103927612305
1701864826157967600,9.332967529296875,-5.762515068054199,-5.261219024658203,5.892624855041504
1701864826167560200,9.342560302734375,-5.755336761474609,-5.261219024658203,5.902195930480957
1701864826177152000,9.352152099609375,-5.736194133758545,-5.26600456237793,5.9045891761779785
1701864826186744600,9.36174462890625,-5.729015827178955,-5.244469165802002,5.906981945037842
1701864826196338000,9.371337890625,-5.72422981262207,-5.246861934661865,5.9213385581970215
1701864826205930500,9.380930419921874,-5.719444274902344,-5.239683151245117,5.899803161621094
1701864826215522300,9.390522216796874,-5.750551223754883,-5.230112075805664,5.9213385581970215
1701864826225115000,9.400114990234375,-5.707480430603027,-5.239683151245117,5.916553020477295
1701864826234708200,9.409708251953125,-5.673980712890625,-5.2253265380859375,5.9213385581970215
1701864826244300800,9.41930078125,-5.666802406311035,-5.208576679229736,5.935695648193359
1701864826253892600,9.428892578125,-5.695516109466553,-5.227719306945801,5.962016582489014
1701864826263485200,9.438485107421876,-5.709873199462891,-5.2253265380859375,5.95962381362915
1701864826273078500,9.44807861328125,-5.700301647186279,-5.220541000366211,5.981159210205078
1701864826282671000,9.457671142578125,-5.702694416046143,-5.2181477546691895,5.971588134765625
1701864826292263000,9.467262939453125,-5.700301647186279,-5.237290382385254,5.95962381362915
1701864826301855500,9.47685546875,-5.697908878326416,-5.242076396942139,5.964409351348877
1701864826311448800,9.48644873046875,-5.6859450340271,-5.246861934661865,5.964409351348877
1701864826321041400,9.49604150390625,-5.666802406311035,-5.251647472381592,5.95962381362915
1701864826330633200,9.50563330078125,-5.669195175170898,-5.251647472381592,5.962016582489014
1701864826340225800,9.515225830078125,-5.683551788330078,-5.234897613525391,5.962016582489014
1701864826349819100,9.524819091796875,-5.673980712890625,-5.242076396942139,5.973980903625488
1701864826359411700,9.53441162109375,-5.650052547454834,-5.244469165802002,5.981159210205078
1701864826369003500,9.54400341796875,-5.664409637451172,-5.2492547035217285,5.983551979064941
1701864826378596000,9.55359619140625,-5.666802406311035,-5.242076396942139,5.971588134765625
1701864826388189400,9.563189453125,-5.671587944030762,-5.20379114151001,5.930910110473633
1701864826397782000,9.572781982421875,-5.683551788330078,-5.160720348358154,5.933302879333496
1701864826407373800,9.582373779296875,-5.671587944030762,-5.194219589233398,5.938088417053223
1701864826416966400,9.59196630859375,-5.762515068054199,-5.120042324066162,5.938088417053223
1701864826426559700,9.601559814453125,-5.709873199462891,-5.222933769226074,5.995516300201416
1701864826436152300,9.61115234375,-5.752943992614746,-5.270790100097656,6.005087375640869
1701864826445744000,9.620744140625,-5.831906795501709,-5.160720348358154,5.938088417053223
1701864826455336700,9.630336669921874,-5.805585861206055,-5.172684192657471,5.926124572753906
1701864826464930000,9.639929931640625,-5.7792649269104,-5.213362216949463,5.911767482757568
1701864826474522600,9.649522705078125,-5.760122299194336,-5.2181477546691895,5.895017623901367
1701864826484114400,9.659114501953125,-5.736194133758545,-5.282754421234131,5.883053779602051
1701864826493707000,9.66870703125,-5.733801364898682,-5.325825214385986,5.856732368469238
1701864826503300400,9.67830029296875,-5.719444274902344,-5.36650276184082,5.844768524169922
1701864826512893000,9.687892822265624,-5.6859450340271,-5.392824172973633,5.832804203033447
1701864826522484700,9.697484619140624,-5.652445316314697,-5.371288776397705,5.818447589874268
1701864826532077300,9.707077392578125,-5.659623622894287,-5.455037593841553,5.902195930480957
1701864826541670700,9.716670654296875,-5.683551788330078,-5.397609710693359,5.890232086181641
1701864826551263200,9.72626318359375,-5.705087184906006,-5.378467082977295,5.926124572753906
1701864826560855000,9.73585498046875,-5.683551788330078,-5.344967365264893,5.899803161621094
1701864826570447600,9.745447509765626,-5.664409637451172,-5.311468124389648,5.918945789337158
1701864826580041000,9.755041015625,-5.637789249420166,-5.395216941833496,6.009873390197754
1701864826589633500,9.764633544921875,-5.6548380851745605,-5.330610752105713,5.969195365905762
1701864826599225300,9.774225341796875,-5.628218173980713,-5.258825778961182,5.983551979064941
1701864826608818000,9.78381787109375,-5.628218173980713,-5.2181477546691895,5.971588134765625
1701864826618411300,9.793411376953125,-5.618646621704102,-5.163113117218018,5.940481185913086
1701864826628003800,9.80300390625,-5.609075546264648,-5.304289817810059,6.057729721069336
1701864826637595600,9.812595703125,-5.625824928283691,-5.234897613525391,6.024230003356934
1701864826647188200,9.822188232421874,-5.616253852844238,-5.222933769226074,6.0146589279174805
1701864826656781600,9.831781494140625,-5.616253852844238,-5.227719306945801,6.017051696777344
1701864826666374100,9.8413740234375,-5.628218173980713,-5.2013983726501465,6.02183723449707
1701864826675966000,9.850966064453125,-5.637789249420166,-5.170291423797607,6.02901554107666
1701864826685558500,9.86055859375,-5.644967555999756,-5.2013983726501465,6.0768723487854
1701864826695151900,9.87015185546875,-5.664409637451172,-5.189434051513672,6.069693565368652
1701864826704744400,9.879744384765624,-5.66201639175415,-5.191826820373535,6.067300796508789
1701864826714336300,9.889336181640624,-5.635396480560303,-5.191826820373535,6.067300796508789
1701864826723928800,9.8989287109375,-5.599503993988037,-5.179862976074219,6.055336952209473
1701864826733522200,9.908522216796875,-5.573183059692383,-5.139184951782227,6.02901554107666
1701864826743114800,9.91811474609375,-5.542076110839844,-5.199005603790283,6.050550937652588
1701864826752706600,9.92770654296875,-5.542076110839844,-5.232504844665527,6.050550937652588
1701864826762299100,9.937299072265626,-5.566004753112793,-5.187041282653809,6.052944183349609
1701864826771892500,9.946892578125,-5.575575828552246,-5.167898654937744,6.012266159057617
1701864826781485000,9.956485107421875,-5.5947184562683105,-5.158327579498291,6.043372631072998
1701864826791076900,9.966076904296875,-5.5468621253967285,-5.268397331237793,6.09122896194458
1701864826800669400,9.97566943359375,-5.558825969696045,-5.299503803253174,6.100800514221191
1701864826810262800,9.9852626953125,-5.573183059692383,-5.251647472381592,6.060122489929199
1701864826819855400,9.99485546875,-5.566004753112793,-5.237290382385254,6.033801555633545
1701864826829447200,10.004447265625,-5.611468315124512,-5.175076961517334,5.957231044769287
1701864826839039700,10.014039794921874,-5.556433200836182,-5.304289817810059,6.005087375640869
1701864826848633000,10.023633056640625,-5.577968597412109,-5.333003520965576,5.976373672485352
1701864826858225700,10.0332255859375,-5.604289531707764,-5.347360610961914,5.962016582489014
1701864826867817500,10.0428173828125,-5.66201639175415,-5.330610752105713,5.923731327056885
1701864826877410000,10.05241015625,-5.719444274902344,-5.234897613525391,5.8351969718933105
1701864826887003400,10.06200341796875,-5.769693374633789,-5.244469165802002,5.828018665313721
1701864826896596000,10.071595947265624,-5.745765209197998,-5.352146148681641,5.8734822273254395
1701864826906187800,10.081187744140625,-5.7720866203308105,-5.395216941833496,5.878267765045166
1701864826915780400,10.0907802734375,-5.810371398925781,-5.3593244552612305,5.830411434173584
1701864826925373700,10.100373779296875,-5.793622016906738,-5.313860893249512,5.765805244445801
1701864826934966300,10.10996630859375,-5.774479389190674,-5.311468124389648,5.751448154449463
1701864826944558000,10.11955810546875,-5.748157978057861,-5.333003520965576,5.756234169006348
1701864826954150700,10.129150634765624,-5.726622581481934,-5.301896572113037,5.758626937866211
1701864826963744000,10.138743896484375,-5.736194133758545,-5.354538917541504,5.794518947601318
1701864826973336600,10.148336669921875,-5.726622581481934,-5.342574596405029,5.828018665313721
1701864826982928400,10.157928466796875,-5.731408596038818,-5.354538917541504,5.885446548461914
1701864826992521000,10.16752099609375,-5.748157978057861,-5.232504844665527,5.8112688064575195
1701864827002114300,10.1771142578125,-5.72422981262207,-5.318646430969238,5.981159210205078
1701864827011707000,10.186706787109374,-5.6931233406066895,-5.309075355529785,5.971588134765625
1701864827021298700,10.196298583984374,-5.6330037117004395,-5.411966800689697,6.009873390197754
1701864827030891300,10.205891357421875,-5.5947184562683105,-5.411966800689697,6.024230003356934
1701864827040484600,10.215484619140625,-5.589932918548584,-5.294718265533447,5.981159210205078
1701864827050077200,10.2250771484375,-5.575575828552246,-5.234897613525391,6.012266159057617
1701864827059669000,10.2346689453125,-5.589932918548584,-5.2109694480896,6.040979862213135
1701864827069261600,10.244261474609376,-5.556433200836182,-5.139184951782227,6.007480144500732
1701864827078855000,10.25385498046875,-5.410470962524414,-4.665106773376465,5.595914840698242
1701864827088447500,10.263447509765625,-5.839085578918457,-5.220541000366211,6.3978095054626465
1701864827098039300,10.273039306640625,-5.549254894256592,-5.589334487915039,6.280561447143555
1701864827107631900,10.2826318359375,-5.6330037117004395,-5.208576679229736,6.08405065536499
1701864827117225200,10.29222509765625,-5.66201639175415,-5.096114158630371,6.026622772216797
1701864827126817800,10.30181787109375,-5.621039390563965,-5.1320061683654785,6.000301837921143
1701864827136409600,10.31140966796875,-5.585147380828857,-5.069792747497559,5.911767482757568
1701864827146002200,10.321002197265624,-5.666802406311035,-5.062614440917969,5.95962381362915
1701864827155595500,10.330595458984375,-5.913262844085693,-5.459823131561279,6.1342997550964355
1701864827165188000,10.34018798828125,-5.757729530334473,-5.330610752105713,5.854339599609375
1701864827174780000,10.34977978515625,-5.865406513214111,-5.309075355529785,5.8112688064575195
1701864827184372500,10.35937255859375,-5.7649078369140625,-5.299503803253174,5.768198013305664
1701864827193965800,10.3689658203125,-5.714658737182617,-5.409573554992676,5.820840358734131
1701864827203558400,10.378558349609374,-5.726622581481934,-5.337789058685303,5.7634124755859375
1701864827213150200,10.388150146484374,-5.743372440338135,-5.321039199829102,5.794518947601318
1701864827222742800,10.39774267578125,-5.757729530334473,-5.316253662109375,5.789733409881592
1701864827232336100,10.407336181640625,-5.760122299194336,-5.313860893249512,5.784947872161865
1701864827241928700,10.4169287109375,-5.762515068054199,-5.321039199829102,5.799304962158203
1701864827251520500,10.4265205078125,-5.745765209197998,-5.32821798324585,5.794518947601318
1701864827261113000,10.436113037109376,-5.755336761474609,-5.325825214385986,5.792126178741455
1701864827270706400,10.44570654296875,-5.733801364898682,-5.32821798324585,5.784947872161865
1701864827280299000,10.455299072265625,-5.683551788330078,-5.1343994140625,5.612664699554443
1701864827289890800,10.464890869140625,-5.623432159423828,-5.1080780029296875,5.581557750701904
1701864827299483400,10.4744833984375,-5.573183059692383,-5.285147190093994,5.744269847869873
1701864827309076700,10.48407666015625,-5.589932918548584,-5.462215900421143,5.962016582489014
1701864827318669300,10.49366943359375,-5.91804838180542,-5.795117378234863,6.3499531745910645
1701864827328261000,10.50326123046875,-5.985047817230225,-5.620441436767578,6.371488571166992
1701864827337853700,10.512853759765624,-5.707480430603027,-4.940580368041992,5.576473236083984
1701864827347447000,10.522447021484375,-5.652445316314697,-4.0833516120910645,5.064409255981445
1701864827357039600,10.53203955078125,-5.997011661529541,-5.026721954345703,5.966802597045898
1701864827366631400,10.54163134765625,-5.7649078369140625,-5.294718265533447,6.156134605407715
1701864827376224000,10.55122412109375,-5.518147945404053,-5.376074314117432,5.880660533905029
1701864827385817300,10.5608173828125,-5.520540714263916,-5.496014595031738,5.918945789337158
1701864827395410000,10.570409912109374,-5.659623622894287,-5.426323413848877,6.009873390197754
1701864827405001700,10.580001708984375,-5.644967555999756,-5.4071807861328125,6.088836193084717
1701864827414594300,10.58959423828125,-5.726622581481934,-5.450251579284668,6.196812629699707
1701864827424187600,10.599187744140625,-5.697908878326416,-5.299503803253174,6.122335910797119
1701864827433780200,10.6087802734375,-5.6330037117004395,-5.744868278503418,6.244668960571289
1701864827443372000,10.6183720703125,-5.913262844085693,-5.08654260635376,5.916553020477295
1701864827452964600,10.627964599609374,-5.66201639175415,-4.921138763427734,5.658128261566162
1701864827462558000,10.637557861328125,-5.678766250610352,-5.213362216949463,5.890232086181641
1701864827472150500,10.647150634765625,-5.534897804260254,-5.277968406677246,5.823233127593994
1701864827481742300,10.656742431640625,-5.575575828552246,-5.299503803253174,5.825625896453857
1701864827491335000,10.6663349609375,-5.650052547454834,-5.337789058685303,5.849554061889648
1701864827500928300,10.67592822265625,-5.78644323348999,-5.356931686401367,5.9045891761779785
1701864827510520800,10.685520751953124,-5.853442192077637,-5.299503803253174,5.9452667236328125
1701864827520112600,10.695112548828124,-5.8821563720703125,-5.239683151245117,5.933302879333496
1701864827529705200,10.704705322265625,-5.831906795501709,-5.340181827545166,6.050550937652588
1701864827539298600,10.714298583984375,-5.793622016906738,-5.263611793518066,5.918945789337158
1701864827548891100,10.72389111328125,-5.745765209197998,-5.333003520965576,5.9452667236328125
1701864827558483000,10.73348291015625,-5.757729530334473,-5.4071807861328125,5.909374713897705
1701864827568075500,10.743075439453126,-5.650052547454834,-5.246861934661865,5.593522071838379
1701864827577668900,10.7526689453125,-5.774479389190674,-5.179862976074219,5.849554061889648
1701864827587261400,10.762261474609375,-5.669195175170898,-5.170291423797607,5.7394843101501465
1701864827596853200,10.771853271484375,-5.642574787139893,-5.330610752105713,5.875874996185303
1701864827606445800,10.78144580078125,-5.6548380851745605,-5.196612358093262,5.8974103927612305
1701864827616039200,10.7910390625,-5.630610942840576,-5.189434051513672,5.885446548461914
1701864827625631700,10.8006318359375,-5.618646621704102,-5.294718265533447,5.985944747924805
1701864827635223600,10.8102236328125,-5.5947184562683105,-5.400002479553223,6.005087375640869
1701864827644816100,10.819816162109374,-5.623432159423828,-5.416752338409424,6.017051696777344
1701864827654409500,10.829409423828125,-5.671587944030762,-5.464608669281006,6.093621730804443
1701864827664002000,10.839001953125,-5.748157978057861,-5.385645389556885,6.081657886505127
1701864827673593900,10.84859375,-5.815157413482666,-5.474180221557617,6.321238994598389
1701864827683186400,10.8581865234375,-5.767300605773926,-5.539085388183594,6.318846225738525
1701864827692779800,10.86777978515625,-5.673980712890625,-4.971687316894531,5.753840923309326
1701864827702372400,10.877372314453124,-5.613861083984375,-5.07936429977417,5.854339599609375
1701864827711964200,10.886964111328124,-5.683551788330078,-5.136792182922363,5.825625896453857
1701864827721556700,10.896556640625,-5.5707902908325195,-5.227719306945801,5.816054344177246
1701864827731150000,10.906150146484375,-5.3339009284973145,-5.074578762054443,5.447260856628418
1701864827740742700,10.91574267578125,-5.628218173980713,-4.727320194244385,5.6294145584106445
1701864827750334500,10.92533447265625,-5.5229339599609375,-4.511966228485107,5.605485916137695
1701864827759927000,10.934927001953126,-6.0400824546813965,-5.041079044342041,6.464808464050293
1701864827769520400,10.944520263671874,-5.427220821380615,-5.960222244262695,6.251847267150879
1701864827779113000,10.954113037109375,-5.748157978057861,-4.76321268081665,5.751448154449463
1701864827788704800,10.963704833984375,-5.937191009521484,-4.679463863372803,5.777769565582275
1701864827798297300,10.97329736328125,-6.0400824546813965,-5.031507968902588,6.024230003356934
1701864827807890700,10.982890625,-6.004190444946289,-5.7257256507873535,6.383452415466309
1701864827817483300,10.992483154296876,-5.784050464630127,-5.744868278503418,6.040979862213135
1701864827827075000,11.002074951171876,-5.819942951202393,-5.816652774810791,6.098407745361328
1701864827836667600,11.011667724609374,-5.846263885498047,-5.653940677642822,6.02183723449707
1701864827846261000,11.021260986328125,-5.66201639175415,-5.411966800689697,5.689234733581543
1701864827855853600,11.030853515625,-5.733801364898682,-5.120042324066162,5.758626937866211
1701864827865445400,11.0404453125,-5.5947184562683105,-5.065007209777832,5.636592864990234
1701864827875038000,11.050037841796875,-5.554040431976318,-5.026721954345703,5.579164981842041
1701864827884631300,11.05963134765625,-5.587540149688721,-4.765605449676514,5.593522071838379
1701864827894224000,11.069223876953124,-5.664409637451172,-4.061816215515137,5.315655708312988
1701864827903815700,11.078815673828124,-5.582754135131836,-4.329812526702881,5.627021312713623
1701864827913408300,11.088408203125,-5.534897804260254,-5.301896572113037,6.081657886505127
1701864827923001600,11.098001708984375,-5.7888360023498535,-6.020042896270752,6.361917018890381
1701864827932594200,11.10759423828125,-6.109474182128906,-6.369693756103516,6.687341213226318
1701864827942186000,11.11718603515625,-6.123831272125244,-6.0009002685546875,6.357131481170654
1701864827951778600,11.126778564453126,-6.09751033782959,-5.558228015899658,6.119943141937256
1701864827961372000,11.136371826171874,-5.941977024078369,-5.340181827545166,6.026622772216797
1701864827970964500,11.145964599609375,-5.822335720062256,-5.184648513793945,6.052944183349609
1701864827980556300,11.155556396484375,-5.597111225128174,-5.053043365478516,5.863911151885986
1701864827990148900,11.16514892578125,-5.374578952789307,-5.172684192657471,5.7490553855896
1701864827999742200,11.1747421875,-5.32193660736084,-5.340181827545166,5.782555103302002
1701864828009334800,11.184334716796876,-5.592325687408447,-5.2971110343933105,5.844768524169922
1701864828018926600,11.193926513671874,-5.544469356536865,-5.301896572113037,5.756234169006348
1701864828028519200,11.203519287109375,-5.587540149688721,-5.2971110343933105,5.727519989013672
1701864828038112500,11.213112548828125,-5.618646621704102,-5.4071807861328125,5.859125137329102
1701864828047705000,11.222705078125,-5.599503993988037,-5.5366926193237305,5.8734822273254395
1701864828057297000,11.232296875,-5.712265968322754,-5.371288776397705,5.799304962158203
1701864828066889500,11.241889404296876,-5.530112266540527,-5.292325496673584,5.7490553855896
1701864828076482800,11.25148291015625,-5.573183059692383,-5.254040241241455,5.6222357749938965
1701864828086075400,11.261075439453125,-5.66201639175415,-5.261219024658203,5.713163375854492
1701864828095667200,11.270667236328125,-5.657230854034424,-5.163113117218018,5.6294145584106445
1701864828105259800,11.280259765625,-5.66201639175415,-5.582156181335449,5.839982986450195
1701864828114853000,11.28985302734375,-5.889334678649902,-5.524728298187256,5.914160251617432
1701864828124445700,11.29944580078125,-5.836692810058594,-5.596513271331787,5.940481185913086
1701864828134037500,11.30903759765625,-5.8582282066345215,-5.66111946105957,5.966802597045898
1701864828143630000,11.318630126953124,-5.805585861206055,-5.603691577911377,5.890232086181641
1701864828153223400,11.328223388671875,-5.7720866203308105,-5.572584629058838,5.871089458465576
1701864828162816000,11.33781591796875,-5.793622016906738,-5.309075355529785,5.753840923309326
1701864828172407800,11.34740771484375,-5.846263885498047,-4.892425060272217,5.603093147277832
1701864828182000400,11.35700048828125,-5.6859450340271,-4.555037021636963,5.349154949188232
1701864828191593700,11.36659375,-5.673980712890625,-4.468895435333252,5.291727066040039
1701864828201186300,11.376186279296874,-5.7409796714782715,-4.76321268081665,5.499902725219727
1701864828210778000,11.385778076171874,-5.886941909790039,-5.404788017272949,5.906981945037842
1701864828220370700,11.39537060546875,-5.96590518951416,-5.706583023071289,6.017051696777344
1701864828229964000,11.404964111328125,-6.02811861038208,-5.898008823394775,6.254240036010742
1701864828239556600,11.414556640625,-5.999404430389404,-6.247660160064697,6.589235305786133
1701864828249148400,11.4241484375,-5.803193092346191,-6.302694797515869,6.536593437194824
1701864828258741000,11.433740966796876,-5.422435283660889,-6.2428741455078125,6.251847267150879
1701864828268334300,11.443334228515624,-5.278865814208984,-6.113661766052246,5.978766441345215
1701864828277927000,11.452927001953125,-5.424828052520752,-6.104090690612793,5.930910110473633
1701864828287518700,11.462518798828125,-5.589932918548584,-6.10169792175293,5.753840923309326
1701864828297111300,11.472111328125,-5.8582282066345215,-6.111268997192383,4.726722240447998
1701864828306704600,11.48170458984375,-5.142475128173828,-6.340980052947998,6.050550937652588
1701864828316297200,11.491297119140626,-5.558825969696045,-6.424728870391846,6.38584566116333
1701864828325889000,11.500888916015626,-5.424828052520752,-6.606583118438721,6.388238430023193
1701864828335481600,11.510481689453124,-5.558825969696045,-6.616453647613525,6.2398834228515625
1701864828345075000,11.520074951171875,-5.659623622894287,-6.161518096923828,6.378666877746582
1701864828354667500,11.52966748046875,-6.619444847106934,-7.588238716125488,5.571687698364258
1701864828364259300,11.53925927734375,-5.7720866203308105,-8.926724433898926,3.821636915206909
1701864828373852000,11.548851806640625,-4.644468784332275,-7.961818218231201,4.71236515045166
1701864828383445200,11.5584453125,-5.125725269317627,-8.258528709411621,5.234299659729004
1701864828393037800,11.568037841796874,-4.965106964111328,-8.009675025939941,5.478367328643799
1701864828402629600,11.577629638671874,-4.4359941482543945,-7.044768810272217,6.069693565368652
1701864828412222200,11.58722216796875,-4.689932346343994,-7.272386074066162,6.483951091766357
1701864828421815600,11.596815673828125,-5.896512985229492,-8.632107734680176,6.280561447143555
1701864828431408000,11.606408203125,-7.2681989669799805,-9.479764938354492,3.2039895057678223
1701864828441000000,11.616,-7.960322856903076,-10.085448265075684,7.975576877593994
1701864828450592500,11.625592529296876,-5.573183059692383,-9.99691390991211,8.784649848937988
1701864828460185900,11.635185791015624,-6.135795593261719,-8.395217895507812,8.590831756591797
1701864828469778400,11.6447783203125,-5.312365531921387,-9.311968803405762,7.975576877593994
1701864828479370200,11.654370361328125,-6.552445888519287,-9.101400375366211,6.80249547958374
1701864828488962800,11.663962890625,-7.895716667175293,-8.248956680297852,6.46241569519043
1701864828498556200,11.67355615234375,-6.873383045196533,-8.277670860290527,6.297310829162598
1701864828508148700,11.683148681640626,-6.025725841522217,-9.158827781677246,7.003492832183838
1701864828517740500,11.692740478515624,-6.684051036834717,-8.8740816116333,7.436892986297607
1701864828527333000,11.7023330078125,-6.61705207824707,-8.172386169433594,7.544569969177246
1701864828536926500,11.711926513671875,-8.407780647277832,-8.15563678741455,7.865507125854492
1701864828546519000,11.72151904296875,-8.034500122070312,-7.336992263793945,8.16700267791748
1701864828556110800,11.73111083984375,-7.514958381652832,-7.459026336669922,8.880363464355469
1701864828565703400,11.740703369140626,-8.869894027709961,-8.007282257080078,10.264311790466309
1701864828575296800,11.750296875,-12.779467582702637,-6.714559555053711,10.73838996887207
1701864828584889300,11.759889404296874,-7.210771083831787,-4.732105731964111,10.826924324035645
1701864828594481200,11.769481201171875,-4.551148891448975,-3.688236951828003,10.228419303894043
1701864828604073700,11.77907373046875,-4.153641223907471,-3.7695930004119873,10.556236267089844
1701864828613667000,11.7886669921875,-4.7234320640563965,-3.6619160175323486,11.212468147277832
1701864828623259600,11.798259765625,-5.348257541656494,-4.068994998931885,11.729317665100098
1701864828632851500,11.8078515625,-5.231009483337402,-4.375575542449951,11.815757751464844
1701864828642444000,11.817444091796874,-4.823930263519287,-4.25084924697876,11.291431427001953
1701864828652037400,11.827037353515625,-4.01246452331543,-3.760021686553955,10.407880783081055
1701864828661630000,11.8366298828125,-2.599801778793335,-3.3556346893310547,10.022337913513184
1701864828671221800,11.8462216796875,-1.347757339477539,-2.785843849182129,9.155837059020996
1701864828680814300,11.855814453125,-0.7420741319656372,-3.633202075958252,9.69212818145752
1701864828690407700,11.86540771484375,-0.11006984114646912,-4.500001907348633,9.249156951904297
1701864828700000300,11.875000244140624,1.4318052530288696,-4.801497936248779,7.779066562652588
1701864828709592000,11.884592041015624,2.3009979724884033,-4.126422882080078,6.318846225738525
1701864828719184600,11.8941845703125,2.6958138942718506,-3.760021686553955,5.73469877243042
1701864828728778000,11.903778076171875,3.2608189582824707,-4.179064750671387,6.203990936279297
1701864828738370600,11.91337060546875,3.5937204360961914,-4.5526442527771,6.388238430023193
1701864828747962400,11.92296240234375,3.7971103191375732,-4.468895435333252,6.572485446929932
1701864828757555000,11.932554931640626,3.833002805709839,-4.433002948760986,6.419344902038574
1701864828767148300,11.942148193359374,4.412364959716797,-4.370789527893066,6.02901554107666
1701864828776740900,11.951740966796875,5.480162143707275,-3.791128396987915,5.191228866577148
1701864828786332700,11.961332763671875,6.179464340209961,-3.0203404426574707,4.010969161987305
1701864828795925200,11.97092529296875,6.504888534545898,-2.474477767944336,2.9862427711486816
1701864828805518600,11.9805185546875,7.010073184967041,-1.9621145725250244,2.152942180633545
1701864828815111200,11.990111083984376,7.4123663902282715,-1.3779667615890503,1.3007981777191162
1701864828824703000,11.999702880859376,7.524828910827637,-0.5904290080070496,0.8506484627723694
1701864828834295600,12.009295654296874,7.084250450134277,-0.05892325937747955,0.6329016089439392
1701864828843889000,12.018888916015625,6.433103561401367,0.05593222752213478,0.6783652305603027
1701864828853481500,12.0284814453125,5.870491027832031,0.28594231605529785,0.9678967595100403
1701864828863073300,12.0380732421875,5.338985443115234,0.5874379873275757,1.3654043674468994
1701864828872665900,12.047665771484375,3.7851462364196777,0.7911269664764404,0.7166503667831421
1701864828882259200,12.05725927734375,2.0829520225524902,2.4335005283355713,-1.4261223077774048
1701864828891851800,12.066851806640624,1.755135416984558,3.6807594299316406,-1.643869161605835
1701864828901443600,12.076443603515624,3.344866991043091,3.50129771232605,-0.29850462079048157
1701864828911036200,12.0860361328125,6.401997089385986,3.5228331089019775,1.3127623796463013
1701864828920629500,12.09562939453125,9.076275825500488,3.929612874984741,2.1481566429138184
1701864828930222000,12.10522216796875,10.110572814941406,4.592723846435547,1.8921245336532593
1701864828939814000,12.11481396484375,11.302797317504883,4.449154376983643,1.674377679824829
1701864828949406500,12.124406494140626,12.097513198852539,3.5874392986297607,1.8035900592803955
1701864828958999800,12.133999755859374,13.842778205871582,0.7336992621421814,3.5321052074432373
1701864828968592400,12.14359228515625,15.037394523620605,-2.991626501083374,6.761817455291748
1701864828978184200,12.15318408203125,13.711173057556152,0.2356930375099182,4.985146999359131
1701864828987776800,12.16277685546875,9.437591552734375,3.0942187309265137,1.200299620628357
1701864828997370000,12.1723701171875,8.685946464538574,2.112563371658325,1.7270197868347168
1701864829006962700,12.181962646484376,5.039882659912109,0.750449001789093,1.2170493602752686
1701864829016554500,12.191554443359376,4.582554340362549,0.8820542693138123,0.7070791125297546
1701864829026147000,12.20114697265625,5.169095039367676,2.2345972061157227,0.046360939741134644
1701864829035740400,12.210740478515625,5.856134414672852,3.3741791248321533,-0.2315055876970291
1701864829045333000,12.2203330078125,6.193821430206299,3.6424741744995117,-0.1860419660806656
1701864829054924800,12.2299248046875,7.321439266204834,3.5060834884643555,0.13968102633953094
1701864829064517400,12.239517333984375,10.761719703674316,3.6424741744995117,0.625723123550415
1701864829074110700,12.24911083984375,12.868599891662598,4.178765773773193,1.1931211948394775
1701864829083703300,12.258703369140624,12.221940040588379,4.638486862182617,1.9184455871582031
1701864829093295000,12.268295166015625,10.469496726989746,3.5850465297698975,3.4052858352661133
1701864829102887700,12.2778876953125,9.780064582824707,2.4023938179016113,4.896612644195557
1701864829112481300,12.287481201171875,10.10578727722168,1.7461622953414917,5.485546112060547
1701864829122073600,12.297073486328125,10.30917739868164,1.5930216312408447,5.600700378417969
1701864829131665400,12.30666552734375,10.567602157592773,2.0455641746520996,5.777769565582275
1701864829141258000,12.316258056640624,10.905289649963379,2.1173489093780518,5.9524455070495605
1701864829150851600,12.3258515625,11.017751693725586,1.7198412418365479,5.696413516998291
1701864829160444000,12.33544384765625,11.53968620300293,1.7916259765625,5.004289627075195
1701864829170035700,12.34503564453125,11.851052284240723,2.4287149906158447,3.903291940689087
1701864829179628300,12.354628173828125,11.534900665283203,2.6967110633850098,2.974278450012207
1701864829189222000,12.364221923828126,11.219048500061035,2.3518455028533936,2.497807741165161
1701864829198814200,12.373814208984374,10.919646263122559,1.9594225883483887,2.3039891719818115
1701864829208406000,12.383406005859374,10.392926216125488,1.9163517951965332,2.2322044372558594
1701864829217998600,12.39299853515625,9.504889488220215,2.150848388671875,2.268096685409546
1701864829227592200,12.40259228515625,8.46341323852539,2.4574289321899414,2.4140589237213135
1701864829237184500,12.4121845703125,7.630113124847412,2.715853691101074,2.6341986656188965
1701864829246776300,12.4217763671875,7.156035423278809,3.1468608379364014,2.6006991863250732
1701864829256369000,12.431368896484376,6.933502674102783,3.5850465297698975,2.363809585571289
1701864829265962500,12.44096240234375,6.9119672775268555,3.6089746952056885,2.2417757511138916
1701864829275554800,12.450554931640625,7.144071102142334,3.41007137298584,2.1816561222076416
