time,seconds_elapsed,z,y,x
1701864817001839400,0.17683935546875,-0.4605788290500641,-1.2039799690246582,-0.9805625677108765
1701864817011432000,0.186431884765625,-0.2907632887363434,-1.1905412673950195,-0.9084826111793518
1701864817021025300,0.196025390625,-0.1453816443681717,-1.1697725057601929,-0.8156337738037109
1701864817030617900,0.205617919921875,-0.024433890357613564,-1.2052016258239746,-0.7679877281188965
1701864817040209700,0.215209716796875,0.12216944992542267,-1.4214415550231934,-0.752105712890625
1701864817049802200,0.22480224609375,0.30786702036857605,-1.7073180675506592,-0.7484406232833862
1701864817059395600,0.2343955078125,0.5302154421806335,-1.9834210872650146,-0.73255854845047
1701864817068988200,0.24398828125,0.7440119385719299,-2.2399768829345703,-0.6897992491722107
1701864817078580000,0.253580078125,0.8942803740501404,-2.481872320175171,-0.6372663974761963
1701864817088172500,0.263172607421875,0.9553651213645935,-2.731098175048828,-0.5676298141479492
1701864817097766000,0.272765869140625,0.9419264793395996,-2.919239044189453,-0.46989426016807556
1701864817107358500,0.2823583984375,0.8820634484291077,-2.970550298690796,-0.35138988494873047
1701864817116950300,0.2919501953125,0.8087617754936218,-2.889918327331543,-0.2145601063966751
1701864817126542800,0.30154296875,0.7464553713798523,-2.7115509510040283,-0.07650861889123917
1701864817136136200,0.31113623046875,0.7317950129508972,-2.519744873046875,0.04810422286391258
1701864817145728800,0.320728759765625,0.781884491443634,-2.395132064819336,0.17027367651462555
1701864817155320600,0.330320556640625,0.896723747253418,-2.365811347961426,0.2948864996433258
1701864817164913200,0.3399130859375,1.0445488691329956,-2.3902454376220703,0.3962871730327606
1701864817174506500,0.349506591796875,1.2070342302322388,-2.426896095275879,0.4549284875392914
1701864817184099000,0.35909912109375,1.3866232633590698,-2.4427781105041504,0.4805840849876404
1701864817193691000,0.36869091796875,1.5833160877227783,-2.3755850791931152,0.48547086119651794
1701864817203283500,0.378283447265625,1.761683464050293,-2.177670478820801,0.47081053256988525
1701864817212876800,0.387876708984375,1.887518048286438,-1.8966807126998901,0.45615020394325256
1701864817222469400,0.397469482421875,1.9498244524002075,-1.637681484222412,0.4671454429626465
1701864817232061200,0.407061279296875,1.9595980644226074,-1.4629791975021362,0.5196782946586609
1701864817241653800,0.41665380859375,1.9376075267791748,-1.4226632118225098,0.6114581227302551
1701864817251247000,0.4262470703125,1.9314990043640137,-1.4703093767166138,0.7189671993255615
1701864817260839700,0.435839599609375,1.9412726163864136,-1.5020734071731567,0.81425940990448
1701864817270431500,0.445431396484375,1.910730242729187,-1.4055595397949219,0.8545753359794617
1701864817280024000,0.455024169921875,1.822768211364746,-1.152668833732605,0.81425940990448
1701864817289617400,0.464617431640625,1.7079288959503174,-0.8570187091827393,0.7226322889328003
1701864817299210000,0.4742099609375,1.604084849357605,-0.6994200944900513,0.6395570635795593
1701864817308801800,0.4838017578125,1.5381133556365967,-0.7495095729827881,0.5967977643013
1701864817318394400,0.493394287109375,1.51734459400177,-0.9352071285247803,0.5858024954795837
1701864817327987700,0.50298779296875,1.4696985483169556,-1.0378295183181763,0.5821374654769897
1701864817337580300,0.512580322265625,1.3890666961669922,-0.9620844125747681,0.5723638534545898
1701864817347172000,0.522172119140625,1.3304253816604614,-0.7409577369689941,0.5528167486190796
1701864817356764700,0.5317646484375,1.3059914112091064,-0.39262208342552185,0.5283828973770142
1701864817366358000,0.54135791015625,1.3304253816604614,-0.08842013776302338,0.5160132050514221
1701864817375950600,0.55095068359375,1.3817365169525146,0.07650861889123917,0.5172349214553833
1701864817385542400,0.56054248046875,1.4098354578018188,0.1363716572523117,0.5247178077697754
1701864817395135000,0.570135009765625,1.3634110689163208,0.09483403712511063,0.5418215394020081
1701864817404728300,0.579728271484375,1.2326897382736206,0.012980503961443901,0.5870242118835449
1701864817414321000,0.58932080078125,1.0592091083526611,0.0594048947095871,0.6615476012229919
1701864817423912700,0.59891259765625,0.8991671800613403,0.23410721123218536,0.7592831254005432
1701864817433505300,0.60850537109375,0.7855495810508728,0.44301697611808777,0.8667922616004944
1701864817443098600,0.6180986328125,0.7330167293548584,0.5969504714012146,0.9596410393714905
1701864817452691200,0.627691162109375,0.7366818189620972,0.669030487537384,1.0146173238754272
1701864817462283000,0.637282958984375,0.7733326554298401,0.7032378911972046,1.0256125926971436
1701864817471875600,0.64687548828125,0.833195686340332,0.7142331600189209,1.0011786222457886
1701864817481469000,0.656468994140625,0.8991671800613403,0.709346354007721,0.9584193229675293
1701864817491061500,0.6660615234375,0.9345963001251221,0.7130114436149597,0.9083298444747925
1701864817500653300,0.6756533203125,0.9370396733283997,0.7386670708656311,0.8582404255867004
1701864817510246000,0.685245849609375,0.9223793745040894,0.747218906879425,0.8167027831077576
1701864817519839200,0.694839111328125,0.9101623892784119,0.7374453544616699,0.786160409450531
1701864817529431800,0.704431884765625,0.9174925684928894,0.7203416228294373,0.7653915882110596
1701864817539023600,0.714023681640625,0.9529217481613159,0.6702521443367004,0.7592831254005432
1701864817548616200,0.7236162109375,0.9907942414283752,0.5749599933624268,0.7641699314117432
1701864817558209500,0.73320947265625,1.0164498090744019,0.4637857675552368,0.7702783942222595
1701864817567802000,0.742802001953125,1.0237799882888794,0.36849361658096313,0.7666133046150208
1701864817577394000,0.752393798828125,1.0323318243026733,0.2817533016204834,0.7592831254005432
1701864817586986800,0.76198681640625,1.0640959739685059,0.20845162868499756,0.7568397521972656
1701864817596579800,0.771579833984375,1.1117420196533203,0.1766875684261322,0.7617265582084656
1701864817606172400,0.78117236328125,1.1642749309539795,0.1913478970527649,0.7715001106262207
1701864817615764200,0.79076416015625,1.2192511558532715,0.22066856920719147,0.7800519466400146
1701864817625357000,0.800357177734375,1.2693406343460083,0.22189027070999146,0.7849387526512146
1701864817634950400,0.809950439453125,1.2937744855880737,0.1620272397994995,0.7788302302360535
1701864817644542700,0.819542724609375,1.273005723953247,0.06673506647348404,0.7605048418045044
1701864817654134500,0.829134521484375,1.2290246486663818,-0.03588727489113808,0.7470661997795105
1701864817663727400,0.838727294921875,1.188708782196045,-0.14339639246463776,0.7592831254005432
1701864817673320700,0.84832080078125,1.1667182445526123,-0.21914145350456238,0.8008207678794861
1701864817682913000,0.8579130859375,1.138619303703308,-0.24968381226062775,0.8472451567649841
1701864817692504800,0.8675048828125,1.100746750831604,-0.25090551376342773,0.8875610828399658
1701864817702097700,0.87709765625,1.0714260339736938,-0.2851129472255707,0.9278770089149475
1701864817711691000,0.88669091796875,1.0469921827316284,-0.36452311277389526,0.9584193229675293
1701864817721283300,0.896283447265625,1.0335536003112793,-0.45385950803756714,0.9938485026359558
1701864817730875100,0.905875244140625,1.012784719467163,-0.5467082858085632,1.0439379215240479
1701864817740468000,0.915468017578125,0.9700254201889038,-0.6053496599197388,1.105022668838501
1701864817750061300,0.925061279296875,0.9236010313034058,-0.6297835111618042,1.1795459985733032
1701864817759654000,0.93465380859375,0.8918370008468628,-0.6468872427940369,1.2638429403305054
1701864817769245400,0.944245361328125,0.8674030900001526,-0.6933116316795349,1.3518049716949463
1701864817778838300,0.95383837890625,0.8295305967330933,-0.7580614686012268,1.4373235702514648
1701864817788431600,0.963431640625,0.7806627750396729,-0.8069292306900024,1.5179554224014282
1701864817798024200,0.973024169921875,0.7293516397476196,-0.8386932611465454,1.577818512916565
1701864817807615700,0.98261572265625,0.6804838180541992,-0.8826742768287659,1.5937005281448364
1701864817817208600,0.99220849609375,0.652384877204895,-0.9193251132965088,1.5619364976882935
1701864817826802000,1.001802001953125,0.6499415040016174,-0.9193251132965088,1.4971866607666016
1701864817836394500,1.01139453125,0.6780404448509216,-0.8863393664360046,1.3921209573745728
1701864817845986000,1.020986083984375,0.7342383861541748,-0.7641699314117432,1.2467392683029175
1701864817855579000,1.030578857421875,0.7977665066719055,-0.5589252710342407,1.0854755640029907
1701864817865172200,1.040172119140625,0.8637380003929138,-0.3352024257183075,0.9327637553215027
1701864817874764800,1.049764892578125,0.9517000317573547,-0.14217470586299896,0.7959339618682861
1701864817884356600,1.059356689453125,1.0677610635757446,0.005650337319821119,0.6859814524650574
1701864817893949200,1.06894921875,1.1997040510177612,0.11926792562007904,0.6041279435157776
1701864817903542500,1.07854248046875,1.3328686952590942,0.22189027070999146,0.5442649126052856
1701864817913135000,1.088135009765625,1.4403778314590454,0.333064466714859,0.5050179958343506
1701864817922727000,1.097726806640625,1.508792757987976,0.46012070775032043,0.4805840849876404
1701864817932319500,1.107319580078125,1.5564388036727905,0.5896202921867371,0.45981526374816895
1701864817941912800,1.116912841796875,1.5943113565444946,0.6824691295623779,0.4512633979320526
1701864817951505400,1.12650537109375,1.627297043800354,0.7264500856399536,0.45737189054489136
1701864817961097200,1.13609716796875,1.6541743278503418,0.7313368916511536,0.4647020399570465
1701864817970689800,1.145689697265625,1.6724997758865356,0.7130114436149597,0.4622586667537689
1701864817980283100,1.155283203125,1.689603567123413,0.6897992491722107,0.44637662172317505
1701864817989875700,1.164875732421875,1.7115939855575562,0.6629219651222229,0.41949936747550964
1701864817999467500,1.174467529296875,1.7348061800003052,0.6445965766906738,0.37796175479888916
1701864818009060000,1.18406005859375,1.7555750608444214,0.6409314870834351,0.3217637836933136
1701864818018653400,1.1936533203125,1.762905240058899,0.6213843822479248,0.2692309319972992
1701864818028246000,1.20324609375,1.7311410903930664,0.5358657836914062,0.2289150059223175
1701864818037837800,1.212837890625,1.6529526710510254,0.36971530318260193,0.19348587095737457
1701864818047430400,1.222430419921875,1.532004952430725,0.1375933438539505,0.16172181069850922
1701864818057023700,1.232023681640625,1.3963968753814697,-0.11285403370857239,0.14461809396743774
1701864818066616300,1.2416162109375,1.2803359031677246,-0.33764582872390747,0.14828316867351532
1701864818076208000,1.2512080078125,1.1972606182098389,-0.46607646346092224,0.17393875122070312
1701864818085800700,1.26080078125,1.1630531549453735,-0.46241137385368347,0.20814619958400726
1701864818095394000,1.27039404296875,1.180156946182251,-0.3718532621860504,0.2435753494501114
1701864818104986600,1.279986572265625,1.220472812652588,-0.23746687173843384,0.270452618598938
1701864818114578400,1.289578369140625,1.258345365524292,-0.0981936976313591,0.2851129472255707
1701864818124171000,1.2991708984375,1.281557559967041,0.0032069480512291193,0.2912214398384094
1701864818133764400,1.308764404296875,1.2803359031677246,0.0459662564098835,0.30221667885780334
1701864818143357000,1.31835693359375,1.243685007095337,0.0459662564098835,0.32787227630615234
1701864818152948700,1.32794873046875,1.180156946182251,0.009315420873463154,0.3730749487876892
1701864818162541300,1.337541259765625,1.1129636764526367,-0.05543438717722893,0.41949936747550964
1701864818172134700,1.347134765625,1.0518789291381836,-0.14706148207187653,0.4524851143360138
1701864818181727200,1.356727294921875,1.0005677938461304,-0.22647161781787872,0.4622586667537689
1701864818191319000,1.366319091796875,0.9749122262001038,-0.23624517023563385,0.4268295168876648
1701864818200911600,1.37591162109375,0.9907942414283752,-0.19715094566345215,0.3461976945400238
1701864818210505000,1.3855048828125,1.0408837795257568,-0.1629435122013092,0.24724042415618896
1701864818220097500,1.39509765625,1.115407109260559,-0.14095300436019897,0.15316994488239288
1701864818229689300,1.404689453125,1.1960389614105225,-0.13117945194244385,0.07620319724082947
1701864818239282000,1.414281982421875,1.2681188583374023,-0.15439164638519287,0.02244863659143448
1701864818248875300,1.423875244140625,1.3145432472229004,-0.21058958768844604,0.0004581354442052543
1701864818258467800,1.4334677734375,1.3230952024459839,-0.270452618598938,0.012675080448389053
1701864818268059600,1.4430595703125,1.298661231994629,-0.3217637836933136,0.0456608310341835
1701864818277652200,1.45265234375,1.2620104551315308,-0.3694098889827728,0.08964183181524277
1701864818287245600,1.46224560546875,1.2241379022598267,-0.40728241205215454,0.1372879147529602
1701864818296838100,1.471838134765625,1.1984822750091553,-0.4294256269931793,0.18493400514125824
1701864818306430000,1.481429931640625,1.1850436925888062,-0.43797749280929565,0.2289150059223175
1701864818316022500,1.4910224609375,1.1728267669677734,-0.4343124032020569,0.27411770820617676
1701864818325615900,1.500615966796875,1.1532796621322632,-0.39262208342552185,0.31321191787719727
1701864818335208400,1.51020849609375,1.1398409605026245,-0.31565532088279724,0.3449759781360626
1701864818344800300,1.51980029296875,1.1410627365112305,-0.2313583940267563,0.38162681460380554
1701864818354392800,1.529392822265625,1.1422843933105469,-0.15439164638519287,0.43049460649490356
1701864818363986200,1.538986083984375,1.1227372884750366,-0.09941539168357849,0.4891359508037567
1701864818373578800,1.548578857421875,1.0763128995895386,-0.0847550556063652,0.555260181427002
1701864818383170600,1.558170654296875,1.0066763162612915,-0.11407572776079178,0.6261184215545654
1701864818392763100,1.56776318359375,0.9199360013008118,-0.18615570664405823,0.7055285573005676
1701864818402356500,1.5773564453125,0.8222004175186157,-0.2973299026489258,0.7971556782722473
1701864818411949000,1.586948974609375,0.7207997441291809,-0.3901786804199219,0.892447829246521
1701864818421540900,1.596540771484375,0.6279509663581848,-0.42331716418266296,0.9633061289787292
1701864818431133400,1.606133544921875,0.569309651851654,-0.41827765107154846,1.0011786222457886
1701864818440726800,1.615726806640625,0.5558710098266602,-0.4109475016593933,1.0072871446609497
1701864818450319400,1.6253193359375,0.5644228458404541,-0.4011739492416382,0.990183413028717
1701864818459911200,1.6349111328125,0.5815265774726868,-0.39140036702156067,0.9535325765609741
1701864818469503700,1.644503662109375,0.5986303091049194,-0.39262208342552185,0.9034430980682373
1701864818479097000,1.65409716796875,0.6047387719154358,-0.3828485310077667,0.8423583507537842
1701864818488689700,1.663689697265625,0.6022953987121582,-0.3620797097682953,0.7751652002334595
1701864818498281500,1.673281494140625,0.5876350402832031,-0.36818817257881165,0.7128587365150452
1701864818507874000,1.6828740234375,0.5619794726371765,-0.399952232837677,0.656660795211792
1701864818517467400,1.69246728515625,0.5302154421806335,-0.4453076422214508,0.6053496599197388
1701864818527060000,1.70206005859375,0.49112120270729065,-0.5198310017585754,0.555260181427002
1701864818536651800,1.71165185546875,0.4459185004234314,-0.6236750483512878,0.506239652633667
1701864818546244400,1.721244384765625,0.41293275356292725,-0.7104153633117676,0.44759833812713623
1701864818555837700,1.730837646484375,0.4068242609500885,-0.754396378993988,0.3742966651916504
1701864818565430300,1.74043017578125,0.4190412163734436,-0.7617265582084656,0.28877803683280945
1701864818575022000,1.75002197265625,0.44958359003067017,-0.6994200944900513,0.20081603527069092
1701864818584614700,1.75961474609375,0.49356457591056824,-0.5454866290092468,0.111632339656353
1701864818594208000,1.7692080078125,0.5412106513977051,-0.35230615735054016,0.0261137206107378
1701864818603800600,1.778800537109375,0.5754181146621704,-0.19837264716625214,-0.04840964451432228
1701864818613392400,1.788392333984375,0.5741963982582092,-0.12995775043964386,-0.10094250738620758
1701864818622985000,1.79798486328125,0.5326588153839111,-0.14828316867351532,-0.12048961967229843
1701864818632578300,1.807578369140625,0.46302223205566406,-0.2557922899723053,-0.10827267915010452
1701864818642171000,1.8171708984375,0.3665083646774292,-0.40850409865379333,-0.06429167091846466
1701864818651762700,1.8267626953125,0.25533416867256165,-0.5125008225440979,-0.005650337319821119
1701864818661355300,1.836355224609375,0.16492876410484314,-0.5100574493408203,0.04199574887752533
1701864818670948600,1.845948486328125,0.11972606182098389,-0.4121691882610321,0.06276455521583557
1701864818680541200,1.855541259765625,0.12583453953266144,-0.26190075278282166,0.06276455521583557
1701864818690133000,1.865133056640625,0.16248537600040436,-0.08964183181524277,0.04443913698196411
1701864818699725600,1.8747255859375,0.20524467527866364,0.06551336497068405,0.0065666078589856625
1701864818709319000,1.88431884765625,0.22967857122421265,0.16813570261001587,-0.04840964451432228
1701864818718911500,1.893911376953125,0.22601348161697388,0.20234315097332,-0.10827267915010452
1701864818728503300,1.90350341796875,0.2101314514875412,0.1656923145055771,-0.15836215019226074
1701864818738096000,1.91309619140625,0.19913621246814728,0.07895200699567795,-0.18157434463500977
1701864818747689200,1.922689208984375,0.18936264514923096,-0.01511846948415041,-0.1754658818244934
1701864818757281800,1.93228173828125,0.18691925704479218,-0.08353336155414581,-0.14736689627170563
1701864818766873600,1.94187353515625,0.19424942135810852,-0.14217470586299896,-0.1107160672545433
1701864818776466400,1.951466552734375,0.21257483959197998,-0.19470755755901337,-0.07650861889123917
1701864818786059800,1.961059814453125,0.237008735537529,-0.23258009552955627,-0.054518118500709534
1701864818795652000,1.970652099609375,0.26877278089523315,-0.2411319613456726,-0.04718795046210289
1701864818805244000,1.980243896484375,0.3127537965774536,-0.2166980654001236,-0.05207473039627075
1701864818814836700,1.989836669921875,0.3665083646774292,-0.1776038408279419,-0.06184828653931618
1701864818824430000,1.99943017578125,0.4190412163734436,-0.1385096162557602,-0.06917845457792282
1701864818834022400,2.0090224609375,0.46424391865730286,-0.10918894410133362,-0.07040014863014221
1701864818843614200,2.0186142578125,0.5057815313339233,-0.09575030952692032,-0.055739812552928925
1701864818853207000,2.02820703125,0.5412106513977051,-0.111632339656353,-0.02641914412379265
1701864818862800400,2.03780029296875,0.5632011890411377,-0.16050012409687042,0.01511846948415041
1701864818872392700,2.047392822265625,0.5632011890411377,-0.2301367074251175,0.06398624926805496
1701864818881984500,2.056984619140625,0.5436540842056274,-0.30221667885780334,0.12262758612632751
1701864818891577300,2.066577392578125,0.5118899941444397,-0.36696648597717285,0.18126893043518066
1701864818901170700,2.076170654296875,0.4679090082645416,-0.402395635843277,0.2289150059223175
1701864818910763300,2.08576318359375,0.4202629029750824,-0.3962871730327606,0.2557922899723053
1701864818920354800,2.095354736328125,0.3799470067024231,-0.3474193811416626,0.25212720036506653
1701864818929947600,2.10494775390625,0.3555130958557129,-0.26434415578842163,0.21914145350456238
1701864818939541000,2.114541015625,0.34451785683631897,-0.15927842259407043,0.16660858690738678
1701864818949133600,2.124133544921875,0.34573954343795776,-0.04810422286391258,0.10796725004911423
1701864818958725000,2.13372509765625,0.35917818546295166,0.03130592033267021,0.052990999072790146
1701864818968318000,2.14331787109375,0.3701734244823456,0.058183200657367706,0.010231691412627697
1701864818977911300,2.152911376953125,0.37139514088630676,0.036192700266838074,-0.010537114925682545
1701864818987503900,2.16250390625,0.3701734244823456,-0.02489202655851841,-0.010537114925682545
1701864818997095400,2.172095458984375,0.37261682748794556,-0.12262758612632751,-0.0007635590736754239
1701864819006688300,2.181688232421875,0.3811686933040619,-0.23746687173843384,0.013896775431931019
1701864819016281600,2.191281494140625,0.390942245721817,-0.35230615735054016,0.02733541466295719
1701864819025874200,2.200874267578125,0.40071579813957214,-0.4489727318286896,0.03955236077308655
1701864819035465700,2.2104658203125,0.4178195297718048,-0.5027272701263428,0.05421269312500954
1701864819045058600,2.22005859375,0.44103172421455383,-0.47951510548591614,0.0713164210319519
1701864819054652000,2.22965185546875,0.4727957844734192,-0.39384377002716064,0.07864658534526825
1701864819064244500,2.239244384765625,0.5008947253227234,-0.2851129472255707,0.07375980913639069
1701864819073836000,2.2488359375,0.5070032477378845,-0.2020377367734909,0.07375980913639069
1701864819083428900,2.258428955078125,0.48989951610565186,-0.16538690030574799,0.09086353331804276
1701864819093022200,2.268022216796875,0.4556920528411865,-0.16783028841018677,0.1238492801785469
1701864819102614800,2.27761474609375,0.41415444016456604,-0.19959434866905212,0.164165198802948
1701864819112206600,2.28720654296875,0.3762819170951843,-0.23746687173843384,0.19959434866905212
1701864819121799000,2.296798828125,0.3542914092540741,-0.2692309319972992,0.21791976690292358
1701864819131392500,2.306392578125,0.34451785683631897,-0.2973299026489258,0.21914145350456238
1701864819140985000,2.315985107421875,0.33352261781692505,-0.32787227630615234,0.21914145350456238
1701864819150577000,2.325576904296875,0.31886225938796997,-0.3694098889827728,0.2289150059223175
1701864819160169500,2.33516943359375,0.3054236173629761,-0.41949936747550964,0.23380178213119507
1701864819169762800,2.3447626953125,0.2993151545524597,-0.4453076422214508,0.2289150059223175
1701864819179355400,2.35435546875,0.3139754831790924,-0.444085955619812,0.21425467729568481
1701864819188947200,2.363947265625,0.34940463304519653,-0.4367557764053345,0.18615570664405823
1701864819198539800,2.373539794921875,0.3970507085323334,-0.43797749280929565,0.1385096162557602
1701864819208133000,2.383133056640625,0.4459185004234314,-0.4563029110431671,0.07498150318861008
1701864819217725700,2.3927255859375,0.4813476502895355,-0.5112791657447815,0.0065666078589856625
1701864819227317500,2.4023173828125,0.47890424728393555,-0.6041279435157776,-0.05329642444849014
1701864819236910000,2.41191015625,0.43736663460731506,-0.7165238261222839,-0.09972081333398819
1701864819246503400,2.42150341796875,0.3946073353290558,-0.8081509470939636,-0.14003673195838928
1701864819256096000,2.431095947265625,0.3811686933040619,-0.8582404255867004,-0.18035265803337097
1701864819265687800,2.440687744140625,0.40071579813957214,-0.8777875304222107,-0.22311195731163025
1701864819275280400,2.4502802734375,0.4300364851951599,-0.8509102463722229,-0.24754585325717926
1701864819284873700,2.459873779296875,0.4727957844734192,-0.5686988234519958,-0.014202198944985867
1701864819294466300,2.46946630859375,0.5595360994338989,-0.5662553906440735,0.14217470586299896
1701864819304058000,2.47905810546875,0.5216635465621948,-0.6872031688690186,-0.009315420873463154
1701864819313650700,2.488650634765625,0.40071579813957214,-0.6200099587440491,-0.12781979143619537
1701864819323244000,2.498244140625,0.34940463304519653,-0.5210527181625366,-0.18401773273944855
1701864819332836600,2.507836669921875,0.3665083646774292,-0.4489727318286896,-0.1913478970527649
1701864819342428400,2.517428466796875,0.4068242609500885,-0.39506545662879944,-0.19501298666000366
1701864819352021000,2.52702099609375,0.4349232614040375,-0.376740038394928,-0.20234315097332
1701864819361614300,2.5366142578125,0.4227063059806824,-0.40361732244491577,-0.19867807626724243
1701864819371207000,2.54620703125,0.41415444016456604,-0.5173876285552979,-0.18646112084388733
1701864819380798700,2.555798828125,0.42514967918395996,-0.7226322889328003,-0.23655059933662415
1701864819390391300,2.565391357421875,0.3787252902984619,-0.8362498879432678,-0.27686652541160583
1701864819399984600,2.574984619140625,0.23090025782585144,-0.8069292306900024,-0.19989976286888123
1701864819409577200,2.5845771484375,0.08796200156211853,-0.7776085734367371,-0.0984991192817688
1701864819419169000,2.5941689453125,0.029320668429136276,-0.7702783942222595,-0.09727742522954941
1701864819428761600,2.60376171875,0.07085828483104706,-0.7324058413505554,-0.18157434463500977
1701864819438355000,2.61335498046875,0.18936264514923096,-0.6297835111618042,-0.2951919436454773
1701864819447947500,2.622947509765625,0.3384093940258026,-0.4721849262714386,-0.3733803927898407
1701864819457539300,2.632539306640625,0.4947862923145294,-0.2912214398384094,-0.39414918422698975
1701864819467132000,2.6421318359375,0.6279509663581848,-0.17393875122070312,-0.37704548239707947
1701864819476725200,2.651725341796875,0.6951441764831543,-0.1629435122013092,-0.34283801913261414
1701864819486317800,2.66131787109375,0.6731536984443665,-0.24968381226062775,-0.31351736187934875
1701864819495909600,2.67090966796875,0.6096255779266357,-0.40361732244491577,-0.31229567527770996
1701864819505502200,2.680502197265625,0.5412106513977051,-0.5809157490730286,-0.333064466714859
1701864819515095600,2.690095458984375,0.4703523814678192,-0.7458444833755493,-0.3452814221382141
1701864819524688100,2.699688232421875,0.4068242609500885,-0.869235634803772,-0.3318427801132202
1701864819534280000,2.709280029296875,0.41415444016456604,-0.9107732772827148,-0.2964136302471161
1701864819543872500,2.71887255859375,0.4825693368911743,-0.9046648144721985,-0.26342788338661194
1701864819553465900,2.7284658203125,0.5680879354476929,-0.8655705451965332,-0.22433365881443024
1701864819563058400,2.738058349609375,0.6853706240653992,-0.762948215007782,-0.1510319858789444
1701864819572650200,2.747650146484375,0.7708892226219177,-0.6529957056045532,-0.07650861889123917
1701864819582242800,2.757242919921875,0.8075400590896606,-0.5564818382263184,-0.020310672000050545
1701864819591836200,2.766836181640625,0.8087617754936218,-0.48928865790367126,0.017561858519911766
1701864819601428700,2.7764287109375,0.7977665066719055,-0.42194274067878723,0.052990999072790146
1701864819611020500,2.7860205078125,0.8026533126831055,-0.35230615735054016,0.05543438717722893
1701864819620613000,2.795613037109375,0.7440119385719299,-0.0713164210319519,-0.11560284346342087
1701864819630206500,2.80520654296875,0.7427902817726135,0.23166382312774658,-0.27686652541160583
1701864819639799000,2.814799072265625,0.7708892226219177,0.33917292952537537,-0.3367295563220978
1701864819649390800,2.824390869140625,0.7647807598114014,0.3721587061882019,-0.3501681983470917
1701864819658983400,2.8339833984375,0.6682668924331665,0.23166382312774658,-0.2548760175704956
1701864819668576800,2.84357666015625,0.5412106513977051,-0.07620319724082947,-0.1644706279039383
1701864819678169300,2.85316943359375,0.4715740978717804,-0.2289150059223175,-0.20600824058055878
1701864819687761200,2.86276123046875,0.41171106696128845,-0.1751604527235031,-0.21333840489387512
1701864819697353700,2.872353759765625,0.4031592011451721,-0.08964183181524277,-0.19256959855556488
1701864819706947000,2.881947021484375,0.416597843170166,-0.05543438717722893,-0.18279604613780975
1701864819716539600,2.89153955078125,0.43614494800567627,-0.04199574887752533,-0.18157434463500977
1701864819726131500,2.90113134765625,0.4886777997016907,-0.020005248486995697,-0.20234315097332
1701864819735724000,2.91072412109375,0.582748293876648,0.037414394319057465,-0.2573194205760956
1701864819745317400,2.9203173828125,0.6975875496864319,0.12659808993339539,-0.35627666115760803
1701864819754910000,2.929909912109375,0.781884491443634,0.20600824058055878,-0.488219678401947
1701864819764501800,2.939501708984375,0.8258655071258545,0.22433365881443024,-0.5908420085906982
1701864819774094300,2.94909423828125,0.8832851648330688,0.2047865390777588,-0.6384881138801575
1701864819783687700,2.958687744140625,0.9871291518211365,0.14125843346118927,-0.6323796510696411
1701864819793280300,2.9682802734375,1.1202938556671143,-0.012675080448389053,-0.617719292640686
1701864819802872000,2.9778720703125,1.2363548278808594,-0.16172181069850922,-0.5969504714012146
1701864819812464600,2.987464599609375,1.1288456916809082,-0.21791976690292358,-0.5444176197052002
1701864819822058000,2.99705810546875,0.8197570443153381,-0.20814619958400726,-0.5615213513374329
1701864819831650600,3.006650634765625,0.6804838180541992,-0.10308047384023666,-0.6140542030334473
1701864819841242400,3.016242431640625,0.7000309824943542,0.08261708915233612,-0.6164975762367249
1701864819850835000,3.0258349609375,0.7085828185081482,0.16935740411281586,-0.6116108298301697
1701864819860428300,3.03542822265625,0.6157340407371521,0.1119377613067627,-0.571294903755188
1701864819870020900,3.045020751953125,0.47646087408065796,-0.037108972668647766,-0.45889899134635925
1701864819879612700,3.05461279296875,0.3689517378807068,-0.22647161781787872,-0.3208475112915039
1701864819889205200,3.064205322265625,0.30786702036857605,-0.38040512800216675,-0.2170034945011139
1701864819898798600,3.073798583984375,0.29320669174194336,-0.4343124032020569,-0.16935740411281586
1701864819908391200,3.08339111328125,0.2748812735080719,-0.4146125912666321,-0.1632489264011383
1701864819917983000,3.09298291015625,0.27121618390083313,-0.376740038394928,-0.1644706279039383
1701864819927575600,3.102575439453125,0.28098973631858826,-0.3315373361110687,-0.17913095653057098
1701864819937169000,3.1121689453125,0.2480039894580841,-0.26067906618118286,-0.2145601063966751
1701864819946761500,3.121761474609375,0.21868331730365753,-0.21791976690292358,-0.2683146595954895
1701864819956353300,3.131353271484375,0.17225892841815948,-0.12751436233520508,-0.32817769050598145
1701864819965945900,3.14094580078125,0.13927318155765533,-0.011453386396169662,-0.39048412442207336
1701864819975539200,3.150539306640625,0.1185043677687645,0.06306997686624527,-0.39292749762535095
1701864819985131800,3.1601318359375,0.10140064358711243,0.06062658876180649,-0.34161633253097534
1701864819994723600,3.1697236328125,0.07696675509214401,-0.028557108715176582,-0.27197974920272827
1701864820004316200,3.179316162109375,0.05741964280605316,-0.13484452664852142,-0.23777230083942413
1701864820013909500,3.188909423828125,0.04031591862440109,-0.17882554233074188,-0.24876753985881805
1701864820023502000,3.198502197265625,0.023212196305394173,-0.15316994488239288,-0.28541839122772217
1701864820033094000,3.208093994140625,0.013438640162348747,-0.07986827939748764,-0.3342861533164978
1701864820042686500,3.2176865234375,0.1563768982887268,0.13026317954063416,-0.39170581102371216
1701864820052279800,3.22727978515625,0.32252734899520874,0.31596073508262634,-0.4906630516052246
1701864820061872400,3.236872314453125,0.34451785683631897,0.3623851239681244,-0.5639647245407104
1701864820071464200,3.246464111328125,0.41293275356292725,0.441795289516449,-0.5871769189834595
1701864820081056800,3.256056884765625,0.5399889945983887,0.5615213513374329,-0.6531484127044678
1701864820090650000,3.265650146484375,0.9895725846290588,0.5505260825157166,-0.6128324866294861
1701864820100242700,3.27524267578125,1.651731014251709,-0.09208522737026215,0.18004722893238068
1701864820109834500,3.28483447265625,1.5613255500793457,-1.2980504035949707,1.4532055854797363
1701864820119427000,3.294427001953125,1.2314680814743042,-1.8624732494354248,1.6181343793869019
1701864820129020400,3.3040205078125,0.8991671800613403,-1.018282413482666,0.5833591222763062
1701864820138613000,3.313613037109375,0.6022953987121582,0.32573428750038147,-0.3599417507648468
1701864820148204800,3.323204833984375,0.16370706260204315,0.8266290426254272,-0.807081937789917
1701864820157797400,3.33279736328125,-0.3151971995830536,0.7105680704116821,-0.8156337738037109
1701864820167390700,3.342390625,-0.43981003761291504,0.4821111857891083,-0.6103891134262085
1701864820176983300,3.3519833984375,-0.4056025743484497,0.28664007782936096,-0.44790375232696533
1701864820186575000,3.3615751953125,-0.4324798583984375,0.13392825424671173,-0.36605021357536316
1701864820196167700,3.371167724609375,-0.3286358118057251,0.04107947647571564,-0.2793098986148834
1701864820205761000,3.380760986328125,-0.17470231652259827,-0.028557108715176582,-0.22066856920719147
1701864820215353600,3.390353515625,-0.03787253051996231,-0.08842013776302338,-0.18646112084388733
1701864820224945400,3.3999453125,0.08307522535324097,-0.18371231853961945,-0.14858859777450562
1701864820234538000,3.4095380859375,0.16859383881092072,-0.2716743052005768,-0.1388150453567505
1701864820244131300,3.41913134765625,0.2223484069108963,-0.31199023127555847,-0.1644706279039383
1701864820253724000,3.428723876953125,0.2516690790653229,-0.3205420970916748,-0.23410721123218536
1701864820263315700,3.438315673828125,0.28221142292022705,-0.3058817684650421,-0.3306210935115814
1701864820272908300,3.447908203125,0.3127537965774536,-0.3095468580722809,-0.4381301999092102
1701864820282501600,3.457501708984375,0.3261924386024475,-0.3694098889827728,-0.5273138880729675
1701864820292094200,3.46709423828125,0.3164188861846924,-0.4587462842464447,-0.5798467397689819
1701864820301686000,3.47668603515625,0.32008397579193115,-0.5332696437835693,-0.6055023670196533
1701864820311278600,3.486278564453125,0.3127537965774536,-0.5809157490730286,-0.6238277554512024
1701864820320872000,3.495871826171875,0.3042019307613373,-0.6004628539085388,-0.6299362182617188
1701864820330464500,3.505464599609375,0.29565006494522095,-0.6077930331230164,-0.6226060390472412
1701864820340056300,3.515056396484375,0.3005368411540985,-0.6407787799835205,-0.6421532034873962
1701864820349649000,3.52464892578125,0.3151971995830536,-0.6615476012229919,-0.6604785919189453
1701864820359242200,3.5342421875,0.32008397579193115,-0.6529957056045532,-0.6653653979301453
1701864820368834800,3.543834716796875,0.3127537965774536,-0.5821374654769897,-0.6702521443367004
1701864820378426600,3.553426513671875,0.29442837834358215,-0.5076140761375427,-0.6592568755149841
1701864820388019200,3.563019287109375,0.26877278089523315,-0.4611896872520447,-0.6299362182617188
1701864820397612500,3.572612548828125,0.2736595869064331,-0.43797749280929565,-0.5786250829696655
1701864820407205000,3.582205078125,0.3164188861846924,-0.46485477685928345,-0.5602996349334717
1701864820416797000,3.591796875,0.4056025743484497,-0.5076140761375427,-0.5517477989196777
1701864820426389500,3.601389404296875,0.42637139558792114,-0.48928865790367126,-0.5749599933624268
1701864820435983000,3.610983154296875,0.36039987206459045,-0.4109475016593933,-0.5908420085906982
1701864820445575400,3.620575439453125,0.26999449729919434,-0.319320410490036,-0.5517477989196777
1701864820455167200,3.630167236328125,0.2089097648859024,-0.2655658423900604,-0.4955498278141022
1701864820464759800,3.639759765625,0.17348061501979828,-0.23746687173843384,-0.441795289516449
1701864820474353400,3.649353515625,0.1832541823387146,-0.18371231853961945,-0.34405970573425293
1701864820483945700,3.65894580078125,0.20768806338310242,-0.15316994488239288,-0.20722992718219757
1701864820493537500,3.66853759765625,0.23823043704032898,-0.1385096162557602,-0.08383878320455551
1701864820503130000,3.678130126953125,0.29442837834358215,-0.1898207813501358,-0.04230117425322533
1701864820512723500,3.687723388671875,0.3249707520008087,-0.2313583940267563,-0.039857782423496246
1701864820522316000,3.69731591796875,0.3310792148113251,-0.27411770820617676,0.013896775431931019
1701864820531907800,3.706907958984375,0.3823903799057007,-0.21791976690292358,0.10674555599689484
1701864820541500400,3.71650048828125,0.41415444016456604,-0.02367033064365387,0.1751604527235031
1701864820551093800,3.72609375,0.4068242609500885,0.2011214643716812,0.2276933193206787
1701864820560686300,3.735686279296875,0.3518480062484741,0.23532891273498535,0.2814478874206543
1701864820570278100,3.745278076171875,0.31886225938796997,0.2793098986148834,0.28633466362953186
1701864820579870700,3.75487060546875,0.31886225938796997,0.34405970573425293,0.18737739324569702
1701864820589464000,3.764464111328125,0.3164188861846924,0.4002576768398285,0.05543438717722893
1701864820599056600,3.774056640625,0.30908870697021484,0.3489464819431305,-0.02764083817601204
1701864820608648400,3.7836484375,0.24556060135364532,0.3232909142971039,-0.06429167091846466
1701864820618241300,3.7932412109375,0.1832541823387146,0.37826716899871826,-0.10582929104566574
1701864820627834400,3.80283447265625,0.13927318155765533,0.44301697611808777,-0.12171131372451782
1701864820637427000,3.812427001953125,0.13682979345321655,0.47355934977531433,-0.11682453751564026
1701864820647018800,3.822018798828125,0.14904673397541046,0.44546034932136536,-0.0984991192817688
1701864820656611600,3.831611572265625,0.07207997888326645,0.44301697611808777,-0.058183200657367706
1701864820666205000,3.841204833984375,0.03420744836330414,0.37948885560035706,-0.004428642801940441
1701864820675797200,3.85079736328125,0.006108472589403391,0.3196258246898651,0.03955236077308655
1701864820685389000,3.86038916015625,-0.1844758689403534,0.5835118293762207,-0.09972081333398819
1701864820694981600,3.869981689453125,-0.41537612676620483,0.9194778203964233,-0.41736137866973877
1701864820704575200,3.8795751953125,-0.5351021885871887,1.1882506608963013,-0.5786250829696655
1701864820714167600,3.88916748046875,-0.5705313682556152,1.2688825130462646,-0.48577627539634705
1701864820723759400,3.89875927734375,-0.5289937257766724,1.1039537191390991,-0.2548760175704956
1701864820733352000,3.90835205078125,-0.6584933400154114,1.075854778289795,-0.04963133856654167
1701864820742945500,3.917945556640625,-0.5351021885871887,0.7740961909294128,-0.022754060104489326
1701864820752537900,3.927537841796875,0.10017894953489304,0.33917292952537537,-0.15836215019226074
1701864820762129700,3.937129638671875,0.7623373866081238,0.3953709006309509,-0.20845162868499756
1701864820771722200,3.94672216796875,0.8209787011146545,0.32573428750038147,-0.0716218426823616
1701864820781315800,3.95631591796875,0.8283088803291321,0.11315945535898209,0.08231166750192642
1701864820790908200,3.965908203125,0.911384105682373,-0.1238492801785469,0.1898207813501358
1701864820800500000,3.9755,1.0873081684112549,-0.444085955619812,0.3058817684650421
1701864820810092500,3.985092529296875,1.336533784866333,-0.7165238261222839,0.4268295168876648
1701864820819686000,3.994685791015625,1.5796509981155396,-0.6371136903762817,0.4756973087787628
1701864820829278500,4.004278564453125,1.650509238243103,-0.24479703605175018,0.38162681460380554
1701864820838870300,4.013870361328125,1.4782503843307495,0.13270656764507294,0.10918894410133362
1701864820848463000,4.023463134765625,1.266897201538086,0.16935740411281586,-0.12293300777673721
1701864820858056200,4.03305615234375,1.1251806020736694,0.18768282234668732,-0.30007871985435486
1701864820867648800,4.042648681640625,1.0274450778961182,0.1388150453567505,-0.3978142738342285
1701864820877240600,4.052240478515625,0.9248227477073669,0.005650337319821119,-0.35627666115760803
1701864820886833400,4.06183349609375,0.8014315962791443,-0.09575030952692032,-0.23655059933662415
1701864820896426800,4.0714267578125,0.6694886088371277,-0.19959434866905212,-0.07650861889123917
1701864820906019000,4.08101904296875,0.601073682308197,0.02641914412379265,-0.02886253222823143
1701864820915611000,4.09061083984375,0.497229665517807,0.1388150453567505,-0.0594048947095871
1701864820925203700,4.10020361328125,0.26999449729919434,0.001985253533348441,-0.0007635590736754239
1701864820934797000,4.109797119140625,0.05131116881966591,0.02886253222823143,0.02244863659143448
1701864820944389400,4.119389404296875,-0.09651386737823486,0.07040014863014221,0.016340164467692375
1701864820953981200,4.128981201171875,-0.08796200156211853,0.10460758954286575,-0.004428642801940441
1701864820963573800,4.13857373046875,-0.0794101431965828,0.1388150453567505,-0.05329642444849014
1701864820973167400,4.14816748046875,-0.0916270911693573,0.22189027070999146,-0.12781979143619537
1701864820982759700,4.157759765625,-0.09529217332601547,0.28664007782936096,-0.21211670339107513
1701864820992351500,4.1673515625,-0.061084724962711334,0.18279604613780975,-0.22555534541606903
1701864821001944000,4.176944091796875,-0.024433890357613564,0.0007635590736754239,-0.14248012006282806
1701864821011537700,4.18653759765625,-0.024433890357613564,-0.10430216789245605,-0.010537114925682545
1701864821021130000,4.1961298828125,-0.045202698558568954,-0.1360662281513214,0.11774080991744995
1701864821030721800,4.2057216796875,0.1441599577665329,-0.25945737957954407,-0.08261708915233612
1701864821040314400,4.215314453125,0.8796200752258301,-0.8765658140182495,-0.8339592218399048
1701864821049908000,4.224907958984375,1.1202938556671143,-1.252847671508789,-0.29030516743659973
1701864821059500300,4.234500244140625,1.0653176307678223,-0.8362498879432678,0.29977330565452576
1701864821069092000,4.244092041015625,1.0335536003112793,-0.4109475016593933,0.4634803533554077
1701864821078685000,4.253684814453125,0.9834640622138977,-0.4146125912666321,0.43538138270378113
1701864821088278000,4.263278076171875,0.896723747253418,-0.45263782143592834,0.26312246918678284
1701864821097870600,4.27287060546875,0.7330167293548584,-0.19226416945457458,-0.04718795046210289
1701864821107462400,4.28246240234375,0.4178195297718048,0.07895200699567795,-0.5761816501617432
1701864821117055200,4.29205517578125,0.12827792763710022,0.04474456235766411,-1.1625950336456299
1701864821126648600,4.301648681640625,0.11606097966432571,-0.2557922899723053,-1.0917367935180664
1701864821136241000,4.311240966796875,0.04153761267662048,-0.14339639246463776,-0.5444176197052002
1701864821145832700,4.320832763671875,0.03420744836330414,-0.0016798300202935934,-0.13148486614227295
1701864821155425500,4.330425537109375,0.004886778071522713,0.004428642801940441,0.1372879147529602
1701864821165019000,4.340018798828125,-0.07574506103992462,0.017867282032966614,0.3633013963699341
1701864821174611200,4.349611083984375,-0.16615045070648193,0.03497100621461868,0.5467082858085632
1701864821184203000,4.359203125,-0.25289076566696167,0.015423892997205257,0.6578825116157532
1701864821193795600,4.368795654296875,-0.342074453830719,-0.03955236077308655,0.6981984376907349
1701864821203389200,4.37838916015625,-0.39949411153793335,-0.14828316867351532,0.6603258848190308
1701864821212981500,4.3879814453125,-0.367730051279068,-0.26434415578842163,0.4891359508037567
1701864821222573300,4.3975732421875,-0.19913621246814728,-0.36574479937553406,0.029778804630041122
1701864821232166000,4.407165771484375,-0.012216945178806782,-0.6175665855407715,-0.36971530318260193
1701864821241759500,4.416759521484375,0.05375456064939499,-0.5980194807052612,-0.465007483959198
1701864821251351800,4.426351806640625,0.05375456064939499,-0.296108216047287,-0.35261157155036926
1701864821260943600,4.435943603515625,0.062306419014930725,-0.11285403370857239,-0.21211670339107513
1701864821270536200,4.4455361328125,0.05497625470161438,0.0068720318377017975,-0.1107160672545433
1701864821280129800,4.4551298828125,0.03787253051996231,0.0850604772567749,-0.039857782423496246
1701864821289722000,4.46472216796875,0.01832541823387146,0.1498102843761444,0.017561858519911766
1701864821299314000,4.47431396484375,0.004886778071522713,0.11926792562007904,0.07986827939748764
1701864821308906500,4.483906494140625,0.05741964280605316,-0.2985515892505646,0.20692451298236847
1701864821318499800,4.493499755859375,0.03298575058579445,-0.14461809396743774,0.15927842259407043
1701864821328092400,4.503092529296875,-0.12094775587320328,0.19989976286888123,0.04932591691613197
1701864821337684200,4.512684326171875,-0.10017894953489304,0.10460758954286575,0.04321744292974472
1701864821347277000,4.522277099609375,-0.046424392610788345,0.15347537398338318,0.009009997360408306
1701864821356870400,4.531870361328125,-0.0647498071193695,0.20722992718219757,-0.0007635590736754239
1701864821366462700,4.541462646484375,-0.07574506103992462,0.2304421216249466,-0.010537114925682545
1701864821376054500,4.551054443359375,-0.07085828483104706,0.23166382312774658,-0.038636088371276855
1701864821385647400,4.5606474609375,-0.05864133685827255,0.22311195731163025,-0.06917845457792282
1701864821395240700,4.57024072265625,-0.03665083646774292,0.22311195731163025,-0.09361234307289124
1701864821404833000,4.5798330078125,-0.01588202826678753,0.22189027070999146,-0.10460758954286575
1701864821414424800,4.5894248046875,0.0012216945178806782,0.22189027070999146,-0.10460758954286575
1701864821424017700,4.599017578125,0.012216945178806782,0.22555534541606903,-0.09361234307289124
1701864821433611000,4.608611083984375,0.01588202826678753,0.2279987335205078,-0.07650861889123917
1701864821443203300,4.618203369140625,0.0024433890357613564,0.21333840489387512,-0.05329642444849014
1701864821452795100,4.627795166015625,-0.006108472589403391,0.20845162868499756,-0.02641914412379265
1701864821462387700,4.6373876953125,0,0.23532891273498535,-0.005650337319821119
1701864821471981300,4.646981201171875,0.0036650835536420345,0.26464956998825073,0.009009997360408306
1701864821481573600,4.65657373046875,-0.0024433890357613564,0.2683146595954895,0.013896775431931019
1701864821491165400,4.66616552734375,-0.007330167107284069,0.2658712565898895,0.009009997360408306
1701864821500758000,4.675758056640625,-0.010995250195264816,0.26342788338661194,-0.001985253533348441
1701864821510351600,4.6853515625,-0.01832541823387146,0.24876753985881805,-0.009315420873463154
1701864821519944000,4.69494384765625,-0.04153761267662048,0.20845162868499756,-0.009315420873463154
1701864821529535700,4.70453564453125,-0.045202698558568954,0.18401773273944855,-0.009315420873463154
1701864821539128300,4.71412841796875,-0.03542914241552353,0.18768282234668732,-0.009315420873463154
1701864821548722000,4.723721923828125,-0.026877280324697495,0.19623468816280365,-0.0032069480512291193
1701864821558314200,4.733314208984375,-0.01588202826678753,0.19989976286888123,0.004123218823224306
1701864821567906000,4.742906005859375,-0.004886778071522713,0.19989976286888123,0.011453386396169662
1701864821577499000,4.752498779296875,-0.0012216945178806782,0.18523943424224854,0.021226942539215088
1701864821587092200,4.76209228515625,-0.0024433890357613564,0.1620272397994995,0.031000498682260513
1701864821596684500,4.7716845703125,-0.004886778071522713,0.1363716572523117,0.04077405482530594
1701864821606276400,4.7812763671875,-0.009773556143045425,0.09972081333398819,0.05421269312500954
1701864821615869200,4.790869140625,-0.03298575058579445,0.0325276181101799,0.06887302547693253
1701864821625462500,4.800462646484375,-0.047646086663007736,-0.013896775431931019,0.08353336155414581
1701864821635054800,4.810054931640625,-0.028098974376916885,-0.03955236077308655,0.09208522737026215
1701864821644646700,4.819646728515625,-0.004886778071522713,-0.03833066672086716,0.09452861547470093
1701864821654239200,4.8292392578125,0.007330167107284069,-0.04810422286391258,0.10063708573579788
1701864821663832800,4.838832763671875,0.009773556143045425,-0.07864658534526825,0.10796725004911423
1701864821673425200,4.848425048828125,0.014660334214568138,-0.11651911586523056,0.11529742181301117
1701864821683017000,4.858016845703125,0.02076880633831024,-0.1507265567779541,0.12629267573356628
1701864821692609500,4.867609619140625,0.025655584409832954,-0.18371231853961945,0.14217470586299896
1701864821702203100,4.877203125,0.028098974376916885,-0.21181128919124603,0.16050012409687042
1701864821711795500,4.88679541015625,0.026877280324697495,-0.23502348363399506,0.1776038408279419
1701864821721387300,4.89638720703125,0.025655584409832954,-0.2533488869667053,0.19348587095737457
1701864821730979800,4.905979736328125,0.01588202826678753,-0.2814478874206543,0.20570281147956848
1701864821740573400,4.915573486328125,0.012216945178806782,-0.3071034550666809,0.21303297579288483
1701864821750165800,4.925165771484375,0.01588202826678753,-0.31443363428115845,0.21058958768844604
1701864821759757600,4.934757568359375,0.012216945178806782,-0.3352024257183075,0.21303297579288483
1701864821769350100,4.94435009765625,0.009773556143045425,-0.36452311277389526,0.21425467729568481
1701864821778943500,4.953943603515625,0.008551862090826035,-0.3852919042110443,0.21181128919124603
1701864821788536000,4.9635361328125,0.006108472589403391,-0.40483900904655457,0.20936790108680725
1701864821798127900,4.9731279296875,0.006108472589403391,-0.41827765107154846,0.20814619958400726
1701864821807720700,4.982720703125,0.0036650835536420345,-0.42453885078430176,0.20692451298236847
1701864821817313800,4.992313720703125,0.0012216945178806782,-0.42453885078430176,0.20692451298236847
1701864821826906400,5.00190625,-0.0036650835536420345,-0.41705596446990967,0.2032594233751297
1701864821836498200,5.011498291015625,-0.009773556143045425,-0.4133908748626709,0.19959434866905212
1701864821846091000,5.021091064453125,-0.014660334214568138,-0.4121691882610321,0.19470755755901337
1701864821855684400,5.030684326171875,-0.01588202826678753,-0.40972578525543213,0.19226416945457458
1701864821865276700,5.040276611328125,-0.01832541823387146,-0.4109475016593933,0.19470755755901337
1701864821874868500,5.049868408203125,-0.01954711228609085,-0.4146125912666321,0.19837264716625214
1701864821884461000,5.0594609375,-0.02076880633831024,-0.42072105407714844,0.2044811248779297
1701864821894054700,5.0690546875,-0.02076880633831024,-0.4294256269931793,0.20814619958400726
1701864821903647000,5.07864697265625,-0.023212196305394173,-0.444085955619812,0.20936790108680725
1701864821913238800,5.08823876953125,-0.023212196305394173,-0.45385950803756714,0.21303297579288483
1701864821922831400,5.097831298828125,-0.026877280324697495,-0.46729815006256104,0.2154763638973236
1701864821932425000,5.107425048828125,-0.03298575058579445,-0.4868452548980713,0.21791976690292358
1701864821942017300,5.117017333984375,-0.0390942245721817,-0.49417543411254883,0.21791976690292358
1701864821951609000,5.126609130859375,-0.047646086663007736,-0.5027272701263428,0.21791976690292358
1701864821961201700,5.13620166015625,-0.05497625470161438,-0.5137225389480591,0.21914145350456238
1701864821970795000,5.145794921875,-0.0647498071193695,-0.5210527181625366,0.21791976690292358
1701864821980387600,5.1553876953125,-0.07452336698770523,-0.5234960913658142,0.21791976690292358
1701864821989979400,5.1649794921875,-0.08063183724880219,-0.5222744345664978,0.22280654311180115
1701864821999572200,5.174572265625,-0.08429691940546036,-0.5210527181625366,0.2276933193206787
1701864822009165300,5.184165283203125,-0.08674030750989914,-0.5161659121513367,0.2301367074251175
1701864822018758000,5.1937578125,-0.08796200156211853,-0.518609344959259,0.22524993121623993
1701864822028349700,5.203349609375,-0.08918370306491852,-0.5210527181625366,0.21425467729568481
1701864822037942500,5.212942626953125,-0.08918370306491852,-0.5222744345664978,0.20081603527069092
1701864822047535600,5.22253564453125,-0.08551861345767975,-0.5198310017585754,0.18615570664405823
1701864822057128200,5.232128173828125,-0.08307522535324097,-0.5161659121513367,0.1763821393251419
1701864822066720000,5.241719970703125,-0.08185353130102158,-0.5051707029342651,0.16660858690738678
1701864822076312600,5.2513125,-0.08185353130102158,-0.48928865790367126,0.15683503448963165
1701864822085906200,5.26090625,-0.08063183724880219,-0.46607646346092224,0.14461809396743774
1701864822095498500,5.27049853515625,-0.08307522535324097,-0.4318690001964569,0.13362284004688263
1701864822105090300,5.28009033203125,-0.0781884491443634,-0.4121691882610321,0.12262758612632751
1701864822114683000,5.289682861328125,-0.07574506103992462,-0.40850409865379333,0.10552386194467545
1701864822124276500,5.2992763671875,-0.06719319522380829,-0.3877353072166443,0.09330692142248154
1701864822133868800,5.308868896484375,-0.05986303091049194,-0.36696648597717285,0.08964183181524277
1701864822143460600,5.318460693359375,-0.05008947476744652,-0.34131091833114624,0.08964183181524277
1701864822153053200,5.32805322265625,-0.04153761267662048,-0.31443363428115845,0.09330692142248154
1701864822162646500,5.337646484375,-0.029320668429136276,-0.28633466362953186,0.09941539168357849
1701864822172239000,5.347239013671875,-0.014660334214568138,-0.2545706033706665,0.10796725004911423
1701864822181831000,5.356830810546875,-0.0024433890357613564,-0.22524993121623993,0.11651911586523056
1701864822191423500,5.366423583984375,0.009773556143045425,-0.19959434866905212,0.12018419802188873
1701864822201016800,5.376016845703125,0.021990500390529633,-0.1776038408279419,0.12140589207410812
1701864822210609400,5.385609375,0.03420744836330414,-0.15927842259407043,0.12018419802188873
1701864822220201200,5.395201171875,0.046424392610788345,-0.14339639246463776,0.11529742181301117
1701864822229793800,5.404793701171875,0.05741964280605316,-0.12873606383800507,0.111632339656353
1701864822239387100,5.41438720703125,0.0659715011715889,-0.11651911586523056,0.10552386194467545
1701864822248979700,5.423979736328125,0.07085828483104706,-0.10552386194467545,0.09941539168357849
1701864822258571500,5.433571533203125,0.07330167293548584,-0.0981936976313591,0.09330692142248154
1701864822268164000,5.4431640625,0.07330167293548584,-0.09208522737026215,0.08353336155414581
1701864822277757400,5.45275732421875,0.07207997888326645,-0.08231166750192642,0.0725381150841713
1701864822287350000,5.46235009765625,0.0659715011715889,-0.0725381150841713,0.06154286116361618
1701864822296941800,5.47194189453125,0.05741964280605316,-0.06276455521583557,0.052990999072790146
1701864822306534400,5.481534423828125,0.045202698558568954,-0.052990999072790146,0.04443913698196411
1701864822316128000,5.4911279296875,0.029320668429136276,-0.04443913698196411,0.037108972668647766
1701864822325720300,5.50072021484375,0.010995250195264816,-0.037108972668647766,0.031000498682260513
1701864822335312100,5.51031201171875,-0.008551862090826035,-0.02489202655851841,0.02733541466295719
1701864822344904700,5.51990478515625,-0.026877280324697495,-0.016340164467692375,0.028557108715176582
1701864822354498000,5.529498046875,-0.04153761267662048,-0.013896775431931019,0.031000498682260513
1701864822364090600,5.539090576171875,-0.05131116881966591,-0.01511846948415041,0.029778804630041122
1701864822373682400,5.548682373046875,-0.05497625470161438,-0.016340164467692375,0.02489202655851841
1701864822383275000,5.55827490234375,-0.05741964280605316,-0.021226942539215088,0.018783552572131157
1701864822392868400,5.567868408203125,-0.05741964280605316,-0.02367033064365387,0.010231691412627697
1701864822402461000,5.5774609375,-0.05375456064939499,-0.021226942539215088,0.0029015245381742716
1701864822412052700,5.587052734375,-0.05131116881966591,-0.017561858519911766,-0.005650337319821119
1701864822421645300,5.596645263671875,-0.05008947476744652,-0.010231691412627697,-0.010537114925682545
1701864822431238700,5.60623876953125,-0.04886778071522713,-0.0004581354442052543,-0.014202198944985867
1701864822440831200,5.615831298828125,-0.045202698558568954,0.010537114925682545,-0.016645587980747223
1701864822450423000,5.625423095703125,-0.042759306728839874,0.019088976085186005,-0.017867282032966614
1701864822460015600,5.635015625,-0.04031591862440109,0.02886253222823143,-0.019088976085186005
1701864822469609000,5.64460888671875,-0.03787253051996231,0.03497100621461868,-0.021532366052269936
1701864822479201500,5.654201416015625,-0.03420744836330414,0.04474456235766411,-0.023975754156708717
1701864822488793300,5.66379345703125,-0.03176405653357506,0.05329642444849014,-0.02764083817601204
1701864822498386000,5.673385986328125,-0.030542362481355667,0.0594048947095871,-0.03374931216239929
1701864822507979300,5.682979248046875,-0.029320668429136276,0.06673506647348404,-0.038636088371276855
1701864822517571800,5.69257177734375,-0.026877280324697495,0.07528692483901978,-0.04230117425322533
1701864822527163600,5.70216357421875,-0.024433890357613564,0.08261708915233612,-0.04352286830544472
1701864822536756200,5.711756103515625,-0.021990500390529633,0.08872556686401367,-0.0459662564098835
1701864822546349600,5.721349609375,-0.01710372418165207,0.09605573117733002,-0.04718795046210289
1701864822555942100,5.730942138671875,-0.013438640162348747,0.10216420143842697,-0.04963133856654167
1701864822565534000,5.740533935546875,-0.013438640162348747,0.10949437320232391,-0.05085303261876106
1701864822575126500,5.75012646484375,-0.012216945178806782,0.12048961967229843,-0.05207473039627075
1701864822584720000,5.759719970703125,-0.010995250195264816,0.13148486614227295,-0.05085303261876106
1701864822594312400,5.7693125,-0.007330167107284069,0.1388150453567505,-0.04963133856654167
1701864822603904300,5.778904296875,-0.0024433890357613564,0.14125843346118927,-0.04840964451432228
1701864822613496800,5.788496826171875,0.0024433890357613564,0.14125843346118927,-0.04352286830544472
1701864822623090200,5.798090087890625,0.007330167107284069,0.14003673195838928,-0.038636088371276855
1701864822632682800,5.807682861328125,0.012216945178806782,0.14003673195838928,-0.03497100621461868
1701864822642274600,5.817274658203125,0.01832541823387146,0.14003673195838928,-0.03374931216239929
1701864822651867100,5.8268671875,0.023212196305394173,0.13392825424671173,-0.03497100621461868
1701864822661460500,5.83646044921875,0.028098974376916885,0.1241547018289566,-0.036192700266838074
1701864822671053000,5.846052978515625,0.03176405653357506,0.11560284346342087,-0.037414394319057465
1701864822680644900,5.855644775390625,0.03420744836330414,0.1119377613067627,-0.036192700266838074
1701864822690237400,5.865237548828125,0.03176405653357506,0.10827267915010452,-0.03374931216239929
1701864822699830800,5.874830810546875,0.029320668429136276,0.1107160672545433,-0.0325276181101799
1701864822709423400,5.88442333984375,0.025655584409832954,0.1119377613067627,-0.03130592033267021
1701864822719015200,5.89401513671875,0.021990500390529633,0.11560284346342087,-0.03130592033267021
1701864822728607700,5.903607666015625,0.01710372418165207,0.11438114941120148,-0.03008422814309597
1701864822738201000,5.913201171875,0.012216945178806782,0.11560284346342087,-0.0325276181101799
1701864822747793700,5.922793701171875,0.009773556143045425,0.11438114941120148,-0.0325276181101799
1701864822757385500,5.932385498046875,0.007330167107284069,0.11560284346342087,-0.03130592033267021
1701864822766978000,5.94197802734375,0.004886778071522713,0.11682453751564026,-0.0325276181101799
1701864822776571400,5.9515712890625,0.0024433890357613564,0.11682453751564026,-0.03497100621461868
1701864822786164000,5.9611640625,0.0012216945178806782,0.11560284346342087,-0.038636088371276855
1701864822795755800,5.970755859375,-0.0012216945178806782,0.11315945535898209,-0.04230117425322533
1701864822805348400,5.980348388671875,-0.0024433890357613564,0.1107160672545433,-0.04474456235766411
1701864822814941700,5.989941650390625,-0.0036650835536420345,0.10705098509788513,-0.04840964451432228
1701864822824534300,5.9995341796875,-0.004886778071522713,0.10338589549064636,-0.05207473039627075
1701864822834126000,6.0091259765625,-0.004886778071522713,0.10094250738620758,-0.055739812552928925
1701864822843718700,6.01871875,-0.006108472589403391,0.09972081333398819,-0.056961506605148315
1701864822853312000,6.02831201171875,-0.004886778071522713,0.10094250738620758,-0.058183200657367706
1701864822862904600,6.037904541015625,-0.006108472589403391,0.10216420143842697,-0.0594048947095871
1701864822872496400,6.047496337890625,-0.007330167107284069,0.10582929104566574,-0.06062658876180649
1701864822882089000,6.0570888671875,-0.009773556143045425,0.1107160672545433,-0.06062658876180649
1701864822891682300,6.066682373046875,-0.010995250195264816,0.11682453751564026,-0.06184828653931618
1701864822901275000,6.07627490234375,-0.012216945178806782,0.11804623156785965,-0.06429167091846466
1701864822910866700,6.08586669921875,-0.013438640162348747,0.12171131372451782,-0.06429167091846466
1701864822920459300,6.095459228515625,-0.013438640162348747,0.12293300777673721,-0.06306997686624527
1701864822930052600,6.105052490234375,-0.01588202826678753,0.11926792562007904,-0.06306997686624527
1701864822939645200,6.114645263671875,-0.01832541823387146,0.11315945535898209,-0.06184828653931618
1701864822949237000,6.124237060546875,-0.01954711228609085,0.10949437320232391,-0.0594048947095871
1701864822958829600,6.13382958984375,-0.021990500390529633,0.10460758954286575,-0.055739812552928925
1701864822968423000,6.1434228515625,-0.024433890357613564,0.09605573117733002,-0.054518118500709534
1701864822978015500,6.153015380859375,-0.024433890357613564,0.09239064902067184,-0.05207473039627075
1701864822987607300,6.162607177734375,-0.025655584409832954,0.0850604772567749,-0.05207473039627075
1701864822997200000,6.172199951171875,-0.024433890357613564,0.07895200699567795,-0.05329642444849014
1701864823006793200,6.181793212890625,-0.021990500390529633,0.07406523078680038,-0.05329642444849014
1701864823016385800,6.1913857421875,-0.01954711228609085,0.0716218426823616,-0.054518118500709534
1701864823025977600,6.2009775390625,-0.01710372418165207,0.06551336497068405,-0.055739812552928925
1701864823035570200,6.210570068359375,-0.01588202826678753,0.056961506605148315,-0.054518118500709534
1701864823045163500,6.22016357421875,-0.013438640162348747,0.05085303261876106,-0.05085303261876106
1701864823054756000,6.229756103515625,-0.012216945178806782,0.04474456235766411,-0.0459662564098835
1701864823064348000,6.239347900390625,-0.012216945178806782,0.038636088371276855,-0.04474456235766411
1701864823073940500,6.2489404296875,-0.010995250195264816,0.03374931216239929,-0.04230117425322533
1701864823083533800,6.258533935546875,-0.009773556143045425,0.03008422814309597,-0.04107947647571564
1701864823093126400,6.26812646484375,-0.009773556143045425,0.02886253222823143,-0.038636088371276855
1701864823102718200,6.27771826171875,-0.009773556143045425,0.02764083817601204,-0.037414394319057465
1701864823112310800,6.287310791015625,-0.008551862090826035,0.02764083817601204,-0.036192700266838074
1701864823121904000,6.296904052734375,-0.006108472589403391,0.03008422814309597,-0.0325276181101799
1701864823131496700,6.30649658203125,-0.004886778071522713,0.03008422814309597,-0.02764083817601204
1701864823141088500,6.316088623046875,0,0.02886253222823143,-0.022754060104489326
1701864823150681000,6.32568115234375,0.0012216945178806782,0.02764083817601204,-0.016645587980747223
1701864823160274400,6.3352744140625,0.0036650835536420345,0.02641914412379265,-0.009315420873463154
1701864823169867000,6.344866943359375,-0.0012216945178806782,0.020310672000050545,-0.0007635590736754239
1701864823179458800,6.354458740234375,-0.0012216945178806782,0.016645587980747223,0.005344913341104984
1701864823189051400,6.364051513671875,0.013438640162348747,0.021532366052269936,0.010231691412627697
1701864823198644700,6.373644775390625,0.025655584409832954,0.019088976085186005,0.016340164467692375
1701864823208237300,6.3832373046875,0.03176405653357506,0.004428642801940441,0.02367033064365387
1701864823217829000,6.3928291015625,0.04031591862440109,-0.010231691412627697,0.033443886786699295
1701864823227421700,6.402421630859375,0.05008947476744652,-0.02733541466295719,0.0456608310341835
1701864823237015000,6.41201513671875,0.05864133685827255,-0.04199574887752533,0.06032116711139679
1701864823246607600,6.421607666015625,0.06719319522380829,-0.050547610968351364,0.07498150318861008
1701864823256199400,6.431199462890625,0.07574506103992462,-0.05543438717722893,0.0847550556063652
1701864823265792000,6.4407919921875,0.07696675509214401,-0.06520794332027435,0.09208522737026215
1701864823275385300,6.45038525390625,0.08307522535324097,-0.07009471952915192,0.09452861547470093
1701864823284978000,6.45997802734375,0.09773556143045425,-0.06887302547693253,0.10063708573579788
1701864823294569700,6.46956982421875,0.11117420345544815,-0.07986827939748764,0.10796725004911423
1701864823304162300,6.479162353515625,0.12583453953266144,-0.09452861547470093,0.11651911586523056
1701864823313755600,6.488755615234375,0.13560809195041656,-0.10308047384023666,0.12751436233520508
1701864823323348200,6.49834814453125,0.1453816443681717,-0.09452861547470093,0.14095300436019897
1701864823332940000,6.50793994140625,0.15271180868148804,-0.08108997344970703,0.15561333298683167
1701864823342532600,6.51753271484375,0.1588202863931656,-0.07742489129304886,0.17393875122070312
1701864823352126000,6.5271259765625,0.17714570462703705,-0.08231166750192642,0.188599094748497
1701864823361718500,6.536718505859375,0.2101314514875412,-0.09941539168357849,0.2032594233751297
1701864823371310300,6.546310302734375,0.24311721324920654,-0.11529742181301117,0.21425467729568481
1701864823380903000,6.55590283203125,0.2773246467113495,-0.12751436233520508,0.22280654311180115
1701864823390496300,6.565496337890625,0.3139754831790924,-0.13117945194244385,0.23380178213119507
1701864823400088800,6.5750888671875,0.3298575282096863,-0.12140589207410812,0.25090551376342773
1701864823409680600,6.5846806640625,0.3384093940258026,-0.11651911586523056,0.2680092453956604
1701864823419273200,6.594273193359375,0.3799470067024231,-0.111632339656353,0.2667875289916992
1701864823428866600,6.603866455078125,0.42881476879119873,-0.10674555599689484,0.2680092453956604
1701864823438459100,6.613459228515625,0.4593571424484253,-0.13362284004688263,0.26190075278282166
1701864823448051000,6.623051025390625,0.4837910234928131,-0.16660858690738678,0.23991025984287262
1701864823457643500,6.6326435546875,0.5033381581306458,-0.17882554233074188,0.21914145350456238
1701864823467236900,6.64223681640625,0.5094466209411621,-0.16050012409687042,0.2154763638973236
1701864823476829400,6.651829345703125,0.499673068523407,-0.14339639246463776,0.2032594233751297
1701864823486421200,6.661421142578125,0.47768256068229675,-0.1507265567779541,0.17149536311626434
1701864823496013800,6.671013916015625,0.4422534108161926,-0.1629435122013092,0.12995775043964386
1701864823505607200,6.680607177734375,0.3970507085323334,-0.16905197501182556,0.09086353331804276
1701864823515199700,6.69019970703125,0.3518480062484741,-0.17149536311626434,0.06276455521583557
1701864823524791600,6.69979150390625,0.30664533376693726,-0.1751604527235031,0.04321744292974472
1701864823534384000,6.709384033203125,0.2651077210903168,-0.18004722893238068,0.032222192734479904
1701864823543977500,6.7189775390625,0.21623992919921875,-0.17149536311626434,0.02489202655851841
1701864823553570000,6.728570068359375,0.1710372269153595,-0.14339639246463776,-0.0032069480512291193
1701864823563161900,6.738161865234375,0.13927318155765533,-0.14339639246463776,-0.04230117425322533
1701864823572754400,6.74775439453125,0.10873081535100937,-0.17882554233074188,-0.0850604772567749
1701864823582347800,6.75734765625,0.0916270911693573,-0.22402822971343994,-0.12171131372451782
1701864823591940400,6.7669404296875,0.08063183724880219,-0.2680092453956604,-0.1498102843761444
1701864823601532200,6.7765322265625,0.0781884491443634,-0.31687700748443604,-0.1766875684261322
1701864823611124700,6.786124755859375,0.0916270911693573,-0.35352784395217896,-0.20722992718219757
1701864823620718000,6.795718017578125,0.1050657257437706,-0.3633013963699341,-0.24998924136161804
1701864823630310700,6.805310546875,0.13438639044761658,-0.35597124695777893,-0.3086305856704712
1701864823639902500,6.81490234375,0.14904673397541046,-0.4831801950931549,-0.27808821201324463
1701864823649495000,6.8244951171875,0.130721315741539,-0.5430431962013245,-0.21822518110275269
1701864823659088400,6.83408837890625,0.09651386737823486,-0.5479300022125244,-0.1889045089483261
1701864823668681000,6.843680908203125,0.07207997888326645,-0.5393781065940857,-0.19745637476444244
1701864823678272800,6.853272705078125,0.07452336698770523,-0.5711421966552734,-0.2145601063966751
1701864823687865300,6.862865234375,0.07085828483104706,-0.5686988234519958,-0.22677704691886902
1701864823697458700,6.872458740234375,0.03787253051996231,-0.5259394645690918,-0.23532891273498535
1701864823707051300,6.88205126953125,0.0024433890357613564,-0.47707170248031616,-0.2292204350233078
1701864823716643000,6.89164306640625,-0.04886778071522713,-0.3852919042110443,-0.2292204350233078
1701864823726235600,6.901235595703125,-0.11972606182098389,-0.35474956035614014,-0.26220619678497314
1701864823735829000,6.9108291015625,-0.21379654109477997,-0.36574479937553406,-0.2915268540382385
1701864823745421600,6.920421630859375,-0.31031039357185364,-0.33764582872390747,-0.30985227227211
1701864823755013000,6.93001318359375,-0.3970507085323334,-0.2985515892505646,-0.27686652541160583
1701864823764606000,6.93960595703125,-0.4581354558467865,-0.2716743052005768,-0.19501298666000366
1701864823774199300,6.94919921875,-0.5008947253227234,-0.2716743052005768,-0.1241547018289566
1701864823783791900,6.9587919921875,-0.5253286361694336,-0.32909396290779114,-0.08139539510011673
1701864823793383700,6.9683837890625,-0.5302154421806335,-0.36452311277389526,-0.09483403712511063
1701864823802976300,6.977976318359375,-0.5167768001556396,-0.3694098889827728,-0.17180079221725464
1701864823812569600,6.987569580078125,-0.4886777997016907,-0.33886751532554626,-0.2939702570438385
1701864823822162000,6.997161865234375,-0.44958359003067017,-0.3205420970916748,-0.4234698712825775
1701864823831754000,7.00675390625,-0.4080459773540497,-0.30343836545944214,-0.5236487984657288
1701864823841346300,7.01634619140625,-0.3823903799057007,-0.27411770820617676,-0.5700731873512268
1701864823850940000,7.02593994140625,-0.3408527672290802,-0.22280654311180115,-0.5566345453262329
1701864823860532500,7.035532470703125,-0.258999228477478,-0.15439164638519287,-0.5089884996414185
1701864823870124300,7.045124267578125,-0.18936264514923096,-0.08231166750192642,-0.4662291705608368
1701864823879716600,7.054716552734375,-0.14660334587097168,-0.03955236077308655,-0.45889899134635925
1701864823889310200,7.064310302734375,-0.13682979345321655,-0.052990999072790146,-0.4808894991874695
1701864823898902800,7.07390283203125,-0.15271180868148804,-0.0725381150841713,-0.5383091568946838
1701864823908494300,7.083494384765625,-0.16615045070648193,-0.09208522737026215,-0.6189410090446472
1701864823918087200,7.093087158203125,-0.13316470384597778,-0.052990999072790146,-0.7081246972084045
1701864823927680500,7.102680419921875,-0.07696675509214401,-0.1238492801785469,-0.7044596076011658
1701864823937273000,7.112273193359375,-0.05375456064939499,-0.14095300436019897,-0.6788040399551392
1701864823946864600,7.12186474609375,-0.046424392610788345,-0.0981936976313591,-0.6763606071472168
1701864823956457500,7.13145751953125,-0.05741964280605316,-0.0859767496585846,-0.669030487537384
1701864823966050800,7.14105078125,-0.07452336698770523,-0.0981936976313591,-0.6617003083229065
1701864823975643100,7.15064306640625,-0.09407047927379608,-0.06398624926805496,-0.6849125027656555
1701864823985235000,7.16023486328125,-0.1050657257437706,0.004428642801940441,-0.6934643387794495
1701864823994827500,7.16982763671875,-0.12583453953266144,0.03008422814309597,-0.6617003083229065
1701864824004421000,7.179421142578125,-0.1453816443681717,0.023975754156708717,-0.6128324866294861
1701864824014013400,7.189013427734375,-0.15026842057704926,0.0716218426823616,-0.6091674566268921
1701864824023605500,7.19860546875,-0.1429382562637329,0.07406523078680038,-0.5969504714012146
1701864824033197800,7.20819775390625,-0.13927318155765533,0.056961506605148315,-0.5541911721229553
1701864824042791400,7.21779150390625,-0.1441599577665329,0.0850604772567749,-0.511431872844696
1701864824052383700,7.2273837890625,-0.18569757044315338,0.054518118500709534,-0.4491254389286041
1701864824061975600,7.2369755859375,-0.2235700935125351,0.06551336497068405,-0.441795289516449
1701864824071568400,7.246568359375,-0.23090025782585144,0.15347537398338318,-0.5236487984657288
1701864824081161700,7.25616162109375,-0.21501824259757996,0.27320143580436707,-0.6873558759689331
1701864824090754300,7.26575439453125,-0.23823043704032898,0.21333840489387512,-0.8083036541938782
1701864824100345900,7.275345947265625,-0.2980934679508209,0.1620272397994995,-0.9390249252319336
1701864824109938400,7.2849384765625,-0.393385648727417,0.18157434463500977,-1.144269585609436
1701864824119532000,7.294531982421875,-0.5204418897628784,0.2047865390777588,-1.3531793355941772
1701864824129124400,7.304124267578125,-0.6682668924331665,0.22677704691886902,-1.5095562934875488
1701864824138716200,7.313716064453125,-0.8344173431396484,0.22311195731163025,-1.593853235244751
1701864824148308700,7.323308837890625,-1.007897973060608,0.19256959855556488,-1.608513593673706
1701864824157902300,7.33290234375,-1.1459494829177856,0.15958385169506073,-1.5877447128295898
1701864824167494700,7.34249462890625,-1.2413944005966187,0.15469707548618317,-1.5743061304092407
1701864824177086500,7.35208642578125,-1.3098092079162598,0.1620272397994995,-1.5804145336151123
1701864824186679000,7.361678955078125,-1.3598986864089966,0.1779092699289322,-1.5828579664230347
1701864824196272600,7.371272705078125,-1.3977712392807007,0.20845162868499756,-1.5596457719802856
1701864824205865000,7.380864990234375,-1.4307570457458496,0.2426590770483017,-1.514443039894104
1701864824215456800,7.390456787109375,-1.4588559865951538,0.27808821201324463,-1.449693202972412
1701864824225049600,7.400049560546875,-1.4747380018234253,0.2915268540382385,-1.3653963804244995
1701864824234643000,7.409642822265625,-1.4698512554168701,0.27442312240600586,-1.2713258266448975
1701864824244235300,7.4192353515625,-1.4417521953582764,0.23166382312774658,-1.1833637952804565
1701864824253827000,7.4288271484375,-1.398992896080017,0.1901262104511261,-1.1198357343673706
1701864824263419600,7.438419677734375,-1.3550119400024414,0.15958385169506073,-1.0831849575042725
1701864824273013200,7.44801318359375,-1.315917730331421,0.1510319858789444,-1.0611944198608398
1701864824282605600,7.45760546875,-1.291483759880066,0.15958385169506073,-1.0404255390167236
1701864824292197400,7.467197265625,-1.2780451774597168,0.17057909071445465,-1.0221002101898193
1701864824301790000,7.4767900390625,-1.2694933414459229,0.17057909071445465,-1.0208784341812134
1701864824311383600,7.486383544921875,-1.2646065950393677,0.1632489264011383,-1.0538642406463623
1701864824320976000,7.495975830078125,-1.2792668342590332,0.14736689627170563,-1.1332744359970093
1701864824330567700,7.505567626953125,-1.2939271926879883,0.12781979143619537,-1.215127944946289
1701864824340160300,7.51516015625,-1.3012573719024658,0.12048961967229843,-1.2688825130462646
1701864824349753600,7.524753662109375,-1.307365894317627,0.11315945535898209,-1.26399564743042
1701864824359346200,7.53434619140625,-1.3220261335372925,0.07528692483901978,-1.1980241537094116
1701864824368938000,7.54393798828125,-1.3427950143814087,0.023975754156708717,-1.0856282711029053
1701864824378530800,7.55353076171875,-1.375780701637268,-0.06642963737249374,-0.9585720896720886
1701864824388124000,7.5631240234375,-1.3879976272583008,-0.16660858690738678,-0.858393132686615
1701864824397716500,7.572716552734375,-1.3684505224227905,-0.28755635023117065,-0.7728744745254517
1701864824407308300,7.582308349609375,-1.3110309839248657,-0.41949936747550964,-0.6922426819801331
1701864824416900900,7.59190087890625,-1.2023000717163086,-0.5149442553520203,-0.6201626658439636
1701864824426494500,7.601494384765625,-1.0750911235809326,-0.5515950918197632,-0.5639647245407104
1701864824436086800,7.611086669921875,-0.9663603901863098,-0.5015056133270264,-0.51998370885849
1701864824445678600,7.6206787109375,-0.836860716342926,-0.4133908748626709,-0.45645561814308167
1701864824455271200,7.630271240234375,-0.6548282504081726,-0.31321191787719727,-0.3599417507648468
1701864824464864500,7.639864501953125,-0.46546560525894165,-0.19226416945457458,-0.27320143580436707
1701864824474457000,7.64945703125,-0.3054236173629761,-0.0847550556063652,-0.2560977041721344
1701864824484049000,7.659048828125,-0.17958909273147583,-0.028557108715176582,-0.2964136302471161
1701864824493641500,7.668641357421875,-0.0794101431965828,-0.02733541466295719,-0.3501681983470917
1701864824503234800,7.67823486328125,-0.006108472589403391,-0.037108972668647766,-0.39048412442207336
1701864824512827400,7.687827392578125,0.03176405653357506,-0.033443886786699295,-0.4100312292575836
1701864824522419200,7.697419189453125,0.03298575058579445,-0.0029015245381742716,-0.41858309507369995
1701864824532011800,7.70701171875,0,0.05085303261876106,-0.4161396920681
1701864824541605000,7.716605224609375,-0.05375456064939499,0.10827267915010452,-0.3733803927898407
1701864824551197700,7.72619775390625,-0.13682979345321655,0.15347537398338318,-0.2964136302471161
1701864824560789500,7.73578955078125,-0.2516690790653229,0.19379130005836487,-0.22311195731163025
1701864824570382000,7.745382080078125,-0.3567348122596741,0.22555534541606903,-0.13514995574951172
1701864824579975400,7.754975341796875,-0.45324867963790894,0.24876753985881805,-0.037414394319057465
1701864824589568000,7.764568115234375,-0.5302154421806335,0.25976279377937317,0.04443913698196411
1701864824599159800,7.774159912109375,-0.5668662786483765,0.24876753985881805,0.11285403370857239
1701864824608752400,7.78375244140625,-0.5448757410049438,0.22066856920719147,0.1629435122013092
1701864824618345700,7.793345703125,-0.5057815313339233,0.1498102843761444,0.1910424828529358
1701864824627938300,7.802938232421875,-0.4618005156517029,0.07528692483901978,0.18371231853961945
1701864824637530000,7.812530029296875,-0.4080459773540497,0.0068720318377017975,0.14339639246463776
1701864824647122700,7.822122802734375,-0.3555130958557129,-0.0456608310341835,0.08719844371080399
1701864824656716000,7.831716064453125,-0.30664533376693726,-0.08231166750192642,0.021226942539215088
1701864824666308600,7.84130859375,-0.2638860046863556,-0.0847550556063652,-0.05085303261876106
1701864824675900400,7.850900390625,-0.2345653474330902,-0.0590994730591774,-0.11926792562007904
1701864824685493000,7.860492919921875,-0.21990501880645752,-0.028557108715176582,-0.16691401600837708
1701864824695086300,7.87008642578125,-0.20524467527866364,0.005650337319821119,-0.18768282234668732
1701864824704679000,7.879678955078125,-0.18936264514923096,0.0325276181101799,-0.18035265803337097
1701864824714270700,7.889270751953125,-0.17348061501979828,0.03497100621461868,-0.1510319858789444
1701864824723863300,7.89886328125,-0.1453816443681717,0.02886253222823143,-0.10705098509788513
1701864824733456600,7.90845654296875,-0.10750912129878998,0.009315420873463154,-0.054518118500709534
1701864824743049200,7.91804931640625,-0.062306419014930725,0.004428642801940441,0.0016798300202935934
1701864824752641000,7.92764111328125,-0.024433890357613564,0.012980503961443901,0.05543438717722893
1701864824762233600,7.937233642578125,0.007330167107284069,0.036192700266838074,0.0981936976313591
1701864824771827000,7.946826904296875,0.03542914241552353,0.058183200657367706,0.12995775043964386
1701864824781419500,7.95641943359375,0.05864133685827255,0.07406523078680038,0.14583978056907654
1701864824791011300,7.96601123046875,0.09040539711713791,0.08261708915233612,0.15683503448963165
1701864824800604000,7.97560400390625,0.12583453953266144,0.07650861889123917,0.16660858690738678
1701864824810197200,7.985197265625,0.15393351018428802,0.06306997686624527,0.17271706461906433
1701864824819789800,7.994789794921875,0.17348061501979828,0.04107947647571564,0.17149536311626434
1701864824829381600,8.004381591796875,0.1820324808359146,0.017867282032966614,0.15683503448963165
1701864824838974200,8.01397412109375,0.17836740612983704,-0.0004581354442052543,0.12995775043964386
1701864824848567600,8.023567626953126,0.16615045070648193,-0.017561858519911766,0.10063708573579788
1701864824858160000,8.03316015625,0.15026842057704926,-0.04321744292974472,0.08108997344970703
1701864824867752000,8.042751953125,0.12583453953266144,-0.05665608495473862,0.06642963737249374
1701864824877344500,8.052344482421875,0.08674030750989914,-0.04199574887752533,0.050547610968351364
1701864824886937900,8.061937744140625,0.05131116881966591,-0.02489202655851841,0.04199574887752533
1701864824896530400,8.071530517578125,0.023212196305394173,-0.010231691412627697,0.03955236077308655
1701864824906122200,8.081122314453125,0.0036650835536420345,-0.0016798300202935934,0.03955236077308655
1701864824915714800,8.09071484375,-0.006108472589403391,-0.005344913341104984,0.04321744292974472
1701864824925308200,8.10030810546875,-0.007330167107284069,-0.021226942539215088,0.04932591691613197
1701864824934900700,8.109900634765625,-0.0036650835536420345,-0.04443913698196411,0.05665608495473862
1701864824944492500,8.119492431640625,0,-0.06765133142471313,0.06032116711139679
1701864824954085000,8.129085205078125,0.0012216945178806782,-0.0847550556063652,0.05787777900695801
1701864824963678500,8.138678466796875,-0.0036650835536420345,-0.09208522737026215,0.04810422286391258
1701864824973271000,8.14827099609375,-0.010995250195264816,-0.09086353331804276,0.032222192734479904
1701864824982862800,8.15786279296875,-0.02076880633831024,-0.07986827939748764,0.011453386396169662
1701864824992455400,8.167455322265624,-0.025655584409832954,-0.07009471952915192,-0.009315420873463154
1701864825002048800,8.177048828125,-0.030542362481355667,-0.05543438717722893,-0.02886253222823143
1701864825011641300,8.186641357421875,-0.028098974376916885,-0.04810422286391258,-0.054518118500709534
1701864825021233200,8.196233154296875,-0.021990500390529633,-0.04932591691613197,-0.08750387281179428
1701864825030825700,8.20582568359375,-0.01710372418165207,-0.04077405482530594,-0.09239064902067184
1701864825040419000,8.215419189453126,-0.01832541823387146,0.001985253533348441,-0.06673506647348404
1701864825050011600,8.22501171875,-0.01832541823387146,0.037414394319057465,-0.04474456235766411
1701864825059603500,8.234603515625,0,0.019088976085186005,-0.056961506605148315
1701864825069196000,8.244196044921875,0.026877280324697495,-0.028557108715176582,-0.08872556686401367
1701864825078789400,8.253789306640625,0.047646086663007736,-0.05665608495473862,-0.09972081333398819
1701864825088382000,8.2633818359375,0.05131116881966591,-0.04688252881169319,-0.0850604772567749
1701864825097973800,8.272973876953126,0.04031591862440109,-0.018783552572131157,-0.0716218426823616
1701864825107566300,8.28256640625,0.028098974376916885,-0.0065666078589856625,-0.06673506647348404
1701864825117159700,8.29215966796875,0.01832541823387146,-0.018783552572131157,-0.06184828653931618
1701864825126752300,8.301752197265625,0.01588202826678753,-0.032222192734479904,-0.04474456235766411
1701864825136344000,8.311343994140625,0.013438640162348747,-0.03955236077308655,-0.0325276181101799
1701864825145936600,8.3209365234375,0.009773556143045425,-0.04321744292974472,-0.03497100621461868
1701864825155530000,8.330530029296876,0.004886778071522713,-0.03833066672086716,-0.04840964451432228
1701864825165122600,8.34012255859375,-0.0012216945178806782,-0.034665580838918686,-0.06429167091846466
1701864825174714400,8.34971435546875,-0.008551862090826035,-0.03588727489113808,-0.07650861889123917
1701864825184307000,8.359306884765624,-0.009773556143045425,-0.037108972668647766,-0.08017370104789734
1701864825193900300,8.368900390625,-0.007330167107284069,-0.04077405482530594,-0.06795676052570343
1701864825203492900,8.378492919921875,-0.0012216945178806782,-0.037108972668647766,-0.04718795046210289
1701864825213084700,8.388084716796875,0,-0.033443886786699295,-0.02764083817601204
1701864825222677200,8.39767724609375,-0.0024433890357613564,-0.02489202655851841,-0.012980503961443901
1701864825232270600,8.4072705078125,-0.006108472589403391,-0.017561858519911766,-0.0007635590736754239
1701864825241863200,8.41686328125,-0.009773556143045425,-0.013896775431931019,0.005344913341104984
1701864825251455000,8.426455078125,-0.012216945178806782,-0.010231691412627697,0.0065666078589856625
1701864825261047600,8.436047607421875,-0.01710372418165207,-0.007788302376866341,0.0016798300202935934
1701864825270641000,8.445640869140625,-0.01832541823387146,0.0007635590736754239,-0.005650337319821119
1701864825280233500,8.4552333984375,-0.01954711228609085,0.008093725889921188,-0.012980503961443901
1701864825289825300,8.4648251953125,-0.01710372418165207,0.010537114925682545,-0.020310672000050545
1701864825299417600,8.47441748046875,-0.012216945178806782,0.008093725889921188,-0.023975754156708717
1701864825309011200,8.48401123046875,-0.008551862090826035,0.004428642801940441,-0.02764083817601204
1701864825318603800,8.493603759765625,-0.0024433890357613564,0.005650337319821119,-0.03008422814309597
1701864825328195600,8.503195556640625,0,0.004428642801940441,-0.0325276181101799
1701864825337788200,8.5127880859375,0.0024433890357613564,0.005650337319821119,-0.0325276181101799
1701864825347381500,8.522381591796876,0.006108472589403391,0.009315420873463154,-0.03130592033267021
1701864825356974000,8.53197412109375,0.006108472589403391,0.015423892997205257,-0.02764083817601204
1701864825366565600,8.541565673828124,0.0024433890357613564,0.021532366052269936,-0.021532366052269936
1701864825376158500,8.551158447265625,0.0036650835536420345,0.02886253222823143,-0.014202198944985867
1701864825385751800,8.560751708984375,0,0.03374931216239929,-0.004428642801940441
1701864825395344400,8.570344482421875,-0.007330167107284069,0.038636088371276855,0.0029015245381742716
1701864825404936000,8.57993603515625,-0.009773556143045425,0.04474456235766411,0.009009997360408306
1701864825414528800,8.58952880859375,-0.01588202826678753,0.05085303261876106,0.01511846948415041
1701864825424122000,8.5991220703125,-0.02076880633831024,0.058183200657367706,0.021226942539215088
1701864825433714400,8.60871435546875,-0.024433890357613564,0.06306997686624527,0.02733541466295719
1701864825443306200,8.61830615234375,-0.026877280324697495,0.06306997686624527,0.033443886786699295
1701864825452898800,8.62789892578125,-0.024433890357613564,0.06429167091846466,0.03955236077308655
1701864825462492400,8.637492431640625,-0.021990500390529633,0.06551336497068405,0.04443913698196411
1701864825472084700,8.647084716796876,-0.023212196305394173,0.06306997686624527,0.04688252881169319
1701864825481676800,8.6566767578125,-0.029320668429136276,0.056961506605148315,0.04810422286391258
1701864825491269000,8.66626904296875,-0.029320668429136276,0.05329642444849014,0.0456608310341835
1701864825500862700,8.67586279296875,-0.025655584409832954,0.0459662564098835,0.04199574887752533
1701864825510455300,8.685455322265625,-0.01710372418165207,0.04230117425322533,0.03588727489113808
1701864825520046800,8.695046875,-0.012216945178806782,0.036192700266838074,0.031000498682260513
1701864825529639700,8.7046396484375,-0.01832541823387146,0.0325276181101799,0.0261137206107378
1701864825539233000,8.71423291015625,-0.01954711228609085,0.03130592033267021,0.02244863659143448
1701864825548825600,8.72382568359375,-0.01588202826678753,0.03130592033267021,0.021226942539215088
1701864825558417200,8.733417236328124,-0.010995250195264816,0.03130592033267021,0.020005248486995697
1701864825568009700,8.743009765625,-0.0036650835536420345,0.03130592033267021,0.021226942539215088
1701864825577603300,8.752603271484375,-0.0024433890357613564,0.02886253222823143,0.02489202655851841
1701864825587195600,8.762195556640625,-0.008551862090826035,0.02764083817601204,0.02733541466295719
1701864825596787500,8.771787353515625,-0.01588202826678753,0.023975754156708717,0.029778804630041122
1701864825606380000,8.781380126953126,-0.01954711228609085,0.019088976085186005,0.028557108715176582
1701864825615973400,8.790973388671874,-0.02076880633831024,0.015423892997205257,0.028557108715176582
1701864825625566000,8.80056591796875,-0.02076880633831024,0.012980503961443901,0.02733541466295719
1701864825635157800,8.81015771484375,-0.01832541823387146,0.012980503961443901,0.02733541466295719
1701864825644750600,8.81975048828125,-0.012216945178806782,0.014202198944985867,0.02733541466295719
1701864825654344000,8.829343994140626,-0.013438640162348747,0.012980503961443901,0.02489202655851841
1701864825663936300,8.838936279296876,-0.01954711228609085,0.012980503961443901,0.020005248486995697
1701864825673528000,8.848528076171876,-0.026877280324697495,0.010537114925682545,0.016340164467692375
1701864825683121000,8.858120849609374,-0.025655584409832954,0.01175880990922451,0.01511846948415041
1701864825692714200,8.86771435546875,-0.024433890357613564,0.015423892997205257,0.012675080448389053
1701864825702306600,8.877306640625,-0.021990500390529633,0.021532366052269936,0.010231691412627697
1701864825711898400,8.8868984375,-0.01954711228609085,0.019088976085186005,0.010231691412627697
1701864825721491000,8.896490966796875,-0.01588202826678753,0.020310672000050545,0.0065666078589856625
1701864825731084500,8.90608447265625,-0.010995250195264816,0.020310672000050545,-0.0007635590736754239
1701864825740676900,8.9156767578125,-0.007330167107284069,0.021532366052269936,-0.005650337319821119
1701864825750268700,8.9252685546875,-0.0036650835536420345,0.022754060104489326,-0.009315420873463154
1701864825759861200,8.934861328125,0,0.022754060104489326,-0.01175880990922451
1701864825769454600,8.94445458984375,0,0.022754060104489326,-0.015423892997205257
1701864825779047200,8.954047119140625,0.0012216945178806782,0.025197450071573257,-0.016645587980747223
1701864825788639000,8.963638916015626,0.0024433890357613564,0.023975754156708717,-0.016645587980747223
1701864825798231600,8.9732314453125,0.0024433890357613564,0.025197450071573257,-0.015423892997205257
1701864825807825000,8.982824951171875,0.0012216945178806782,0.02764083817601204,-0.014202198944985867
1701864825817417500,8.99241748046875,0,0.02886253222823143,-0.01175880990922451
1701864825827009300,9.00200927734375,-0.0024433890357613564,0.02764083817601204,-0.009315420873463154
1701864825836601900,9.011601806640625,-0.0024433890357613564,0.02764083817601204,-0.005650337319821119
1701864825846195200,9.0211953125,-0.0012216945178806782,0.02641914412379265,-0.0032069480512291193
1701864825855787800,9.030787841796876,0,0.02641914412379265,-0.0032069480512291193
1701864825865379600,9.040379638671874,0.0012216945178806782,0.02641914412379265,-0.005650337319821119
1701864825874972200,9.04997216796875,0.0036650835536420345,0.025197450071573257,-0.009315420873463154
1701864825884565800,9.059565673828125,0.004886778071522713,0.022754060104489326,-0.01175880990922451
1701864825894158000,9.069157958984375,0.0036650835536420345,0.020310672000050545,-0.014202198944985867
1701864825903750000,9.07875,0.004886778071522713,0.015423892997205257,-0.016645587980747223
1701864825913342500,9.088342529296876,0.0036650835536420345,0.009315420873463154,-0.016645587980747223
1701864825922935800,9.097935791015624,0.0012216945178806782,0.005650337319821119,-0.014202198944985867
1701864825932528400,9.1075283203125,-0.0012216945178806782,0.001985253533348441,-0.008093725889921188
1701864825942120200,9.1171201171875,-0.007330167107284069,0.0007635590736754239,-0.001985253533348441
1701864825951712800,9.126712646484375,-0.012216945178806782,0.001985253533348441,0.0029015245381742716
1701864825961306000,9.13630615234375,-0.01710372418165207,0.0007635590736754239,0.0065666078589856625
1701864825970898700,9.145898681640626,-0.02076880633831024,-0.0004581354442052543,0.009009997360408306
1701864825980490500,9.155490478515626,-0.021990500390529633,-0.0016798300202935934,0.012675080448389053
1701864825990083000,9.1650830078125,-0.023212196305394173,-0.0016798300202935934,0.01511846948415041
1701864825999676400,9.174676513671875,-0.021990500390529633,-0.0016798300202935934,0.016340164467692375
1701864826009269000,9.18426904296875,-0.02076880633831024,-0.0016798300202935934,0.016340164467692375
1701864826018860800,9.19386083984375,-0.01954711228609085,-0.0004581354442052543,0.01511846948415041
1701864826028453400,9.203453369140625,-0.01832541823387146,-0.0004581354442052543,0.012675080448389053
1701864826038046700,9.213046630859376,-0.01710372418165207,0.0007635590736754239,0.009009997360408306
1701864826047639300,9.222639404296874,-0.01588202826678753,0.001985253533348441,0.0065666078589856625
1701864826057231000,9.232231201171874,-0.010995250195264816,0.004428642801940441,0.0065666078589856625
1701864826066823700,9.24182373046875,-0.0024433890357613564,0.009315420873463154,0.0065666078589856625
1701864826076417000,9.2514169921875,-0.0012216945178806782,0.010537114925682545,0.005344913341104984
1701864826086009600,9.261009521484375,0.0036650835536420345,0.012980503961443901,0.004123218823224306
1701864826095601400,9.270601318359375,0.004886778071522713,0.014202198944985867,0.0029015245381742716
1701864826105194000,9.280194091796876,0.0012216945178806782,0.01175880990922451,0.0029015245381742716
1701864826114787300,9.289787353515624,-0.004886778071522713,0.009315420873463154,0.0029015245381742716
1701864826124380000,9.2993798828125,-0.0024433890357613564,0.008093725889921188,0.0004581354442052543
1701864826133971700,9.3089716796875,-0.0024433890357613564,0.0068720318377017975,-0.001985253533348441
1701864826143564300,9.318564208984375,-0.0012216945178806782,0.0068720318377017975,-0.0032069480512291193
1701864826153157600,9.32815771484375,-0.0024433890357613564,0.0068720318377017975,-0.005650337319821119
1701864826162750200,9.337750244140626,-0.0024433890357613564,0.008093725889921188,-0.008093725889921188
1701864826172342000,9.347342041015626,-0.004886778071522713,0.009315420873463154,-0.008093725889921188
1701864826181934600,9.3569345703125,-0.006108472589403391,0.01175880990922451,-0.008093725889921188
1701864826191528000,9.36652783203125,-0.007330167107284069,0.014202198944985867,-0.0068720318377017975
1701864826201120500,9.37612060546875,-0.007330167107284069,0.015423892997205257,-0.005650337319821119
1701864826210712300,9.38571240234375,-0.009773556143045425,0.015423892997205257,-0.004428642801940441
1701864826220305000,9.395304931640625,-0.009773556143045425,0.016645587980747223,-0.005650337319821119
1701864826229898200,9.404898193359376,-0.009773556143045425,0.015423892997205257,-0.004428642801940441
1701864826239490800,9.41449072265625,-0.008551862090826035,0.015423892997205257,-0.0007635590736754239
1701864826249082600,9.42408251953125,-0.007330167107284069,0.017867282032966614,0.0029015245381742716
1701864826258675200,9.43367529296875,-0.009773556143045425,0.015423892997205257,0.0029015245381742716
1701864826268268500,9.4432685546875,-0.010995250195264816,0.014202198944985867,0.0029015245381742716
1701864826277861000,9.452861083984375,-0.010995250195264816,0.014202198944985867,0.0029015245381742716
1701864826287453000,9.462452880859376,-0.012216945178806782,0.012980503961443901,0.004123218823224306
1701864826297045500,9.47204541015625,-0.010995250195264816,0.01175880990922451,0.0029015245381742716
1701864826306638800,9.481638916015624,-0.012216945178806782,0.009315420873463154,0.0016798300202935934
1701864826316231400,9.4912314453125,-0.012216945178806782,0.008093725889921188,0.0016798300202935934
1701864826325823200,9.5008232421875,-0.014660334214568138,0.0032069480512291193,0.0016798300202935934
1701864826335415800,9.510415771484375,-0.01588202826678753,0.001985253533348441,0.0029015245381742716
1701864826345009200,9.520009033203126,-0.01832541823387146,0.0007635590736754239,0.004123218823224306
1701864826354601700,9.529601806640626,-0.01954711228609085,-0.0016798300202935934,0.005344913341104984
1701864826364193500,9.539193603515624,-0.021990500390529633,-0.0004581354442052543,0.0065666078589856625
1701864826373786000,9.5487861328125,-0.023212196305394173,0.001985253533348441,0.010231691412627697
1701864826383379500,9.55837939453125,-0.023212196305394173,0.0032069480512291193,0.011453386396169662
1701864826392972000,9.567971923828125,-0.01588202826678753,0.0068720318377017975,0.01511846948415041
1701864826402563800,9.577563720703125,-0.008551862090826035,0.010537114925682545,0.017561858519911766
1701864826412156400,9.587156494140626,-0.0024433890357613564,0.016645587980747223,0.021226942539215088
1701864826421749800,9.596749755859374,0.0024433890357613564,0.03008422814309597,0.02367033064365387
1701864826431342300,9.60634228515625,-0.0036650835536420345,0.02764083817601204,0.028557108715176582
1701864826440934100,9.61593408203125,-0.012216945178806782,0.023975754156708717,0.031000498682260513
1701864826450526700,9.625526611328125,-0.008551862090826035,0.02764083817601204,0.02733541466295719
1701864826460120000,9.6351201171875,-0.0012216945178806782,0.03008422814309597,0.020005248486995697
1701864826469712600,9.644712646484376,0.006108472589403391,0.03497100621461868,0.013896775431931019
1701864826479304400,9.654304443359376,0.012216945178806782,0.039857782423496246,0.007788302376866341
1701864826488897000,9.66389697265625,0.014660334214568138,0.039857782423496246,0.0004581354442052543
1701864826498490400,9.673490478515625,0.014660334214568138,0.038636088371276855,-0.005650337319821119
1701864826508083000,9.6830830078125,0.010995250195264816,0.03497100621461868,-0.009315420873463154
1701864826517674800,9.6926748046875,0.009773556143045425,0.0325276181101799,-0.009315420873463154
1701864826527267300,9.702267333984375,0.0036650835536420345,0.03130592033267021,-0.001985253533348441
1701864826536860700,9.711860595703126,-0.010995250195264816,0.0325276181101799,0.004123218823224306
1701864826546453200,9.721453369140624,-0.023212196305394173,0.0325276181101799,0.009009997360408306
1701864826556045000,9.731045166015624,-0.03176405653357506,0.03497100621461868,0.012675080448389053
1701864826565637600,9.7406376953125,-0.03542914241552353,0.04107947647571564,0.016340164467692375
1701864826575231000,9.75023095703125,-0.0390942245721817,0.0459662564098835,0.018783552572131157
1701864826584823600,9.759823486328125,-0.047646086663007736,0.05207473039627075,0.020005248486995697
1701864826594415400,9.769415283203125,-0.05131116881966591,0.05329642444849014,0.020005248486995697
1701864826604008000,9.779008056640626,-0.05131116881966591,0.04963133856654167,0.017561858519911766
1701864826613601300,9.788601318359374,-0.042759306728839874,0.04474456235766411,0.013896775431931019
1701864826623193900,9.79819384765625,-0.03665083646774292,0.04474456235766411,0.009009997360408306
1701864826632785700,9.80778564453125,-0.0390942245721817,0.04352286830544472,0.005344913341104984
1701864826642378200,9.817378173828125,-0.03542914241552353,0.04230117425322533,0.0004581354442052543
1701864826651971600,9.8269716796875,-0.030542362481355667,0.04107947647571564,-0.0032069480512291193
1701864826661564200,9.836564208984376,-0.026877280324697495,0.037414394319057465,-0.0068720318377017975
1701864826671156000,9.846156005859376,-0.01954711228609085,0.03130592033267021,-0.010537114925682545
1701864826680748500,9.85574853515625,-0.012216945178806782,0.02641914412379265,-0.012980503961443901
1701864826690342000,9.865341796875,-0.008551862090826035,0.021532366052269936,-0.015423892997205257
1701864826699934500,9.8749345703125,-0.0036650835536420345,0.019088976085186005,-0.017867282032966614
1701864826709526300,9.8845263671875,0.0012216945178806782,0.014202198944985867,-0.020310672000050545
1701864826719118800,9.894118896484375,0.004886778071522713,0.01175880990922451,-0.022754060104489326
1701864826728712200,9.903712158203126,0.010995250195264816,0.010537114925682545,-0.025197450071573257
1701864826738304800,9.9133046875,0.01710372418165207,0.004428642801940441,-0.025197450071573257
1701864826747896600,9.922896484375,0.021990500390529633,-0.0004581354442052543,-0.025197450071573257
1701864826757489200,9.9324892578125,0.026877280324697495,-0.0065666078589856625,-0.023975754156708717
1701864826767082500,9.94208251953125,0.03176405653357506,-0.01511846948415041,-0.023975754156708717
1701864826776675000,9.951675048828125,0.04153761267662048,-0.017561858519911766,-0.02641914412379265
1701864826786267000,9.961266845703125,0.04886778071522713,-0.016340164467692375,-0.02764083817601204
1701864826795859500,9.970859375,0.04886778071522713,-0.021226942539215088,-0.02641914412379265
1701864826805452800,9.980452880859374,0.046424392610788345,-0.0261137206107378,-0.02641914412379265
1701864826815045400,9.99004541015625,0.05008947476744652,-0.028557108715176582,-0.02764083817601204
1701864826824637200,9.99963720703125,0.05375456064939499,-0.028557108715176582,-0.03008422814309597
1701864826834229800,10.009229736328125,0.061084724962711334,-0.02489202655851841,-0.03374931216239929
1701864826843823000,10.018822998046875,0.05619794875383377,-0.028557108715176582,-0.03130592033267021
1701864826853415700,10.028415771484376,0.05008947476744652,-0.032222192734479904,-0.02641914412379265
1701864826863007500,10.038007568359374,0.042759306728839874,-0.03588727489113808,-0.022754060104489326
1701864826872600000,10.04760009765625,0.0390942245721817,-0.03588727489113808,-0.021532366052269936
1701864826882193400,10.057193359375,0.042759306728839874,-0.032222192734479904,-0.022754060104489326
1701864826891786000,10.066785888671875,0.04031591862440109,-0.0261137206107378,-0.020310672000050545
1701864826901377800,10.076377685546875,0.030542362481355667,-0.02367033064365387,-0.014202198944985867
1701864826910970400,10.085970458984375,0.01710372418165207,-0.020005248486995697,-0.009315420873463154
1701864826920563700,10.095563720703124,0.008551862090826035,-0.013896775431931019,-0.0068720318377017975
1701864826930156300,10.10515625,0.006108472589403391,-0.007788302376866341,-0.005650337319821119
1701864826939748000,10.114748046875,0.0024433890357613564,-0.0016798300202935934,-0.005650337319821119
1701864826949340700,10.124340576171875,0,0.001985253533348441,-0.004428642801940441
1701864826958934000,10.13393408203125,-0.0024433890357613564,0.005650337319821119,-0.0032069480512291193
1701864826968526600,10.143526611328125,-0.006108472589403391,0.009315420873463154,-0.0007635590736754239
1701864826978118400,10.153118408203126,-0.008551862090826035,0.010537114925682545,-0.001985253533348441
1701864826987711000,10.1627109375,-0.010995250195264816,0.012980503961443901,-0.0068720318377017975
1701864826997304300,10.17230419921875,-0.0024433890357613564,0.016645587980747223,-0.014202198944985867
1701864827006897000,10.18189697265625,-0.0012216945178806782,0.023975754156708717,-0.019088976085186005
1701864827016488700,10.19148876953125,-0.0036650835536420345,0.03008422814309597,-0.021532366052269936
1701864827026081300,10.201081298828125,-0.012216945178806782,0.02641914412379265,-0.021532366052269936
1701864827035674600,10.210674560546876,-0.02076880633831024,0.017867282032966614,-0.021532366052269936
1701864827045267200,10.22026708984375,-0.01954711228609085,0.010537114925682545,-0.022754060104489326
1701864827054859000,10.22985888671875,-0.01588202826678753,0.001985253533348441,-0.023975754156708717
1701864827064451600,10.23945166015625,-0.010995250195264816,-0.0065666078589856625,-0.02641914412379265
1701864827074045000,10.249044921875,-0.0024433890357613564,-0.04077405482530594,-0.03130592033267021
1701864827083637500,10.258637451171875,0.0390942245721817,-0.08231166750192642,-0.06062658876180649
1701864827093229300,10.268229248046875,0.04153761267662048,-0.05787777900695801,-0.08994726091623306
1701864827102822000,10.27782177734375,0.03298575058579445,-0.06765133142471313,-0.08994726091623306
1701864827112415200,10.287415283203124,0.03298575058579445,-0.07620319724082947,-0.09116895496845245
1701864827122007800,10.2970078125,0.03665083646774292,-0.07375980913639069,-0.09116895496845245
1701864827131599600,10.306599609375,0.0390942245721817,-0.06887302547693253,-0.07773031294345856
1701864827141192200,10.316192138671875,0.0390942245721817,-0.05787777900695801,-0.05329642444849014
1701864827150785500,10.32578564453125,0.026877280324697495,-0.005344913341104984,-0.015423892997205257
1701864827160378000,10.335378173828126,0.009773556143045425,0.05085303261876106,0.031000498682260513
1701864827169970000,10.344969970703126,-0.004886778071522713,0.04963133856654167,0.05665608495473862
1701864827179562500,10.3545625,-0.012216945178806782,0.04230117425322533,0.05665608495473862
1701864827189155800,10.36415576171875,-0.009773556143045425,0.02764083817601204,0.051769305020570755
1701864827198748400,10.37374853515625,-0.01710372418165207,0.014202198944985867,0.04932591691613197
1701864827208340200,10.38334033203125,-0.01954711228609085,0.009315420873463154,0.04321744292974472
1701864827217932800,10.392932861328125,-0.01588202826678753,0.01175880990922451,0.031000498682260513
1701864827227526100,10.402526123046876,-0.014660334214568138,0.009315420873463154,0.016340164467692375
1701864827237118700,10.41211865234375,-0.009773556143045425,0.010537114925682545,0.004123218823224306
1701864827246710500,10.42171044921875,-0.008551862090826035,0.01175880990922451,-0.005650337319821119
1701864827256303000,10.43130322265625,-0.006108472589403391,0.012980503961443901,-0.010537114925682545
1701864827265896400,10.440896484375,-0.006108472589403391,0.012980503961443901,-0.015423892997205257
1701864827275489000,10.450489013671875,-0.0036650835536420345,-0.0065666078589856625,-0.02641914412379265
1701864827285080800,10.460080810546875,0.004886778071522713,-0.06276455521583557,-0.06062658876180649
1701864827294673400,10.46967333984375,0.02076880633831024,-0.12140589207410812,-0.10460758954286575
1701864827304266800,10.479266845703124,0.03420744836330414,-0.1372879147529602,-0.12293300777673721
1701864827313859300,10.488859375,0.023212196305394173,-0.0847550556063652,-0.09483403712511063
1701864827323451100,10.498451171875,-0.0024433890357613564,0.05085303261876106,-0.06184828653931618
1701864827333043700,10.508043701171875,-0.02076880633831024,0.15714046359062195,0.0029015245381742716
1701864827342637000,10.517636962890625,-0.03176405653357506,0.08139539510011673,0.0713164210319519
1701864827352229600,10.527229736328126,-0.01954711228609085,-0.034665580838918686,0.06032116711139679
1701864827361821400,10.536821533203126,-0.01588202826678753,0.004428642801940441,-0.001985253533348441
1701864827371414000,10.5464140625,-0.014660334214568138,0.06673506647348404,-0.05085303261876106
1701864827381007400,10.55600732421875,-0.004886778071522713,0.06306997686624527,-0.06673506647348404
1701864827390600000,10.565599853515625,0.007330167107284069,0.025197450071573257,-0.07773031294345856
1701864827400191700,10.575191650390625,0.023212196305394173,-0.013896775431931019,-0.08017370104789734
1701864827409784300,10.584784423828125,0.03420744836330414,-0.04443913698196411,-0.058183200657367706
1701864827419377700,10.594377685546876,0.025655584409832954,-0.03955236077308655,-0.020310672000050545
1701864827428970200,10.60397021484375,0.004886778071522713,-0.020005248486995697,0.021226942539215088
1701864827438562000,10.61356201171875,-0.013438640162348747,-0.0004581354442052543,0.06276455521583557
1701864827448154400,10.623154296875,-0.025655584409832954,0.017867282032966614,0.07009471952915192
1701864827457748000,10.632748046875,-0.026877280324697495,0.008093725889921188,0.04810422286391258
1701864827467340500,10.642340576171875,-0.024433890357613564,0.020310672000050545,0.021226942539215088
1701864827476932400,10.651932373046876,-0.01710372418165207,0.016645587980747223,0.0065666078589856625
1701864827486525000,10.66152490234375,-0.010995250195264816,0.004428642801940441,-0.005650337319821119
1701864827496118300,10.6711181640625,-0.009773556143045425,-0.012675080448389053,-0.010537114925682545
1701864827505710800,10.6807109375,-0.010995250195264816,-0.012675080448389053,-0.009315420873463154
1701864827515302400,10.690302490234375,-0.01588202826678753,0.0032069480512291193,-0.001985253533348441
1701864827524895200,10.699895263671875,-0.02076880633831024,0.03130592033267021,0.010231691412627697
1701864827534488600,10.709488525390626,-0.03542914241552353,0.06795676052570343,0.020005248486995697
1701864827544081200,10.7190810546875,-0.05008947476744652,0.09727742522954941,0.033443886786699295
1701864827553672700,10.728672607421874,-0.06719319522380829,0.1241547018289566,0.04321744292974472
1701864827563265500,10.738265625,-0.0659715011715889,0.13270656764507294,0.0456608310341835
1701864827572859000,10.74785888671875,-0.04153761267662048,0.09483403712511063,0.0456608310341835
1701864827582451500,10.757451416015625,-0.03542914241552353,0.07040014863014221,0.031000498682260513
1701864827592043300,10.767043212890625,-0.01710372418165207,0.03374931216239929,0.007788302376866341
1701864827601635800,10.7766357421875,-0.013438640162348747,0.009315420873463154,-0.001985253533348441
1701864827611229200,10.786229248046874,-0.007330167107284069,0.004428642801940441,-0.009315420873463154
1701864827620821800,10.79582177734375,0,0.004428642801940441,-0.017867282032966614
1701864827630413600,10.80541357421875,0.0024433890357613564,-0.0016798300202935934,-0.023975754156708717
1701864827640006100,10.815006103515625,0.0036650835536420345,-0.017561858519911766,-0.03008422814309597
1701864827649599500,10.824599609375,0.0012216945178806782,-0.037108972668647766,-0.04230117425322533
1701864827659192000,10.834192138671876,-0.004886778071522713,-0.04688252881169319,-0.056961506605148315
1701864827668783900,10.843783935546876,-0.010995250195264816,-0.03588727489113808,-0.06917845457792282
1701864827678376200,10.853376220703124,-0.021990500390529633,-0.011453386396169662,-0.072843536734581
1701864827687969800,10.8629697265625,-0.0390942245721817,0.016645587980747223,-0.039857782423496246
1701864827697562400,10.872562255859375,-0.03420744836330414,0.03130592033267021,0.012675080448389053
1701864827707154200,10.882154296875,-0.03542914241552353,0.023975754156708717,0.01511846948415041
1701864827716746800,10.891746826171875,-0.02076880633831024,0.014202198944985867,0.005344913341104984
1701864827726340000,10.901340087890626,-0.004886778071522713,-0.02489202655851841,-0.0007635590736754239
1701864827735932700,10.9109326171875,0.013438640162348747,-0.1238492801785469,-0.037414394319057465
1701864827745524200,10.920524169921874,0.03665083646774292,-0.15561333298683167,-0.1253764033317566
1701864827755117000,10.930116943359375,0.07330167293548584,-0.12262758612632751,-0.21211670339107513
1701864827764710400,10.93971044921875,0.05741964280605316,0.005650337319821119,-0.21333840489387512
1701864827774303000,10.949302978515625,0.05497625470161438,0.016645587980747223,-0.12781979143619537
1701864827783894500,10.95889453125,0.08185353130102158,-0.020005248486995697,-0.06184828653931618
1701864827793487400,10.9684873046875,0.09773556143045425,-0.02367033064365387,-0.022754060104489326
1701864827803080700,10.978080810546874,0.09040539711713791,0.03374931216239929,0.009009997360408306
1701864827812673300,10.98767333984375,0.05864133685827255,0.08994726091623306,0.037108972668647766
1701864827822265000,10.99726513671875,0.03420744836330414,0.08994726091623306,0.04688252881169319
1701864827831857700,11.006857666015625,0.0024433890357613564,0.08628217875957489,0.03833066672086716
1701864827841451000,11.016450927734375,-0.010995250195264816,0.07773031294345856,0.021226942539215088
1701864827851043600,11.026043701171876,0.009773556143045425,0.039857782423496246,0.013896775431931019
1701864827860635400,11.035635498046876,0.024433890357613564,0.02764083817601204,-0.0007635590736754239
1701864827870227700,11.045227783203124,0.04886778071522713,-0.009009997360408306,-0.010537114925682545
1701864827879821300,11.0548212890625,0.08185353130102158,-0.05665608495473862,-0.022754060104489326
1701864827889414000,11.064413818359375,0.10995250940322876,-0.0725381150841713,-0.05329642444849014
1701864827899005700,11.074005615234375,0.14904673397541046,-0.021226942539215088,-0.11315945535898209
1701864827908598000,11.083597900390625,0.17470231652259827,0.037414394319057465,-0.1644706279039383
1701864827918191600,11.093191650390626,0.17714570462703705,0.04840964451432228,-0.1620272397994995
1701864827927784200,11.1027841796875,0.1563768982887268,0.0716218426823616,-0.12293300777673721
1701864827937376000,11.1123759765625,0.10873081535100937,0.12171131372451782,-0.07406523078680038
1701864827946968600,11.121968505859375,0.07085828483104706,0.15958385169506073,-0.03008422814309597
1701864827956562000,11.13156201171875,0.05008947476744652,0.1889045089483261,-0.001985253533348441
1701864827966154500,11.141154541015625,0.03176405653357506,0.2170034945011139,0.004123218823224306
1701864827975746300,11.150746337890626,0.013438640162348747,0.24510246515274048,-0.009315420873463154
1701864827985339000,11.1603388671875,0.013438640162348747,0.24632415175437927,-0.02764083817601204
1701864827994932200,11.16993212890625,0.025655584409832954,0.2157817929983139,-0.04230117425322533
1701864828004524800,11.17952490234375,0.04031591862440109,0.1766875684261322,-0.05207473039627075
1701864828014116400,11.189116455078125,0.046424392610788345,0.16813570261001587,-0.07040014863014221
1701864828023709200,11.198709228515625,0.04886778071522713,0.1498102843761444,-0.08872556686401367
1701864828033302500,11.208302490234376,0.045202698558568954,0.13392825424671173,-0.10094250738620758
1701864828042895000,11.21789501953125,0.030542362481355667,0.12171131372451782,-0.10094250738620758
1701864828052486700,11.227486572265626,0.010995250195264816,0.10216420143842697,-0.0984991192817688
1701864828062079500,11.23707958984375,-0.004886778071522713,0.07773031294345856,-0.11315945535898209
1701864828071672800,11.2466728515625,-0.01832541823387146,0.017867282032966614,-0.13270656764507294
1701864828081265400,11.256265380859375,-0.01832541823387146,-0.03588727489113808,-0.14858859777450562
1701864828090857200,11.265857177734375,-0.01588202826678753,-0.04321744292974472,-0.1632489264011383
1701864828100449800,11.27544970703125,-0.009773556143045425,-0.04443913698196411,-0.15958385169506073
1701864828110043100,11.285043212890624,-0.025655584409832954,-0.03833066672086716,-0.12659808993339539
1701864828119635700,11.2946357421875,-0.05864133685827255,0.0032069480512291193,-0.09605573117733002
1701864828129227500,11.3042275390625,-0.09529217332601547,0.008093725889921188,-0.06306997686624527
1701864828138820000,11.313820068359375,-0.12583453953266144,-0.020005248486995697,-0.036192700266838074
1701864828148413400,11.323413330078125,-0.1441599577665329,-0.0847550556063652,-0.0068720318377017975
1701864828158006000,11.333006103515626,-0.15149012207984924,-0.1507265567779541,0.02489202655851841
1701864828167597800,11.342597900390626,-0.14049486815929413,-0.19470755755901337,0.05543438717722893
1701864828177190400,11.3521904296875,-0.10873081535100937,-0.2032594233751297,0.0859767496585846
1701864828186783700,11.36178369140625,-0.0781884491443634,-0.21791976690292358,0.12751436233520508
1701864828196376300,11.371376220703125,-0.043981000781059265,-0.2289150059223175,0.1629435122013092
1701864828205968100,11.380968017578125,-0.02076880633831024,-0.2166980654001236,0.18004722893238068
1701864828215560700,11.390560791015625,-0.02076880633831024,-0.1776038408279419,0.18493400514125824
1701864828225154000,11.400154052734376,-0.030542362481355667,-0.15316994488239288,0.1751604527235031
1701864828234746600,11.40974658203125,-0.07330167293548584,-0.13973131775856018,0.15439164638519287
1701864828244338400,11.41933837890625,-0.16370706260204315,-0.14583978056907654,0.14095300436019897
1701864828253931000,11.428930908203125,-0.25655585527420044,-0.19348587095737457,0.1629435122013092
1701864828263524400,11.4385244140625,-0.29565006494522095,-0.28633466362953186,0.2313583940267563
1701864828273117000,11.448116943359375,-0.2919849753379822,-0.3852919042110443,0.3083251416683197
1701864828282708700,11.457708740234375,-0.2895416021347046,-0.4563029110431671,0.3596363365650177
1701864828292301300,11.46730126953125,-0.27121618390083313,-0.47585001587867737,0.39140036702156067
1701864828301894700,11.476894775390624,-0.17714570462703705,-0.4355340898036957,0.43049460649490356
1701864828311487200,11.4864873046875,-0.1710372269153595,-0.4709632396697998,0.4659237563610077
1701864828321079000,11.4960791015625,-0.25777754187583923,-0.46485477685928345,0.4647020399570465
1701864828330671600,11.505671630859375,-0.34696123003959656,-0.5149442553520203,0.4500417113304138
1701864828340265000,11.515264892578125,-0.393385648727417,-0.6065713167190552,0.3828485310077667
1701864828349857500,11.524857421875,-0.33474430441856384,-0.6810947060585022,0.30343836545944214
1701864828359449300,11.534449462890626,-0.23212195932865143,-0.399952232837677,0.19592925906181335
1701864828369042000,11.5440419921875,-0.0659715011715889,-0.21058958768844604,0.14217470586299896
1701864828378635300,11.55363525390625,0.16370706260204315,-0.164165198802948,0.24479703605175018
1701864828388227800,11.563227783203125,0.33474430441856384,0.0850604772567749,0.3620797097682953
1701864828397819600,11.572819580078125,0.4178195297718048,0.3623851239681244,0.573585569858551
1701864828407412200,11.582412109375,0.38727715611457825,0.5529694557189941,0.9596410393714905
1701864828417005600,11.592005615234376,0.3384093940258026,0.6910209655761719,1.3518049716949463
1701864828426598100,11.60159814453125,0.367730051279068,0.7850914597511292,1.6718889474868774
1701864828436190000,11.61118994140625,0.7427902817726135,1.6170654296875,1.8526997566223145
1701864828445782500,11.620782470703125,0.9871291518211365,1.9237107038497925,1.5643798112869263
1701864828455376000,11.6303759765625,0.7379034757614136,1.6451643705368042,1.7635160684585571
1701864828464968400,11.639968505859375,0.41415444016456604,1.4289244413375854,1.9345532655715942
1701864828474560300,11.649560302734375,0.17714570462703705,1.099066972732544,2.158123254776001
1701864828484152800,11.65915283203125,0.03787253051996231,0.9768974781036377,2.2583022117614746
1701864828493746200,11.66874609375,0.01832541823387146,1.1577082872390747,2.250972032546997
1701864828503338800,11.6783388671875,0.0659715011715889,1.4655753374099731,2.33160400390625
1701864828512930600,11.6879306640625,0.029320668429136276,1.6928104162216187,2.4171226024627686
1701864828522523100,11.697523193359375,-0.05986303091049194,2.0092294216156006,2.4464433193206787
1701864828532116500,11.707116455078125,-0.13316470384597778,2.348860502243042,2.456216812133789
1701864828541709000,11.716708984375,-0.19424942135810852,2.6689443588256836,2.2460854053497314
1701864828551300900,11.72630078125,-0.258999228477478,2.89251446723938,1.9956380128860474
1701864828560893400,11.7358935546875,-0.4349232614040375,2.9609293937683105,1.6963227987289429
1701864828570486800,11.74548681640625,-0.7769976854324341,2.907174825668335,1.1025793552398682
1701864828580079400,11.755079345703125,-1.2096302509307861,3.3054473400115967,0.41949936747550964
1701864828589671200,11.764671142578125,-1.5761386156082153,3.9358415603637695,0.24479703605175018
1701864828599263700,11.774263671875,-1.787491798400879,4.269364356994629,0.23746687173843384
1701864828608857000,11.783857177734374,-2.0122835636138916,4.503929615020752,0.21791976690292358
1701864828618449700,11.79344970703125,-2.369018316268921,4.7226128578186035,0.09086353331804276
1701864828628041500,11.80304150390625,-2.8369274139404297,4.90342378616333,-0.1522536724805832
1701864828637634000,11.812634033203125,-3.3280484676361084,4.995203495025635,-0.46867257356643677
1701864828647227400,11.822227294921875,-3.7788538932800293,5.116151332855225,-0.7948650121688843
1701864828656820000,11.831820068359375,-4.167352676391602,5.309178829193115,-1.057529330253601
1701864828666411800,11.841411865234376,-4.482549667358398,5.3531599044799805,-1.2187930345535278
1701864828676004400,11.85100439453125,-4.724445343017578,5.248094081878662,-1.2896512746810913
1701864828685597700,11.86059765625,-4.9394636154174805,5.151580333709717,-1.3629529476165771
1701864828695190300,11.870190185546875,-5.072628498077393,4.996425151824951,-1.468018651008606
1701864828704782000,11.879781982421875,-5.087288856506348,4.820348262786865,-1.5510939359664917
1701864828714374700,11.889374755859375,-5.029869079589844,4.865550994873047,-1.5107779502868652
1701864828723968000,11.898968017578126,-4.989552974700928,5.134476661682129,-1.3079767227172852
