time,seconds_elapsed,z,y,x
1701865418623453700,0.10945361328125,9.725028991699219,6.134599208831787,0.4698905348777771
1701865418633046500,0.119046630859375,9.171988487243652,5.6294145584106445,-0.032602209597826004
1701865418642638300,0.128638427734375,8.319544792175293,5.461916923522949,-0.50907301902771
1701865418652231200,0.138231201171875,7.532007694244385,5.586343765258789,-1.2873386144638062
1701865418661824800,0.14782470703125,6.569494724273682,5.792425632476807,-1.983949065208435
1701865418671417600,0.15741748046875,5.7771711349487305,5.938387393951416,-2.462812662124634
1701865418681009400,0.167009521484375,5.106881618499756,6.002993583679199,-2.527418851852417
1701865418690602500,0.1766025390625,4.766801834106445,6.067600250244141,-2.1107685565948486
1701865418700195800,0.18619580078125,4.8553361892700195,6.141777515411377,-1.3088740110397339
1701865418709788700,0.19578857421875,5.3078789710998535,6.223133563995361,-0.3152543902397156
1701865418719380700,0.205380615234375,6.270391941070557,6.235097408294678,0.5659025311470032
1701865418728973600,0.2149736328125,7.172784805297852,6.235097408294678,1.1979068517684937
1701865418738567200,0.224567138671875,7.632505893707275,6.218348026275635,1.425225019454956
1701865418748159700,0.23415966796875,7.982157230377197,6.060421466827393,1.1931211948394775
1701865418757751800,0.243751708984375,8.063512802124023,5.900102615356445,0.5105685591697693
1701865418767344600,0.2533447265625,7.689933776855469,5.892923831939697,-0.31764721870422363
1701865418776938200,0.262938232421875,7.203891754150391,6.180062770843506,-0.7438687682151794
1701865418786530800,0.27253076171875,6.746862411499023,6.52253532409668,-0.7223333120346069
1701865418796123000,0.282122802734375,6.116951942443848,6.536892414093018,0.15643078088760376
1701865418805715700,0.2917158203125,5.925526142120361,6.3000030517578125,1.090229868888855
1701865418815309300,0.301309326171875,5.872884273529053,6.393322944641113,1.6453646421432495
1701865418824902100,0.310902099609375,5.994917869567871,6.673283100128174,1.8729819059371948
1701865418834494200,0.320494140625,6.81386137008667,6.682854652404785,2.210369825363159
1701865418844087000,0.330087158203125,7.225427150726318,6.656533718109131,2.0309081077575684
1701865418853680600,0.3396806640625,7.3262248039245605,6.692425727844238,1.1093723773956299
1701865418863273200,0.349273193359375,7.283154010772705,6.5991058349609375,0.3047857880592346
1701865418872865300,0.358865234375,6.710970401763916,6.52253532409668,-0.40378883481025696
1701865418882458000,0.3684580078125,6.090631008148193,6.728318214416504,-1.1003992557525635
1701865418892051700,0.3780517578125,5.5953168869018555,6.929614543914795,-1.6223337650299072
1701865418901644300,0.387644287109375,5.422734260559082,6.903293132781982,-1.830808401107788
1701865418911236400,0.397236328125,5.7771711349487305,6.860222339630127,-1.8954145908355713
1701865418920829200,0.4068291015625,6.21774959564209,6.79531717300415,-1.7231314182281494
1701865418930422800,0.4164228515625,6.323033809661865,6.797709941864014,-1.3567304611206055
1701865418940015600,0.426015625,6.919145584106445,6.941578388214111,-0.8730811476707458
1701865418949607400,0.435607421875,7.733004570007324,6.977470874786377,-0.5904290080070496
1701865418959200300,0.4452001953125,8.48016357421875,6.908079147338867,-0.5641079545021057
1701865418968793900,0.4547939453125,8.906085968017578,6.86261510848999,-0.14057832956314087
1701865418978386700,0.46438671875,9.02841854095459,6.634998321533203,0.3454637825489044
1701865418987978800,0.473978759765625,8.827122688293457,6.503392696380615,0.6735795736312866
1701865418997571600,0.483571533203125,8.666803359985352,6.474678993225098,0.8147560954093933
1701865419007165000,0.4931650390625,8.31715202331543,6.491428852081299,1.1859427690505981
1701865419016757800,0.5027578125,7.63729190826416,6.615855693817139,1.5616158246994019
1701865419026349800,0.512349853515625,6.914360046386719,6.606284141540527,1.7629120349884033
1701865419035942700,0.521942626953125,6.533602237701416,6.443572044372559,1.82273268699646
1701865419045536300,0.531536376953125,6.4354963302612305,6.39093017578125,1.674377679824829
1701865419055128800,0.54112890625,6.33499813079834,6.491428852081299,1.3103694915771484
1701865419064721000,0.550720947265625,5.858527183532715,6.718746662139893,0.9631111025810242
1701865419074313700,0.560313720703125,5.248058319091797,7.010970115661621,0.7884350419044495
1701865419083907300,0.5699072265625,5.420341491699219,6.869793891906738,0.7405785918235779
1701865419093500200,0.579500244140625,5.532804012298584,6.991827964782715,0.26171496510505676
1701865419103092000,0.589092041015625,5.475376605987549,7.489833831787109,0.3478565812110901
1701865419112684800,0.598684814453125,5.580959796905518,7.6166534423828125,0.8889335989952087
1701865419122278400,0.6082783203125,6.097809314727783,7.465905666351318,1.4826527833938599
1701865419131871200,0.617871337890625,6.674778938293457,7.372286796569824,1.85383939743042
1701865419141463300,0.62746337890625,6.9598236083984375,7.274180889129639,2.282453775405884
1701865419151056100,0.63705615234375,7.034001350402832,7.262216567993164,2.598306179046631
1701865419160649500,0.6466494140625,7.043572425842285,7.2813591957092285,2.6030919551849365
1701865419170242300,0.6562421875,7.201498985290527,7.22871732711792,2.5480570793151855
1701865419179834400,0.66583447265625,7.63729190826416,7.0923261642456055,2.5313072204589844
1701865419189427200,0.67542724609375,8.247760772705078,6.951149940490723,2.607877492904663
1701865419199020800,0.685020751953125,8.726624488830566,6.872186660766602,2.653341293334961
1701865419208613600,0.694613525390625,8.978169441223145,6.711568355560303,2.799602508544922
1701865419218205400,0.704205322265625,8.980562210083008,6.524928092956543,2.9359934329986572
1701865419227798300,0.71379833984375,8.425128936767578,6.424429893493652,2.981456995010376
1701865419237392000,0.723391845703125,7.153642177581787,6.637391090393066,2.792423963546753
1701865419246984700,0.732984619140625,6.172286033630371,6.896114826202393,2.4547369480133057
1701865419256576500,0.742576416015625,5.624030590057373,7.046862602233887,2.215454578399658
1701865419266169300,0.75216943359375,5.078167915344238,7.008577346801758,2.268096685409546
1701865419275763000,0.761762939453125,4.649553298950195,6.816852569580078,2.4451656341552734
1701865419285355800,0.771355712890625,4.613661289215088,6.634998321533203,2.823530673980713
1701865419294947800,0.78094775390625,4.896014213562012,6.8503522872924805,2.8211379051208496
1701865419304540700,0.790540771484375,5.391627788543701,7.2095746994018555,2.4762723445892334
1701865419314134000,0.800134033203125,5.920740604400635,7.530511856079102,2.152942180633545
1701865419323726800,0.809726806640625,5.992525100708008,7.473084449768066,2.229811668395996
1701865419333319000,0.81931884765625,5.496912002563477,6.91765022277832,2.833101987838745
1701865419342911700,0.828911865234375,6.196214199066162,7.386643409729004,0.9200403094291687
1701865419352505300,0.83850537109375,6.138786315917969,8.064410209655762,1.0372886657714844
1701865419362098200,0.84809814453125,6.55992317199707,8.411369323730469,0.747757077217102
1701865419371690000,0.85768994140625,6.811468601226807,8.442476272583008,0.41964125633239746
1701865419381282800,0.86728271484375,6.521637916564941,8.277371406555176,0.6855437159538269
1701865419390876400,0.87687646484375,6.078666687011719,8.057231903076172,0.9511470198631287
1701865419400469200,0.88646923828125,6.169893264770508,7.910970687866211,1.2218350172042847
1701865419410061000,0.89606103515625,6.382854461669922,7.889435291290283,1.5951154232025146
1701865419419654000,0.90565380859375,6.686742782592773,7.765008449554443,1.973480463027954
1701865419429247500,0.91524755859375,7.141678333282471,7.662117004394531,2.315953254699707
1701865419438840300,0.92484033203125,7.539186000823975,7.791329860687256,2.4930222034454346
1701865419448432400,0.934432373046875,7.522436141967773,8.026124954223633,2.435594320297241
1701865419458025200,0.944025146484375,7.1871418952941895,8.13380241394043,2.2489542961120605
1701865419467618800,0.953618896484375,6.4905314445495605,7.7267231941223145,2.3111674785614014
1701865419477211400,0.96321142578125,5.652744293212891,7.018148899078369,2.7442684173583984
1701865419486803500,0.972803466796875,5.102096080780029,6.38375186920166,3.2614171504974365
1701865419496396300,0.982396240234375,4.805087089538574,6.2327046394348145,3.749852180480957
1701865419505990000,0.991989990234375,4.711766719818115,6.5512495040893555,3.685245990753174
1701865419515582700,1.001582763671875,4.955834865570068,6.656533718109131,3.496212959289551
1701865419525174500,1.011174560546875,5.7532429695129395,6.718746662139893,3.3837504386901855
1701865419534767400,1.020767333984375,6.296712875366211,6.690032958984375,3.467499017715454
1701865419544361000,1.03036083984375,6.299105644226074,6.101099491119385,3.982254981994629
1701865419553953500,1.03995361328125,6.569494724273682,5.900102615356445,3.661317825317383
1701865419563545600,1.049545654296875,7.172784805297852,6.3478593826293945,2.560021162033081
1701865419573138400,1.059138427734375,7.7114691734313965,6.632605075836182,2.052443504333496
1701865419582732000,1.06873193359375,7.826623916625977,6.441179275512695,2.1003000736236572
1701865419592324900,1.078324951171875,7.661220073699951,6.19920539855957,2.7828526496887207
1701865419601917000,1.0879169921875,7.46500825881958,6.046064376831055,3.5033915042877197
1701865419611509500,1.097509521484375,7.350152969360352,5.962316036224365,3.5967116355895996
1701865419621103000,1.10710302734375,7.431509017944336,6.079564094543457,3.3092737197875977
1701865419630696000,1.116696044921875,7.63729190826416,6.249454498291016,3.091526746749878
1701865419640288000,1.1262880859375,7.515257835388184,6.2877397537231445,3.081955671310425
1701865419649880800,1.135880859375,7.251748085021973,6.314359664916992,3.16331148147583
1701865419659474400,1.145474365234375,7.050751209259033,6.414858341217041,3.2135608196258545
1701865419669067000,1.15506689453125,6.952645301818848,6.491428852081299,3.2470602989196777
1701865419678659000,1.1646591796875,6.8018975257873535,6.450750827789307,3.388535976409912
1701865419688252000,1.174251953125,6.773183822631836,6.38375186920166,3.5105698108673096
1701865419697845500,1.183845458984375,6.976573467254639,6.326323986053467,3.6517465114593506
1701865419707438000,1.19343798828125,7.354938507080078,6.251847267150879,3.9008991718292236
1701865419717030100,1.203030029296875,7.599006652832031,6.184848308563232,4.171288013458252
1701865419726623000,1.212623046875,7.366902828216553,6.096313953399658,4.473083019256592
1701865419736216600,1.222216552734375,6.6006011962890625,6.093921184539795,4.654937267303467
1701865419745809400,1.231809326171875,5.968596935272217,6.4818572998046875,4.7626142501831055
1701865419755401200,1.241401123046875,5.070989608764648,6.613462448120117,4.887041091918945
1701865419764994000,1.250994140625,4.551447868347168,6.627819538116455,4.772185802459717
1701865419774587600,1.260587646484375,4.570590496063232,6.7091755867004395,4.441677093505859
1701865419784180500,1.270180419921875,5.015954494476318,6.5847487449646,4.288536548614502
1701865419793772500,1.2797724609375,5.508875846862793,6.331109523773193,4.635794639587402
1701865419803365400,1.289365478515625,5.961418628692627,6.1465630531311035,4.922933578491211
1701865419812959000,1.298958984375,6.33499813079834,5.9886369705200195,5.162514686584473
1701865419822551600,1.308551513671875,6.473781585693359,5.971887111663818,5.3970112800598145
1701865419832143600,1.3181435546875,6.14835786819458,6.036493301391602,5.5142598152160645
1701865419841736400,1.327736328125,5.875277042388916,6.093921184539795,5.464010715484619
1701865419851330000,1.337330078125,5.791528224945068,6.091528415679932,5.377869129180908
1701865419860923000,1.3469228515625,5.8082780838012695,6.086742401123047,5.267798900604248
1701865419870514700,1.3565146484375,5.985346794128418,6.096313953399658,5.107480049133301
1701865419880107500,1.366107421875,6.141179084777832,6.022136211395264,5.073980331420898
1701865419889701000,1.375701171875,6.138786315917969,5.9814581871032715,5.126622676849365
1701865419899294000,1.3852939453125,6.157928943634033,5.935994625091553,5.231906890869141
1701865419908885800,1.3948857421875,6.208178520202637,5.85703182220459,5.227120876312256
1701865419918478600,1.404478515625,6.119344711303711,5.873781204223633,5.198407173156738
1701865419928072200,1.414072265625,5.97098970413208,5.962316036224365,5.066802024841309
1701865419937665000,1.4236650390625,5.815456390380859,5.998208045959473,4.982754230499268
1701865419947257000,1.433257080078125,5.5591254234313965,6.010172367095947,4.901398181915283
1701865419956849700,1.442849609375,5.348556995391846,6.038886070251465,4.753043174743652
1701865419966443300,1.452443359375,5.224130153656006,5.974279880523682,4.647758960723877
1701865419976036000,1.4620361328125,5.25762939453125,5.722734451293945,4.925326347351074
1701865419985628200,1.471628173828125,5.612066268920898,5.571986675262451,5.02133846282959
1701865419995221000,1.481220947265625,5.951847076416016,5.605485916137695,5.143372058868408
1701865420004814600,1.490814697265625,5.796313762664795,5.593522071838379,4.70518684387207
1701865420014407200,1.5004072265625,5.362913608551025,5.459524154663086,4.5568318367004395
1701865420023999200,1.509999267578125,5.207380294799805,5.504987716674805,4.626223564147949
1701865420033592000,1.519592041015625,5.1427741050720215,5.6724853515625,4.535296440124512
1701865420043185700,1.529185546875,5.233701229095459,5.790032386779785,4.3483567237854
1701865420052778200,1.5387783203125,5.403591632843018,5.698806285858154,4.448855400085449
1701865420062370300,1.548370361328125,5.463412284851074,5.495416164398193,4.776971340179443
1701865420071963100,1.557963134765625,5.427519798278809,5.280062198638916,5.069194793701172
1701865420081556700,1.567556640625,5.317450046539307,5.054837703704834,5.2151570320129395
1701865420091149600,1.577149658203125,5.207380294799805,4.8777689933776855,5.169693470001221
1701865420100741400,1.586741455078125,5.121238708496094,4.794020175933838,5.073980331420898
1701865420110334200,1.596334228515625,4.998905658721924,4.7796630859375,5.1529436111450195
1701865420119927800,1.605927734375,4.809872627258301,4.71027135848999,5.5142598152160645
1701865420129520600,1.615520751953125,4.912764072418213,4.6408796310424805,5.906981945037842
1701865420139112700,1.62511279296875,5.066203594207764,4.731806755065918,5.808876037597656
1701865420148705500,1.63470556640625,4.951049327850342,4.748556613922119,5.9213385581970215
1701865420158299000,1.644298828125,4.884049892425537,4.662415027618408,5.753840923309326
1701865420167891700,1.6538916015625,4.982155799865723,4.657629489898682,5.701199054718018
1701865420177483800,1.66348388671875,5.051846981048584,4.64805793762207,5.885446548461914
1701865420187076600,1.67307666015625,5.047060966491699,4.5807600021362305,6.055336952209473
1701865420196670200,1.682670166015625,4.998905658721924,4.485046863555908,6.08405065536499
1701865420206262800,1.6922626953125,4.955834865570068,4.468297004699707,5.856732368469238
1701865420215854800,1.701854736328125,4.833800792694092,4.3773698806762695,5.713163375854492
1701865420225447700,1.71144775390625,4.66869592666626,4.19072961807251,6.033801555633545
1701865420235041300,1.721041259765625,4.505984306335449,4.133302211761475,6.448058605194092
1701865420244634000,1.730634033203125,4.4243292808532715,4.025325775146484,7.060920715332031
1701865420254226000,1.740225830078125,4.242474555969238,4.032504558563232,8.071290016174316
1701865420263818800,1.74981884765625,4.029513359069824,4.346263408660889,8.645866394042969
1701865420273412400,1.759412353515625,4.022335052490234,4.592723846435547,8.794221878051758
1701865420283005000,1.7690048828125,4.206582069396973,4.599902629852295,8.755936622619629
1701865420292597000,1.778596923828125,4.412364959716797,4.549653053283691,8.626724243164062
1701865420302189800,1.78818994140625,4.491627216339111,4.456333160400391,8.392227172851562
1701865420311783400,1.797783447265625,4.551447868347168,4.355834484100342,8.257929801940918
1701865420321376300,1.807376220703125,4.872086048126221,4.123730659484863,8.368000030517578
1701865420330968000,1.816968017578125,5.183452129364014,3.9080774784088135,8.9883394241333
1701865420340561200,1.82656103515625,5.30548620223999,3.8530426025390625,9.2826566696167
1701865420350154500,1.836154541015625,5.43709135055542,3.8123645782470703,9.301798820495605
1701865420359747300,1.845747314453125,5.535196781158447,3.7405800819396973,9.210871696472168
1701865420369339400,1.85533935546875,5.588138103485107,3.637688636779785,8.909076690673828
1701865420378932200,1.86493212890625,5.638387680053711,3.5635111331939697,8.502297401428223
1701865420388525800,1.87452587890625,5.679065227508545,3.510869026184082,8.243573188781738
1701865420398118400,1.884118408203125,5.647958755493164,3.5300116539001465,7.987541198730469
1701865420407710500,1.89371044921875,5.631208896636963,3.556332588195801,7.747959613800049
1701865420417303300,1.90330322265625,5.482554912567139,3.465106248855591,7.594819068908691
1701865420426897000,1.91289697265625,5.348556995391846,3.34785795211792,7.635497093200684
1701865420436489700,1.92248974609375,5.303092956542969,3.244966506958008,7.798209190368652
1701865420446081500,1.93208154296875,5.370092391967773,3.166003465652466,8.085646629333496
1701865420455674400,1.94167431640625,5.372485160827637,3.082254648208618,8.399405479431152
1701865420465268000,1.95126806640625,5.334199905395508,3.0200412273406982,8.564510345458984
1701865420474860500,1.960860595703125,5.463412284851074,2.9362924098968506,8.533403396606445
1701865420484452600,1.97045263671875,5.566303730010986,2.833101987838745,8.327322006225586
1701865420494045400,1.98004541015625,5.693422317504883,2.720639228820801,8.054539680480957
1701865420503639000,1.98963916015625,5.810670852661133,2.610569477081299,7.774280548095703
1701865420513232000,1.99923193359375,5.882455348968506,2.4813570976257324,7.659425258636475
1701865420522823700,2.00882373046875,5.9662041664123535,2.4430718421936035,7.688138961791992
1701865420532416500,2.01841650390625,6.049952983856201,2.4191436767578125,7.724031448364258
1701865420542010000,2.028010009765625,6.093023777008057,2.2968106269836426,7.827221870422363
1701865420551603000,2.03760302734375,6.222535133361816,2.165205478668213,7.975576877593994
1701865420561195000,2.047195068359375,6.358926296234131,2.0359928607940674,8.178966522216797
1701865420570787800,2.056787841796875,6.378068923950195,1.9953149557113647,8.286643981933594
1701865420580381200,2.066381103515625,6.34217643737793,1.8996020555496216,8.3898344039917
1701865420589974000,2.07597412109375,6.337390899658203,1.7964116334915161,8.420941352844238
1701865420599566000,2.085566162109375,6.366104602813721,1.784447431564331,8.348856925964355
1701865420609159000,2.095158935546875,6.2871413230896,1.8134604692459106,8.332107543945312
1701865420618752500,2.10475244140625,6.1073808670043945,1.88285231590271,8.301000595092773
1701865420628345000,2.114344970703125,5.935097694396973,1.91395902633667,8.222037315368652
1701865420637937200,2.123937255859375,5.798706531524658,1.942672848701477,8.102396965026855
1701865420647530000,2.133530029296875,5.6192450523376465,1.9666011333465576,8.006683349609375
1701865420657123600,2.14312353515625,5.458626747131348,1.973779559135437,7.951648712158203
1701865420666716200,2.152716064453125,5.547161102294922,1.9522441625595093,7.944470405578613
1701865420676308200,2.16230810546875,5.712564945220947,1.9642082452774048,8.064111709594727
1701865420685901000,2.171901123046875,5.8250274658203125,1.9977078437805176,8.267500877380371
1701865420695494700,2.18149462890625,6.0140604972839355,2.00727915763855,8.435297966003418
1701865420705087500,2.19108740234375,6.153143405914307,2.00727915763855,8.442476272583008
1701865420714679300,2.20067919921875,6.181857109069824,1.9713867902755737,8.411369323730469
1701865420724272000,2.210272216796875,6.109773635864258,1.9091733694076538,8.379963874816895
1701865420733865700,2.21986572265625,6.064310073852539,1.7964116334915161,8.385048866271973
1701865420743458600,2.22945849609375,6.057131290435791,1.6360924243927002,8.456833839416504
1701865420753050600,2.239050537109375,6.037988662719727,1.516451358795166,8.49033260345459
1701865420762643500,2.2486435546875,6.085845470428467,1.4087743759155273,8.538188934326172
1701865420772236800,2.25823681640625,6.177071571350098,1.2699905633926392,8.581260681152344
1701865420781829600,2.26782958984375,6.150750637054443,1.1428718566894531,8.7176513671875
1701865420791421700,2.277421630859375,6.049952983856201,1.0686944723129272,8.806185722351074
1701865420801014500,2.2870146484375,5.980561256408691,1.0184451341629028,8.81814956665039
1701865420810608000,2.296608154296875,5.980561256408691,0.9586246013641357,8.854042053222656
1701865420820200700,2.30620068359375,5.961418628692627,0.8820542693138123,8.794221878051758
1701865420829792800,2.315792724609375,5.982954025268555,0.8054839372634888,8.605188369750977
1701865420839385600,2.325385498046875,6.109773635864258,0.6472585201263428,8.356036186218262
1701865420848979200,2.334979248046875,6.33499813079834,0.4342973232269287,7.963613033294678
1701865420858571800,2.34457177734375,6.626922130584717,0.30987054109573364,7.3052873611450195
1701865420868163800,2.354163818359375,6.978966236114502,0.2476571500301361,6.440880298614502
1701865420877756700,2.363756591796875,7.259225845336914,0.13040883839130402,5.612664699554443
1701865420887350300,2.373350341796875,7.4602227210998535,-0.11635100096464157,5.133800983428955
1701865420896942800,2.38294287109375,7.816753387451172,-0.32691940665245056,4.796113967895508
1701865420906535000,2.392534912109375,8.31715202331543,-0.5282155871391296,4.53290319442749
1701865420916127700,2.402127685546875,8.69791030883789,-0.6861419081687927,4.252644062042236
1701865420925721300,2.411721435546875,8.85344409942627,-0.7507480978965759,3.8168511390686035
1701865420935314200,2.421314208984375,8.61176872253418,-0.9589236974716187,3.3526437282562256
1701865420944906000,2.430906005859375,8.037192344665527,-1.4593226909637451,3.074777126312256
1701865420954498800,2.440498779296875,7.386045455932617,-1.9453648328781128,2.660519599914551
1701865420964092400,2.450092529296875,6.794719219207764,-2.2974088191986084,2.275275230407715
1701865420973685200,2.459685302734375,6.27996301651001,-2.8002007007598877,2.3901307582855225
1701865420983277000,2.469277099609375,5.798706531524658,-3.2982068061828613,3.129812002182007
1701865420992870100,2.4788701171875,5.228915691375732,-3.5422747135162354,4.066003799438477
1701865421002463500,2.48846337890625,4.458127498626709,-3.602095365524292,4.820042133331299
1701865421012056300,2.498056396484375,3.3975090980529785,-3.695415496826172,5.42572546005249
1701865421021648400,2.5076484375,2.243570327758789,-3.867997884750366,5.818447589874268
1701865421031241200,2.5172412109375,1.2762718200683594,-3.9565322399139404,5.981159210205078
1701865421040834600,2.52683447265625,0.4286143481731415,-4.18863582611084,6.1944193840026855
1701865421050427400,2.536427490234375,-0.2560320198535919,-4.397110939025879,6.689733982086182
1701865421060019500,2.54601953125,-0.8425726890563965,-4.423431873321533,7.527820110321045
1701865421069612300,2.5556123046875,-1.4841482639312744,-4.406682014465332,8.370392799377441
1701865421079206000,2.565205810546875,-2.130509376525879,-4.37318229675293,8.983553886413574
1701865421088798500,2.574798583984375,-2.8752756118774414,-4.444967269897461,9.062516212463379
1701865421098390500,2.584390625,-3.7465620040893555,-4.669892311096191,8.736793518066406
1701865421107983400,2.5939833984375,-4.4599223136901855,-5.170291423797607,8.250751495361328
1701865421117577000,2.603576904296875,-4.780859470367432,-5.764010429382324,7.884649753570557
1701865421127169500,2.61316943359375,-4.783252239227295,-6.479763507843018,7.657032489776611
1701865421136761600,2.62276171875,-4.337888240814209,-7.123732089996338,8.03539752960205
1701865421146354400,2.6323544921875,-3.710669755935669,-7.624131202697754,8.851649284362793
1701865421155948000,2.641947998046875,-3.3705897331237793,-7.911569118499756,9.598808288574219
1701865421165540600,2.65154052734375,-3.358625650405884,-8.129315376281738,10.673783302307129
1701865421175132700,2.661132568359375,-3.4163525104522705,-8.181958198547363,11.616854667663574
1701865421184725500,2.6707255859375,-4.658825874328613,-8.167600631713867,12.61286735534668
1701865421194319000,2.680319091796875,-6.284449577331543,-7.892426490783691,12.931411743164062
1701865421203912000,2.689911865234375,-6.882954120635986,-7.47338342666626,12.780364990234375
1701865421213503700,2.699503662109375,-6.456732749938965,-7.360920429229736,12.7516508102417
1701865421223096800,2.709096923828125,-5.987440586090088,-7.078268527984619,11.906685829162598
1701865421232690200,2.718690185546875,-5.781657695770264,-7.130910396575928,10.381560325622559
1701865421242283000,2.728282958984375,-5.219045162200928,-7.260422229766846,8.844470977783203
1701865421251874800,2.737874755859375,-4.48624324798584,-7.454240798950195,7.369893550872803
1701865421261468000,2.747468017578125,-3.6029927730560303,-7.561917781829834,5.559723377227783
1701865421271061200,2.757061279296875,5.863312721252441,-11.969496726989746,8.289036750793457
1701865421280654000,2.766654052734375,9.260522842407227,-11.528918266296387,11.432607650756836
1701865421290246100,2.77624609375,7.838587760925293,-10.190732955932617,9.878767967224121
1701865421299839000,2.7858388671875,3.598506212234497,-9.340682029724121,8.317750930786133
1701865421309432600,2.7954326171875,-1.5224334001541138,-8.18674373626709,5.837589740753174
1701865421319025200,2.805025146484375,-4.428815841674805,-7.731808185577393,4.810471057891846
1701865421328617200,2.8146171875,-4.6995038986206055,-8.0383882522583,4.6046881675720215
1701865421338210000,2.8242099609375,-3.751347780227661,-8.567501068115234,4.70518684387207
1701865421347803600,2.8338037109375,-2.8007988929748535,-8.555537223815918,4.164109706878662
1701865421357396200,2.843396240234375,-0.2512463629245758,-8.945866584777832,5.782555103302002
1701865421366988300,2.85298828125,1.3576277494430542,-9.393324851989746,4.578367233276367
1701865421376581000,2.8625810546875,-3.7465620040893555,-8.58185863494873,-0.7366902828216553
1701865421386174700,2.8721748046875,-8.254639625549316,-5.043471813201904,-5.445765018463135
1701865421395767300,2.881767333984375,2.6312077045440674,-11.208280563354492,1.1285150051116943
1701865421405359400,2.891359375,-1.2592228651046753,-8.0383882522583,-1.6055840253829956
1701865421414952200,2.9009521484375,-4.941178798675537,-8.050353050231934,0.6448656916618347
1701865421424545800,2.9105458984375,-11.000702857971191,-6.661917209625244,0.012861421331763268
1701865421434138600,2.920138671875,-6.890132904052734,-9.80518913269043,3.694817304611206
1701865421443730400,2.92973046875,6.562315940856934,-11.638988494873047,7.934898853302002
1701865421453323300,2.9393232421875,1.7910277843475342,-9.46301555633545,6.9699931144714355
1701865421462916900,2.948916748046875,-4.124927043914795,-9.632905960083008,5.756234169006348
1701865421472509700,2.958509765625,-5.175974369049072,-9.963115692138672,3.3622148036956787
1701865421482101500,2.9681015625,-3.937987804412842,-10.707880973815918,3.891028642654419
1701865421491694600,2.977694580078125,-4.103391647338867,-11.064412117004395,5.040481090545654
1701865421501288000,2.987287841796875,-4.357030868530273,-11.567203521728516,6.040979862213135
1701865421510880800,2.996880859375,-4.050749778747559,-11.888140678405762,6.306882381439209
1701865421520472800,3.006472900390625,-3.384946823120117,-12.122637748718262,5.7490553855896
1701865421530065700,3.016065673828125,-2.4083759784698486,-12.678071975708008,6.591628074645996
1701865421539659000,3.025658935546875,-2.348555326461792,-12.041281700134277,5.753840923309326
1701865421549251800,3.035251953125,-2.8680970668792725,-13.022936820983887,5.3802618980407715
1701865421558844000,3.044843994140625,-3.418745279312134,-12.987045288085938,5.847161293029785
1701865421568436700,3.054436767578125,-3.3011980056762695,-13.65494155883789,9.594022750854492
1701865421578030000,3.064030029296875,-1.2161520719528198,-11.545668601989746,10.814960479736328
1701865421587623000,3.073622802734375,-1.036391258239746,-9.89133071899414,9.885947227478027
1701865421597215000,3.083215087890625,1.5753746032714844,-10.595418930053711,4.918148040771484
1701865421606807800,3.092807861328125,0.5748756527900696,-10.4850492477417,-0.11425728350877762
1701865421616401400,3.1024013671875,1.7934205532073975,-11.471490859985352,-5.1921257972717285
1701865421625994000,3.111993896484375,-6.4375901222229,-10.097412109375,4.839184761047363
1701865421635586000,3.1215859375,-4.443172454833984,-7.952247142791748,3.050848960876465
1701865421645179000,3.131178955078125,-1.2951152324676514,-6.2428741455078125,3.364607810974121
1701865421654772500,3.1407724609375,-0.6272186636924744,-5.685047626495361,1.815554141998291
1701865421664365000,3.150364990234375,-0.7540382146835327,-5.704190254211426,1.906481385231018
1701865421673957000,3.15995703125,-0.9119645357131958,-5.665904998779297,3.3526437282562256
1701865421683550000,3.169550048828125,-1.800299882888794,-5.515157222747803,3.381357431411743
1701865421693143600,3.1791435546875,-2.5663022994995117,-5.402395248413086,2.6246273517608643
1701865421702736100,3.188736083984375,-4.096213340759277,-5.416752338409424,1.7413766384124756
1701865421712328200,3.198328125,-8.68325424194336,-6.314659118652344,-0.7773682475090027
1701865421721921000,3.207921142578125,-6.190830230712891,-7.2867431640625,-0.18125630915164948
1701865421731514600,3.2175146484375,-3.490530014038086,-8.467002868652344,2.909672260284424
1701865421741107500,3.227107421875,3.256033420562744,-10.973484992980957,4.5257248878479
1701865421750699300,3.23669921875,3.6391842365264893,-11.122138977050781,2.145763635635376
1701865421760292000,3.2462919921875,-3.399303674697876,-11.519347190856934,2.3111674785614014
1701865421769885700,3.2558857421875,-3.279662609100342,-11.600703239440918,4.331607341766357
1701865421779478500,3.265478515625,-2.0419750213623047,-10.080662727355957,5.710770130157471
1701865421789070300,3.2750703125,-1.8385851383209229,-9.592227935791016,6.249454498291016
1701865421798663200,3.2846630859375,-1.2113664150238037,-9.886545181274414,8.27707290649414
1701865421808256800,3.2942568359375,-0.4331009089946747,-9.43190860748291,9.744770050048828
1701865421817849600,3.303849609375,1.1566306352615356,-8.19392204284668,8.70090103149414
1701865421827441700,3.313441650390625,-0.612861692905426,-8.260921478271484,7.927720546722412
1701865421837034500,3.323034423828125,-1.4003994464874268,-8.445467948913574,7.432106971740723
1701865421846627800,3.3326279296875,-0.766002357006073,-8.601000785827637,7.331608772277832
1701865421856220700,3.342220703125,0.5724828243255615,-8.241778373718262,6.958029270172119
1701865421865812700,3.351812744140625,1.9298114776611328,-7.710272789001465,6.565307140350342
1701865421875405600,3.361405517578125,0.6729813814163208,-7.4877400398254395,5.7394843101501465
1701865421884999200,3.370999267578125,-3.562314748764038,-7.315456867218018,4.448855400085449
1701865421894591700,3.380591796875,-5.784050464630127,-6.484549522399902,2.6581268310546875
1701865421904183800,3.390183837890625,-5.963512420654297,-5.967400550842285,1.3845469951629639
1701865421913776600,3.399776611328125,-2.6979074478149414,-6.338587284088135,1.3127623796463013
1701865421923370200,3.409370361328125,-0.7229315638542175,-6.879664421081543,1.2601202726364136
1701865421932963000,3.418963134765625,-0.8114659786224365,-7.509275436401367,1.2553346157073975
1701865421942555000,3.428554931640625,-1.43389892578125,-7.897212028503418,2.3207387924194336
1701865421952147700,3.438147705078125,-2.17836594581604,-7.370491981506348,3.2207393646240234
1701865421961741300,3.4477412109375,-0.8425726890563965,-7.794320583343506,3.326023578643799
1701865421971334100,3.457334228515625,0.9864411354064941,-8.165207862854004,3.6972100734710693
1701865421980926000,3.466926025390625,-1.0555338859558105,-7.576274871826172,2.770589590072632
1701865421990518800,3.476518798828125,-1.7859430313110352,-8.72064208984375,3.6996028423309326
1701865422000112400,3.4861123046875,-2.037189483642578,-9.678369522094727,4.568795680999756
1701865422009705200,3.495705322265625,-2.1329023838043213,-9.381360054016113,5.832804203033447
1701865422019297000,3.505297119140625,-0.5814558863639832,-9.120542526245117,6.891030311584473
1701865422028889900,3.514889892578125,0.06251249462366104,-9.012866020202637,7.432106971740723
1701865422038483500,3.5244833984375,0.06251249462366104,-8.328219413757324,8.61475944519043
1701865422048076300,3.534076171875,0.057726845145225525,-7.281957626342773,8.363214492797852
1701865422057668000,3.543668212890625,-0.6032904386520386,-6.412764549255371,6.838387966156006
1701865422067261000,3.553260986328125,-1.8816559314727783,-5.9937214851379395,4.597509384155273
1701865422076854500,3.5628544921875,-3.0714869499206543,-5.804688453674316,2.5959134101867676
1701865422086447400,3.572447265625,-3.8111681938171387,-6.7193450927734375,4.034897327423096
1701865422096039200,3.5820390625,-3.8159539699554443,-6.905985355377197,4.475475788116455
1701865422105632300,3.59163232421875,11.278868675231934,-6.314659118652344,1.9902302026748657
1701865422115225600,3.6012255859375,6.119344711303711,-6.0610198974609375,3.9152560234069824
1701865422124818400,3.610818359375,1.8532410860061646,-7.277172088623047,5.808876037597656
1701865422134410500,3.620410400390625,-0.5934200286865234,-8.780462265014648,6.879065990447998
1701865422144003300,3.63000341796875,-1.0962119102478027,-8.517251968383789,7.139883518218994
1701865422153596700,3.6395966796875,-0.5623133182525635,-6.783951282501221,7.142276287078857
1701865422163189500,3.649189453125,-1.4195420742034912,-6.185446739196777,8.296215057373047
1701865422172781600,3.658781494140625,-2.9781668186187744,-6.7432732582092285,9.328120231628418
1701865422182374400,3.66837451171875,-3.5958142280578613,-7.380063056945801,8.176573753356934
1701865422191967700,3.6779677734375,-3.162414312362671,-7.741678714752197,6.934101104736328
1701865422201560600,3.687560546875,-2.068295955657959,-8.167600631713867,7.537391185760498
1701865422211152600,3.697152587890625,-1.0770692825317383,-8.28006362915039,7.389036178588867
1701865422220745500,3.706745361328125,-0.48574298620224,-8.304290771484375,7.276573657989502
1701865422230339000,3.716339111328125,-1.1105687618255615,-7.923532962799072,6.192026615142822
1701865422239931600,3.725931640625,-1.7668004035949707,-8.040781021118164,5.535795211791992
1701865422249523700,3.735523681640625,-1.896012783050537,-8.028817176818848,5.016552448272705
1701865422259116500,3.745116455078125,-1.9438693523406982,-8.234600067138672,4.448855400085449
1701865422268710100,3.754710205078125,-1.689931035041809,-8.20827865600586,4.4344987869262695
1701865422278303000,3.764302978515625,-1.3453645706176758,-8.074280738830566,4.832006454467773
1701865422287894800,3.773894775390625,-1.4171491861343384,-7.791927814483643,4.963611602783203
1701865422297487600,3.783487548828125,-1.6683956384658813,-8.309076309204102,4.7865424156188965
1701865422307081200,3.793081298828125,-1.0507482290267944,-8.88365364074707,4.987539768218994
1701865422316674000,3.802674072265625,-0.8832506537437439,-8.601000785827637,4.937290191650391
1701865422326265900,3.812265869140625,-0.8377870321273804,-8.260921478271484,4.8367919921875
1701865422335858700,3.821858642578125,-1.0339984893798828,-8.4502534866333,5.188836097717285
1701865422345452300,3.831452392578125,-1.374078392982483,-8.730213165283203,5.466403484344482
1701865422355045000,3.841045166015625,-1.5966109037399292,-8.569893836975098,5.725127220153809
1701865422364637000,3.850636962890625,-1.2759727239608765,-8.984151840209961,5.751448154449463
1701865422374229800,3.860229736328125,-1.7404793500900269,-10.020842552185059,5.839982986450195
1701865422383823400,3.8698232421875,-1.4195420742034912,-10.6025972366333,6.105586051940918
1701865422393416200,3.879416259765625,-0.9143573641777039,-11.727822303771973,5.95962381362915
1701865422403008000,3.889008056640625,0.005084747914224863,-12.642179489135742,5.50229549407959
1701865422412600800,3.898600830078125,0.38315072655677795,-13.326826095581055,5.389832973480225
1701865422422194400,3.9081943359375,-0.3900300860404968,-13.156935691833496,3.757030725479126
1701865422431787300,3.917787353515625,-0.8593224287033081,-12.570394515991211,3.043670415878296
1701865422441379000,3.927379150390625,-1.6277176141738892,-11.210673332214355,2.0476579666137695
1701865422450972000,3.936971923828125,-1.7859430313110352,-4.8421759605407715,-2.833700180053711
1701865422460565500,3.9465654296875,-2.843869686126709,-1.7012969255447388,-3.710071563720703
1701865422470158300,3.956158447265625,-1.350150227546692,-3.204587697982788,-0.12861421704292297
1701865422479750100,3.965750244140625,-0.20099709928035736,-5.282754421234131,0.3478565812110901
1701865422489343000,3.975343017578125,0.649053156375885,-6.879664421081543,-0.19561325013637543
1701865422498936600,3.9849365234375,1.1063814163208008,-6.956234455108643,0.5970092415809631
1701865422508529400,3.994529296875,-1.6707884073257446,-6.944270610809326,1.4419747591018677
1701865422518121500,4.00412158203125,-5.19033145904541,-8.143672943115234,1.456331729888916
1701865422527714300,4.01371435546875,-5.652445316314697,-8.222636222839355,1.480259895324707
1701865422537307600,4.0233076171875,-4.364209175109863,-6.834200382232666,2.8737800121307373
1701865422546900500,4.032900390625,-1.0794621706008911,-8.352147102355957,1.8801604509353638
1701865422556492500,4.042492431640625,0.22043879330158234,-10.894521713256836,1.2266206741333008
1701865422566085400,4.05208544921875,-0.19381862878799438,-9.845867156982422,2.138585329055786
1701865422575679000,4.061678955078125,-1.6325032711029053,-7.887640953063965,2.3733808994293213
1701865422585271600,4.071271484375,-1.92951238155365,-6.929913520812988,1.1955139636993408
1701865422594863600,4.080863525390625,-3.4498519897460938,-7.775177955627441,0.11814561486244202
1701865422604456400,4.09045654296875,-4.680361270904541,-8.694320678710938,-0.24107688665390015
1701865422614050000,4.100050048828125,-5.12811803817749,-8.383254051208496,-0.372682124376297
1701865422623642600,4.109642578125,-5.063212871551514,-8.284849166870117,-0.4253242313861847
1701865422633234700,4.119234619140625,-4.474279403686523,-8.067102432250977,-0.2267199456691742
1701865422642827500,4.12882763671875,-2.8752756118774414,-7.765606880187988,-0.2961117923259735
1701865422652421000,4.138421142578125,0.4956133961677551,-8.670392990112305,-0.12861421704292297
1701865422662013700,4.148013671875,2.3392832279205322,-9.900901794433594,-0.5736792087554932
1701865422671605800,4.157605712890625,1.7312071323394775,-20.458932876586914,-0.9783653616905212
1701865422681198600,4.167198486328125,-1.1225329637527466,-32.69762420654297,-1.8212370872497559
1701865422690792200,4.176792236328125,1.3313066959381104,-32.570804595947266,6.32363224029541
1701865422700384800,4.186384765625,2.135594129562378,-16.065710067749023,6.4289164543151855
1701865422709976800,4.195976806640625,-0.8377870321273804,-10.12134075164795,4.24785852432251
1701865422719569700,4.205569580078125,-2.233400821685791,-8.06949520111084,0.5009972453117371
1701865422729163300,4.215163330078125,-3.368196964263916,-8.064709663391113,-1.1315059661865234
1701865422738755800,4.224755859375,-3.258127212524414,-8.782855987548828,-0.9209375977516174
1701865422748348000,4.234347900390625,-2.5878376960754395,-9.345467567443848,-0.15972091257572174
1701865422757940700,4.243940673828125,-1.9366908073425293,-9.692726135253906,0.6185446381568909
1701865422767534300,4.253534423828125,-1.807478427886963,-9.661619186401367,0.8027920126914978
1701865422777127000,4.263126953125,-1.8816559314727783,-9.585049629211426,0.5826523303985596
1701865422786719000,4.272718994140625,-2.0395822525024414,-9.592227935791016,0.31914272904396057
1701865422796311800,4.282311767578125,-2.113759756088257,-9.70229721069336,0.19232311844825745
1701865422805905400,4.291905517578125,-3.967000722885132,-5.275575637817383,0.27367907762527466
1701865422815498200,4.301498291015625,-7.546065330505371,-4.495216369628906,2.9958138465881348
1701865422825090000,4.311090087890625,3.232105255126953,-13.983057022094727,0.09661021083593369
1701865422834683000,4.320682861328125,1.0295119285583496,-12.838689804077148,-1.612762451171875
1701865422844276500,4.3302763671875,0.15583257377147675,-12.201601028442383,-1.3854442834854126
1701865422853869300,4.339869384765625,-0.9693922996520996,-11.39970588684082,-0.23389841616153717
1701865422863461000,4.349461181640625,-1.89840567111969,-10.868200302124023,0.5539384484291077
1701865422873054000,4.359053955078125,-2.123331069946289,-10.518548965454102,0.8937192559242249
1701865422882647600,4.3686474609375,-2.1113669872283936,-10.162018775939941,0.6855437159538269
1701865422892240400,4.378240478515625,-2.5160529613494873,-9.860223770141602,0.37896329164505005
1701865422901832200,4.387832275390625,-3.418745279312134,-9.728618621826172,0.3287140130996704
1701865422911425000,4.397425048828125,-4.3881378173828125,-9.673583984375,0.0726819857954979
1701865422921018600,4.4070185546875,-2.6117658615112305,-9.340682029724121,-0.20518454909324646
1701865422930611500,4.416611572265625,-1.1081759929656982,-8.993722915649414,-0.06161518394947052
1701865422940203300,4.426203369140625,-1.6253247261047363,-9.113364219665527,0.13250255584716797
1701865422949796000,4.435796142578125,-2.223829507827759,-9.142078399658203,-0.030209386721253395
1701865422959389700,4.4453896484375,-1.8529419898986816,-8.70628547668457,-0.542572557926178
1701865422968982500,4.454982421875,-1.1826525926589966,-8.28006362915039,-0.9711868762969971
1701865422978574600,4.46457470703125,-1.316650629043579,-8.500502586364746,-0.9400802254676819
1701865422988167200,4.474167236328125,-2.051546335220337,-8.953044891357422,-0.877866804599762
1701865422997760800,4.4837607421875,-2.006082773208618,-8.88125991821289,-1.0166505575180054
1701865423007353600,4.493353515625,-0.9239286184310913,-7.284350395202637,-1.3782658576965332
1701865423016945700,4.502945556640625,-3.224627733230591,-8.395217895507812,-1.5337992906570435
1701865423026538500,4.51253857421875,-3.6699917316436768,-11.097911834716797,-0.6337988972663879
1701865423036131800,4.5221318359375,-2.140080690383911,-12.362218856811523,0.6759724020957947
1701865423045724700,4.531724609375,-1.9103697538375854,-12.843475341796875,1.2864413261413574
1701865423055316700,4.541316650390625,-2.664407968521118,-12.220743179321289,0.7932206988334656
1701865423064909600,4.55090966796875,-2.2692930698394775,-11.411670684814453,0.06311069428920746
1701865423074503000,4.5605029296875,-1.8409779071807861,-10.87298583984375,-0.6337988972663879
1701865423084095700,4.570095703125,-1.5415760278701782,-10.489835739135742,-1.0597213506698608
1701865423093687800,4.579687744140625,-1.5726827383041382,-10.276874542236328,-1.2873386144638062
1701865423103280600,4.58928076171875,-1.8170497417449951,-10.267302513122559,-1.2945170402526855
1701865423112874000,4.5988740234375,-2.082653045654297,-10.365408897399902,-1.1362916231155396
1701865423122466800,4.608466796875,-2.250150680541992,-10.418050765991211,-0.9448658227920532
1701865423132059000,4.618058837890625,-2.3365912437438965,-10.382158279418945,-0.8898309469223022
1701865423141651700,4.627651611328125,-2.520838737487793,-10.288838386535645,-0.8754739761352539
1701865423151245300,4.637245361328125,-2.403590440750122,-10.755738258361816,-0.24586252868175507
1701865423160838000,4.646837890625,-2.36291241645813,-11.009376525878906,-0.1860419660806656
1701865423170430000,4.656429931640625,-2.819941520690918,-10.88973617553711,-0.5832505226135254
1701865423180022800,4.666022705078125,-3.4785659313201904,-10.703095436096191,-0.511465847492218
1701865423189616400,4.675616455078125,-3.7561333179473877,-10.99741268157959,-0.10468599200248718
1701865423199209000,4.685208984375,-3.466601848602295,-11.220244407653809,0.33110684156417847
1701865423208801000,4.694801025390625,-2.8944180011749268,-11.864212989807129,1.1979068517684937
1701865423218393900,4.704393798828125,-1.9366908073425293,-10.853843688964844,0.8003991842269897
1701865423227987500,4.713987548828125,-2.444268226623535,-10.001699447631836,0.867398202419281
1701865423237580000,4.723580078125,-2.8103702068328857,-9.604191780090332,1.0707881450653076
1701865423247172000,4.733172119140625,-2.286342144012451,-7.344171047210693,0.3000001311302185
1701865423256765000,4.742764892578125,-2.9638099670410156,-7.506882667541504,0.9176474809646606
1701865423266358500,4.752358642578125,-3.5096726417541504,-8.431110382080078,1.38933265209198
1701865423275951000,4.761951171875,-3.7633118629455566,-10.310373306274414,1.9256240129470825
1701865423285543200,4.771543212890625,-3.648456335067749,-9.484550476074219,1.5999010801315308
1701865423295136000,4.781135986328125,-4.759324073791504,-7.787142276763916,1.4276177883148193
1701865423304729600,4.7907294921875,-5.513362407684326,-6.831807613372803,1.8873388767242432
1701865423314322200,4.800322265625,-5.702694416046143,-6.949056148529053,2.5241286754608154
1701865423323914200,4.809914306640625,-5.695516109466553,-7.5188469886779785,2.9359934329986572
1701865423333507000,4.819507080078125,-5.2716875076293945,-8.306683540344238,3.3308091163635254
1701865423343100700,4.8291005859375,-3.131307601928711,-7.873283863067627,3.8240296840667725
1701865423352693500,4.838693603515625,-4.122534275054932,-7.928318500518799,3.3164522647857666
1701865423362285300,4.848285400390625,-3.6819558143615723,-7.892426490783691,2.5695924758911133
1701865423371878100,4.857878173828125,-3.466601848602295,-7.466204643249512,1.973480463027954
1701865423381471700,4.8674716796875,-3.906881093978882,-6.774380207061768,1.6310077905654907
1701865423391064600,4.877064697265625,-4.4120659828186035,-6.180660724639893,1.2266206741333008
1701865423400656400,4.886656494140625,-4.658825874328613,-6.614060878753662,0.8865407705307007
1701865423410249200,4.896249267578125,-4.144069671630859,-6.972984313964844,0.6711867451667786
1701865423419842800,4.9058427734375,-3.916452407836914,-7.363313674926758,0.8602197170257568
1701865423429435600,4.915435546875,-3.854238986968994,-7.679165840148926,1.0660024881362915
1701865423439027500,4.92502734375,-3.7872400283813477,-7.705487251281738,1.1572288274765015
1701865423448620300,4.934620361328125,-3.648456335067749,-7.564310550689697,1.085145115852356
1701865423458214000,4.9442138671875,-3.5886356830596924,-7.408777236938477,0.9272187948226929
1701865423467806700,4.953806640625,-3.7489547729492188,-7.399205684661865,0.865005373954773
1701865423477398500,4.9633984375,-3.8566319942474365,-7.492526054382324,0.8913264274597168
1701865423486991400,4.972991455078125,-3.418745279312134,-7.463811874389648,0.7692924737930298
1701865423496585000,4.9825849609375,-2.827120065689087,-7.04716157913208,0.3693920075893402
1701865423506177800,4.992177734375,-2.733799934387207,-6.728916168212891,0.16121642291545868
1701865423515769900,5.001769775390625,-2.772084951400757,-6.561119556427002,0.05832505226135254
1701865423525362400,5.011362548828125,-2.8342983722686768,-6.618846416473389,0.08464609831571579
1701865423534956000,5.0209560546875,-2.9781668186187744,-6.597012042999268,0.14685949683189392
1701865423544548900,5.030548828125,-2.949453115463257,-6.925127983093262,0.4531407952308655
1701865423554140700,5.040140625,-2.9255247116088867,-7.207779884338379,0.7429714202880859
1701865423563733800,5.049733642578125,-3.061915636062622,-7.238886833190918,0.9080761671066284
1701865423573327000,5.0593271484375,-3.1576285362243652,-7.748857021331787,1.3175479173660278
1701865423582920000,5.068919921875,-3.1767711639404297,-9.1683988571167,2.028515338897705
1701865423592511700,5.07851171875,-2.788834810256958,-10.013663291931152,1.8897316455841064
1701865423602104800,5.088104736328125,-2.441875457763672,-11.006983757019043,0.8434699773788452
1701865423611698200,5.0976982421875,-1.677966833114624,-12.407682418823242,0.40289151668548584
1701865423621291000,5.107291015625,-0.7444669604301453,-13.295719146728516,0.30957141518592834
1701865423630883000,5.116883056640625,-0.45942193269729614,-13.81047534942627,-0.29850462079048157
1701865423640476000,5.126475830078125,-0.29431718587875366,-13.951951026916504,-1.179661512374878
1701865423650069200,5.1360693359375,-0.4019941985607147,-14.050056457519531,-1.5242279767990112
1701865423659662000,5.145662109375,-1.1033903360366821,-13.195219993591309,-2.3336002826690674
1701865423669254100,5.155254150390625,-2.0563318729400635,-12.065210342407227,-2.558525562286377
1701865423678847000,5.164846923828125,-2.281257390975952,-11.512168884277344,-2.208874464035034
1701865423688440300,5.1744404296875,-2.2190439701080322,-11.203495025634766,-1.6917256116867065
1701865423698033200,5.184033203125,-2.0491535663604736,-10.951949119567871,-0.8491529226303101
1701865423707625200,5.193625244140625,-1.92951238155365,-10.683953285217285,-0.07118647545576096
1701865423717218000,5.203218017578125,-1.5798611640930176,-10.518548965454102,0.6400800347328186
1701865423726811400,5.212811279296875,-1.4243277311325073,-10.300802230834961,0.8027920126914978
1701865423736404200,5.222404296875,-1.194616675376892,-10.030413627624512,0.7046862840652466
1701865423745996300,5.231996337890625,-0.9239286184310913,-9.845867156982422,0.5706881880760193
1701865423755589000,5.241589111328125,-0.7492526173591614,-9.740582466125488,0.498604416847229
1701865423765182700,5.2511826171875,-0.734895646572113,-9.709476470947266,0.4292125701904297
1701865423774775300,5.260775390625,-0.7899305820465088,-9.7669038772583,0.35024940967559814
1701865423784367400,5.270367431640625,-0.8617152571678162,-9.862616539001465,0.2760719060897827
1701865423793960200,5.279960205078125,-0.8593224287033081,-10.188340187072754,0.24496522545814514
1701865423803553800,5.2895537109375,-0.8042874932289124,-10.43240737915039,0.11096715182065964
1701865423813146400,5.299146484375,-0.7492526173591614,-10.327123641967773,-0.0568295381963253
1701865423822738400,5.308738525390625,-0.4498506486415863,-10.343873023986816,0.02961117960512638
1701865423832331300,5.318331298828125,-0.24406790733337402,-10.377372741699219,0.1420738399028778
1701865423841924600,5.327924560546875,0.036191441118717194,-10.473085403442383,0.29760730266571045
1701865423851517400,5.337517333984375,0.26111677289009094,-10.569097518920898,0.5033900737762451
1701865423861109500,5.347109619140625,0.08883354067802429,-10.343873023986816,0.3119642436504364
1701865423870702300,5.356702392578125,-0.014057832770049572,-10.20030403137207,0.17318053543567657
1701865423880296000,5.3662958984375,-0.040677983313798904,-10.104591369628906,0.1372881978750229
1701865423889888800,5.375888671875,-0.13878370821475983,-10.092626571655273,0.10857433080673218
1701865423899480600,5.38548046875,-0.26560330390930176,-10.09023380279541,0.03200400248169899
1701865423909073400,5.395073486328125,-0.4163511395454407,-10.173982620239258,0.0487537607550621
1701865423918667000,5.4046669921875,-0.6320042610168457,-10.140482902526855,0.022432712838053703
1701865423928259600,5.414259521484375,-0.6846463680267334,-10.176375389099121,-0.19322042167186737
1701865423937851600,5.4238515625,-0.7947162389755249,-10.293623924255371,-0.4588237404823303
1701865423947444500,5.433444580078125,-0.7301099896430969,-10.30798053741455,-0.5955137610435486
1701865423957038000,5.4430380859375,-0.5479564070701599,-10.22901725769043,-0.638584554195404
1701865423966630700,5.452630615234375,-0.2991028428077698,-10.188340187072754,-0.6792625188827515
1701865423976222700,5.46222265625,-0.08614161610603333,-10.071091651916504,-0.636191725730896
1701865423985815600,5.471815673828125,0.11036894470453262,-9.93679428100586,-0.5856433510780334
1701865423995409200,5.4814091796875,0.2874378263950348,-9.886545181274414,-0.4660021960735321
1701865424005001700,5.491001708984375,0.39032918214797974,-9.824331283569336,-0.372682124376297
1701865424014593800,5.50059375,0.17258232831954956,-9.515657424926758,-0.7606185078620911
1701865424024186600,5.5101865234375,0.4453641176223755,-9.70229721069336,-0.2602194547653198
1701865424033780200,5.5197802734375,0.3975076675415039,-10.212267875671387,0.3047857880592346
1701865424043373000,5.529373046875,0.16779668629169464,-10.45633602142334,0.20907287299633026
1701865424052964900,5.53896484375,-0.059820566326379776,-10.360623359680176,-0.18364913761615753
1701865424062557700,5.5485576171875,-0.13160525262355804,-10.135697364807129,-0.38225340843200684
1701865424072151300,5.5581513671875,-0.07178468257188797,-10.056734085083008,-0.4899304509162903
1701865424081744000,5.567743896484375,-0.0526420995593071,-10.016056060791016,-0.5353940725326538
1701865424091336000,5.5773359375,-0.02841476909816265,-9.946365356445312,-0.5377869009971619
1701865424100928800,5.5869287109375,0.00029910283046774566,-9.888937950134277,-0.5018945336341858
1701865424110522400,5.5965224609375,0.007477570790797472,-9.867402076721191,-0.4133601188659668
1701865424120115000,5.606114990234375,-0.040677983313798904,-9.853045463562012,-0.3415754437446594
1701865424129707000,5.61570703125,-0.04546362906694412,-9.960722923278809,-0.1908276081085205
1701865424139299800,5.6252998046875,-0.0526420995593071,-9.967901229858398,-0.14297115802764893
1701865424148893400,5.6348935546875,0.0026919255033135414,-9.967901229858398,-0.1501496136188507
1701865424158486300,5.644486328125,0.06729813665151596,-9.948758125305176,-0.14775680005550385
1701865424168078000,5.654078125,0.09361918270587921,-9.920044898986816,-0.11425728350877762
1701865424177671000,5.6636708984375,0.0768694281578064,-9.90568733215332,-0.11904292553663254
1701865424187264500,5.673264404296875,0.0768694281578064,-9.910472869873047,-0.13579268753528595
1701865424196857000,5.682857177734375,0.057726845145225525,-9.932008743286133,-0.16689938306808472
1701865424206449200,5.69244921875,-0.011665010824799538,-9.975079536437988,-0.1908276081085205
1701865424216042000,5.7020419921875,-0.1339980661869049,-10.020842552185059,-0.19322042167186737
1701865424225635600,5.711635498046875,-0.26560330390930176,-10.054341316223145,-0.20039889216423035
1701865424235228200,5.721228271484375,-0.33499518036842346,-10.097412109375,-0.21954147517681122
1701865424244820200,5.7308203125,-0.3684946894645691,-10.116555213928223,-0.21954147517681122
1701865424254413000,5.7404130859375,-0.380458801984787,-10.10698413848877,-0.22432711720466614
1701865424264006700,5.750006591796875,-0.33020952343940735,-10.066306114196777,-0.23629122972488403
1701865424273599500,5.759599609375,-0.2727817893028259,-10.016056060791016,-0.26979073882102966
1701865424283191300,5.76919140625,-0.24406790733337402,-9.987342834472656,-0.28893333673477173
1701865424292784000,5.7787841796875,-0.2512463629245758,-9.975079536437988,-0.30568310618400574
1701865424302377700,5.788377685546875,-0.2512463629245758,-9.955936431884766,-0.3152543902397156
1701865424311970600,5.797970458984375,-0.22013968229293823,-9.977771759033203,-0.32961133122444153
1701865424321562400,5.807562255859375,-0.23210379481315613,-9.98255729675293,-0.31764721870422363
1701865424331155200,5.8171552734375,-0.275174617767334,-9.99691390991211,-0.25782662630081177
1701865424340748800,5.826748779296875,-0.3732803463935852,-10.030413627624512,-0.18843477964401245
1701865424350341600,5.836341552734375,-0.4163511395454407,-10.085448265075684,-0.14057832956314087
1701865424359933400,5.845933349609375,-0.4163511395454407,-10.126126289367676,-0.11186445504426956
1701865424369526300,5.8555263671875,-0.42831525206565857,-10.159626007080078,-0.08793623000383377
1701865424379119900,5.865119873046875,-0.45942193269729614,-10.197911262512207,-0.07836493849754333
1701865424388712700,5.874712646484375,-0.5048855543136597,-10.20748233795166,-0.07836493849754333
1701865424398304500,5.884304443359375,-0.5240281820297241,-10.219446182250977,-0.08075776696205139
1701865424407897300,5.8938974609375,-0.5288137793540955,-10.20748233795166,-0.06640082597732544
1701865424417491000,5.903490966796875,-0.5479564070701599,-10.20030403137207,-0.06640082597732544
1701865424427083800,5.913083740234375,-0.5455635786056519,-10.157233238220215,-0.047258246690034866
1701865424436675600,5.922675537109375,-0.5288137793540955,-10.147662162780762,0.05114658549427986
1701865424446268400,5.932268310546875,-0.5623133182525635,-10.078269958496094,0.12293126434087753
1701865424455862000,5.941862060546875,-0.612861692905426,-10.035199165344238,0.15643078088760376
1701865424465454800,5.951454833984375,-0.6176473498344421,-9.98973560333252,0.15643078088760376
1701865424475046700,5.961046630859375,-0.6056832075119019,-9.965508460998535,0.15164513885974884
1701865424484639500,5.970639404296875,-0.6056832075119019,-9.94397258758545,0.1420738399028778
1701865424494233000,5.980233154296875,-0.732502818107605,-9.934401512145996,0.15164513885974884
1701865424503826000,5.989825927734375,-0.8234301209449768,-9.939187049865723,0.1420738399028778
1701865424513417700,5.999417724609375,-0.8712865710258484,-9.93679428100586,0.08464609831571579
1701865424523010600,6.009010498046875,-0.9023932218551636,-9.965508460998535,0.017647067084908485
1701865424532604200,6.018604248046875,-0.9095717072486877,-10.020842552185059,-0.0014955141814425588
1701865424542197000,6.028197021484375,-0.8904291391372681,-10.059126853942871,-0.013459627516567707
1701865424551788800,6.037788818359375,-0.8521439433097839,-10.102197647094727,-0.0014955141814425588
1701865424561381600,6.047381591796875,-0.8449655175209045,-10.092626571655273,0.0032901312224566936
1701865424570975200,6.056975341796875,-0.8138588070869446,-10.07587718963623,0.02961117960512638
1701865424580568000,6.066568115234375,-0.7827520966529846,-10.047163009643555,0.02961117960512638
1701865424590160000,6.076159912109375,-0.766002357006073,-10.025628089904785,0.0032901312224566936
1701865424599752700,6.085752685546875,-0.7899305820465088,-10.008877754211426,-0.01585244946181774
1701865424609346300,6.09534619140625,-0.8234301209449768,-10.023235321044922,-0.049651071429252625
1701865424618939100,6.104939208984375,-0.8330013751983643,-10.028020858764648,-0.09032905846834183
1701865424628531000,6.114531005859375,-0.8306085467338562,-10.047163009643555,-0.09990034252405167
1701865424638123800,6.124123779296875,-0.8282157182693481,-10.06152057647705,-0.08315058797597885
1701865424647717400,6.13371728515625,-0.8258228898048401,-10.071091651916504,-0.049651071429252625
1701865424657310200,6.143310302734375,-0.8306085467338562,-10.080662727355957,-0.03529413416981697
1701865424666902000,6.152902099609375,-0.8282157182693481,-10.078269958496094,-0.023030918091535568
1701865424676494800,6.162494873046875,-0.8066803216934204,-10.06152057647705,-0.04007977992296219
1701865424686088400,6.17208837890625,-0.7995018362998962,-10.018449783325195,-0.049651071429252625
1701865424695681300,6.181681396484375,-0.7827520966529846,-9.963115692138672,-0.06400800496339798
1701865424705273300,6.1912734375,-0.7923234105110168,-9.93679428100586,-0.05922235921025276
1701865424714866000,6.200865966796875,-0.8425726890563965,-9.917651176452637,-0.032602209597826004
1701865424724459500,6.21045947265625,-0.8401798605918884,-9.886545181274414,0.005682953633368015
1701865424734052400,6.22005224609375,-0.8593224287033081,-9.89133071899414,0.017647067084908485
1701865424743644200,6.22964404296875,-0.8641080856323242,-9.886545181274414,0.012861421331763268
1701865424753237000,6.239237060546875,-0.88803631067276,-9.874580383300781,0.024825535714626312
1701865424762830600,6.24883056640625,-0.8976075649261475,-9.855438232421875,0.008075776509940624
1701865424772423400,6.25842333984375,-0.8641080856323242,-9.831509590148926,-0.04486542567610741
1701865424782015500,6.268015380859375,-0.8425726890563965,-9.807581901550293,-0.06400800496339798
1701865424791608000,6.277608154296875,-0.8138588070869446,-9.817152976989746,-0.054436713457107544
1701865424801201700,6.28720166015625,-0.8018946647644043,-9.79801082611084,-0.08315058797597885
1701865424810794500,6.29679443359375,-0.8042874932289124,-9.807581901550293,-0.11665010452270508
1701865424820386600,6.306386474609375,-0.8090731501579285,-9.821938514709473,-0.15254244208335876
1701865424829979400,6.3159794921875,-0.8401798605918884,-9.841081619262695,-0.1908276081085205
1701865424839572700,6.32557275390625,-0.8712865710258484,-9.886545181274414,-0.19561325013637543
1701865424849165600,6.33516552734375,-0.8688937425613403,-9.939187049865723,-0.20518454909324646
1701865424858757400,6.34475732421875,-0.8449655175209045,-9.965508460998535,-0.20518454909324646
1701865424868350200,6.35435009765625,-0.8425726890563965,-9.94397258758545,-0.22193430364131927
1701865424877943800,6.36394384765625,-0.797109067440033,-9.92961597442627,-0.25064817070961
1701865424887536600,6.37353662109375,-0.7444669604301453,-9.910472869873047,-0.2961117923259735
1701865424897128700,6.383128662109375,-0.701396107673645,-9.874580383300781,-0.3248256742954254
1701865424906721300,6.39272119140625,-0.6798607110977173,-9.924830436706543,-0.4181457459926605
1701865424916315000,6.40231494140625,-0.7516453862190247,-9.92243766784668,-0.4061816334724426
1701865424925907700,6.41190771484375,-0.7827520966529846,-9.946365356445312,-0.39900317788124084
1701865424935499500,6.42149951171875,-0.8042874932289124,-9.955936431884766,-0.41096729040145874
1701865424945092600,6.431092529296875,-0.732502818107605,-9.960722923278809,-0.4181457459926605
1701865424954686000,6.44068603515625,-0.6559324860572815,-9.927223205566406,-0.39421752095222473
1701865424964278800,6.45027880859375,-0.6248258352279663,-9.920044898986816,-0.3320041298866272
1701865424973870800,6.459870849609375,-0.6200401782989502,-9.88415241241455,-0.3032902777194977
1701865424983463400,6.46946337890625,-0.6559324860572815,-9.865009307861328,-0.28893333673477173
1701865424993057000,6.47905712890625,-0.6990033388137817,-9.850652694702148,-0.26500511169433594
1701865425002649900,6.48864990234375,-0.7492526173591614,-9.836296081542969,-0.24825534224510193
1701865425012242000,6.498241943359375,-0.7564310431480408,-9.848259925842285,-0.23389841616153717
1701865425021834800,6.507834716796875,-0.7875377535820007,-9.857831001281738,-0.25304099917411804
1701865425031428000,6.517427978515625,-0.7731808423995972,-9.896116256713867,-0.25064817070961
1701865425041021000,6.52702099609375,-0.7636095285415649,-9.92243766784668,-0.22432711720466614
1701865425050612700,6.53661279296875,-0.7899305820465088,-9.932008743286133,-0.18843477964401245
1701865425060205600,6.54620556640625,-0.8210372924804688,-9.948758125305176,-0.1908276081085205
1701865425069799200,6.555799072265625,-0.8234301209449768,-9.958329200744629,-0.19322042167186737
1701865425079392000,6.56539208984375,-0.8162516355514526,-9.960722923278809,-0.1860419660806656
1701865425088984000,6.574984130859375,-0.8593224287033081,-9.963115692138672,-0.1621137410402298
1701865425098576600,6.58457666015625,-0.8904291391372681,-9.963115692138672,-0.14297115802764893
1701865425108170200,6.594170166015625,-0.9000003933906555,-9.953543663024902,-0.1453639715909958
1701865425117763000,6.60376318359375,-0.885643482208252,-9.953543663024902,-0.1788634955883026
1701865425127355000,6.61335498046875,-0.8736793398857117,-9.934401512145996,-0.1908276081085205
1701865425136948000,6.622947998046875,-0.8449655175209045,-9.908080101013184,-0.19800607860088348
1701865425146541300,6.632541259765625,-0.8258228898048401,-9.90568733215332,-0.19800607860088348
1701865425156134100,6.642134033203125,-0.768395185470581,-9.915258407592773,-0.19800607860088348
1701865425165726200,6.651726318359375,-0.7612167000770569,-9.91286563873291,-0.1860419660806656
1701865425175318800,6.66131884765625,-0.768395185470581,-9.932008743286133,-0.1453639715909958
1701865425184912400,6.670912353515625,-0.8401798605918884,-9.951150894165039,-0.12382857501506805
1701865425194505200,6.680505126953125,-0.8641080856323242,-9.946365356445312,-0.11186445504426956
1701865425204097300,6.69009716796875,-0.7923234105110168,-9.91286563873291,-0.1453639715909958
1701865425213690000,6.699690185546875,-0.6631109714508057,-9.838688850402832,-0.2027917206287384
1701865425223283500,6.709283447265625,-0.5383850932121277,-9.776474952697754,-0.1788634955883026
1701865425232876300,6.718876220703125,-0.48574298620224,-9.711869239807129,-0.1621137410402298
1701865425242468400,6.72846826171875,-0.4378865361213684,-9.65683364868164,-0.1381855010986328
1701865425252061000,6.73806103515625,-0.3565305769443512,-9.613762855529785,-0.11904292553663254
1701865425261654500,6.747654541015625,-0.2632105052471161,-9.5324068069458,-0.1333998590707779
1701865425271247400,6.757247314453125,-0.24885354936122894,-9.443872451782227,-0.15493527054786682
1701865425280839400,6.76683935546875,-0.20099709928035736,-9.383752822875977,-0.1501496136188507
1701865425290432300,6.776432373046875,-0.14835500717163086,-9.316754341125488,-0.17168502509593964
1701865425300025600,6.786025634765625,-0.0526420995593071,-9.244969367980957,-0.26979073882102966
1701865425309618400,6.795618408203125,-0.09092725813388824,-9.347860336303711,-0.3032902777194977
1701865425319210200,6.805210205078125,-0.15314064919948578,-9.427123069763184,-0.35832518339157104
1701865425328803000,6.814802978515625,-0.2871387302875519,-9.44626522064209,-0.39421752095222473
1701865425338396700,6.824396728515625,-0.45942193269729614,-9.362217903137207,-0.4325026869773865
1701865425347989500,6.833989501953125,-0.5335994362831116,-9.223434448242188,-0.4660021960735321
1701865425357581600,6.84358154296875,-0.5024927258491516,-9.065507888793945,-0.5018945336341858
1701865425367174100,6.853174072265625,-0.3900300860404968,-8.929117202758789,-0.5473581552505493
1701865425376767700,6.862767822265625,-0.24167509377002716,-8.849854469299316,-0.47796630859375
1701865425386360600,6.872360595703125,-0.30628129839897156,-8.797212600708008,-0.3367897868156433
1701865425395952400,6.881952392578125,-0.610468864440918,-8.840283393859863,-0.11665010452270508
1701865425405545500,6.89154541015625,-1.1081759929656982,-9.201898574829102,0.2186441719532013
1701865425415138800,6.901138916015625,-1.6564314365386963,-9.759725570678711,0.5491527915000916
1701865425424731600,6.910731689453125,-1.9725831747055054,-10.327123641967773,0.8243274092674255
1701865425434323700,6.92032373046875,-1.9462621212005615,-10.767702102661133,0.9224331378936768
1701865425443916300,6.929916259765625,-1.4530415534973145,-11.356635093688965,1.1069796085357666
1701865425453510000,6.939510009765625,-0.7612167000770569,-11.837891578674316,1.3007981777191162
1701865425463102700,6.949102783203125,0.3089732229709625,-11.761321067810059,1.3965110778808594
1701865425472694500,6.958694580078125,0.9529415965080261,-11.184351921081543,1.2792627811431885
1701865425482287600,6.96828759765625,0.890728235244751,-10.581061363220215,1.1428718566894531
1701865425491881000,6.977880859375,0.6825526356697083,-10.049555778503418,0.589830756187439
1701865425501473800,6.987473876953125,0.7615157961845398,-9.723833084106445,-0.14775680005550385
1701865425511065600,6.997065673828125,0.4692923426628113,-9.704689979553223,-0.8659027218818665
1701865425520658400,7.006658447265625,0.9529415965080261,-9.685547828674316,-2.0533409118652344
1701865425530252000,7.016251953125,3.019144058227539,-8.622536659240723,-3.662214994430542
1701865425539844900,7.025844970703125,4.977370262145996,-6.793522357940674,-4.95493745803833
1701865425549436700,7.035436767578125,5.626423358917236,-5.474180221557617,-5.094020366668701
1701865425559029500,7.045029541015625,5.087738990783691,-4.966901779174805,-4.42103910446167
1701865425568623000,7.054623046875,3.842574119567871,-3.757628917694092,-3.9855451583862305
1701865425578216000,7.0642158203125,3.6320056915283203,-3.2093734741210938,-3.4229328632354736
1701865425587807700,7.073807861328125,3.70139741897583,-3.0993034839630127,-2.958425998687744
1701865425597400600,7.083400634765625,3.284747362136841,-3.2503504753112793,-2.6255247592926025
1701865425606994200,7.092994140625,3.246462106704712,-2.6973092555999756,-2.7140591144561768
1701865425616587000,7.1025869140625,1.9130617380142212,-2.5821547508239746,-1.4787644147872925
1701865425626179000,7.112178955078125,1.0821540355682373,-4.088137626647949,0.22582264244556427
1701865425635771600,7.121771728515625,3.1818559169769287,-6.597012042999268,0.9176474809646606
1701865425645365200,7.131365234375,4.235296249389648,-8.225028991699219,-0.5880361795425415
1701865425654958000,7.1409580078125,-0.7468597888946533,1.602592945098877,-3.7363924980163574
1701865425664550000,7.1505498046875,-3.329911708831787,2.2489542961120605,2.833101987838745
1701865425674142700,7.160142822265625,-4.057928085327148,-2.6778676509857178,5.56450891494751
1701865425683736300,7.169736328125,-1.1105687618255615,-6.003293037414551,3.0795626640319824
1701865425693329200,7.1793291015625,-1.8146568536758423,-3.0514471530914307,3.0867412090301514
1701865425702921200,7.188921142578125,-3.8901314735412598,0.4342973232269287,4.745864391326904
1701865425712513800,7.198513671875,-3.442673683166504,-4.456931114196777,5.899803161621094
1701865425722107400,7.208107421875,-1.5128620862960815,-14.162519454956055,5.193621635437012
1701865425731700200,7.2177001953125,1.5083755254745483,-19.17578125,4.645366191864014
1701865425741292000,7.2272919921875,1.3025928735733032,-19.304994583129883,3.6445679664611816
1701865425750884900,7.236884765625,3.9122650623321533,-18.364015579223633,1.4611172676086426
1701865425760478500,7.246478515625,4.795515537261963,-11.588739395141602,0.5970092415809631
1701865425770071300,7.2560712890625,1.1781660318374634,-3.5422747135162354,2.002194404602051
1701865425779663000,7.2656630859375,-2.8175487518310547,-1.0070792436599731,1.968694806098938
1701865425789256000,7.275255859375,-4.900500774383545,-1.1697912216186523,1.4419747591018677
1701865425798849500,7.284849609375,-5.650052547454834,-0.7052844762802124,1.5568302869796753
1701865425808442400,7.2944423828125,-5.209474086761475,-2.9485557079315186,3.304488182067871
1701865425818034200,7.3040341796875,-4.553541660308838,-5.582156181335449,4.717150688171387
1701865425827627000,7.313626953125,-4.373780727386475,-8.519644737243652,5.516652584075928
1701865425837220600,7.323220703125,-2.5423741340637207,-10.300802230834961,3.5392837524414062
1701865425846813400,7.3328134765625,-0.24167509377002716,-2.857628345489502,0.5778666734695435
1701865425856405200,7.3424052734375,-1.256830096244812,-3.0011978149414062,1.456331729888916
1701865425865998000,7.351998046875,-4.4982075691223145,-9.513264656066895,1.7581263780593872
1701865425875591700,7.361591796875,-7.105486869812012,-11.411670684814453,2.3446671962738037
1701865425885184500,7.3711845703125,-6.442375659942627,-7.035197734832764,3.3598220348358154
1701865425894776300,7.3807763671875,-6.188437461853027,-9.13968563079834,4.238286972045898
1701865425904369200,7.390369140625,-7.579565048217773,-12.465110778808594,4.133002758026123
1701865425913962800,7.399962646484375,-9.506684303283691,-15.462419509887695,3.867100477218628
1701865425923555600,7.4095556640625,-10.244272232055664,-15.857534408569336,5.169693470001221
1701865425933147400,7.4191474609375,-11.055737495422363,-14.701203346252441,7.096812725067139
1701865425942740200,7.428740234375,-12.422937393188477,-14.030913352966309,7.685746192932129
1701865425952333800,7.438333740234375,-15.56381607055664,-15.213566780090332,7.822137355804443
1701865425961926700,7.4479267578125,-17.66112518310547,-16.10160255432129,7.846364498138428
1701865425971518500,7.4575185546875,-21.93709945678711,-16.77458381652832,5.172086238861084
1701865425981111300,7.467111328125,-25.216760635375977,-17.41855239868164,2.847458839416504
1701865425990705000,7.476704833984375,-29.25345230102539,-16.532609939575195,-0.48514479398727417
1701865426000297500,7.48629736328125,-29.34438133239746,-13.891831398010254,-0.755832850933075
1701865426009889500,7.4958896484375,-29.025835037231445,-10.097412109375,0.39571303129196167
1701865426019482400,7.505482421875,-27.309284210205078,-6.283552169799805,2.207977056503296
1701865426029076000,7.515075927734375,-24.460330963134766,-2.3668007850646973,4.338785648345947
1701865426038668500,7.52466845703125,-20.577077865600586,1.2484551668167114,5.011467933654785
1701865426048260600,7.534260498046875,-16.425830841064453,3.8865420818328857,6.359524250030518
1701865426057853400,7.543853515625,-12.566506385803223,5.641378402709961,6.534200668334961
1701865426067447000,7.553447021484375,-9.499505996704102,3.518047571182251,7.94925594329834
1701865426077039600,7.56303955078125,-6.432804584503174,5.588736534118652,4.736293315887451
1701865426086631700,7.572631591796875,-6.231807708740234,3.558725595474243,4.616652011871338
1701865426096224500,7.582224609375,-5.484648704528809,2.4191436767578125,3.402892827987671
1701865426105818000,7.591818115234375,-5.140082359313965,1.8708882331848145,2.0165512561798096
1701865426115410700,7.60141064453125,-5.420042514801025,1.4949159622192383,0.8410771489143372
1701865426125002800,7.611002685546875,-5.985047817230225,1.083051323890686,-0.054436713457107544
1701865426134595600,7.620595703125,-6.796812534332275,0.90358966588974,-1.2323036193847656
1701865426144189200,7.630189208984375,-7.189235687255859,0.1423729509115219,-1.9193428754806519
1701865426153782000,7.639781982421875,-7.239484786987305,-0.7603194117546082,-2.2184457778930664
1701865426163373800,7.649373779296875,-7.172485828399658,-1.057328462600708,-2.1418752670288086
1701865426172966700,7.658966552734375,-7.170093059539795,-1.3109676837921143,-1.4931213855743408
1701865426182560300,7.668560302734375,-6.758228302001953,-1.19132661819458,-0.7725825905799866
1701865426192152800,7.67815283203125,-6.966702938079834,-0.8656035661697388,-0.09990034252405167
1701865426201745000,7.687744873046875,-7.301698207855225,-0.1498505175113678,0.20189441740512848
1701865426211337700,7.697337646484375,-7.184450149536133,0.5826523303985596,-0.02063809521496296
1701865426220931300,7.706931396484375,-7.184450149536133,0.9131609201431274,-0.5282155871391296
1701865426230524000,7.71652392578125,-7.354639530181885,1.2867404222488403,-1.6247265338897705
1701865426240116000,7.726115966796875,-7.033702373504639,1.2819547653198242,-2.2208385467529297
1701865426249708800,7.735708740234375,-6.672086715698242,1.1955139636993408,-2.5704896450042725
1701865426259302400,7.745302490234375,-6.722336292266846,0.9514461159706116,-2.8842484951019287
1701865426268895000,7.75489501953125,-7.0025954246521,0.623330295085907,-3.066103219985962
1701865426278487000,7.764487060546875,-7.450352191925049,0.3314059376716614,-3.240779161453247
1701865426288080000,7.774079833984375,-8.072785377502441,0.0008973084622994065,-3.3221352100372314
1701865426297673500,7.783673583984375,-10.27777099609375,-2.2351953983306885,-2.151446580886841
1701865426307266000,7.79326611328125,-7.203592777252197,0.14476576447486877,-4.569693088531494
1701865426316858000,7.802858154296875,-9.712766647338867,-1.1697912216186523,-3.882354736328125
1701865426326451000,7.812450927734375,-9.86112117767334,-1.6965112686157227,-4.002295017242432
1701865426336044500,7.82204443359375,-9.791728973388672,-1.5598212480545044,-4.243969917297363
1701865426345637000,7.83163720703125,-9.897013664245605,-1.0812567472457886,-3.812962770462036
1701865426355229200,7.841229248046875,-9.57607650756836,-1.038185954093933,-4.686941146850586
1701865426364822000,7.850822021484375,-10.217950820922852,-0.9014959335327148,-4.524229526519775
1701865426374415600,7.86041552734375,-11.223235130310059,-1.7491533756256104,-3.7842490673065186
1701865426384008200,7.87000830078125,-9.885049819946289,0.024825535714626312,-4.938187599182129
1701865426393600300,7.879600341796875,-10.552946090698242,-0.9373882412910461,-3.9759738445281982
1701865426403193000,7.889193115234375,-10.217950820922852,-1.1530413627624512,-3.8560338020324707
1701865426412786400,7.898786376953125,-9.889835357666016,-1.394716501235962,-3.7698919773101807
1701865426422379300,7.908379150390625,-9.662516593933105,-1.6175481081008911,-3.6023945808410645
1701865426431971300,7.917971435546875,-9.564111709594727,-1.770688772201538,-3.3293135166168213
1701865426441564200,7.927564208984375,-9.377471923828125,-1.9046868085861206,-2.9943184852600098
1701865426451157800,7.93715771484375,-9.29611587524414,-2.0027925968170166,-2.6350958347320557
1701865426460750300,7.946750244140625,-9.293723106384277,-2.043470621109009,-2.352742910385132
1701865426470342400,7.95634228515625,-9.346364974975586,-2.084148406982422,-2.1658036708831787
1701865426479935200,7.965935302734375,-9.243474006652832,-2.129911184310913,-2.072483539581299
1701865426489528600,7.975528564453125,-9.116654396057129,-2.1801605224609375,-1.8403797149658203
1701865426499121400,7.985121337890625,-8.874680519104004,-2.153839588165283,-1.6007983684539795
1701865426508713500,7.99471337890625,-8.721539497375488,-2.115255117416382,-1.5074782371520996
1701865426518306300,8.004306396484376,-8.640183448791504,-2.0817556381225586,-1.4213366508483887
1701865426527899600,8.013899658203124,-8.585148811340332,-2.1251256465911865,-1.2873386144638062
1701865426537492500,8.023492431640625,-8.55164909362793,-2.2256240844726562,-1.1051849126815796
1701865426547084500,8.03308447265625,-8.587541580200195,-2.3069801330566406,-0.9759725332260132
1701865426556677400,8.042677490234375,-8.64496898651123,-2.309372901916504,-0.9520443081855774
1701865426566270700,8.052270751953126,-8.625826835632324,-2.4242284297943115,-0.88025963306427
1701865426575863600,8.061863525390624,-8.594719886779785,-2.4481565952301025,-0.7654041647911072
1701865426585455600,8.07145556640625,-8.570791244506836,-2.3859431743621826,-0.6266204118728638
1701865426595048400,8.08104833984375,-8.695218086242676,-2.2375881671905518,-0.5617151260375977
1701865426604641800,8.090641845703125,-8.889037132263184,-2.2136600017547607,-0.5066801905632019
1701865426614234600,8.100234619140625,-8.951250076293945,-2.2112672328948975,-0.3966103494167328
1701865426623826700,8.10982666015625,-8.972785949707031,-2.175374984741211,-0.26979073882102966
1701865426633419500,8.11941943359375,-8.903393745422363,-2.261516571044922,-0.13579268753528595
1701865426643012900,8.129012939453125,-8.884251594543457,-2.256730794906616,-0.25304099917411804
1701865426652605700,8.138605712890625,-8.999106407165527,-2.144268274307251,-0.3966103494167328
1701865426662197800,8.14819775390625,-9.159725189208984,-2.014756679534912,-0.4468596279621124
1701865426671790600,8.15779052734375,-9.265008926391602,-1.9262222051620483,-0.3798605799674988
1701865426681384000,8.167384033203126,-9.391828536987305,-1.8687944412231445,-0.267397940158844
1701865426690976800,8.176976806640624,-9.542576789855957,-1.8352949619293213,-0.3008974492549896
1701865426700568600,8.186568603515624,-9.657731056213379,-1.794616937637329,-0.4420739710330963
1701865426710161400,8.196161376953125,-9.703194618225098,-1.9262222051620483,-0.4181457459926605
1701865426719755000,8.205755126953125,-9.767801284790039,-1.978864312171936,-0.4133601188659668
1701865426729347800,8.215347900390626,-9.693623542785645,-2.192124605178833,-0.267397940158844
1701865426738940000,8.22493994140625,-9.858728408813477,-2.115255117416382,-0.12382857501506805
1701865426748532500,8.234532470703124,-9.83719253540039,-2.0171494483947754,-0.09032905846834183
1701865426758126000,8.2441259765625,-9.940084457397461,-1.9932212829589844,0.03678964823484421
1701865426767719000,8.253718994140625,-10.009476661682129,-2.076970100402832,0.15643078088760376
1701865426777310700,8.263310791015625,-9.667302131652832,-1.8041882514953613,0.022432712838053703
1701865426786903600,8.272903564453125,-9.655338287353516,-1.6271194219589233,-0.04007977992296219
1701865426796497200,8.2824970703125,-9.593125343322754,-1.7180466651916504,0.1660020649433136
1701865426806090000,8.292090087890625,-9.501898765563965,-1.6654045581817627,0.14685949683189392
1701865426815681800,8.301681884765625,-9.61226749420166,-1.6319050788879395,0.1779661774635315
1701865426825274600,8.311274658203125,-9.626625061035156,-1.710868239402771,0.23300109803676605
1701865426834868200,8.3208681640625,-9.657731056213379,-1.6199408769607544,0.2641077935695648
1701865426844461000,8.3304609375,-9.497113227844238,-1.7730815410614014,0.41964125633239746
1701865426854052900,8.340052978515626,-9.549755096435547,-1.4066805839538574,0.32153555750846863
1701865426863645700,8.349645751953124,-9.549755096435547,-1.7252250909805298,0.6687939167022705
1701865426873239300,8.3592392578125,-9.492327690124512,-2.0099709033966064,0.8865407705307007
1701865426882832100,8.36883203125,-9.516255378723145,-1.9860427379608154,0.8793623447418213
1701865426892424000,8.378423828125,-9.45164966583252,-2.014756679534912,0.9367900490760803
1701865426902016800,8.388016845703126,-9.475577354431152,-1.9357935190200806,0.9367900490760803
1701865426911610400,8.3976103515625,-9.355937004089355,-1.9908283948898315,0.9343972206115723
1701865426921203000,8.407202880859375,-9.42772102355957,-1.9860427379608154,0.898504912853241
1701865426930795000,8.416794921875,-9.250652313232422,-1.8687944412231445,0.8530412912368774
1701865426940387800,8.426387939453125,-9.346364974975586,-2.0338993072509766,0.8410771489143372
1701865426949981400,8.4359814453125,-9.205188751220703,-1.9716858863830566,0.6783652305603027
1701865426959574300,8.44557421875,-9.401400566101074,-1.9692929983139038,0.7190431952476501
1701865426969166000,8.455166015625,-9.4660062789917,-2.0195422172546387,0.6927221417427063
1701865426978759000,8.464759033203125,-9.511469841003418,-2.0673987865448,0.7597211599349976
1701865426988352500,8.4743525390625,-9.446864128112793,-2.1056840419769287,0.7262216806411743
1701865426997945000,8.483945068359375,-9.449256896972656,-2.043470621109009,0.7405785918235779
1701865427007537200,8.493537109375,-10.816455841064453,-3.0801608562469482,1.5089738368988037
1701865427017130000,8.5031298828125,-7.15812873840332,-1.2990036010742188,0.11575279384851456
1701865427026723600,8.5127236328125,-9.935298919677734,-1.033400297164917,0.3047857880592346
1701865427036316200,8.522316162109375,-9.60508918762207,-1.7515461444854736,0.5970092415809631
1701865427045908200,8.531908203125,-9.408578872680664,-2.182553291320801,0.7597211599349976
1701865427055501000,8.5415009765625,-9.581160545349121,-2.4385852813720703,1.0133603811264038
1701865427065094700,8.5510947265625,-9.274580955505371,-2.12751841545105,0.7357929348945618
1701865427074687200,8.560687255859374,-9.403793334960938,-2.333301067352295,0.9535398483276367
1701865427084279300,8.570279296875,-9.652945518493652,-2.318944215774536,1.181157112121582
1701865427093872000,8.5798720703125,-9.317651748657227,-1.6917256116867065,0.7597211599349976
1701865427103465700,8.5894658203125,-9.74387264251709,-1.8376877307891846,1.058824062347412
1701865427113058300,8.599058349609376,-9.688838005065918,-1.8161523342132568,1.0516455173492432
1701865427122650400,8.608650390625,-9.8300142288208,-1.8305093050003052,1.1165509223937988
1701865427132243200,8.6182431640625,-9.894620895385742,-1.8376877307891846,1.1644073724746704
1701865427141836800,8.6278369140625,-9.856335639953613,-1.8448662757873535,1.173978567123413
1701865427151429400,8.637429443359375,-9.731908798217773,-1.923829436302185,1.2481560707092285
1701865427161021400,8.647021484375,-9.832406997680664,-1.9621145725250244,1.4970096349716187
1701865427170614300,8.6566142578125,-9.664909362792969,-1.9046868085861206,1.3701900243759155
1701865427180207900,8.666207763671874,-9.609874725341797,-1.797009825706482,1.4611172676086426
1701865427189800400,8.675800537109374,-9.588339805603027,-1.8664016723632812,1.5257235765457153
1701865427199392500,8.685392578125,-9.648159980773926,-1.7754744291305542,1.3965110778808594
1701865427208985300,8.6949853515625,-9.511469841003418,-1.8687944412231445,1.425225019454956
1701865427218579000,8.704578857421875,-9.540184020996094,-1.8999011516571045,1.3821542263031006
1701865427228171500,8.714171630859376,-9.44447135925293,-1.9884356260299683,1.2744771242141724
1701865427237763600,8.723763671875,-9.463613510131836,-1.9645073413848877,1.1596217155456543
1701865427247356400,8.7333564453125,-9.482755661010742,-2.161017894744873,1.2505489587783813
1701865427256950000,8.742949951171875,-9.44447135925293,-2.177767753601074,1.2888340950012207
1701865427266542600,8.75254248046875,-9.377471923828125,-2.1227328777313232,1.212263822555542
1701865427276134700,8.762134765625,-9.32004451751709,-2.4098715782165527,1.4036896228790283
1701865427285727500,8.7717275390625,-9.365508079528809,-2.3787648677825928,1.3175479173660278
1701865427295321000,8.781321044921874,-9.28893756866455,-2.3380868434906006,1.3486546277999878
1701865427304913700,8.79091357421875,-9.22433090209961,-2.373979091644287,1.267298698425293
1701865427314505700,8.800505615234375,-9.286544799804688,-2.539083957672119,1.4084752798080444
1701865427324098600,8.8100986328125,-9.221938133239746,-2.333301067352295,0.9343972206115723
1701865427333692000,8.81969189453125,-9.439684867858887,-2.292623281478882,0.9918249845504761
1701865427343284700,8.82928466796875,-9.408578872680664,-2.3787648677825928,0.9583254456520081
1701865427352876800,8.838876708984374,-9.415757179260254,-2.450549602508545,0.9702895879745483
1701865427362469600,8.8484697265625,-9.372686386108398,-2.3787648677825928,0.9320043921470642
1701865427372063000,8.85806298828125,-9.312865257263184,-2.3763720989227295,0.9200403094291687
1701865427381655800,8.86765576171875,-9.300901412963867,-2.481656074523926,1.022931694984436
1701865427391248000,8.877247802734376,-9.336793899536133,-2.412264347076416,0.9774680733680725
1701865427400840700,8.8868408203125,-9.281759262084961,-2.4553351402282715,0.9942178130149841
1701865427410434000,8.89643408203125,-9.324830055236816,-2.5271198749542236,1.1309077739715576
1701865427420027000,8.90602685546875,-10.483553886413574,-3.1304101943969727,1.6142579317092896
1701865427429619000,8.915618896484375,-7.849953651428223,-1.9573289155960083,0.5778666734695435
1701865427439211800,8.925211669921875,-9.956833839416504,-2.2256240844726562,0.9415757060050964
1701865427448805000,8.93480517578125,-9.384650230407715,-2.316551446914673,0.9487541913986206
1701865427458398000,8.94439794921875,-9.355937004089355,-2.295016050338745,0.898504912853241
1701865427467990000,8.953989990234374,-9.410971641540527,-2.2016959190368652,0.900897741317749
1701865427477582600,8.96358251953125,-9.415757179260254,-2.1945173740386963,0.9750752449035645
1701865427487176200,8.97317626953125,-9.4061861038208,-2.1945173740386963,1.0636097192764282
1701865427496769000,8.98276904296875,-9.384650230407715,-2.206481695175171,1.176371455192566
1701865427506361000,8.992361083984376,-9.332008361816406,-2.1873390674591064,1.2170493602752686
1701865427515954000,9.001953857421874,-9.20279598236084,-2.1394824981689453,1.2505489587783813
1701865427525547300,9.01154736328125,-9.116654396057129,-2.1104695796966553,1.231406331062317
1701865427535140000,9.02114013671875,-9.006285667419434,-2.060220241546631,1.2074781656265259
1701865427544732000,9.03073193359375,-8.929715156555176,-2.093719720840454,1.2840484380722046
1701865427554324700,9.04032470703125,-9.018548965454102,-1.9142581224441528,1.0061819553375244
1701865427563918300,9.04991845703125,-9.06401252746582,-2.021935224533081,1.1045867204666138
1701865427573511200,9.05951123046875,-9.01107120513916,-2.1032910346984863,1.114158034324646
1701865427583103000,9.06910302734375,-8.982357025146484,-2.232802629470825,1.1955139636993408
1701865427592695800,9.07869580078125,-9.332008361816406,-2.436192512512207,1.169192910194397
1701865427602289400,9.088289306640625,-8.867501258850098,-1.9860427379608154,0.7166503667831421
1701865427611882200,9.09788232421875,-9.480362892150879,-2.108076810836792,0.8530412912368774
1701865427621474000,9.10747412109375,-9.41336441040039,-2.318944215774536,0.865005373954773
1701865427631067000,9.11706689453125,-9.506684303283691,-2.4074785709381104,0.8051848411560059
1701865427640660500,9.126660400390625,-9.588339805603027,-2.476870536804199,0.7381857633590698
1701865427650253300,9.13625341796875,-9.549755096435547,-2.5749762058258057,0.8075776696205139
1701865427659845000,9.14584521484375,-9.621838569641113,-2.7044878005981445,0.9056833982467651
1701865427669438000,9.15543798828125,-9.667302131652832,-2.7355945110321045,0.8961120843887329
1701865427679031600,9.165031494140624,-9.691230773925781,-2.7451658248901367,0.8961120843887329
1701865427688624400,9.174624267578125,-9.674481391906738,-2.754737138748169,0.9678967595100403
1701865427698216200,9.18421630859375,-9.652945518493652,-2.740380048751831,0.9655039310455322
1701865427707809000,9.19380908203125,-9.626625061035156,-2.68534517288208,0.9104689955711365
1701865427717402600,9.203402587890626,-9.542576789855957,-2.6347968578338623,0.867398202419281
1701865427726995200,9.2129951171875,-9.516255378723145,-2.598904609680176,0.7956135272979736
1701865427736587300,9.222587158203124,-9.492327690124512,-2.567797899246216,0.8027920126914978
1701865427746180000,9.23218017578125,-9.463613510131836,-2.5342981815338135,0.7908278703689575
1701865427755773700,9.241773681640625,-9.41336441040039,-2.5486552715301514,0.8626125454902649
1701865427765366300,9.2513662109375,-9.382257461547852,-2.5247271060943604,0.900897741317749
1701865427774958300,9.260958251953125,-9.332008361816406,-2.507977247238159,0.9128618240356445
1701865427784551200,9.27055126953125,-9.276973724365234,-2.4625136852264404,0.9415757060050964
1701865427794144800,9.280144775390625,-9.233902931213379,-2.3835504055023193,0.9678967595100403
1701865427803737300,9.2897373046875,-9.243474006652832,-2.3524436950683594,0.9798609018325806
1701865427813329400,9.299329345703125,-9.19561767578125,-2.333301067352295,0.9631111025810242
1701865427822922200,9.308922119140625,-9.1716890335083,-2.342872381210327,0.9296116232872009
1701865427832515800,9.318515869140626,-9.157332420349121,-2.350050926208496,0.9272187948226929
1701865427842108400,9.3281083984375,-9.142974853515625,-2.3668007850646973,0.9296116232872009
1701865427851700500,9.337700439453124,-9.145368576049805,-2.3859431743621826,0.9415757060050964
1701865427861293300,9.347293212890625,-9.164510726928711,-2.4098715782165527,1.0013962984085083
1701865427870887000,9.356886962890625,-9.150154113769531,-2.5007987022399902,1.058824062347412
1701865427880479500,9.3664794921875,-9.19561767578125,-2.522334098815918,1.0444670915603638
1701865427890071600,9.376071533203126,-9.243474006652832,-2.584547519683838,1.0133603811264038
1701865427899664400,9.385664306640624,-9.214759826660156,-2.6587250232696533,1.0301101207733154
1701865427909258000,9.395258056640625,-9.279366493225098,-2.6443681716918945,1.022931694984436
1701865427918850600,9.4048505859375,-9.274580955505371,-2.6539394855499268,1.0205388069152832
1701865427928442600,9.414442626953125,-9.279366493225098,-2.65633225440979,1.0109676122665405
1701865427938035500,9.424035400390625,-9.279366493225098,-2.639582395553589,0.989432156085968
1701865427947629000,9.433629150390624,-9.31047248840332,-2.646760940551758,0.9942178130149841
1701865427957221600,9.4432216796875,-9.30329418182373,-2.6443681716918945,0.98703932762146
1701865427966813700,9.452813720703125,-9.30329418182373,-2.6371896266937256,1.022931694984436
1701865427976406500,9.462406494140625,-9.315258979797363,-2.6276183128356934,1.0516455173492432
1701865427986000000,9.471999755859375,-9.32004451751709,-2.6276183128356934,1.058824062347412
1701865427995592700,9.4815927734375,-9.29611587524414,-2.639582395553589,1.0612168312072754
1701865428005184800,9.491184814453124,-9.276973724365234,-2.65633225440979,1.1261221170425415
1701865428014777600,9.500777587890624,-9.221938133239746,-2.591726064682007,1.0926226377487183
1701865428024371000,9.510370849609375,-9.198010444641113,-2.5438694953918457,1.0998010635375977
1701865428033963800,9.5199638671875,-9.19561767578125,-2.539083957672119,1.1380863189697266
1701865428043555800,9.529555908203125,-9.219545364379883,-2.536691188812256,1.173978567123413
1701865428053148700,9.539148681640626,-9.22433090209961,-2.5247271060943604,1.1715857982635498
1701865428062742000,9.548741943359374,-9.214759826660156,-2.555833578109741,1.176371455192566
1701865428072334800,9.5583349609375,-9.20279598236084,-2.5725834369659424,1.1883355379104614
1701865428081927000,9.567927001953125,-9.253045082092285,-2.5893332958221436,1.173978567123413
1701865428091519700,9.577519775390625,-9.257830619812012,-2.6036901473999023,1.1644073724746704
1701865428101113000,9.587113037109376,-9.28893756866455,-2.5749762058258057,1.1620144844055176
1701865428110706000,9.596705810546876,-9.243474006652832,-2.598904609680176,1.1524431705474854
1701865428120298000,9.606298095703124,-9.245866775512695,-2.5582265853881836,1.1213364601135254
1701865428129890600,9.615890625,-9.28893756866455,-2.529512643814087,1.085145115852356
1701865428139484200,9.625484130859375,-9.276973724365234,-2.5438694953918457,1.0803594589233398
1701865428149077000,9.635076904296875,-9.29611587524414,-2.546262502670288,1.0875378847122192
1701865428158668800,9.644668701171875,-9.358329772949219,-2.536691188812256,1.0396814346313477
1701865428168261600,9.65426171875,-9.298508644104004,-2.53190541267395,1.0133603811264038
1701865428177855200,9.663855224609375,-9.312865257263184,-2.529512643814087,1.0277173519134521
1701865428187448000,9.673447998046875,-9.32004451751709,-2.5199413299560547,1.0157532691955566
1701865428197039900,9.683039794921875,-9.308079719543457,-2.5749762058258057,1.01814603805542
1701865428206632700,9.6926328125,-9.298508644104004,-2.608475685119629,0.98703932762146
1701865428216226300,9.702226318359376,-9.286544799804688,-2.663510799407959,1.0061819553375244
1701865428225819100,9.711819091796874,-9.260223388671875,-2.6754748821258545,0.9918249845504761
1701865428235411000,9.721410888671874,-9.265008926391602,-2.7140591144561768,0.9918249845504761
1701865428245003800,9.731003662109375,-9.293723106384277,-2.764308452606201,1.054038405418396
1701865428254597400,9.740597412109375,-9.212367057800293,-2.761915445327759,1.0325030088424683
1701865428264190200,9.750190185546876,-9.231510162353516,-2.7044878005981445,1.01814603805542
1701865428273782000,9.759781982421876,-9.17886734008789,-2.65633225440979,1.0157532691955566
1701865428283374800,9.769374755859374,-9.152546882629395,-2.646760940551758,1.022931694984436
1701865428292968400,9.778968505859375,-9.159725189208984,-2.639582395553589,1.058824062347412
1701865428302561000,9.78856103515625,-9.190832138061523,-2.62522554397583,1.0492527484893799
1701865428312153000,9.798153076171875,-9.193224906921387,-2.62522554397583,1.0564311742782593
1701865428321746000,9.807745849609375,-9.193224906921387,-2.6419754028320312,1.085145115852356
1701865428331339500,9.817339599609374,-9.212367057800293,-2.632404088973999,1.085145115852356
1701865428340932000,9.82693212890625,-9.255437850952148,-2.6347968578338623,1.0974082946777344
1701865428350524200,9.836524169921875,-9.291330337524414,-2.6515464782714844,1.1069796085357666
1701865428360117000,9.846116943359375,-9.32004451751709,-2.62522554397583,1.0950154066085815
1701865428369710600,9.855710693359375,-9.329615592956543,-2.6826531887054443,1.1356934309005737
1701865428379303200,9.86530322265625,-9.324830055236816,-2.6347968578338623,1.118943691253662
1701865428388895200,9.874895263671876,-9.284152030944824,-2.639582395553589,1.1261221170425415
1701865428398488000,9.884488037109374,-9.245866775512695,-2.632404088973999,1.1261221170425415
1701865428408081700,9.89408154296875,-9.241081237792969,-2.615654230117798,1.1117652654647827
1701865428417674200,9.90367431640625,-9.241081237792969,-2.5965116024017334,1.0827522277832031
1701865428427266300,9.913266357421875,-9.257830619812012,-2.601297378540039,1.0636097192764282
1701865428436859100,9.922859130859376,-9.272188186645508,-2.5725834369659424,1.046859860420227
1701865428446452700,9.93245263671875,-9.257830619812012,-2.6108686923980713,1.0683952569961548
1701865428456045300,9.94204541015625,-9.28893756866455,-2.5127627849578857,0.98703932762146
1701865428465637400,9.951637451171875,-9.248259544372559,-2.553440809249878,0.9966106414794922
1701865428475230200,9.961230224609375,-9.233902931213379,-2.546262502670288,0.989432156085968
1701865428484823800,9.97082373046875,-9.238688468933105,-2.5414767265319824,0.989432156085968
1701865428494416400,9.98041650390625,-9.231510162353516,-2.5271198749542236,1.01814603805542
1701865428504008400,9.990008544921874,-9.257830619812012,-2.539083957672119,1.0444670915603638
1701865428513601300,9.999601318359375,-9.245866775512695,-2.570190668106079,1.0803594589233398
1701865428523195000,10.00919482421875,-9.255437850952148,-2.5893332958221436,1.054038405418396
1701865428532787500,10.018787353515625,-9.260223388671875,-2.6132614612579346,1.0707881450653076
1701865428542379500,10.028379638671876,-9.284152030944824,-2.632404088973999,1.0707881450653076
1701865428551972400,10.037972412109376,-9.28893756866455,-2.6276183128356934,1.0564311742782593
1701865428561566000,10.04756591796875,-9.255437850952148,-2.6276183128356934,1.042074203491211
1701865428571158500,10.057158447265625,-9.260223388671875,-2.615654230117798,1.0253244638442993
1701865428580750600,10.06675048828125,-9.226723670959473,-2.62522554397583,1.0133603811264038
1701865428590343400,10.076343505859375,-9.241081237792969,-2.615654230117798,1.01814603805542
1701865428599936800,10.085936767578126,-9.21715259552002,-2.615654230117798,1.0396814346313477
1701865428609529600,10.095529541015624,-9.207581520080566,-2.618046998977661,1.054038405418396
1701865428619121700,10.10512158203125,-9.233902931213379,-2.5821547508239746,1.042074203491211
1701865428628714500,10.114714599609375,-9.238688468933105,-2.5965116024017334,1.0660024881362915
1701865428638307800,10.124307861328125,-9.231510162353516,-2.62522554397583,1.090229868888855
1701865428647900700,10.133900634765626,-9.267401695251465,-2.639582395553589,1.1213364601135254
1701865428657492500,10.143492431640626,-9.274580955505371,-2.639582395553589,1.1380863189697266
1701865428667085300,10.153085205078124,-9.265008926391602,-2.6371896266937256,1.1309077739715576
1701865428676679000,10.162678955078125,-9.257830619812012,-2.6060829162597656,1.1237293481826782
1701865428686271700,10.172271728515625,-9.229117393493652,-2.615654230117798,1.1237293481826782
1701865428695863800,10.18186376953125,-9.245866775512695,-2.5797619819641113,1.1165509223937988
1701865428705456400,10.191456298828125,-9.260223388671875,-2.6371896266937256,1.1261221170425415
1701865428715050000,10.201050048828124,-9.245866775512695,-2.59411883354187,1.1165509223937988
1701865428724642800,10.210642822265624,-9.248259544372559,-2.5893332958221436,1.1021939516067505
1701865428734234600,10.220234619140625,-9.257830619812012,-2.56301212310791,1.0827522277832031
1701865428743827500,10.229827392578125,-9.255437850952148,-2.553440809249878,1.0974082946777344
1701865428753421000,10.239421142578125,-9.238688468933105,-2.5510480403900146,1.1117652654647827
1701865428763014000,10.249013916015626,-9.281759262084961,-2.522334098815918,1.1093723773956299
1701865428772605700,10.258605712890626,-9.274580955505371,-2.5103700160980225,1.1213364601135254
1701865428782198500,10.268198486328124,-9.286544799804688,-2.5127627849578857,1.1093723773956299
1701865428791792000,10.277792236328125,-9.267401695251465,-2.5271198749542236,1.114158034324646
1701865428801385000,10.287385009765625,-9.276973724365234,-2.5247271060943604,1.1261221170425415
1701865428810976800,10.296976806640625,-9.29611587524414,-2.5342981815338135,1.1309077739715576
1701865428820569600,10.306569580078126,-9.267401695251465,-2.536691188812256,1.1333006620407104
1701865428830163200,10.3161630859375,-9.272188186645508,-2.53190541267395,1.1380863189697266
1701865428839755800,10.325755859375,-9.262616157531738,-2.539083957672119,1.150050401687622
1701865428849347800,10.335347900390625,-9.226723670959473,-2.555833578109741,1.176371455192566
1701865428858940700,10.344940673828125,-9.253045082092285,-2.555833578109741,1.1476575136184692
1701865428868534300,10.3545341796875,-9.231510162353516,-2.5749762058258057,1.1596217155456543
1701865428878126800,10.364126953125,-9.262616157531738,-2.5654048919677734,1.150050401687622
1701865428887719000,10.373718994140624,-9.238688468933105,-2.5749762058258057,1.145264744758606
1701865428897311700,10.383311767578125,-9.229117393493652,-2.601297378540039,1.150050401687622
1701865428906905300,10.3929052734375,-9.233902931213379,-2.5510480403900146,1.090229868888855
1701865428916498000,10.402497802734375,-9.250652313232422,-2.5271198749542236,1.077966570854187
1701865428926090000,10.412090087890626,-9.214759826660156,-2.632404088973999,1.145264744758606
1701865428935682800,10.421682861328126,-9.238688468933105,-2.632404088973999,1.1237293481826782
1701865428945276400,10.4312763671875,-9.267401695251465,-2.601297378540039,1.0875378847122192
1701865428954869000,10.440868896484375,-9.28893756866455,-2.608475685119629,1.085145115852356
1701865428964461000,10.4504609375,-9.293723106384277,-2.618046998977661,1.0950154066085815
1701865428974054000,10.460053955078125,-9.281759262084961,-2.615654230117798,1.077966570854187
1701865428983647500,10.4696474609375,-9.255437850952148,-2.59411883354187,1.0707881450653076
1701865428993240000,10.479239990234374,-9.262616157531738,-2.598904609680176,1.0827522277832031
1701865429002832100,10.48883203125,-9.257830619812012,-2.598904609680176,1.0707881450653076
1701865429012425000,10.498425048828125,-9.255437850952148,-2.5893332958221436,1.0612168312072754
1701865429022018600,10.5080185546875,-9.245866775512695,-2.59411883354187,1.0325030088424683
1701865429031611100,10.517611083984375,-9.229117393493652,-2.586940288543701,0.9942178130149841
1701865429041203200,10.527203125,-9.21715259552002,-2.591726064682007,1.0061819553375244
1701865429050796000,10.536796142578124,-9.250652313232422,-2.452942371368408,0.900897741317749
1701865429060389600,10.5463896484375,-9.262616157531738,-2.3835504055023193,0.8721838593482971
1701865429069982200,10.555982177734375,-9.300901412963867,-2.4385852813720703,0.9176474809646606
1701865429079574300,10.56557421875,-9.298508644104004,-2.618046998977661,1.0157532691955566
1701865429089167000,10.5751669921875,-9.30329418182373,-2.6826531887054443,1.0325030088424683
1701865429098760400,10.584760498046874,-9.33440113067627,-2.632404088973999,1.0061819553375244
1701865429108353300,10.594353271484374,-9.248259544372559,-2.5725834369659424,0.9822536706924438
1701865429117945300,10.6039453125,-9.257830619812012,-2.601297378540039,1.0372886657714844
1701865429127538200,10.6135380859375,-9.269794464111328,-2.622832775115967,1.0516455173492432
1701865429137131500,10.623131591796875,-9.272188186645508,-2.6060829162597656,1.077966570854187
1701865429146724400,10.632724365234376,-9.281759262084961,-2.615654230117798,1.1117652654647827
1701865429156316400,10.64231640625,-9.257830619812012,-2.6754748821258545,1.1859427690505981
1701865429165909000,10.651908935546874,-9.214759826660156,-2.730808734893799,1.2481560707092285
1701865429175502600,10.661502685546875,-9.190832138061523,-2.6949164867401123,1.2481560707092285
1701865429185095400,10.671095458984375,-9.176474571228027,-2.670689105987549,1.2625130414962769
1701865429194687200,10.680687255859375,-9.186046600341797,-2.6036901473999023,1.2457633018493652
1701865429204280000,10.690280029296876,-9.176474571228027,-2.529512643814087,1.2433704137802124
1701865429213873700,10.699873779296874,-9.193224906921387,-2.505584478378296,1.2194422483444214
1701865429223466500,10.709466552734375,-9.21715259552002,-2.476870536804199,1.1955139636993408
1701865429233058300,10.719058349609375,-9.238688468933105,-2.4888346195220947,1.205085277557373
1701865429242651100,10.728651123046875,-9.250652313232422,-2.484049081802368,1.1931211948394775
1701865429252244700,10.73824462890625,-9.233902931213379,-2.450549602508545,1.169192910194397
1701865429261837600,10.747837646484374,-9.233902931213379,-2.4577279090881348,1.1548360586166382
1701865429271429400,10.757429443359374,-9.269794464111328,-2.4218356609344482,1.1165509223937988
1701865429281022200,10.767022216796875,-9.293723106384277,-2.4003002643585205,1.0564311742782593
1701865429290615800,10.77661572265625,-9.293723106384277,-2.3931217193603516,1.0085747241973877
1701865429300208600,10.786208740234375,-9.32722282409668,-2.3524436950683594,0.9463613629341125
1701865429309800400,10.795800537109375,-9.332008361816406,-2.3356940746307373,0.9343972206115723
1701865429319393300,10.805393310546876,-9.387042999267578,-2.311765670776367,0.9224331378936768
1701865429328987000,10.81498681640625,-9.391828536987305,-2.3356940746307373,0.9439685344696045
1701865429338579500,10.824579345703125,-9.377471923828125,-2.3452653884887695,0.9822536706924438
1701865429348171500,10.834171630859375,-9.351150512695312,-2.395514488220215,1.0061819553375244
1701865429357764400,10.843764404296875,-9.31047248840332,-2.4218356609344482,1.0205388069152832
1701865429367358000,10.85335791015625,-9.286544799804688,-2.4385852813720703,1.0612168312072754
1701865429376950500,10.862950439453124,-9.245866775512695,-2.443371057510376,1.058824062347412
1701865429386542600,10.87254248046875,-9.260223388671875,-2.4385852813720703,1.0803594589233398
1701865429396135400,10.882135498046875,-9.267401695251465,-2.450549602508545,1.0707881450653076
1701865429405729000,10.89172900390625,-9.286544799804688,-2.443371057510376,1.1069796085357666
1701865429415321600,10.901321533203125,-9.279366493225098,-2.4481565952301025,1.1237293481826782
1701865429424913700,10.91091357421875,-9.265008926391602,-2.450549602508545,1.145264744758606
1701865429434506500,10.920506591796874,-9.250652313232422,-2.4864418506622314,1.173978567123413
1701865429444100000,10.93010009765625,-9.219545364379883,-2.481656074523926,1.1931211948394775
1701865429453692700,10.939692626953125,-9.233902931213379,-2.4864418506622314,1.1787642240524292
1701865429463284700,10.94928466796875,-9.221938133239746,-2.536691188812256,1.173978567123413
1701865429472877600,10.958877685546875,-9.231510162353516,-2.5510480403900146,1.1907284259796143
1701865429482471200,10.96847119140625,-9.200403213500977,-2.5965116024017334,1.1835498809814453
1701865429492063700,10.978063720703124,-9.193224906921387,-2.6108686923980713,1.1955139636993408
1701865429501655800,10.98765576171875,-9.221938133239746,-2.6036901473999023,1.2218350172042847
1701865429511248600,10.99724853515625,-9.231510162353516,-2.5749762058258057,1.2242279052734375
1701865429520842200,11.00684228515625,-9.198010444641113,-2.6204400062561035,1.2936197519302368
1701865429530434800,11.016434814453126,-9.20279598236084,-2.6132614612579346,1.3055838346481323
1701865429540027000,11.02602685546875,-9.241081237792969,-2.56301212310791,1.2960125207901
1701865429549619700,11.03561962890625,-9.236295700073242,-2.546262502670288,1.291226863861084
1701865429559213000,11.045213134765625,-9.176474571228027,-2.62522554397583,1.3366905450820923
1701865429568806000,11.054805908203125,-9.1716890335083,-2.618046998977661,1.3127623796463013
1701865429578398000,11.06439794921875,-9.200403213500977,-2.553440809249878,1.2792627811431885
1701865429587990800,11.07399072265625,-9.279366493225098,-2.4960131645202637,1.2505489587783813
1701865429597584100,11.083584228515624,-9.315258979797363,-2.4625136852264404,1.2960125207901
1701865429607177000,11.093177001953125,-9.305686950683594,-2.3548367023468018,1.1955139636993408
1701865429616769000,11.10276904296875,-9.32722282409668,-2.5175485610961914,1.4012967348098755
1701865429626361600,11.112361572265625,-9.329615592956543,-2.505584478378296,1.3151551485061646
1701865429635955200,11.121955078125,-9.33440113067627,-2.505584478378296,1.3103694915771484
1701865429645548000,11.131548095703126,-9.274580955505371,-2.546262502670288,1.291226863861084
1701865429655140000,11.14114013671875,-9.221938133239746,-2.6036901473999023,1.3055838346481323
1701865429664733000,11.15073291015625,-9.233902931213379,-2.5582265853881836,1.2385848760604858
1701865429674326300,11.160326171875,-9.267401695251465,-2.536691188812256,1.2218350172042847
1701865429683919000,11.169919189453125,-9.279366493225098,-2.577368974685669,1.2290135622024536
1701865429693511000,11.179510986328125,-9.260223388671875,-2.5821547508239746,1.200299620628357
1701865429703103700,11.189103759765626,-9.219545364379883,-2.7116663455963135,1.32711923122406
1701865429712697300,11.198697265625,-9.200403213500977,-2.7978079319000244,1.3725829124450684
1701865429722290200,11.208290283203125,-9.22433090209961,-2.785843849182129,1.4012967348098755
1701865429731882000,11.217882080078125,-9.214759826660156,-2.836092948913574,1.4276177883148193
1701865429741474800,11.227474853515625,-9.186046600341797,-2.8289146423339844,1.4611172676086426
1701865429751068400,11.237068359375,-9.152546882629395,-2.7762725353240967,1.4395818710327148
1701865429760661200,11.2466611328125,-9.10229778289795,-2.7930221557617188,1.4778671264648438
1701865429770253000,11.256253173828124,-9.119047164916992,-2.553440809249878,1.3606188297271729
1701865429779846000,11.265845947265625,-9.08554744720459,-2.639582395553589,1.444367527961731
1701865429789439500,11.275439453125,-9.01107120513916,-2.9174489974975586,1.6429718732833862
1701865429799032000,11.285031982421875,-9.00389289855957,-2.927020311355591,1.6791633367538452
1701865429808624000,11.2946240234375,-8.987142562866211,-2.874378204345703,1.6238292455673218
1701865429818217000,11.304217041015624,-8.960822105407715,-2.7978079319000244,1.5903297662734985
1701865429827810600,11.313810546875,-9.040083885192871,-2.6973092555999756,1.5448660850524902
1701865429837403400,11.3234033203125,-9.042476654052734,-2.6973092555999756,1.5687943696975708
1701865429846995200,11.3329951171875,-9.075976371765137,-2.6778676509857178,1.571187138557434
1701865429856588000,11.342588134765625,-9.104690551757812,-2.649153709411621,1.5759727954864502
1701865429866181600,11.352181640625,-9.119047164916992,-2.6300110816955566,1.5687943696975708
1701865429875774200,11.361774169921874,-9.20997428894043,-2.586940288543701,1.573580026626587
1701865429885366300,11.3713662109375,-9.257830619812012,-2.560619354248047,1.5568302869796753
1701865429894959000,11.380958984375,-9.308079719543457,-2.56301212310791,1.535294771194458
1701865429904552700,11.390552734375,-9.339186668395996,-2.5821547508239746,1.5137593746185303
1701865429914145300,11.400145263671876,-9.363115310668945,-2.5725834369659424,1.4970096349716187
1701865429923737300,11.4097373046875,-9.396614074707031,-2.5965116024017334,1.4970096349716187
1701865429933330200,11.419330078125,-9.418149948120117,-2.577368974685669,1.480259895324707
1701865429942923800,11.428923828125,-9.432506561279297,-2.584547519683838,1.4539388418197632
1701865429952516400,11.438516357421875,-9.255437850952148,-2.9389843940734863,1.5879368782043457
1701865429962108400,11.4481083984375,-9.298508644104004,-2.812164783477783,1.4874383211135864
1701865429971701200,11.457701171875,-9.276973724365234,-2.771486759185791,1.480259895324707
1701865429981294800,11.467294921875,-9.20997428894043,-2.8002007007598877,1.4826527833938599
1701865429990887400,11.476887451171875,-9.190832138061523,-2.7978079319000244,1.4826527833938599
1701865430000479500,11.4864794921875,-9.159725189208984,-2.8145575523376465,1.4730814695358276
1701865430010072300,11.496072265625,-9.10229778289795,-2.84087872505188,1.4706885814666748
1701865430019665700,11.505665771484376,-9.035298347473145,-2.8049862384796143,1.456331729888916
1701865430029258500,11.515258544921876,-9.008678436279297,-2.764308452606201,1.42043936252594
1701865430038850600,11.5248505859375,-9.025727272033691,-2.706880569458008,1.3989039659500122
1701865430048443400,11.534443359375,-9.052047729492188,-2.6419754028320312,1.3654043674468994
1701865430058037000,11.544037109375,-9.05444049835205,-2.5797619819641113,1.3414762020111084
1701865430067629600,11.553629638671875,-9.08554744720459,-2.5486552715301514,1.329512119293213
1701865430077221600,11.5632216796875,-9.097511291503906,-2.5247271060943604,1.3414762020111084
1701865430086814500,11.572814453125,-9.119047164916992,-2.529512643814087,1.3462618589401245
1701865430096407800,11.58240771484375,-9.121439933776855,-2.539083957672119,1.3701900243759155
1701865430106000600,11.592000732421875,-9.145368576049805,-2.577368974685669,1.3773685693740845
1701865430115592700,11.6015927734375,-9.162117958068848,-2.6108686923980713,1.4012967348098755
1701865430125185500,11.611185546875,-9.18843936920166,-2.670689105987549,1.4300106763839722
1701865430134779000,11.62077880859375,-9.200403213500977,-2.7188446521759033,1.4395818710327148
1701865430144371700,11.630371826171874,-9.21715259552002,-2.7690939903259277,1.4515460729599
1701865430153963500,11.639963623046874,-9.243474006652832,-2.802593469619751,1.4395818710327148
1701865430163556400,11.649556396484375,-9.253045082092285,-2.836092948913574,1.4371891021728516
1701865430173150000,11.65914990234375,-9.276973724365234,-2.8049862384796143,1.4036896228790283
1701865430182742800,11.66874267578125,-9.272188186645508,-2.8073792457580566,1.4036896228790283
1701865430192334600,11.67833447265625,-9.250652313232422,-2.77866530418396,1.4012967348098755
1701865430201927400,11.687927490234374,-9.221938133239746,-2.7690939903259277,1.413260817527771
1701865430211521000,11.69752099609375,-9.20279598236084,-2.7595226764678955,1.42043936252594
1701865430221113900,11.70711376953125,-9.193224906921387,-2.7355945110321045,1.456331729888916
1701865430230705700,11.71670556640625,-9.166903495788574,-2.7379872798919678,1.475474238395691
1701865430240298500,11.726298583984375,-9.128618240356445,-2.7284159660339355,1.4778671264648438
1701865430249892000,11.73589208984375,-9.09990406036377,-2.7427730560302734,1.4970096349716187
1701865430259484700,11.745484619140624,-9.09272575378418,-2.74755859375,1.4922239780426025
1701865430269076700,11.75507666015625,-9.09990406036377,-2.733201742172241,1.516152262687683
1701865430278669600,11.764669677734375,-9.05444049835205,-2.6826531887054443,1.444367527961731
1701865430288263200,11.77426318359375,-9.00389289855957,-2.764308452606201,1.5496517419815063
1701865430297856000,11.78385595703125,-8.975178718566895,-2.5725834369659424,1.3438689708709717
1701865430307447800,11.79344775390625,-8.972785949707031,-2.663510799407959,1.5089738368988037
1701865430317040600,11.80304052734375,-9.07119083404541,-2.8552355766296387,1.7365909814834595
1701865430326634200,11.81263427734375,-9.219545364379883,-2.84087872505188,1.7413766384124756
1701865430336226800,11.822226806640625,-9.135796546936035,-2.4960131645202637,1.32711923122406
1701865430345819000,11.83181884765625,-9.181260108947754,-2.522334098815918,1.3821542263031006
1701865430355411700,11.84141162109375,-9.107083320617676,-2.5438694953918457,1.3749756813049316
1701865430365005300,11.85100537109375,-9.219545364379883,-2.371586322784424,1.2840484380722046
1701865430374598000,11.860597900390625,-9.138189315795898,-2.7188446521759033,1.6070795059204102
1701865430384190000,11.87018994140625,-9.169296264648438,-2.7212376594543457,1.628614902496338
1701865430393782800,11.87978271484375,-9.248259544372559,-2.6611177921295166,1.5999010801315308
1701865430403376400,11.88937646484375,-9.339186668395996,-2.632404088973999,1.6552350521087646
1701865430412969000,11.898968994140626,-9.284152030944824,-2.586940288543701,1.578365683555603
1701865430422561000,11.90856103515625,-9.221938133239746,-2.553440809249878,1.4659029245376587
1701865430432153900,11.91815380859375,-9.17886734008789,-2.567797899246216,1.4539388418197632
1701865430441747500,11.92774755859375,-9.142974853515625,-2.560619354248047,1.4826527833938599
1701865430451340000,11.937340087890625,-9.236295700073242,-2.7116663455963135,1.6671991348266602
1701865430460932000,11.94693212890625,-9.370293617248535,-2.7667012214660645,1.731805443763733
1701865430470525000,11.95652490234375,-9.360722541809082,-2.6515464782714844,1.542473316192627
1701865430480118500,11.966118408203124,-9.315258979797363,-2.723630428314209,1.5376876592636108
1701865430489711000,11.975711181640625,-9.262616157531738,-2.7595226764678955,1.5089738368988037
1701865430499303200,11.98530322265625,-9.236295700073242,-2.7762725353240967,1.5568302869796753
1701865430508896000,11.99489599609375,-9.243474006652832,-2.771486759185791,1.6262221336364746
1701865430518489600,12.004489501953126,-9.22433090209961,-2.56301212310791,1.5257235765457153
1701865430528082200,12.014082275390624,-9.090332984924316,-2.553440809249878,1.5759727954864502
1701865430537674200,12.02367431640625,-9.068798065185547,-2.59411883354187,1.6911274194717407
1701865430547267000,12.03326708984375,-8.9943208694458,-2.7020950317382812,1.700698733329773
1701865430556860400,12.0428603515625,-9.052047729492188,-2.733201742172241,1.6863417625427246
1701865430566453200,12.052453369140625,-9.133403778076172,-2.7451658248901367,1.6719847917556763
1701865430576045300,12.06204541015625,-9.154939651489258,-2.7762725353240967,1.7078771591186523
1701865430585638000,12.071637939453124,-9.233902931213379,-2.723630428314209,1.693520188331604
1701865430595231500,12.0812314453125,-9.219545364379883,-2.71645188331604,1.6863417625427246
1701865430604824300,12.09082421875,-9.21715259552002,-2.7427730560302734,1.6911274194717407
1701865430614416100,12.100416015625,-9.131011009216309,-2.8695926666259766,1.6815561056137085
1701865430624009000,12.110009033203125,-9.116654396057129,-2.730808734893799,1.516152262687683
1701865430633602600,12.1196025390625,-9.00389289855957,-2.764308452606201,1.4922239780426025
1701865430643195400,12.1291953125,-9.025727272033691,-2.680260419845581,1.4922239780426025
1701865430652787200,12.138787109375,-8.996713638305664,-2.6204400062561035,1.4970096349716187
1701865430662380000,12.148380126953125,-8.979964256286621,-2.730808734893799,1.5855441093444824
1701865430671973600,12.1579736328125,-9.047262191772461,-2.670689105987549,1.566401481628418
1701865430681566500,12.16756640625,-9.164510726928711,-2.709273338317871,1.6094722747802734
1701865430691158300,12.177158203125,-9.212367057800293,-2.6611177921295166,1.5520446300506592
1701865430700751000,12.186751220703124,-9.480362892150879,-2.292623281478882,1.4012967348098755
1701865430710344700,12.1963447265625,-9.267401695251465,-2.5510480403900146,1.5233306884765625
1701865430719937500,12.2059375,-9.159725189208984,-2.7188446521759033,1.6046867370605469
1701865430729529300,12.215529296875,-9.142974853515625,-2.74755859375,1.6142579317092896
1701865430739122200,12.2251220703125,-9.219545364379883,-2.6826531887054443,1.5951154232025146
1701865430748715800,12.2347158203125,-9.17886734008789,-2.507977247238159,1.5257235765457153
1701865430758308600,12.24430859375,-9.142974853515625,-2.5582265853881836,1.5903297662734985
1701865430767900400,12.253900390625,-9.174081802368164,-2.5797619819641113,1.6357933282852173
1701865430777493200,12.2634931640625,-9.205188751220703,-2.6371896266937256,1.6983058452606201
1701865430787086800,12.2730869140625,-9.1716890335083,-2.7116663455963135,1.7150555849075317
1701865430796679400,12.282679443359376,-9.162117958068848,-2.761915445327759,1.6357933282852173
1701865430806271500,12.292271484375,-9.166903495788574,-2.8695926666259766,1.669592022895813
1701865430815864300,12.3018642578125,-9.181260108947754,-2.888735055923462,1.6477575302124023
