time,seconds_elapsed,z,y,x
1701713542581791200,0.104791259765625,0,0,0
1701713542591385300,0.11438525390625,0.3043813705444336,0.6733474731445312,-0.2961268424987793
1701713542600979000,0.12397900390625,0.2926454544067383,0.768549919128418,-0.12342453002929688
1701713542610573300,0.1335732421875,0.13314437866210938,0.6178932189941406,0.15107965469360352
1701713542620168200,0.143168212890625,0.2237234115600586,-0.1468029022216797,0.4698450565338135
1701713542629762300,0.15276220703125,-0.04042196273803711,-1.36704683303833,1.3479156494140625
1701713542639356000,0.16235595703125,-0.5542778968811035,-2.015810489654541,1.992647647857666
1701713542648950300,0.1719501953125,-0.7687540054321289,-2.043389320373535,2.05344295501709
1701713542658545200,0.181545166015625,-0.8295407295227051,-1.7816944122314453,1.8139677047729492
1701713542668139500,0.191139404296875,-0.840364933013916,-1.4816555976867676,1.445584774017334
1701713542677732900,0.20073291015625,-0.8221135139465332,-1.2210111618041992,0.9638216495513916
1701713542687327200,0.2103271484375,-0.3411750793457031,-0.7192130088806152,0.4345414638519287
1701713542696922000,0.219922119140625,0.48999786376953125,-0.1136159896850586,0.14399409294128418
1701713542706516500,0.2295166015625,1.2819576263427734,0.1945819854736328,0.059868574142456055
1701713542716109800,0.23910986328125,1.9445314407348633,0.014504432678222656,0.4818366765975952
1701713542725704200,0.2487041015625,2.0138278007507324,-0.49318981170654297,1.2494874000549316
1701713542735299000,0.258299072265625,1.8411178588867188,-0.7283711433410645,1.7083054780960083
1701713542744893400,0.2678935546875,1.6358733177185059,-0.6971564292907715,1.8201265335083008
1701713542754486800,0.27748681640625,1.5707659721374512,-0.6059451103210449,1.5512639284133911
1701713542764081200,0.2870810546875,1.6879816055297852,-0.48423004150390625,1.0128989219665527
1701713542773676300,0.29667626953125,1.6472830772399902,-0.3627200126647949,0.4342116117477417
1701713542783270400,0.3062705078125,1.4640779495239258,-0.23388910293579102,0.06860089302062988
1701713542792863700,0.31586376953125,1.2619762420654297,-0.17894315719604492,0.09618115425109863
1701713542802458000,0.3254580078125,0.9867391586303711,-0.21492958068847656,0.33705103397369385
1701713542812053200,0.33505322265625,0.6002683639526367,-0.28290271759033203,0.6308971047401428
1701713542821647400,0.3446474609375,0.23353290557861328,-0.3174724578857422,0.8454900979995728
1701713542831241000,0.354240966796875,-0.03812885284423828,-0.27660465240478516,0.8734999299049377
1701713542840835000,0.3638349609375,-0.14348745346069336,-0.24301624298095703,0.8334529399871826
1701713542850430200,0.37343017578125,-0.2137904167175293,-0.28783226013183594,0.8186085224151611
1701713542860024300,0.3830244140625,-0.31962108612060547,-0.3647952079772949,0.7541061043739319
1701713542869618000,0.392617919921875,-0.49068593978881836,-0.4121708869934082,0.6950835585594177
1701713542879212000,0.4022119140625,-0.732539176940918,-0.47663021087646484,0.7042450308799744
1701713542888807200,0.41180712890625,-0.9908561706542969,-0.5241503715515137,0.7396727800369263
1701713542898401300,0.4214013671875,-1.0391974449157715,-0.4751286506652832,0.7918592691421509
1701713542907995000,0.430994873046875,-0.8840327262878418,-0.39972877502441406,1.0896415710449219
1701713542917589200,0.44058935546875,-0.42643213272094727,-0.4544072151184082,1.81479811668396
1701713542927184100,0.45018408203125,-0.37816572189331055,-0.6879963874816895,1.6155951023101807
1701713542936778200,0.4597783203125,-0.23646163940429688,-0.6512775421142578,1.2786633968353271
1701713542946371800,0.469371826171875,-0.07929658889770508,-0.668053150177002,1.0440633296966553
1701713542955966200,0.47896630859375,-0.18465471267700195,-0.713841438293457,0.8926621079444885
1701713542965561000,0.48856103515625,-0.5570201873779297,-0.5809659957885742,0.7298673391342163
1701713542975155500,0.498155517578125,-0.9249997138977051,-0.3427433967590332,0.504822313785553
1701713542984748800,0.507748779296875,-1.2034001350402832,-0.3022933006286621,0.2939574122428894
1701713542994343200,0.51734326171875,-1.3635878562927246,-0.3246927261352539,0.0028493404388427734
1701713543003938000,0.52693798828125,-1.517247200012207,-0.26196718215942383,-0.4248800277709961
1701713543013532400,0.536532470703125,-1.5255718231201172,-0.16065073013305664,-0.6783321499824524
1701713543023125800,0.546125732421875,-1.3511762619018555,-0.22314071655273438,-0.571786105632782
1701713543032720100,0.55572021484375,-1.2372546195983887,-0.3539557456970215,-0.17454910278320312
1701713543042315000,0.56531494140625,-1.3607735633850098,-0.4058351516723633,0.3706074357032776
1701713543051909400,0.574909423828125,-1.3766169548034668,-0.3993854522705078,0.7866504788398743
1701713543061502700,0.584502685546875,-1.2299470901489258,-0.3087892532348633,0.8458616733551025
1701713543071097000,0.59409716796875,-0.7997884750366211,-0.14530181884765625,0.7465415000915527
1701713543080692200,0.603692138671875,-0.35399913787841797,-0.110443115234375,0.6995269060134888
1701713543090286300,0.613286376953125,0.06781816482543945,-0.20467281341552734,0.7871538400650024
1701713543099879700,0.622879638671875,0.519866943359375,-0.2983555793762207,0.7540913820266724
1701713543109474000,0.63247412109375,0.5581207275390625,-0.36601877212524414,0.8566299080848694
1701713543119069200,0.642069091796875,0.549109935760498,-0.4848308563232422,0.9107091426849365
1701713543128663300,0.651663330078125,0.5301952362060547,-0.5163445472717285,0.84698885679245
1701713543138256600,0.661256591796875,0.6330041885375977,-0.5042967796325684,0.6372665166854858
1701713543147851000,0.67085107421875,0.48297643661499023,-0.46295690536499023,0.44488459825515747
1701713543157446100,0.680446044921875,0.26648426055908203,-0.42679595947265625,0.2582876682281494
1701713543167040300,0.690040283203125,0.1383523941040039,-0.22933483123779297,0.04262015223503113
1701713543176633900,0.6996337890625,0.14614439010620117,-0.10583114624023438,-0.11027994751930237
1701713543186228000,0.70922802734375,0.11859798431396484,-0.08133506774902344,-0.12339642643928528
1701713543195823000,0.718822998046875,0.1629657745361328,-0.0674433708190918,-0.07816651463508606
1701713543205417200,0.728417236328125,0.15563154220581055,-0.08730888366699219,0.052334144711494446
1701713543215010800,0.7380107421875,0.12018394470214844,-0.13233709335327148,0.08552083373069763
1701713543224605000,0.74760498046875,-0.0363154411315918,-0.16524744033813477,-0.05478903651237488
1701713543234200000,0.757199951171875,-0.14352798461914062,-0.10941123962402344,-0.29159197211265564
1701713543243794200,0.766794189453125,-0.07734823226928711,-0.0603632926940918,-0.3724805414676666
1701713543253387800,0.7763876953125,0.03096914291381836,-0.007476806640625,-0.4124245345592499
1701713543262982000,0.78598193359375,0.22731685638427734,0.06610250473022461,-0.39462214708328247
1701713543272577000,0.795576904296875,0.37296247482299805,0.15329265594482422,-0.3708995580673218
1701713543282171100,0.805171142578125,0.4741997718811035,0.1796717643737793,-0.33605360984802246
1701713543291764700,0.8147646484375,0.48638391494750977,0.2150111198425293,-0.2160802036523819
1701713543301359000,0.824359130859375,0.5124983787536621,0.2188582420349121,-0.06286543607711792
1701713543310954000,0.8339541015625,0.645169734954834,0.1508159637451172,0.15058830380439758
1701713543320548000,0.843548095703125,0.737083911895752,0.08450078964233398,0.29545748233795166
1701713543330141700,0.8531416015625,0.7505416870117188,-0.0008821487426757812,0.3465156555175781
1701713543339736000,0.862736083984375,0.5717711448669434,0.007499217987060547,0.28395918011665344
1701713543349331000,0.8723310546875,0.35053014755249023,0.05352354049682617,0.2566292881965637
1701713543358925300,0.88192529296875,0.20215702056884766,0.11661720275878906,0.17201963067054749
1701713543368518700,0.8915185546875,0.09954833984375,0.1494612693786621,0.05564989149570465
1701713543378113000,0.901113037109375,-0.005115985870361328,0.13104248046875,0.007016387768089771
1701713543387708000,0.9107080078125,-0.16449689865112305,0.15256452560424805,-0.15601830184459686
1701713543397302300,0.92030224609375,-0.286468505859375,0.18368101119995117,-0.2649064064025879
1701713543406895600,0.9298955078125,-0.2695608139038086,0.17203426361083984,-0.32816022634506226
1701713543416490000,0.939489990234375,-0.16641807556152344,0.1264209747314453,-0.21217848360538483
1701713543426084900,0.9490849609375,-0.10239076614379883,0.015200614929199219,-0.24910220503807068
1701713543435679200,0.95867919921875,-0.12174654006958008,-0.0973505973815918,-0.24500003457069397
1701713543445272600,0.9682724609375,-0.1812887191772461,-0.11142826080322266,-0.2690303921699524
1701713543454867000,0.977866943359375,-0.14593505859375,-0.1319437026977539,-0.3426259756088257
1701713543464461800,0.9874619140625,-0.21129608154296875,-0.2104969024658203,-0.32297593355178833
1701713543474056200,0.99705615234375,-0.28882598876953125,-0.2468252182006836,-0.42053553462028503
1701713543483649500,1.0066494140625,-0.35738611221313477,-0.30261802673339844,-0.5285332202911377
1701713543493244000,1.016243896484375,-0.3766484260559082,-0.3541698455810547,-0.555039644241333
1701713543502838800,1.0258388671875,-0.36303186416625977,-0.3904895782470703,-0.4457400143146515
1701713543512433200,1.03543310546875,-0.25054216384887695,-0.3203902244567871,-0.3258321285247803
1701713543522026500,1.045026611328125,-0.1984577178955078,-0.31538963317871094,-0.29749298095703125
1701713543531620900,1.054620849609375,-0.17759990692138672,-0.3813648223876953,-0.39711520075798035
1701713543541215700,1.0642158203125,-0.10042810440063477,-0.4416952133178711,-0.5122412443161011
1701713543550810000,1.07381005859375,-0.06444263458251953,-0.4258418083190918,-0.50927734375
1701713543560403500,1.083403564453125,-0.19442224502563477,-0.31075096130371094,-0.5045057535171509
1701713543569997800,1.092997802734375,-0.31261205673217773,-0.19502544403076172,-0.658768355846405
1701713543579593000,1.102593017578125,-0.33752918243408203,-0.19079065322875977,-0.773104727268219
1701713543589187000,1.11218701171875,-0.3619871139526367,-0.16504192352294922,-0.7424676418304443
1701713543598780400,1.121780517578125,-0.1495227813720703,-0.17116069793701172,-0.5971387028694153
1701713543608374800,1.131374755859375,0.05924844741821289,-0.15108966827392578,-0.330409437417984
1701713543617970000,1.140969970703125,0.1000070571899414,-0.09401226043701172,-0.27024322748184204
1701713543627564000,1.15056396484375,0.04560232162475586,-0.05162954330444336,-0.3600037097930908
1701713543637157400,1.160157470703125,-0.10065937042236328,-0.0417475700378418,-0.3721555173397064
1701713543646751700,1.169751708984375,-0.016113758087158203,-0.05318498611450195,-0.374575138092041
1701713543656347000,1.179346923828125,0.025367259979248047,0.005344390869140625,-0.30992916226387024
1701713543665941000,1.18894091796875,0.017797470092773438,0.009802818298339844,-0.20730821788311005
1701713543675534300,1.198534423828125,0.015630722045898438,0.05351972579956055,-0.19932352006435394
1701713543685128700,1.208128662109375,-0.07842397689819336,0.0613093376159668,-0.19429880380630493
1701713543694723800,1.217723876953125,-0.1409921646118164,0.0650629997253418,-0.12574036419391632
1701713543704318000,1.22731787109375,-0.0760335922241211,0.10720348358154297,0.011494264006614685
1701713543713911600,1.23691162109375,0.03488349914550781,0.19812583923339844,0.29894715547561646
1701713543723505700,1.246505615234375,0.1276535987854004,0.26846981048583984,0.4209226965904236
1701713543733100800,1.256100830078125,0.0800175666809082,0.3352522850036621,0.29937732219696045
1701713543742695000,1.26569482421875,0.04955148696899414,0.2669062614440918,0.07354386150836945
1701713543752288500,1.27528857421875,0.026470661163330078,0.1482071876525879,-0.1449165642261505
1701713543761882600,1.284882568359375,0.16929912567138672,0.0730137825012207,-0.2168034017086029
1701713543771477800,1.294477783203125,0.3490738868713379,0.05356168746948242,-0.1351211816072464
1701713543781072000,1.30407177734375,0.4528317451477051,0.048066139221191406,0.005397528409957886
1701713543790665500,1.31366552734375,0.4036679267883301,0.0851430892944336,0.1725490391254425
1701713543800259600,1.323259521484375,0.21500253677368164,0.11805295944213867,0.3242396414279938
1701713543809854700,1.332854736328125,-0.003868579864501953,0.12493371963500977,0.35062503814697266
1701713543819448800,1.34244873046875,-0.19046878814697266,0.12940168380737305,0.30675947666168213
1701713543829042400,1.35204248046875,-0.37000560760498047,0.0740966796875,0.23225682973861694
1701713543838636500,1.361636474609375,-0.2856483459472656,0.004401683807373047,0.22554001212120056
1701713543848231700,1.371231689453125,-0.1267852783203125,-0.009959220886230469,0.10631681978702545
1701713543857825800,1.38082568359375,0.1681499481201172,-0.12724781036376953,0.050861652940511703
1701713543867419400,1.39041943359375,0.4270210266113281,-0.23762035369873047,-0.030335301533341408
1701713543877013500,1.400013427734375,0.632936954498291,-0.2675895690917969,-0.07872635871171951
1701713543886608600,1.409608642578125,0.7564973831176758,-0.24016618728637695,-0.053618334233760834
1701713543896202800,1.41920263671875,0.7708163261413574,-0.18231821060180664,0.001076914370059967
1701713543905796400,1.42879638671875,0.6184401512145996,-0.16238069534301758,0.05379649996757507
1701713543915390700,1.438390625,0.49951934814453125,-0.1886911392211914,0.09108774363994598
1701713543924985600,1.447985595703125,0.3801431655883789,-0.22461414337158203,0.1937749683856964
1701713543934579700,1.457579833984375,0.16537809371948242,-0.20298528671264648,0.23938758671283722
1701713543944173300,1.46717333984375,-0.06461906433105469,-0.21693801879882812,0.2407039850950241
1701713543953767400,1.476767333984375,-0.2142925262451172,-0.23600244522094727,0.25315478444099426
1701713543963362600,1.486362548828125,-0.33997154235839844,-0.2142782211303711,0.31333109736442566
1701713543972956700,1.495956787109375,-0.3315162658691406,-0.18059349060058594,0.4141741991043091
1701713543982550300,1.50555029296875,-0.19971561431884766,-0.21165704727172852,0.43563172221183777
1701713543992144400,1.515144287109375,-0.0654611587524414,-0.24681520462036133,0.3684890568256378
1701713544001739500,1.524739501953125,0.05073976516723633,-0.3105278015136719,0.31433579325675964
1701713544011333600,1.534333740234375,0.0363917350769043,-0.3060641288757324,0.30154669284820557
1701713544020927200,1.54392724609375,-0.002784252166748047,-0.28633975982666016,0.2911621332168579
1701713544030521600,1.553521484375,-0.09485340118408203,-0.23487043380737305,0.24030975997447968
1701713544040116500,1.563116455078125,-0.19219589233398438,-0.22708606719970703,0.11664770543575287
1701713544049710600,1.572710693359375,-0.24777555465698242,-0.20322751998901367,0.06748203933238983
1701713544059304200,1.58230419921875,-0.3287630081176758,-0.11577320098876953,-0.00975373387336731
1701713544068898600,1.591898681640625,-0.46349048614501953,-0.07100915908813477,-0.023759573698043823
1701713544078493400,1.601493408203125,-0.5667929649353027,-0.027570724487304688,-0.024617016315460205
1701713544088087800,1.611087890625,-0.5927047729492188,0.024697303771972656,-0.06036350131034851
1701713544097681200,1.62068115234375,-0.49048423767089844,0.08302783966064453,-0.03767403960227966
1701713544107275300,1.630275146484375,-0.3581070899963379,0.09000635147094727,-0.019883662462234497
1701713544116870400,1.639870361328125,-0.25943803787231445,0.07445526123046875,-0.07337638735771179
1701713544126464500,1.649464599609375,-0.09469366073608398,0.08096027374267578,-0.04327234625816345
1701713544136058000,1.65905810546875,0.08852815628051758,0.1083822250366211,0.07085521519184113
1701713544145652200,1.66865234375,0.25327110290527344,0.1386585235595703,0.17469508945941925
1701713544155247400,1.678247314453125,0.36982154846191406,0.13572978973388672,0.31887730956077576
1701713544164841500,1.687841552734375,0.3632774353027344,0.16423702239990234,0.3814249336719513
1701713544174435000,1.69743505859375,0.23235607147216797,0.1307992935180664,0.3273972272872925
1701713544184029400,1.707029541015625,0.06058692932128906,0.12243509292602539,0.27984118461608887
1701713544193624300,1.716624267578125,-0.09333419799804688,0.08094930648803711,0.24111683666706085
1701713544203218700,1.72621875,-0.08386087417602539,0.09880590438842773,0.2639082074165344
1701713544212812000,1.73581201171875,0.018889904022216797,0.030263900756835938,0.3254842758178711
1701713544222406100,1.74540625,0.19097042083740234,0.023562908172607422,0.3441089987754822
1701713544232001300,1.755001220703125,0.26930999755859375,0.02516794204711914,0.3525865077972412
1701713544241595400,1.764595458984375,0.17991256713867188,0.021090030670166016,0.360257625579834
1701713544251189000,1.77418896484375,0.1465911865234375,0.04472970962524414,0.27739423513412476
1701713544260783000,1.783783203125,0.1498260498046875,0.0011658668518066406,0.17701563239097595
1701713544270378200,1.793378173828125,0.14195775985717773,-0.04965782165527344,0.05746684968471527
1701713544279972400,1.802972412109375,0.11611175537109375,-0.0746769905090332,-0.043661683797836304
1701713544289566000,1.81256591796875,0.13388919830322266,-0.13100290298461914,-0.08820939064025879
1701713544299160300,1.822160400390625,0.18077707290649414,-0.1314530372619629,-0.09357030689716339
1701713544308755200,1.831755126953125,0.06299257278442383,-0.14251041412353516,-0.11603742837905884
1701713544318349600,1.841349609375,-0.0691213607788086,-0.10422325134277344,-0.073142871260643
1701713544327943000,1.85094287109375,-0.2751455307006836,-0.04440641403198242,-0.11180433630943298
1701713544337537000,1.860537109375,-0.40627050399780273,-0.05895709991455078,-0.10746113955974579
1701713544347132200,1.870132080078125,-0.40500974655151367,-0.09936666488647461,-0.057636961340904236
1701713544356726300,1.879726318359375,-0.3581972122192383,-0.1347670555114746,0.01324482262134552
1701713544366319900,1.88931982421875,-0.19311046600341797,-0.1471085548400879,0.09163950383663177
1701713544375914000,1.8989140625,0.042349815368652344,-0.1712489128112793,0.1226523220539093
1701713544385509000,1.908509033203125,0.2471914291381836,-0.22527170181274414,0.14781010150909424
1701713544395103500,1.918103515625,0.30912208557128906,-0.2077312469482422,0.13370110094547272
1701713544404696800,1.92769677734375,0.2582273483276367,-0.20622539520263672,0.06190907955169678
1701713544414291200,1.937291259765625,0.16407346725463867,-0.2173452377319336,-0.014153286814689636
1701713544423886000,1.946885986328125,0.07387924194335938,-0.19299650192260742,-0.03219786286354065
1701713544433480200,1.956480224609375,0.036895751953125,-0.21127700805664062,-0.02993413805961609
1701713544443073800,1.96607373046875,0.0545806884765625,-0.18906879425048828,0.03466044366359711
1701713544452668000,1.97566796875,0.0009336471557617188,-0.13138198852539062,0.055685609579086304
1701713544462263000,1.985262939453125,-0.05946969985961914,-0.08804798126220703,0.11282123625278473
1701713544471857200,1.994857177734375,-0.14781951904296875,-0.058641910552978516,0.16419990360736847
1701713544481450800,2.00445068359375,-0.1787281036376953,-0.07843971252441406,0.07912953197956085
1701713544491045000,2.014045166015625,-0.058409690856933594,-0.1026296615600586,0.025155439972877502
1701713544500640000,2.023639892578125,0.10750055313110352,-0.07997274398803711,0.07198269665241241
1701713544510234000,2.033234130859375,0.09435415267944336,-0.03450965881347656,0.10143934190273285
1701713544519827700,2.04282763671875,-0.017613887786865234,0.0033292770385742188,0.14842024445533752
1701713544529421800,2.052421875,-0.11652326583862305,0.055390357971191406,0.06621645390987396
1701713544539017000,2.062016845703125,-0.15561628341674805,0.022731304168701172,0.04190468788146973
1701713544548611000,2.071611083984375,-0.038725852966308594,-0.004587650299072266,0.06864924728870392
1701713544558204700,2.08120458984375,0.13807344436645508,-0.02989959716796875,0.20040827989578247
1701713544567798800,2.090798828125,0.22138547897338867,-0.07522726058959961,0.25011348724365234
1701713544577394000,2.100393798828125,0.35469579696655273,-0.06580591201782227,0.2513033151626587
1701713544586988000,2.109988037109375,0.4670276641845703,-0.10441732406616211,0.18979746103286743
1701713544596581600,2.11958154296875,0.7464337348937988,-0.30544137954711914,0.10431795567274094
1701713544606175700,2.12917578125,1.2659120559692383,-0.49550580978393555,-0.0916694700717926
1701713544615771000,2.13877099609375,1.8026909828186035,-0.8097305297851562,0.005788102746009827
1701713544625365000,2.148364990234375,2.1971206665039062,-0.5877499580383301,-0.49848276376724243
1701713544634958600,2.15795849609375,2.108126640319824,-0.6831874847412109,-0.3429449796676636
1701713544644552700,2.167552734375,1.2865562438964844,-0.2553582191467285,-0.3756110370159149
1701713544654147800,2.17714794921875,0.23999547958374023,0.044882774353027344,-0.43475064635276794
1701713544663742000,2.186741943359375,-0.6000323295593262,0.16945695877075195,-0.363290011882782
1701713544673335600,2.19633544921875,-0.8737421035766602,0.2948927879333496,-0.020726650953292847
1701713544682929700,2.2059296875,-1.2021574974060059,0.3800621032714844,0.19549500942230225
1701713544692524800,2.21552490234375,-1.4757394790649414,0.26581287384033203,0.3870367109775543
1701713544702119000,2.225118896484375,-1.5934882164001465,0.22324657440185547,0.5826568603515625
1701713544711712500,2.23471240234375,-1.4164795875549316,0.22869205474853516,0.6297781467437744
1701713544721306600,2.244306640625,-1.2709097862243652,0.19875621795654297,0.5856085419654846
1701713544730901800,2.25390185546875,-1.1123638153076172,0.2223649024963379,0.43251684308052063
1701713544740496000,2.263495849609375,-1.2575397491455078,0.35124969482421875,0.2907866835594177
1701713544750089500,2.27308935546875,-1.515550136566162,0.33139801025390625,0.2585829794406891
1701713544759683600,2.28268359375,-1.796311855316162,0.02439260482788086,0.3077537715435028
1701713544769278700,2.29227880859375,-1.8726882934570312,-0.3520073890686035,0.33825746178627014
1701713544778872800,2.301872802734375,-1.5845756530761719,-0.11965560913085938,-0.30846306681632996
1701713544788466400,2.311466552734375,-1.1324291229248047,-0.7464861869812012,0.03614578768610954
1701713544798060500,2.321060546875,-0.2152700424194336,-0.8865833282470703,0.17245838046073914
1701713544807655700,2.33065576171875,0.6275691986083984,-0.8352375030517578,0.3004310131072998
1701713544817249800,2.340249755859375,1.076540470123291,-0.9318795204162598,0.4307379722595215
1701713544826843400,2.349843505859375,1.219377040863037,-1.011594295501709,0.29787111282348633
1701713544836437500,2.3594375,1.3324766159057617,-0.9321455955505371,-0.14232242107391357
1701713544846032600,2.36903271484375,1.6008110046386719,-1.0403904914855957,-0.4117417335510254
1701713544855626800,2.378626708984375,1.6769390106201172,-1.4287447929382324,-0.75520920753479
1701713544865220400,2.388220458984375,1.9446072578430176,-1.8371076583862305,-1.1373496055603027
1701713544874814500,2.397814453125,2.49664306640625,-2.3029603958129883,-1.366544246673584
1701713544884409600,2.40740966796875,3.0580177307128906,-2.8428702354431152,-1.4415264129638672
1701713544894003700,2.417003662109375,3.188394546508789,-3.3463613986968994,-1.3375860452651978
1701713544903597300,2.426597412109375,2.8924732208251953,-3.690582752227783,-1.2635260820388794
1701713544913191400,2.43619140625,1.6353163719177246,-3.7741870880126953,-1.2359421253204346
1701713544922786600,2.44578662109375,0.1558380126953125,-3.7181248664855957,-1.5125222206115723
1701713544932380700,2.455380615234375,-0.39830970764160156,-3.2053399085998535,-2.6035425662994385
1701713544941974300,2.464974365234375,-0.6535277366638184,-3.4328510761260986,-3.087970495223999
1701713544951568400,2.474568359375,-1.7499756813049316,-4.345396518707275,-2.7746694087982178
1701713544961163500,2.48416357421875,-2.0060930252075195,-4.8466339111328125,-2.2129952907562256
1701713544970757600,2.493757568359375,-1.2762365341186523,-4.973377704620361,-2.482541561126709
1701713544980351000,2.50335107421875,-0.6856422424316406,-4.931371688842773,-3.354663133621216
1701713544989945300,2.5129453125,-0.012447357177734375,-5.090768814086914,-4.526339530944824
1701713544999540500,2.52254052734375,0.3307828903198242,-5.56287956237793,-5.633187770843506
1701713545009134600,2.532134521484375,0.23175907135009766,-6.183963775634766,-6.053027629852295
1701713545018728000,2.54172802734375,0.019435405731201172,-6.713928699493408,-5.416697025299072
1701713545028322300,2.551322265625,0.11458158493041992,-6.9841532707214355,-4.549930095672607
1701713545037917400,2.56091748046875,0.41702747344970703,-7.098028182983398,-4.194950103759766
1701713545047511600,2.570511474609375,0.26938819885253906,-7.074016571044922,-4.4234232902526855
1701713545057105000,2.58010498046875,-0.11412739753723145,-7.125771999359131,-3.7059879302978516
1701713545066699300,2.58969921875,0.17018508911132812,-7.448788642883301,-1.328587532043457
1701713545076294400,2.59929443359375,-0.3152000904083252,-7.023512840270996,1.2118234634399414
1701713545085888500,2.608888427734375,-1.8005592823028564,-6.092868328094482,1.4648981094360352
1701713545095481900,2.61848193359375,-1.6110026836395264,-4.34220027923584,0.21079730987548828
1701713545105076200,2.628076171875,-1.4182054996490479,-3.125433921813965,-0.3448524475097656
1701713545114671000,2.637671142578125,-1.880113959312439,-3.0859856605529785,0.9902629852294922
1701713545124265500,2.647265380859375,-2.5069499015808105,-3.044063091278076,2.904287338256836
1701713545133858800,2.65685888671875,-2.4896950721740723,-2.2728769779205322,3.9767675399780273
1701713545143453200,2.666453125,-1.8768997192382812,-0.966727614402771,4.359155654907227
1701713545153048000,2.676048095703125,-1.7767431735992432,-0.02695080265402794,3.9280900955200195
1701713545162642400,2.685642333984375,-2.1207592487335205,0.3080787658691406,3.5448427200317383
1701713545172235800,2.69523583984375,-2.3575940132141113,0.5347839593887329,3.77559757232666
1701713545181830100,2.704830078125,-2.2021753787994385,0.5660164952278137,5.287167549133301
1701713545191425300,2.71442529296875,-2.15769362449646,0.5123590230941772,6.9085493087768555
1701713545201019400,2.724019287109375,-8.679608345031738,0.9741808772087097,11.556145668029785
1701713545210613000,2.733613037109375,-20.101009368896484,2.2756125926971436,12.71513557434082
1701713545220207000,2.74320703125,-21.8125,3.842564344406128,10.070699691772461
1701713545229802200,2.75280224609375,-15.804754257202148,3.904804229736328,5.024157524108887
1701713545239396400,2.762396240234375,-9.020466804504395,3.0675408840179443,1.8178987503051758
1701713545248990000,2.771989990234375,-2.3053245544433594,0.7554471492767334,4.915195465087891
1701713545258584000,2.781583984375,5.433383941650391,-1.1062471866607666,12.734148025512695
1701713545268179200,2.79117919921875,7.836019515991211,-0.8029890060424805,5.696199417114258
1701713545277773300,2.800773193359375,6.896271228790283,-1.4267926216125488,0.30632781982421875
1701713545287367000,2.810366943359375,4.135591983795166,-1.797347068786621,-3.1740970611572266
1701713545296961000,2.8199609375,1.5602127313613892,-0.20644283294677734,-4.811527252197266
1701713545306556200,2.82955615234375,-0.8717851042747498,1.2142868041992188,-4.088861465454102
1701713545316150300,2.839150390625,-1.6786887645721436,1.4917476177215576,-2.2435479164123535
1701713545325743900,2.848743896484375,-3.4544177055358887,0.9243795871734619,-0.6526155471801758
1701713545335338000,2.858337890625,-9.60195541381836,-3.0917954444885254,1.6420221328735352
1701713545344933000,2.86793310546875,-2.998844861984253,0.7053866386413574,-0.33739471435546875
1701713545354527200,2.87752734375,0.7530953884124756,-0.6646637916564941,1.6044397354125977
1701713545364120600,2.88712060546875,10.56374454498291,-7.360628128051758,6.748621940612793
1701713545373715000,2.89671484375,-0.9572114944458008,-2.856353759765625,-0.3598642349243164
1701713545383310000,2.90631005859375,4.390377521514893,4.151116847991943,-6.767031192779541
1701713545392904200,2.915904296875,0.29597967863082886,5.426898002624512,-3.864870548248291
1701713545402497500,2.92549755859375,-0.8539628982543945,-5.0079803466796875,7.554623603820801
1701713545412092000,2.935091796875,-0.29515552520751953,0.46044063568115234,1.9929885864257812
1701713545421687000,2.94468701171875,-3.257157564163208,-0.6946287155151367,0.10203695297241211
1701713545431281200,2.95428125,-1.7802457809448242,0.41185617446899414,-1.0930805206298828
1701713545440874500,2.96387451171875,0.19781005382537842,2.09759521484375,-3.005791187286377
1701713545450468900,2.97346875,-3.1287200450897217,3.063828229904175,-3.2484560012817383
1701713545460063700,2.983063720703125,-3.65402889251709,2.255204200744629,-0.888974666595459
1701713545469658000,2.992658203125,1.2265820503234863,-0.9202108383178711,2.2391815185546875
1701713545479251500,3.00225146484375,1.2366790771484375,0.0025911331176757812,0.7045950889587402
1701713545488845800,3.011845703125,-0.07906985282897949,-0.666388988494873,0.8018102645874023
1701713545498440700,3.021440673828125,-0.536963939666748,-0.1342315673828125,3.2406859397888184
1701713545508035000,3.03103515625,0.23893249034881592,-0.4230942726135254,-0.06389522552490234
1701713545517628400,3.04062841796875,-0.46602797508239746,-0.8526043891906738,1.234151840209961
1701713545527222800,3.050222900390625,-0.5367980003356934,-1.4666714668273926,2.3266773223876953
1701713545536817700,3.059817626953125,1.913745403289795,-0.5624914169311523,4.77789306640625
1701713545546411800,3.069411865234375,-0.10444450378417969,0.2621183395385742,1.8659791946411133
1701713545556005400,3.07900537109375,-1.5265334844589233,-1.3393683433532715,1.7113161087036133
1701713545565599700,3.088599853515625,0.3743405342102051,0.4084033966064453,3.9694371223449707
1701713545575194600,3.098194580078125,-1.4903135299682617,-2.451056957244873,0.09927845001220703
1701713545584788700,3.107788818359375,-1.0308070182800293,-6.403158664703369,-0.7899742126464844
1701713545594382300,3.11738232421875,-0.677824854850769,-8.652240753173828,-1.6700873374938965
1701713545603976400,3.1269765625,0.17996644973754883,-5.805715560913086,-6.652920722961426
1701713545613571600,3.136571533203125,-0.41603267192840576,0.7799677848815918,-3.141599416732788
1701713545623165700,3.146165771484375,-0.3207000494003296,1.1773037910461426,0.1943206787109375
1701713545632759300,3.15575927734375,0.31068921089172363,1.1429119110107422,-0.7107782363891602
1701713545642353400,3.165353515625,0.05463051795959473,0.9260849952697754,-0.629239559173584
1701713545651948500,3.174948486328125,-0.5217875242233276,0.027927875518798828,-0.26488542556762695
1701713545661542700,3.184542724609375,-0.34601151943206787,-0.549412727355957,-0.31679677963256836
1701713545671136300,3.19413623046875,-0.26750779151916504,-0.3088359832763672,-0.9855060577392578
1701713545680730400,3.20373046875,-0.19902050495147705,-0.0737161636352539,-1.6302847862243652
1701713545690325500,3.213325439453125,0.20581841468811035,0.04234886169433594,-1.6170308589935303
1701713545699919600,3.222919677734375,0.33509373664855957,0.06113433837890625,-2.1363983154296875
1701713545709513200,3.23251318359375,-0.2924363613128662,-1.3981399536132812,-3.2241902351379395
1701713545719107300,3.242107421875,1.767664909362793,-7.790844917297363,1.8495521545410156
1701713545728702500,3.251702392578125,-0.20551693439483643,0.3190336227416992,2.3316407203674316
1701713545738296600,3.261296630859375,-1.2761480808258057,1.5432624816894531,2.869626045227051
1701713545747890000,3.270889892578125,-0.9459213018417358,1.163766860961914,1.9043421745300293
1701713545757484300,3.280484375,-0.6179484128952026,1.2616662979125977,2.178330421447754
1701713545767079400,3.290079345703125,-0.3917572498321533,0.23018455505371094,-0.5668931007385254
1701713545776673500,3.299673583984375,0.09992063045501709,-0.04980945587158203,-0.2698526382446289
1701713545786267000,3.309266845703125,-0.022897839546203613,-0.07529449462890625,-0.17182159423828125
1701713545795861200,3.318861328125,-0.6031875610351562,1.7247405052185059,0.27828264236450195
1701713545805456400,3.328456298828125,-3.6815693378448486,5.056588649749756,-1.6493620872497559
1701713545815050500,3.338050537109375,0.05980503559112549,1.497279167175293,0.19820117950439453
1701713545824643800,3.347643798828125,1.2151391506195068,1.5619325637817383,0.5059695243835449
1701713545834238200,3.35723828125,0.8137055039405823,4.014225482940674,-1.3736717700958252
1701713545843833000,3.3668330078125,1.0461108684539795,5.007689952850342,-1.8626959323883057
1701713545853427500,3.376427490234375,1.040982723236084,5.955509185791016,-2.9233999252319336
1701713545863020800,3.386020751953125,1.5004702806472778,6.5689826011657715,-3.723562479019165
1701713545872615200,3.395615234375,1.258530616760254,5.703490734100342,-4.055464744567871
1701713545882210000,3.4052099609375,0.12585985660552979,3.609936237335205,-4.817192077636719
1701713545891804200,3.41480419921875,0.11985492706298828,1.9204716682434082,-4.4170823097229
1701713545901397800,3.424397705078125,-1.4372588396072388,2.3068647384643555,-4.510756492614746
1701713545910992100,3.4339921875,-0.5400497913360596,2.696051597595215,-2.5372486114501953
1701713545920587000,3.4435869140625,0.030928492546081543,2.2932567596435547,-1.3488084077835083
1701713545930181000,3.45318115234375,-0.604151725769043,2.51450252532959,-1.6618304252624512
1701713545939774700,3.462774658203125,-2.8066165447235107,1.331202507019043,-1.740898847579956
1701713545949369000,3.472369140625,-1.9676727056503296,-2.2223033905029297,0.4697601795196533
1701713545958964000,3.4819638671875,-0.033910155296325684,-2.717588424682617,1.170371651649475
1701713545968558000,3.49155810546875,1.2272992134094238,-1.9161748886108398,1.3117525577545166
1701713545978151700,3.501151611328125,-0.1825730800628662,-3.555227279663086,1.0754975080490112
1701713545987745800,3.510745849609375,-1.8533358573913574,-11.048324584960938,1.0809147357940674
1701713545997341000,3.5203408203125,-0.007412910461425781,-20.944149017333984,7.521156311035156
1701713546006935000,3.52993505859375,1.3835102319717407,-18.490795135498047,9.0814790725708
1701713546016528400,3.5395283203125,1.320375680923462,-2.8376922607421875,0.3194398880004883
1701713546026122800,3.549122802734375,0.7150421738624573,-1.353774070739746,-0.5420718193054199
1701713546035718000,3.5587177734375,-0.04035794734954834,-1.141331672668457,-0.2995487451553345
1701713546045312000,3.56831201171875,0.231553316116333,-0.7263526916503906,-0.06979072093963623
1701713546054905300,3.5779052734375,0.30638396739959717,-0.2092418670654297,-0.6920185685157776
1701713546064499700,3.587499755859375,0.34631025791168213,0.18777179718017578,-0.6694813966751099
1701713546074094800,3.5970947265625,0.043587565422058105,0.6174106597900391,-0.5292545557022095
1701713546083689000,3.60668896484375,-0.27447259426116943,0.6181573867797852,-0.26685285568237305
1701713546093282300,3.6162822265625,-0.22316110134124756,0.46109485626220703,-0.3018653392791748
1701713546102876700,3.625876708984375,0.017137646675109863,0.5261516571044922,-0.08783113956451416
1701713546112471800,3.635471923828125,-0.19280242919921875,0.35402774810791016,-0.1632671356201172
1701713546122066000,3.64506591796875,-0.17944812774658203,-0.1979656219482422,-0.15397405624389648
1701713546131659300,3.6546591796875,0.05409693717956543,-0.49559688568115234,-0.3579829931259155
1701713546141253600,3.664253662109375,0.1548774242401123,-0.45563507080078125,-0.4443540573120117
1701713546150848500,3.6738486328125,0.19295799732208252,-0.34401702880859375,-0.5179972648620605
1701713546160443000,3.68344287109375,0.11953699588775635,-0.48344898223876953,-0.5024999976158142
1701713546170036200,3.6930361328125,0.060106515884399414,-0.5057191848754883,-0.4744870662689209
1701713546179630600,3.702630615234375,0.10002171993255615,-0.6165008544921875,-0.4060143232345581
1701713546189225500,3.7122255859375,0.05996668338775635,-0.7272844314575195,-0.35014569759368896
1701713546198819600,3.721819580078125,0.1099100112915039,-0.9218006134033203,-0.28376269340515137
1701713546208413200,3.7314130859375,0.08219015598297119,-1.059004783630371,-0.2743823528289795
1701713546218007300,3.74100732421875,0.12550079822540283,-1.2439565658569336,-0.2369478940963745
1701713546227602400,3.7506025390625,0.222115159034729,-1.4454231262207031,-0.39406776428222656
1701713546237196500,3.760196533203125,0.5781629085540771,-1.5131855010986328,-0.6671427488327026
1701713546246790100,3.7697900390625,0.4611746072769165,-1.3588581085205078,-1.0332131385803223
1701713546256384300,3.77938427734375,0.5037367343902588,-0.5956277847290039,-1.017209529876709
1701713546265979400,3.7889794921875,0.7389419078826904,0.1463470458984375,-1.4996252059936523
1701713546275573500,3.798573486328125,-0.6554579734802246,0.15805625915527344,-0.3599369525909424
1701713546285167000,3.8081669921875,0.06811821460723877,0.20925521850585938,-1.1236265897750854
1701713546294761200,3.81776123046875,-0.8823294639587402,0.16977310180664062,-1.2033443450927734
1701713546304356400,3.8273564453125,0.889534056186676,0.1101522445678711,-0.5186728239059448
1701713546313950500,3.836950439453125,-0.1356121301651001,0.9084634780883789,-2.1374127864837646
1701713546323544000,3.8465439453125,-0.8693934679031372,1.159006118774414,-1.2254881858825684
1701713546333138200,3.85613818359375,-0.22439050674438477,1.0360298156738281,-0.993419349193573
1701713546342733300,3.8657333984375,0.04529929161071777,0.2636528015136719,-0.8768567442893982
1701713546352327400,3.875327392578125,0.0833967924118042,-0.18456363677978516,-0.5914896726608276
1701713546361921000,3.884921142578125,0.07107877731323242,-0.35960865020751953,-0.3797943592071533
1701713546371515100,3.89451513671875,0.02938973903656006,-0.3503389358520508,-0.3961385488510132
1701713546381110300,3.9041103515625,0.001314401626586914,-0.22640419006347656,-0.31482112407684326
1701713546390704400,3.913704345703125,-0.12113678455352783,-0.08350753784179688,-0.30067718029022217
1701713546400297700,3.923297607421875,-0.1777036190032959,0.01145172119140625,-0.24356377124786377
1701713546409892000,3.93289208984375,-0.18535232543945312,0.06580829620361328,-0.11232244968414307
1701713546419487000,3.942487060546875,-0.21345806121826172,0.06529521942138672,0.07115066051483154
1701713546429081300,3.952081298828125,-0.27321088314056396,0.050568580627441406,0.24715673923492432
1701713546438674700,3.9616748046875,-0.24500572681427002,0.009661674499511719,0.42024874687194824
1701713546448269000,3.97126904296875,-0.20552480220794678,0.09093093872070312,0.44125640392303467
1701713546457864000,3.980864013671875,-0.18097364902496338,0.11257457733154297,0.6091359853744507
1701713546467458300,3.990458251953125,-0.2118622064590454,0.098602294921875,0.7061176300048828
1701713546477051600,4.0000517578125,-0.23827898502349854,0.137481689453125,0.787459135055542
1701713546486646000,4.00964599609375,-0.2597874402999878,0.18377971649169922,0.8396191596984863
1701713546496241000,4.019240966796875,-0.2763702869415283,0.21596050262451172,0.9342072010040283
1701713546505835000,4.0288349609375,-0.2950023412704468,0.2412090301513672,0.9923610687255859
1701713546515428600,4.0384287109375,-0.29693031311035156,0.25476741790771484,1.0378012657165527
1701713546525022700,4.048022705078125,-0.30864179134368896,0.2876434326171875,1.0652762651443481
1701713546534617900,4.057617919921875,-0.3638559579849243,0.2824373245239258,1.0696463584899902
1701713546544212200,4.067212158203125,-0.3765066862106323,0.2869606018066406,1.0960689783096313
1701713546553805600,4.0768056640625,-0.3585261106491089,0.26764678955078125,1.1225090026855469
1701713546563399700,4.086399658203125,-0.3192780017852783,0.2436046600341797,1.1607868671417236
1701713546572994800,4.095994873046875,-0.2802954912185669,0.24107074737548828,1.1963168382644653
1701713546582589000,4.1055888671875,-0.246437668800354,0.2408275604248047,1.2215251922607422
1701713546592182500,4.1151826171875,-0.25344347953796387,0.24285030364990234,1.2292282581329346
1701713546601776600,4.124776611328125,-0.21027851104736328,0.23038768768310547,1.250472068786621
1701713546611371800,4.134371826171875,-0.1909329891204834,0.2225484848022461,1.2278506755828857
1701713546620966000,4.1439658203125,-0.1522235870361328,0.1787099838256836,1.1566976308822632
1701713546630559500,4.1535595703125,-0.1275566816329956,0.1467294692993164,1.1064623594284058
1701713546640153600,4.163153564453125,-0.10715663433074951,0.16479778289794922,0.9817578792572021
1701713546649748700,4.172748779296875,-0.08886933326721191,0.14925289154052734,0.904653787612915
1701713546659342800,4.1823427734375,-0.020354390144348145,0.13367748260498047,0.8298875093460083
1701713546668936200,4.191936279296875,-0.004731297492980957,0.08464431762695312,0.7620499134063721
1701713546678530600,4.201530517578125,-0.018445611000061035,0.04288768768310547,0.6748741865158081
1701713546688125700,4.211125732421875,-0.014179468154907227,-0.010677337646484375,0.6017084121704102
1701713546697719800,4.2207197265625,0.019641637802124023,-0.08794879913330078,0.5328809022903442
1701713546707313200,4.230313232421875,0.02534008026123047,-0.16976165771484375,0.4467506408691406
1701713546716907500,4.239907470703125,0.06774652004241943,-0.2322101593017578,0.37230098247528076
1701713546726502400,4.24950244140625,0.09223663806915283,-0.2514638900756836,0.2668033838272095
1701713546736096800,4.2590966796875,0.1735360026359558,-0.22051525115966797,0.18063747882843018
1701713546745690000,4.268690185546875,0.13536012172698975,-0.2158832550048828,0.023506879806518555
1701713546755284500,4.278284423828125,0.23177170753479004,-0.15634727478027344,-0.05146431922912598
1701713546764879400,4.28787939453125,0.17147880792617798,-0.1399850845336914,-0.1638193130493164
1701713546774473700,4.2974736328125,0.15082639455795288,-0.16190624237060547,-0.2656421661376953
1701713546784067000,4.307067138671875,0.15288329124450684,-0.13602352142333984,-0.3569498062133789
1701713546793661400,4.316661376953125,0.18688172101974487,-0.09819698333740234,-0.4446495771408081
1701713546803256300,4.32625634765625,0.22419732809066772,-0.08906936645507812,-0.41653966903686523
1701713546812850700,4.3358505859375,0.3434581160545349,-0.0655832290649414,-0.418698787689209
1701713546822444000,4.345444091796875,0.3075059652328491,-0.0874948501586914,-0.5087451934814453
1701713546832038100,4.3550380859375,0.2909735441207886,-0.13800048828125,-0.5648729801177979
1701713546841633300,4.36463330078125,0.30059903860092163,-0.1621694564819336,-0.5734179019927979
1701713546851227400,4.374227294921875,0.27654898166656494,-0.19349002838134766,-0.6085033416748047
1701713546860821000,4.383821044921875,0.27856141328811646,-0.21764564514160156,-0.6296547651290894
1701713546870415000,4.3934150390625,0.30178302526474,-0.23701000213623047,-0.6486780643463135
1701713546880010200,4.40301025390625,0.29106605052948,-0.26830482482910156,-0.6870954632759094
1701713546889604400,4.412604248046875,0.2751942276954651,-0.29949283599853516,-0.6966728568077087
1701713546899198000,4.422197998046875,0.2683197259902954,-0.30903053283691406,-0.7035532593727112
1701713546908792000,4.4317919921875,0.2754799723625183,-0.2802295684814453,-0.7145830988883972
1701713546918387200,4.44138720703125,0.3159183859825134,-0.2585477828979492,-0.708105742931366
1701713546927981300,4.450981201171875,0.3821837306022644,-0.23682594299316406,-0.6915380358695984
1701713546937575000,4.460574951171875,0.41218143701553345,-0.22463703155517578,-0.6721475124359131
1701713546947169000,4.4701689453125,0.41322582960128784,-0.24587535858154297,-0.6429681181907654
1701713546956764200,4.47976416015625,0.3882189393043518,-0.2575359344482422,-0.6256941556930542
1701713546966358300,4.489358154296875,0.3612847328186035,-0.2524986267089844,-0.6036604642868042
1701713546975951600,4.49895166015625,0.32081347703933716,-0.24037647247314453,-0.6150405406951904
1701713546985546000,4.5085458984375,0.2909289300441742,-0.24510574340820312,-0.6121706366539001
1701713546995141000,4.51814111328125,0.21190452575683594,-0.2809324264526367,-0.6282857656478882
1701713547004735200,4.5277353515625,0.1651771068572998,-0.30240631103515625,-0.6657222509384155
1701713547014328600,4.53732861328125,0.13859444856643677,-0.2737131118774414,-0.6813289523124695
1701713547023923000,4.5469228515625,0.02716773748397827,-0.26189327239990234,-0.7016889452934265
1701713547033517800,4.556517822265625,-0.04024296998977661,-0.28844261169433594,-0.7224305272102356
1701713547043112200,4.5661123046875,-0.14501440525054932,-0.2959756851196289,-0.7509464025497437
1701713547052705500,4.57570556640625,-0.17734181880950928,-0.2606163024902344,-0.8299804329872131
1701713547062300000,4.5852998046875,-0.014006495475769043,-0.14427566528320312,-0.6780199408531189
1701713547071894800,4.594894775390625,0.014736175537109375,0.009762763977050781,-0.6187431216239929
1701713547081489200,4.6044892578125,-0.245031476020813,-0.03031158447265625,-0.6424484252929688
1701713547091082500,4.61408251953125,-0.2647170424461365,-0.12062740325927734,-0.631227433681488
1701713547100676600,4.623676513671875,-0.23120158910751343,-0.11530113220214844,-0.6228770613670349
1701713547110271700,4.633271728515625,-0.1687808632850647,-0.15313720703125,-0.6314785480499268
1701713547119866000,4.6428662109375,-0.21519243717193604,-0.20210933685302734,-0.6067473888397217
1701713547129459500,4.65245947265625,-0.2668842077255249,-0.21258163452148438,-0.5843073129653931
1701713547139053600,4.662053466796875,-0.21553272008895874,-0.2205057144165039,-0.5499773025512695
1701713547148648700,4.671648681640625,-0.16212928295135498,-0.2683086395263672,-0.5112245082855225
1701713547158242800,4.681242919921875,-0.08831912279129028,-0.2775716781616211,-0.5008090734481812
1701713547167836400,4.69083642578125,-0.06498366594314575,-0.2678050994873047,-0.4878460764884949
1701713547177430500,4.700430419921875,-0.07957488298416138,-0.17811203002929688,-0.4441074728965759
1701713547187025700,4.710025634765625,-0.13859158754348755,-0.1346302032470703,-0.4904230237007141
1701713547196619800,4.719619873046875,-0.15665513277053833,-0.1671733856201172,-0.48392826318740845
1701713547206213400,4.72921337890625,-0.062019169330596924,-0.2627840042114258,-0.37920618057250977
1701713547215807500,4.738807373046875,-0.11304378509521484,-0.29322052001953125,-0.40576523542404175
1701713547225402600,4.748402587890625,-0.42392200231552124,-0.36554718017578125,-0.42235833406448364
1701713547234996700,4.757996826171875,-0.5969033241271973,-0.4532470703125,-0.3848496079444885
1701713547244590300,4.76759033203125,-0.5289605855941772,-0.46883201599121094,-0.42063742876052856
1701713547254184400,4.777184326171875,-0.41408175230026245,-0.38759803771972656,-0.38684821128845215
1701713547263779600,4.786779541015625,-0.4381783604621887,-0.36190032958984375,-0.315387487411499
1701713547273373700,4.796373779296875,-0.354295551776886,-0.2966756820678711,-0.298984169960022
1701713547282967000,4.805967041015625,-0.19751238822937012,-0.23489952087402344,-0.22337985038757324
1701713547292561400,4.8155615234375,-0.10585534572601318,-0.17650699615478516,-0.042549729347229004
1701713547302156500,4.825156494140625,-0.010187804698944092,-0.10499763488769531,0.19904637336730957
1701713547311750700,4.834750732421875,0.13808268308639526,0.035938262939453125,0.3848292827606201
1701713547321344000,4.844343994140625,0.1920732855796814,0.1249685287475586,0.5336931943893433
1701713547330938400,4.8539384765625,0.09919005632400513,0.20764636993408203,0.5258427858352661
1701713547340533200,4.863533203125,-0.025406360626220703,0.25586891174316406,0.4794445037841797
1701713547350127600,4.873127685546875,-0.12252277135848999,0.24193572998046875,0.47021055221557617
1701713547359721000,4.882720947265625,-0.17398834228515625,0.1904153823852539,0.4526345729827881
1701713547369315300,4.8923154296875,-0.15536397695541382,0.16086673736572266,0.3776402473449707
1701713547378910200,4.90191015625,-0.10116642713546753,0.17418861389160156,0.3195399045944214
1701713547388504600,4.911504638671875,-0.09944814443588257,0.18497753143310547,0.346433162689209
1701713547398098000,4.921097900390625,-0.10249054431915283,0.14149951934814453,0.4262927770614624
1701713547407692000,4.930692138671875,-0.06812906265258789,0.054047584533691406,0.5273139476776123
1701713547417287200,4.940287109375,-0.04390609264373779,-0.027205467224121094,0.6069043874740601
1701713547426881500,4.949881591796875,-0.07577115297317505,-0.06946945190429688,0.6537257432937622
1701713547436475000,4.959474853515625,-0.1336510181427002,-0.056944847106933594,0.6780009269714355
1701713547446069000,4.969069091796875,-0.143388032913208,-0.01877593994140625,0.6782227754592896
1701713547455664000,4.9786640625,-0.10528099536895752,0.06578445434570312,0.6878753900527954
1701713547465258200,4.98825830078125,-0.07131588459014893,0.11117172241210938,0.6879726648330688
1701713547474851800,4.997851806640625,-0.010444819927215576,0.1203756332397461,0.671615719795227
1701713547484446000,5.007446044921875,-0.0006595253944396973,0.09161853790283203,0.6201350688934326
1701713547494041000,5.017041015625,-0.024484872817993164,0.04673290252685547,0.5248202085494995
1701713547503635200,5.02663525390625,-0.036717116832733154,-0.013998985290527344,0.4334982633590698
1701713547513228800,5.036228759765625,-0.07102775573730469,-0.06208992004394531,0.33632218837738037
1701713547522823000,5.045822998046875,-0.09915131330490112,-0.09537220001220703,0.287534236907959
1701713547532418000,5.05541796875,-0.11914819478988647,-0.090576171875,0.2578212022781372
1701713547542012200,5.06501220703125,-0.13419634103775024,-0.07891178131103516,0.23736095428466797
1701713547551605800,5.074605712890625,-0.10011494159698486,-0.04393768310546875,0.19803965091705322
1701713547561199900,5.084199951171875,-0.04149055480957031,-0.0024700164794921875,0.14510107040405273
1701713547570795000,5.093794921875,0.01996546983718872,0.05956840515136719,0.09087491035461426
1701713547580389000,5.10338916015625,0.10273438692092896,0.09485435485839844,0.035843491554260254
1701713547589982500,5.112982421875,0.15935266017913818,0.1250591278076172,0.008475303649902344
1701713547599576800,5.122576904296875,0.20678889751434326,0.15972137451171875,-0.014998555183410645
1701713547609171700,5.132171630859375,0.22649037837982178,0.17992496490478516,-0.037003517150878906
1701713547618766000,5.14176611328125,0.24963319301605225,0.1646747589111328,-0.06957125663757324
1701713547628359400,5.151359375,0.252932071685791,0.12393569946289062,-0.08676159381866455
1701713547637953800,5.160953857421875,0.24138057231903076,0.053360939025878906,-0.08919322490692139
1701713547647548700,5.170548583984375,0.23921746015548706,-0.015972137451171875,-0.1265559196472168
1701713547657143000,5.18014306640625,0.24897396564483643,-0.08177375793457031,-0.17719614505767822
1701713547666736400,5.189736328125,0.2588391900062561,-0.1370697021484375,-0.23867475986480713
1701713547676330800,5.199330810546875,0.24975508451461792,-0.14432334899902344,-0.287076473236084
1701713547685925600,5.208925537109375,0.2456846833229065,-0.1255054473876953,-0.3389843702316284
1701713547695520000,5.21852001953125,0.2536546289920807,-0.11872482299804688,-0.4178982973098755
1701713547705113300,5.22811328125,0.2475520372390747,-0.13080692291259766,-0.46902942657470703
1701713547714707500,5.23770751953125,0.241476908326149,-0.12143230438232422,-0.5071165561676025
1701713547724302600,5.247302490234375,0.2518449127674103,-0.10739421844482422,-0.536872148513794
1701713547733897000,5.25689697265625,0.24798235297203064,-0.0911417007446289,-0.5443120002746582
1701713547743490300,5.266490234375,0.20671626925468445,-0.05385875701904297,-0.5532257556915283
1701713547753084400,5.27608447265625,0.22296881675720215,-0.03357124328613281,-0.5423855781555176
1701713547762679600,5.285679443359375,0.166263610124588,-0.02999401092529297,-0.5262519121170044
1701713547772273700,5.295273681640625,0.15556779503822327,-0.014620780944824219,-0.4862027168273926
1701713547781867300,5.3048671875,0.16409286856651306,-0.03241157531738281,-0.505258321762085
1701713547791461400,5.31446142578125,0.17473888397216797,-0.054534912109375,-0.5635018348693848
1701713547801056500,5.324056396484375,0.19445984065532684,-0.09975433349609375,-0.6155651211738586
1701713547810650600,5.333650634765625,0.2066299021244049,-0.1489086151123047,-0.6524712443351746
1701713547820244200,5.343244140625,0.20910575985908508,-0.18315410614013672,-0.6818796992301941
1701713547829838300,5.35283837890625,0.23514874279499054,-0.21922779083251953,-0.6991952657699585
1701713547839433500,5.36243359375,0.21639379858970642,-0.23593902587890625,-0.6976767182350159
1701713547849027600,5.372027587890625,0.20319822430610657,-0.24536800384521484,-0.6445738077163696
1701713547858621200,5.38162109375,0.20733675360679626,-0.24062538146972656,-0.6187748312950134
1701713547868215300,5.39121533203125,0.2306000292301178,-0.22897815704345703,-0.5937941670417786
1701713547877810400,5.400810546875,0.2584778070449829,-0.2222900390625,-0.5836158990859985
1701713547887404500,5.410404541015625,0.24642035365104675,-0.21337127685546875,-0.5664536952972412
1701713547896998000,5.419997802734375,0.2141992151737213,-0.1810770034790039,-0.5494731664657593
1701713547906592300,5.42959228515625,0.17142994701862335,-0.17289161682128906,-0.5280783772468567
1701713547916187100,5.439187255859375,0.1537752002477646,-0.1554555892944336,-0.4976201057434082
1701713547925781500,5.448781494140625,0.15121303498744965,-0.13362598419189453,-0.46059495210647583
1701713547935374800,5.458374755859375,0.1421317458152771,-0.12630081176757812,-0.4594759941101074
1701713547944969200,5.46796923828125,0.16424819827079773,-0.14263534545898438,-0.44410085678100586
1701713547954564000,5.477564208984375,0.17186172306537628,-0.13280010223388672,-0.40069466829299927
1701713547964158500,5.487158447265625,0.1651199758052826,-0.11839580535888672,-0.3813985586166382
1701713547973751800,5.496751708984375,0.16090776026248932,-0.10187625885009766,-0.35060060024261475
1701713547983346200,5.50634619140625,0.14286832511425018,-0.0691232681274414,-0.3317946195602417
1701713547992941000,5.515941162109375,0.1538553684949875,-0.0463104248046875,-0.32477831840515137
1701713548002535400,5.525535400390625,0.1343202143907547,-0.021511077880859375,-0.28709137439727783
1701713548012128800,5.535128662109375,0.1271485835313797,-0.025376319885253906,-0.2664450407028198
1701713548021723000,5.544722900390625,0.1274285763502121,-0.03859901428222656,-0.22488832473754883
1701713548031318000,5.554318115234375,0.11147984862327576,-0.051619529724121094,-0.19820129871368408
1701713548040912400,5.563912353515625,0.11029277741909027,-0.052672386169433594,-0.1673053503036499
1701713548050505700,5.573505615234375,0.11654451489448547,-0.056084632873535156,-0.17700529098510742
1701713548060099800,5.583099853515625,0.1347532570362091,-0.08299922943115234,-0.17717647552490234
1701713548069695000,5.592695068359375,0.16955971717834473,-0.06242084503173828,-0.15631866455078125
1701713548079289000,5.6022890625,0.1784398853778839,-0.05399608612060547,-0.13125848770141602
1701713548088882700,5.611882568359375,0.19715285301208496,-0.062216758728027344,-0.13490939140319824
1701713548098476800,5.621476806640625,0.18330535292625427,-0.04209613800048828,-0.1127544641494751
1701713548108072000,5.631072021484375,0.18427908420562744,-0.02234935760498047,-0.09112787246704102
1701713548117666000,5.640666015625,0.18575750291347504,0.02060222625732422,-0.11451053619384766
1701713548127259600,5.650259765625,0.20396992564201355,0.08402061462402344,-0.1209491491317749
1701713548136853800,5.659853759765625,0.23790939152240753,0.14879608154296875,-0.15276825428009033
1701713548146449000,5.669448974609375,0.23999150097370148,0.21965312957763672,-0.20696163177490234
1701713548156043000,5.67904296875,0.2061888873577118,0.2517843246459961,-0.2617310881614685
1701713548165636400,5.68863623046875,0.20082920789718628,0.24344348907470703,-0.30786973237991333
1701713548175230700,5.698230712890625,0.23500335216522217,0.21647262573242188,-0.3316187858581543
1701713548184825900,5.707825927734375,0.24679389595985413,0.19235515594482422,-0.3169960379600525
1701713548194420000,5.717419921875,0.29298943281173706,0.11215496063232422,-0.29557764530181885
1701713548204013300,5.727013427734375,0.29980868101119995,0.03799152374267578,-0.2512167692184448
1701713548213607700,5.736607666015625,0.33414608240127563,-0.02785491943359375,-0.25701355934143066
1701713548223202600,5.74620263671875,0.34885573387145996,-0.10673713684082031,-0.25101667642593384
1701713548232797000,5.755796875,0.2624744772911072,-0.13250255584716797,-0.18366318941116333
1701713548242390300,5.765390380859375,0.23956775665283203,-0.13428974151611328,-0.19241797924041748
1701713548251984600,5.774984619140625,0.2834740877151489,-0.10770511627197266,-0.23765605688095093
1701713548261579500,5.78457958984375,0.29656726121902466,-0.06498146057128906,-0.2597981095314026
1701713548271174000,5.794173828125,0.3023521304130554,-0.013405799865722656,-0.2871673107147217
1701713548280767200,5.803767333984375,0.308000385761261,0.053931236267089844,-0.3573499321937561
1701713548290361600,5.813361572265625,0.367346853017807,0.10379981994628906,-0.34732258319854736
1701713548299956500,5.82295654296875,0.4111548662185669,0.14821910858154297,-0.3788120150566101
1701713548309550800,5.83255078125,0.4794626832008362,0.19434833526611328,-0.41110819578170776
1701713548319144200,5.842144287109375,0.5456109046936035,0.17383384704589844,-0.45182907581329346
1701713548328738300,5.85173828125,0.6265460848808289,0.09709644317626953,-0.36281293630599976
1701713548338333400,5.86133349609375,0.6943174600601196,-0.013762474060058594,-0.34651678800582886
1701713548347927600,5.870927490234375,0.6901782155036926,0.04670524597167969,-0.43873435258865356
1701713548357521200,5.880521240234375,0.7074007987976074,0.1791238784790039,-0.48451459407806396
1701713548367115300,5.890115234375,0.7173936367034912,0.2598543167114258,-0.477794885635376
1701713548376710400,5.89971044921875,0.7811515927314758,0.2732868194580078,-0.5371583700180054
1701713548386304500,5.909304443359375,0.8814379572868347,0.26056385040283203,-0.5696506500244141
1701713548395898000,5.918898193359375,0.8952306509017944,0.26450538635253906,-0.6344523429870605
1701713548405492200,5.9284921875,0.8970012664794922,0.3625345230102539,-0.6837290525436401
1701713548415087400,5.93808740234375,0.8213066458702087,0.5742521286010742,-0.7343549728393555
1701713548424681500,5.947681396484375,0.8409383296966553,0.8294897079467773,-0.7205243110656738
1701713548434275000,5.957275146484375,0.75177401304245,1.1016197204589844,-0.7516235709190369
1701713548443869200,5.966869140625,0.9123298525810242,1.3998003005981445,-0.6926762461662292
1701713548453464300,5.97646435546875,1.100281834602356,1.697678565979004,-0.5598411560058594
1701713548463058400,5.986058349609375,1.0135273933410645,1.8758764266967773,-0.31988516449928284
1701713548472651800,5.99565185546875,0.8640771508216858,1.9722952842712402,-0.025428473949432373
1701713548482246100,6.00524609375,0.5834169983863831,1.9465417861938477,0.0727471113204956
1701713548491841300,6.01484130859375,0.39683061838150024,1.8490676879882812,0.2879742980003357
1701713548501435400,6.024435302734375,0.3773620128631592,1.7254066467285156,0.5242090225219727
1701713548511028700,6.03402880859375,0.20148995518684387,1.4919795989990234,0.773415744304657
1701713548520623000,6.043623046875,-0.3534688353538513,1.4501028060913086,0.8613423705101013
1701713548530218200,6.05321826171875,-0.653504490852356,1.3533477783203125,0.889154314994812
1701713548539812400,6.062812255859375,-0.4687362313270569,0.4708976745605469,1.4455509185791016
1701713548549405700,6.07240576171875,-0.09843595325946808,-0.8109588623046875,1.7927727699279785
1701713548559000000,6.082,0.27486616373062134,-1.8776521682739258,2.15028977394104
1701713548568595000,6.091594970703125,0.25266334414482117,-1.490213394165039,1.8712337017059326
1701713548578189300,6.101189208984375,-0.4199327230453491,0.14522171020507812,0.9138504862785339
1701713548587782700,6.11078271484375,-0.7157160639762878,0.08580303192138672,0.8033691644668579
1701713548597376800,6.120376708984375,-0.49085843563079834,-0.3173398971557617,0.5367522835731506
1701713548606972000,6.129971923828125,-0.02413228154182434,-0.7148513793945312,0.5731310844421387
1701713548616566300,6.139566162109375,0.05877181887626648,-1.2478818893432617,0.5485581755638123
1701713548626159600,6.14915966796875,0.19702613353729248,-1.065800666809082,0.09997975826263428
1701713548635753700,6.158753662109375,0.22290532290935516,-0.8747682571411133,-0.29436159133911133
1701713548645348900,6.168348876953125,0.12288863956928253,-0.595829963684082,-0.871087908744812
1701713548654943000,6.17794287109375,-0.14418864250183105,-0.25054454803466797,-1.4846842288970947
1701713548664536600,6.18753662109375,-0.3065616190433502,0.024679183959960938,-1.6589018106460571
1701713548674131000,6.197130859375,-0.4314841330051422,-0.18326282501220703,-1.6235833168029785
1701713548683725800,6.206725830078125,-0.8671908378601074,0.8274059295654297,-1.8218128681182861
1701713548693320000,6.21631982421875,-1.881935954093933,1.7594375610351562,-1.8397388458251953
1701713548702913500,6.22591357421875,-2.1816701889038086,2.23343563079834,-1.4896714687347412
1701713548712508000,6.2355078125,-2.3880772590637207,2.1408185958862305,-1.1934444904327393
1701713548722102800,6.245102783203125,-2.2379679679870605,1.7718334197998047,-0.8574578166007996
1701713548731697000,6.25469677734375,-2.315648317337036,1.3442773818969727,-0.5791348814964294
1701713548741290500,6.26429052734375,-2.0698306560516357,0.21516704559326172,0.22329175472259521
1701713548750884600,6.273884521484375,-1.571018934249878,-0.2194662094116211,0.4844820499420166
1701713548760479700,6.283479736328125,-1.030184030532837,0.021773338317871094,0.8464928865432739
1701713548770073900,6.293073974609375,-0.05273111164569855,0.16303253173828125,1.151694655418396
1701713548779667200,6.302667236328125,0.4522706866264343,-0.06100940704345703,1.4807593822479248
1701713548789261600,6.312261474609375,0.7784808278083801,-0.1339426040649414,1.9329640865325928
1701713548798856700,6.321856689453125,0.9195184707641602,0.06540393829345703,2.014409065246582
1701713548808450800,6.331450927734375,1.1033612489700317,0.08228778839111328,1.5454257726669312
1701713548818044200,6.341044189453125,0.8529655933380127,0.6193742752075195,1.3283637762069702
1701713548827638500,6.350638427734375,0.22033575177192688,1.5977039337158203,0.4210401773452759
1701713548837233700,6.360233642578125,0.6196076273918152,1.7673707008361816,0.12095093727111816
1701713548846827800,6.369827880859375,-0.26564157009124756,0.33749961853027344,-0.1141965389251709
1701713548856421000,6.379421142578125,-0.27081137895584106,-0.13906097412109375,-0.6011492013931274
1701713548866015500,6.389015380859375,-1.479024887084961,2.409219264984131,-1.5194364786148071
1701713548875610400,6.3986103515625,-0.6408864259719849,0.9856624603271484,-1.0716743469238281
1701713548885204700,6.408204833984375,0.43228670954704285,-0.5500402450561523,-0.3683657646179199
1701713548894798000,6.417798095703125,0.3093268573284149,-1.653397560119629,-0.5603076219558716
1701713548904392400,6.427392333984375,0.48918309807777405,-2.4830474853515625,-0.6108033657073975
1701713548913987300,6.4369873046875,1.3787477016448975,-1.9068422317504883,0.22585844993591309
1701713548923581700,6.446581787109375,1.5567318201065063,-1.3309450149536133,0.6520481109619141
1701713548933175000,6.456175048828125,0.7284135818481445,-1.3784589767456055,0.35421204566955566
1701713548942769400,6.465769287109375,0.04569461941719055,-0.9988203048706055,0.18504953384399414
1701713548952364300,6.4753642578125,-0.6538767218589783,-0.7325315475463867,0.13476943969726562
1701713548961958700,6.484958740234375,-1.0873754024505615,-0.8442211151123047,0.0361635684967041
1701713548971552000,6.494552001953125,-1.5488755702972412,-0.3019866943359375,0.4665842056274414
1701713548981146000,6.50414599609375,-1.7287741899490356,-1.3468151092529297,0.49632740020751953
1701713548990741200,6.5137412109375,-1.8896920680999756,-0.8211231231689453,0.8438966274261475
1701713549000335400,6.52333544921875,-2.0550758838653564,-0.8692903518676758,0.9909164905548096
1701713549009929000,6.532928955078125,-2.3625004291534424,-1.6127500534057617,1.518061876296997
1701713549019523000,6.542523193359375,-2.06730055809021,-1.863631248474121,2.286004066467285
1701713549029118200,6.5521181640625,-1.7693849802017212,-2.3099746704101562,2.751375913619995
1701713549038712300,6.56171240234375,-1.3338630199432373,-3.3399085998535156,3.101328134536743
1701713549048306000,6.571305908203125,-0.7361463308334351,-4.122058868408203,3.578871726989746
1701713549057900000,6.580900146484375,-0.3990362882614136,-4.535500526428223,3.865243673324585
1701713549067495200,6.5904951171875,-0.356914758682251,-4.666478157043457,4.097767353057861
1701713549077089300,6.60008935546875,-0.5948636531829834,-4.34421443939209,4.354040622711182
1701713549086683000,6.609682861328125,-0.8233506679534912,-3.777543067932129,4.386082649230957
1701713549096277000,6.619277099609375,-0.7135152816772461,-2.886690139770508,4.049447059631348
1701713549105872100,6.6288720703125,-0.5663936138153076,-1.889592170715332,3.4721193313598633
1701713549115466200,6.63846630859375,-0.4089512825012207,-0.9870538711547852,2.8956761360168457
1701713549125059600,6.6480595703125,-0.0898137092590332,-0.163482666015625,2.1890532970428467
1701713549134654000,6.657654052734375,0.029908418655395508,0.6113462448120117,1.4802088737487793
1701713549144249000,6.6672490234375,-0.057573795318603516,1.1460609436035156,0.9338126182556152
1701713549153843200,6.67684326171875,-0.07863116264343262,1.6053900718688965,0.4360346794128418
1701713549163436500,6.6864365234375,-0.07914590835571289,1.9574241638183594,-0.24343013763427734
1701713549173031000,6.696031005859375,-0.42177271842956543,2.0956859588623047,-0.4438056945800781
1701713549182626000,6.7056259765625,-0.5677614212036133,2.1840224266052246,-0.7366623878479004
1701713549192220200,6.71522021484375,-0.5801501274108887,2.1135311126708984,-0.8233892917633057
1701713549201813500,6.7248134765625,-0.8378181457519531,1.86834716796875,-0.7412352561950684
1701713549211408000,6.734407958984375,-0.6967883110046387,1.6228675842285156,-0.7056732177734375
1701713549221003000,6.7440029296875,-0.741269588470459,1.414858341217041,-0.4169759750366211
1701713549230597000,6.75359716796875,-0.647125244140625,1.3131465911865234,-0.13041162490844727
1701713549240190500,6.7631904296875,-0.5700297355651855,1.262420654296875,0.21141719818115234
1701713549249784800,6.772784912109375,-0.3263082504272461,1.1861934661865234,0.5225348472595215
1701713549259379700,6.782379638671875,-0.09103870391845703,1.199714183807373,0.7033743858337402
1701713549268974000,6.79197412109375,-0.11250114440917969,1.060976505279541,1.0851936340332031
1701713549278567400,6.8015673828125,0.0026345252990722656,0.8854894638061523,1.0838513374328613
1701713549288161800,6.811161865234375,-0.00989532470703125,0.6805753707885742,1.0475525856018066
1701713549297756700,6.820756591796875,-0.027889728546142578,0.46810245513916016,0.9361319541931152
1701713549307350800,6.830350830078125,-0.06860637664794922,0.27895355224609375,0.7990202903747559
1701713549316944400,6.8399443359375,-0.15642070770263672,0.1387190818786621,0.56793212890625
1701713549326538800,6.849538818359375,-0.2503662109375,0.04900693893432617,0.3569984436035156
1701713549336133600,6.859133544921875,-0.3114333152770996,-0.0983285903930664,0.1876387596130371
1701713549345727700,6.868727783203125,-0.33054065704345703,-0.2533411979675293,0.11622047424316406
1701713549355321300,6.8783212890625,-0.26583385467529297,-0.3151674270629883,0.03467845916748047
1701713549364915700,6.887915771484375,-0.1584925651550293,-0.3546891212463379,-0.05140399932861328
1701713549374510600,6.897510498046875,-0.11637496948242188,-0.4360175132751465,-0.14430761337280273
1701713549384104700,6.907104736328125,0.02738046646118164,-0.3865957260131836,-0.18193864822387695
1701713549393698300,6.9166982421875,0.05309438705444336,-0.3236384391784668,-0.24297285079956055
1701713549403292400,6.92629248046875,0.018901824951171875,-0.17033815383911133,-0.41483640670776367
1701713549412887600,6.935887451171875,-0.1391148567199707,-0.09944534301757812,-0.3059992790222168
1701713549422481700,6.945481689453125,-0.09526920318603516,0.09140157699584961,-0.19462871551513672
1701713549432075000,6.955074951171875,-0.11250686645507812,0.272921085357666,-0.06384134292602539
1701713549441669400,6.96466943359375,-0.12364387512207031,0.49355173110961914,-0.11821556091308594
1701713549451264500,6.974264404296875,-0.07834053039550781,0.6557087898254395,-0.15845823287963867
1701713549460858600,6.983858642578125,-0.13263750076293945,0.8029580116271973,-0.17300128936767578
1701713549470452200,6.9934521484375,-0.10539674758911133,0.9476480484008789,-0.20764780044555664
1701713549480046300,7.00304638671875,-0.14051342010498047,0.9866290092468262,-0.09147071838378906
1701713549489641500,7.012641357421875,-0.13986778259277344,0.9531126022338867,-0.016473770141601562
1701713549499235600,7.022235595703125,-0.11094093322753906,0.9451684951782227,-0.023526668548583984
1701713549508829000,7.031828857421875,-0.13728570938110352,0.9602956771850586,-0.04081153869628906
1701713549518423300,7.04142333984375,-0.24467086791992188,0.9978408813476562,0.010208606719970703
1701713549528018200,7.05101806640625,-0.26615381240844727,1.1006841659545898,0.035643577575683594
1701713549537612500,7.060612548828125,-0.31650781631469727,1.2710785865783691,0.10964488983154297
1701713549547206000,7.070205810546875,-0.33078432083129883,1.4302034378051758,0.15144968032836914
1701713549556800300,7.07980029296875,-0.33751821517944336,1.5355963706970215,0.1737680435180664
1701713549566395100,7.08939501953125,-0.33463239669799805,1.621734380722046,0.17716169357299805
1701713549575989500,7.098989501953125,-0.34851789474487305,1.6463122367858887,0.12629127502441406
1701713549585582800,7.108582763671875,-0.35068845748901367,1.672431230545044,0.04329252243041992
1701713549595177200,7.11817724609375,-0.4245901107788086,1.6550602912902832,-0.016399383544921875
1701713549604772000,7.127772216796875,-0.5631203651428223,1.606306552886963,-0.04358673095703125
1701713549614366500,7.137366455078125,-0.6584620475769043,1.497096061706543,-0.0386805534362793
1701713549623959800,7.146959716796875,-0.6848349571228027,1.3849644660949707,-0.04038095474243164
1701713549633554000,7.156553955078125,-0.6330394744873047,1.23431396484375,-0.000942230224609375
1701713549643149000,7.166149169921875,-0.6317310333251953,1.1283864974975586,0.04144430160522461
1701713549652743400,7.175743408203125,-0.5830044746398926,0.9903216361999512,0.06480693817138672
1701713549662336800,7.185336669921875,-0.5107431411743164,0.9676508903503418,0.061586856842041016
1701713549671931000,7.194930908203125,-0.45981836318969727,0.9471516609191895,0.048554420471191406
1701713549681526000,7.204526123046875,-0.3560171127319336,0.9072003364562988,0.032937049865722656
1701713549691120000,7.2141201171875,-0.2473607063293457,0.8787684440612793,0.04316234588623047
1701713549700713700,7.223713623046875,-0.18395376205444336,0.8308405876159668,0.048264503479003906
1701713549710307800,7.233307861328125,-0.1010751724243164,0.782783031463623,0.027134418487548828
1701713549719903000,7.242903076171875,-0.04609251022338867,0.741605281829834,-0.0197906494140625
1701713549729497000,7.2524970703125,-0.033075809478759766,0.6595120429992676,0.008069992065429688
1701713549739090700,7.262090576171875,-0.0423741340637207,0.5889205932617188,0.008135795593261719
1701713549748684800,7.271684814453125,-0.04277229309082031,0.5103530883789062,0.02567005157470703
1701713549758280000,7.281280029296875,-0.06283140182495117,0.42102670669555664,0.06277179718017578
1701713549767874000,7.2908740234375,-0.052681922912597656,0.3806028366088867,0.04734516143798828
1701713549777467400,7.30046728515625,0.04530143737792969,0.3291773796081543,-0.04877805709838867
1701713549787061800,7.310061767578125,-0.12410736083984375,0.2607607841491699,0.14206171035766602
1701713549796657000,7.319656982421875,-0.06809186935424805,0.2400035858154297,0.055875301361083984
1701713549806251000,7.3292509765625,-0.0520930290222168,0.22127342224121094,0.04925107955932617
1701713549815844400,7.33884423828125,0.04314279556274414,0.2100224494934082,-0.04717683792114258
1701713549825438700,7.348438720703125,-0.007202625274658203,0.1578044891357422,0.07647371292114258
1701713549835033900,7.358033935546875,-0.01868295669555664,0.19599676132202148,0.009023666381835938
1701713549844628000,7.3676279296875,0.0368800163269043,0.19330501556396484,0.03261518478393555
1701713549854221300,7.37722119140625,0.09457588195800781,0.2144479751586914,0.05135917663574219
1701713549863815700,7.386815673828125,0.11213922500610352,0.23780584335327148,0.037287235260009766
1701713549873410800,7.396410888671875,0.1185297966003418,0.21760225296020508,0.19327449798583984
1701713549883005000,7.4060048828125,0.1067500114440918,0.2998847961425781,0.1706233024597168
1701713549892598300,7.415598388671875,0.12938785552978516,0.35106515884399414,0.15406084060668945
1701713549902192600,7.425192626953125,0.11955642700195312,0.3187522888183594,0.17475032806396484
1701713549911787500,7.43478759765625,0.061292171478271484,0.259340763092041,0.3658628463745117
1701713549921382000,7.4443818359375,0.08825826644897461,0.22789716720581055,0.4593625068664551
1701713549930975200,7.453975341796875,0.13529682159423828,0.2080397605895996,0.48885345458984375
1701713549940569600,7.463569580078125,0.1780710220336914,0.21214962005615234,0.445009708404541
1701713549950164500,7.47316455078125,0.2069716453552246,0.22603559494018555,0.3639678955078125
1701713549959758800,7.4827587890625,0.21281194686889648,0.21384620666503906,0.26764869689941406
1701713549969352200,7.492352294921875,0.17416095733642578,0.22095060348510742,0.19900941848754883
1701713549978946300,7.5019462890625,0.06533956527709961,0.18196964263916016,0.2841458320617676
1701713549988541400,7.51154150390625,-0.02483081817626953,0.16110467910766602,0.24074029922485352
1701713549998135800,7.5211357421875,-0.03934431076049805,0.13701534271240234,0.2386031150817871
1701713550007729200,7.530729248046875,-0.07259130477905273,0.12901735305786133,0.2504920959472656
1701713550017323300,7.5403232421875,-0.05110311508178711,0.07976675033569336,0.2900848388671875
1701713550026918400,7.54991845703125,-0.05443000793457031,0.09948587417602539,0.3187680244445801
1701713550036512500,7.559512451171875,-0.0013909339904785156,0.14786195755004883,0.2868213653564453
1701713550046106000,7.569106201171875,-0.0017333030700683594,0.18203115463256836,0.2641158103942871
1701713550055700200,7.5787001953125,-0.019370079040527344,0.20919513702392578,0.23882246017456055
1701713550065295400,7.58829541015625,-0.034906864166259766,0.22252845764160156,0.17573213577270508
1701713550074889500,7.597889404296875,-0.029375076293945312,0.2484579086303711,0.055843353271484375
1701713550084483000,7.607483154296875,-0.052559852600097656,0.2987542152404785,-0.0607151985168457
1701713550094077200,7.6170771484375,-0.14707612991333008,0.33953237533569336,-0.14780378341674805
1701713550103672300,7.62667236328125,-0.21738338470458984,0.3177604675292969,-0.16324663162231445
1701713550113266400,7.636266357421875,-0.2714715003967285,0.2770419120788574,-0.15775346755981445
1701713550122860000,7.645860107421875,-0.26802682876586914,0.2646479606628418,-0.1857900619506836
1701713550132454100,7.6554541015625,-0.15430212020874023,0.18855762481689453,-0.15043401718139648
1701713550142049300,7.66504931640625,-0.08507204055786133,0.11817312240600586,-0.15380477905273438
1701713550151643400,7.674643310546875,-0.08072137832641602,0.05104351043701172,-0.13869476318359375
1701713550161237000,7.684237060546875,-0.09090185165405273,0.027257919311523438,-0.13605213165283203
1701713550170831000,7.6938310546875,-0.04273080825805664,0.015809059143066406,-0.10798501968383789
1701713550180426200,7.70342626953125,-0.0076122283935546875,0.018657207489013672,-0.08788919448852539
1701713550190020400,7.713020263671875,-0.020241260528564453,0.02124500274658203,-0.026006221771240234
1701713550199613700,7.72261376953125,-0.025529861450195312,0.056414127349853516,0.03694581985473633
1701713550209208000,7.7322080078125,-0.004564762115478516,0.09747791290283203,0.07026290893554688
1701713550218803200,7.74180322265625,0.03763628005981445,0.1466970443725586,0.053374290466308594
1701713550228397300,7.751397216796875,0.07910299301147461,0.20207881927490234,0.05788135528564453
1701713550237990700,7.76099072265625,0.084381103515625,0.2190408706665039,0.060018062591552734
1701713550247585000,7.7705849609375,0.10102081298828125,0.22901344299316406,0.0763864517211914
1701713550257180200,7.78018017578125,0.07965946197509766,0.22263145446777344,0.08575773239135742
1701713550266774300,7.789774169921875,0.07254934310913086,0.2261195182800293,0.1093301773071289
1701713550276367600,7.79936767578125,0.03887796401977539,0.2749943733215332,0.10672378540039062
1701713550285962000,7.8089619140625,0.06675434112548828,0.17701148986816406,0.18158864974975586
1701713550295557000,7.81855712890625,0.05650901794433594,0.16031694412231445,0.16300487518310547
1701713550305151200,7.828151123046875,0.07025575637817383,0.11755037307739258,0.16101503372192383
1701713550314744600,7.83774462890625,0.060521602630615234,0.11277294158935547,0.15423583984375
1701713550324339000,7.8473388671875,0.0673975944519043,0.15513849258422852,0.09107160568237305
1701713550333933800,7.856933837890625,0.04140281677246094,0.1965928077697754,0.06664180755615234
1701713550343528200,7.866528076171875,0.016330242156982422,0.20165348052978516,0.04504728317260742
1701713550353121500,7.87612158203125,-0.005124568939208984,0.2106471061706543,0.023871421813964844
1701713550362716000,7.8857158203125,-0.0489044189453125,0.1904315948486328,0.026515960693359375
1701713550372310800,7.895310791015625,-0.04409456253051758,0.15109825134277344,0.031527042388916016
1701713550381905200,7.9049052734375,-0.03868532180786133,0.11904478073120117,0.0013194084167480469
1701713550391498500,7.91449853515625,-0.053997039794921875,0.07072973251342773,-0.028181076049804688
1701713550401092600,7.924092529296875,-0.038187503814697266,0.03479766845703125,0.011138439178466797
1701713550410687700,7.933687744140625,-0.027062416076660156,0.006214618682861328,0.002655506134033203
1701713550420282000,7.9432822265625,-0.048913002014160156,-0.029268264770507812,-0.005873203277587891
1701713550429875500,7.95287548828125,-0.05843305587768555,-0.02940082550048828,0.015888690948486328
1701713550439469600,7.962469482421875,-0.057955265045166016,-0.03756904602050781,0.07655572891235352
1701713550449064700,7.972064697265625,-0.1505270004272461,-0.02345132827758789,0.03676033020019531
1701713550458658800,7.981658935546875,-0.17952728271484375,0.0012326240539550781,0.051405906677246094
1701713550468252400,7.99125244140625,-0.062313079833984375,-0.028946399688720703,0.12406587600708008
1701713550477846800,8.0008466796875,-0.04609823226928711,0.011640548706054688,0.12898683547973633
1701713550487441700,8.010441650390625,0.016146183013916016,0.06567525863647461,0.06948471069335938
1701713550497035800,8.020035888671876,0.060045719146728516,0.05789756774902344,0.036423683166503906
1701713550506629400,8.02962939453125,0.09582138061523438,0.024468421936035156,0.0696563720703125
1701713550516223500,8.039223388671875,0.0721588134765625,0.021955013275146484,0.12324333190917969
1701713550525818600,8.048818603515626,0.025345802307128906,0.023765087127685547,0.16129207611083984
1701713550535412700,8.058412841796875,0.04024791717529297,0.04642534255981445,0.16510486602783203
1701713550545006300,8.06800634765625,0.04770040512084961,0.06610822677612305,0.16371488571166992
1701713550554600400,8.077600341796876,0.029414653778076172,0.07091283798217773,0.17152643203735352
1701713550564195600,8.087195556640625,-0.00225830078125,0.08704710006713867,0.19567489624023438
1701713550573789700,8.096789794921875,-0.011870861053466797,0.09572839736938477,0.19842910766601562
1701713550583383300,8.10638330078125,-0.004315853118896484,0.1018519401550293,0.16862869262695312
1701713550592977400,8.115977294921874,-0.017486095428466797,0.12429523468017578,0.11629152297973633
1701713550602572500,8.125572509765625,-0.011196136474609375,0.15584468841552734,0.06295251846313477
1701713550612166700,8.135166748046874,-0.016434669494628906,0.16103696823120117,0.02975606918334961
1701713550621760000,8.144760009765625,-0.04229021072387695,0.15908288955688477,-0.0024080276489257812
1701713550631354400,8.154354248046875,-0.11642932891845703,0.14757442474365234,-0.014706134796142578
1701713550640949500,8.163949462890624,-0.16970109939575195,0.12407350540161133,-0.010051250457763672
1701713550650543600,8.173543701171875,-0.19087743759155273,0.0958404541015625,0.0063724517822265625
1701713550660137000,8.183136962890625,-0.14077377319335938,0.067718505859375,0.024725914001464844
1701713550669731300,8.1927314453125,-0.07735061645507812,0.08938360214233398,0.047362327575683594
1701713550679326500,8.202326416015625,-0.01752185821533203,0.09656190872192383,0.04590177536010742
1701713550688920600,8.211920654296875,0.04816246032714844,0.07078075408935547,0.06559324264526367
1701713550698514000,8.221513916015626,0.12408638000488281,0.050130367279052734,0.07275056838989258
1701713550708108300,8.2311083984375,0.1534557342529297,0.039174556732177734,0.08151483535766602
1701713550717703400,8.240703369140626,0.1418161392211914,-0.0023908615112304688,0.0917668342590332
1701713550727297500,8.250297607421874,0.1534433364868164,-0.024799823760986328,0.10799646377563477
1701713550736891000,8.259890869140625,0.13440752029418945,-0.07569265365600586,0.1139225959777832
1701713550746485200,8.2694853515625,0.11378717422485352,-0.12875747680664062,0.14055585861206055
1701713550756080000,8.279080078125,0.0681910514831543,-0.14864635467529297,0.15235662460327148
1701713550765674500,8.288674560546875,0.0380558967590332,-0.12166643142700195,0.21799230575561523
1701713550775267800,8.298267822265625,0.004048347473144531,-0.10033035278320312,0.19280099868774414
1701713550784862200,8.3078623046875,-0.0010962486267089844,-0.001972198486328125,0.23125839233398438
1701713550794457000,8.31745703125,0.014883041381835938,0.11128044128417969,0.1771864891052246
1701713550804051500,8.327051513671876,0.03743314743041992,0.16173267364501953,0.17125272750854492
1701713550813644800,8.336644775390624,0.014667034149169922,0.21647405624389648,0.16573715209960938
1701713550823239200,8.3462392578125,-0.021755695343017578,0.23282194137573242,0.16063213348388672
1701713550832834000,8.355833984375,-0.0644078254699707,0.24208593368530273,0.14436912536621094
1701713550842428400,8.365428466796875,-0.12479305267333984,0.22072696685791016,0.1053776741027832
1701713550852021800,8.375021728515625,-0.19037437438964844,0.1784958839416504,0.07016897201538086
1701713550861616000,8.3846162109375,-0.27027177810668945,0.13203954696655273,0.06691360473632812
1701713550871211000,8.3942109375,-0.3102850914001465,0.09319782257080078,0.031337738037109375
1701713550880805000,8.40380517578125,-0.2667121887207031,0.08085060119628906,0.006221771240234375
1701713550890398700,8.413398681640626,-0.19774580001831055,0.10656356811523438,-0.03215217590332031
1701713550899992800,8.422992919921874,-0.13220930099487305,0.13209199905395508,-0.008302688598632812
1701713550909588000,8.432587890625,-0.0679159164428711,0.16945123672485352,-0.003235340118408203
1701713550919182000,8.44218212890625,-0.019291400909423828,0.18077373504638672,0.023069381713867188
1701713550928775700,8.451775634765625,0.0400547981262207,0.1712627410888672,0.04465961456298828
1701713550938369800,8.461369873046875,0.07007265090942383,0.15044164657592773,0.05440187454223633
1701713550947965000,8.47096484375,0.05971813201904297,0.09471654891967773,0.07833099365234375
1701713550957559000,8.48055908203125,0.04773855209350586,0.04203605651855469,0.09505176544189453
1701713550967152600,8.490152587890625,0.05098676681518555,-0.02431201934814453,0.09538698196411133
1701713550976746800,8.499746826171876,0.050301551818847656,-0.04518413543701172,0.12198781967163086
1701713550986342000,8.509341796875,-0.027354717254638672,-0.052066802978515625,0.10587692260742188
1701713550995936000,8.51893603515625,-0.08206844329833984,-0.05696725845336914,0.10167074203491211
1701713551005529600,8.528529541015626,-0.12413406372070312,-0.03378438949584961,0.07131099700927734
1701713551015123700,8.538123779296875,-0.11174678802490234,0.03131675720214844,0.05982780456542969
1701713551024718800,8.54771875,-0.05318880081176758,0.09574699401855469,0.036585330963134766
1701713551034313000,8.55731298828125,0.008081912994384766,0.17400693893432617,0.01603841781616211
1701713551043906600,8.566906494140625,0.060344696044921875,0.20260858535766602,-0.01551961898803711
1701713551053500700,8.576500732421875,0.11092042922973633,0.2129836082458496,-0.020131587982177734
1701713551063095800,8.586095703125,0.10814857482910156,0.20289993286132812,-0.05251264572143555
1701713551072690000,8.59568994140625,0.10695505142211914,0.19141149520874023,-0.046538352966308594
1701713551082283500,8.605283447265625,0.07708215713500977,0.16399145126342773,-0.03595590591430664
1701713551091877600,8.614877685546874,0.0026731491088867188,0.1111292839050293,-0.0423283576965332
1701713551101472800,8.62447265625,-0.06316852569580078,0.06807994842529297,-0.046568870544433594
1701713551111067000,8.63406689453125,-0.10614728927612305,-0.0010561943054199219,-0.05127763748168945
1701713551120660200,8.64366015625,-0.1358165740966797,-0.029926776885986328,-0.07268428802490234
1701713551130254600,8.653254638671875,-0.11710071563720703,-0.04509925842285156,-0.07521295547485352
1701713551139849700,8.662849609375,-0.09331321716308594,-0.03466939926147461,-0.06121492385864258
1701713551149443800,8.67244384765625,-0.05096769332885742,-0.03648853302001953,-0.042994022369384766
1701713551159037200,8.682037109375,-0.02160930633544922,-0.021860122680664062,-0.01859760284423828
1701713551168631600,8.691631591796876,0.020472049713134766,0.011479854583740234,-0.00008058547973632812
1701713551178226700,8.701226806640625,0.027710437774658203,0.011669158935546875,-0.015566825866699219
1701713551187820800,8.71082080078125,0.01494598388671875,0.031113147735595703,-0.06428003311157227
1701713551197414100,8.7204140625,-0.019691944122314453,0.05065631866455078,-0.0654759407043457
1701713551207008500,8.730008544921875,-0.04959821701049805,0.05369710922241211,-0.045644283294677734
1701713551216603400,8.739603271484375,-0.08452463150024414,0.0828852653503418,-0.03835153579711914
1701713551226197800,8.74919775390625,-0.08898448944091797,0.09764242172241211,-0.0481572151184082
1701713551235791000,8.758791015625,-0.09412002563476562,0.10533285140991211,-0.04883289337158203
1701713551245385500,8.768385498046875,-0.09035253524780273,0.08729839324951172,-0.0520782470703125
1701713551254980400,8.77798046875,-0.03997039794921875,0.05797386169433594,-0.06957387924194336
1701713551264574700,8.78757470703125,-0.01659536361694336,0.0434417724609375,-0.06092548370361328
1701713551274168000,8.79716796875,0.004364967346191406,0.029088497161865234,-0.07099676132202148
1701713551283762400,8.806762451171876,0.01624774932861328,-0.013518333435058594,-0.10169601440429688
1701713551293357300,8.816357421875,0.03569793701171875,-0.03935861587524414,-0.08697175979614258
1701713551302951700,8.82595166015625,0.024940013885498047,-0.06307601928710938,-0.07259607315063477
1701713551312545000,8.835544921875,0.022232532501220703,-0.06834602355957031,-0.03978919982910156
1701713551322139100,8.84513916015625,0.005922794342041016,-0.04364490509033203,0.006176471710205078
1701713551331734300,8.854734375,0.014026165008544922,-0.012833595275878906,0.027759552001953125
1701713551341328400,8.864328369140624,0.022638797760009766,-0.0017881393432617188,0.07029151916503906
1701713551350922000,8.873921875,-0.0037708282470703125,-0.0005826950073242188,0.0675201416015625
1701713551360516000,8.88351611328125,-0.017894744873046875,0.0052509307861328125,0.07656526565551758
1701713551370111200,8.893111328125,-0.024886608123779297,0.02529144287109375,0.07845783233642578
1701713551379705300,8.902705322265625,-0.03690624237060547,0.050006866455078125,0.07790374755859375
1701713551389299000,8.912298828125,-0.04238319396972656,0.09603738784790039,0.04435586929321289
1701713551398893300,8.921893310546874,-0.039012908935546875,0.12548255920410156,-0.002593517303466797
1701713551408488200,8.93148828125,-0.04342079162597656,0.1173095703125,-0.029911041259765625
1701713551418082300,8.941082275390626,-0.062497615814208984,0.11681604385375977,-0.0002875328063964844
1701713551427676000,8.950676025390624,-0.07224512100219727,0.10250520706176758,0.026459693908691406
1701713551437270000,8.96027001953125,-0.06332874298095703,0.09325981140136719,0.0690622329711914
1701713551446865200,8.969865234375,-0.05936431884765625,0.08175516128540039,0.1037287712097168
1701713551456459300,8.979459228515625,-0.05524253845214844,0.08203411102294922,0.10956907272338867
1701713551466052900,8.989052978515625,-0.025009632110595703,0.07512712478637695,0.0989689826965332
1701713551475647000,8.99864697265625,0.009832382202148438,0.054030418395996094,0.0581207275390625
1701713551485242000,9.0082421875,0.056316375732421875,0.04735279083251953,0.051287174224853516
1701713551494836200,9.017836181640625,0.0999608039855957,0.043138980865478516,0.0330805778503418
1701713551504429800,9.027429931640626,0.10074520111083984,0.017685413360595703,0.027038097381591797
1701713551514024000,9.03702392578125,0.0947108268737793,-0.009940624237060547,0.03988456726074219
1701713551523619000,9.046619140625,0.08646774291992188,-0.01845693588256836,0.04998302459716797
1701713551533213200,9.056213134765626,0.05974006652832031,-0.029425621032714844,0.05040740966796875
1701713551542806500,9.065806640625,0.012825489044189453,-0.07364940643310547,0.03900718688964844
1701713551552401000,9.07540087890625,0.021260738372802734,-0.08472013473510742,0.027541160583496094
1701713551561995800,9.084995849609374,0.016123294830322266,-0.08437442779541016,0.037467002868652344
1701713551571590100,9.094590087890625,0.03551626205444336,-0.0728607177734375,0.03560352325439453
1701713551581183500,9.10418359375,0.05038881301879883,-0.07155656814575195,0.01940631866455078
1701713551590777900,9.11377783203125,0.06523656845092773,-0.0776982307434082,0.010316848754882812
1701713551600372700,9.123372802734375,0.07064533233642578,-0.07709789276123047,-0.013045310974121094
1701713551609967000,9.132967041015625,0.04799795150756836,-0.10276556015014648,-0.007932662963867188
1701713551619560400,9.142560546875,-0.00922536849975586,-0.10506725311279297,0.00847768783569336
1701713551629154800,9.15215478515625,-0.029625892639160156,-0.11735248565673828,0.02677297592163086
1701713551638749700,9.161749755859375,-0.035065650939941406,-0.08995723724365234,0.05400228500366211
1701713551648344000,9.171343994140624,-0.037790775299072266,-0.07268095016479492,0.06662368774414062
1701713551657937400,9.1809375,-0.02871561050415039,-0.04398775100708008,0.057761192321777344
1701713551667531500,9.190531494140625,-0.003673553466796875,0.01735830307006836,0.07245683670043945
1701713551677126700,9.200126708984374,-0.008006572723388672,0.06397008895874023,0.08202219009399414
1701713551686721000,9.209720947265625,-0.008451461791992188,0.09621763229370117,0.07003450393676758
1701713551696314400,9.219314453125,-0.01893758773803711,0.13076019287109375,0.02761554718017578
1701713551705908700,9.22890869140625,-0.03202533721923828,0.12518739700317383,0.04493904113769531
1701713551715503600,9.238503662109375,-0.06602144241333008,0.09170103073120117,0.08822965621948242
1701713551725097700,9.24809765625,-0.08012580871582031,0.10109376907348633,0.11709117889404297
1701713551734691300,9.25769140625,-0.07217788696289062,0.0937967300415039,0.1224822998046875
1701713551744285700,9.26728564453125,-0.04719400405883789,0.11488008499145508,0.11905193328857422
1701713551753880600,9.276880615234376,-0.022011280059814453,0.10265970230102539,0.09981060028076172
1701713551763474700,9.286474609375,-0.01317453384399414,0.11419248580932617,0.0790867805480957
1701713551773068300,9.296068359375,0.0005664825439453125,0.116180419921875,0.07795953750610352
1701713551782662400,9.305662353515626,0.028262615203857422,0.12773513793945312,0.07477903366088867
1701713551792257500,9.315257568359375,0.038904666900634766,0.12304115295410156,0.048512935638427734
1701713551801851600,9.3248515625,0.03741312026977539,0.09059715270996094,0.023012161254882812
1701713551811445200,9.3344453125,0.02407550811767578,0.054166316986083984,0.007474422454833984
1701713551821039400,9.344039306640624,0.005944252014160156,0.013870716094970703,-0.010170459747314453
1701713551830634500,9.353634521484375,-0.005191326141357422,-0.020929813385009766,-0.013616561889648438
1701713551840228600,9.363228515625,0.006772518157958984,-0.036202430725097656,-0.02689647674560547
1701713551849822200,9.372822265625,0.013053417205810547,-0.03221321105957031,-0.049921512603759766
1701713551859416300,9.382416259765625,0.0020623207092285156,-0.007048606872558594,-0.07552576065063477
1701713551869011500,9.392011474609374,-0.0069446563720703125,-0.015331268310546875,-0.08720016479492188
1701713551878605600,9.40160546875,-0.03740692138671875,0.00006103515625,-0.11557435989379883
1701713551888199000,9.411198974609375,-0.04653024673461914,0.01054525375366211,-0.13669395446777344
1701713551897793300,9.420793212890626,-0.06049156188964844,0.018558502197265625,-0.14354372024536133
1701713551907388400,9.430388427734375,-0.08162736892700195,0.024140357971191406,-0.1481924057006836
1701713551916982500,9.439982421875,-0.08599281311035156,0.034215450286865234,-0.1435527801513672
1701713551926575900,9.449575927734376,-0.0948333740234375,0.032047271728515625,-0.1274261474609375
1701713551936170200,9.459170166015625,-0.07512998580932617,0.04627418518066406,-0.10450458526611328
1701713551945765000,9.46876513671875,-0.05103445053100586,0.04136848449707031,-0.08908748626708984
1701713551955359500,9.478359375,-0.03182840347290039,0.0434880256652832,-0.07620620727539062
1701713551964952800,9.487952880859375,-0.01029348373413086,0.05251646041870117,-0.07280826568603516
1701713551974547200,9.497547119140625,0.006528377532958984,0.04473447799682617,-0.06462478637695312
1701713551984142000,9.50714208984375,0.03270673751831055,0.04631757736206055,-0.05186748504638672
1701713551993736400,9.516736328125,0.03977346420288086,0.045400142669677734,-0.053433895111083984
1701713552003329800,9.526329833984375,0.039940834045410156,0.03483772277832031,-0.06911039352416992
1701713552012924000,9.535923828125,0.030700206756591797,0.022037029266357422,-0.06104326248168945
1701713552022519000,9.54551904296875,0.014612674713134766,-0.00003147125244140625,-0.05076789855957031
1701713552032113400,9.555113525390626,-0.005646228790283203,-0.02420806884765625,-0.028770923614501953
1701713552041706800,9.564706787109374,-0.032445430755615234,-0.03868865966796875,-0.018874645233154297
1701713552051300900,9.57430078125,-0.04231834411621094,-0.03409528732299805,0.002628326416015625
1701713552060896000,9.58389599609375,-0.06622457504272461,-0.006040096282958984,-0.0021953582763671875
1701713552070490000,9.593489990234374,-0.09216022491455078,0.024023056030273438,-0.028051376342773438
1701713552080083700,9.603083740234375,-0.08007001876831055,0.03258085250854492,-0.05097484588623047
1701713552089677800,9.612677734375,-0.07525491714477539,0.04607391357421875,-0.04954814910888672
1701713552099273000,9.62227294921875,-0.07771873474121094,0.06435823440551758,-0.05262041091918945
1701713552108867000,9.6318671875,-0.06843185424804688,0.0708761215209961,-0.027086734771728516
1701713552118460700,9.641460693359376,-0.08062219619750977,0.06817770004272461,-0.0017461776733398438
1701713552128054800,9.6510546875,-0.07860898971557617,0.0798344612121582,0.03503990173339844
1701713552137650000,9.66064990234375,-0.0838165283203125,0.08448171615600586,0.06902933120727539
1701713552147244000,9.670244140625,-0.06770896911621094,0.08229684829711914,0.08637332916259766
1701713552156837600,9.679837646484375,-0.04745197296142578,0.11372184753417969,0.12740659713745117
1701713552166431700,9.689431640625,-0.03738546371459961,0.14529657363891602,0.1351618766784668
1701713552176027000,9.69902685546875,-0.034986019134521484,0.15124893188476562,0.1338791847229004
1701713552185621000,9.70862109375,-0.044895172119140625,0.1836719512939453,0.12585735321044922
1701713552195214300,9.71821435546875,-0.04106330871582031,0.16208457946777344,0.12293148040771484
1701713552204808700,9.72780859375,-0.0426783561706543,0.1389923095703125,0.11055231094360352
1701713552214403800,9.73740380859375,-0.033097267150878906,0.08840131759643555,0.09586811065673828
1701713552223998000,9.746998046875,-0.028779029846191406,0.05296134948730469,0.09067678451538086
1701713552233591300,9.75659130859375,-0.027011871337890625,0.015818119049072266,0.054920196533203125
1701713552243185700,9.766185546875,-0.03932809829711914,-0.013642311096191406,0.0033555030822753906
1701713552252780800,9.77578076171875,-0.01807689666748047,-0.02625274658203125,-0.018843650817871094
1701713552262375000,9.785375,-0.015474319458007812,-0.0459599494934082,-0.040429115295410156
1701713552271968300,9.79496826171875,0.008895397186279297,-0.07524347305297852,-0.031013011932373047
1701713552281562600,9.804562744140625,0.01680612564086914,-0.09269523620605469,-0.04773378372192383
1701713552291157500,9.814157470703124,0.0227813720703125,-0.11034584045410156,-0.05714988708496094
1701713552300752000,9.823751953125,0.03396749496459961,-0.08817148208618164,-0.047564029693603516
1701713552310345200,9.83334521484375,0.05935096740722656,-0.08080053329467773,-0.031186580657958984
1701713552319939600,9.842939697265624,0.08216476440429688,-0.08340024948120117,-0.0012607574462890625
1701713552329534500,9.852534423828125,0.08583784103393555,-0.07220125198364258,-0.002804279327392578
1701713552339128800,9.86212890625,0.09423160552978516,-0.042601585388183594,0.004875659942626953
1701713552348722200,9.87172216796875,0.08622503280639648,-0.016216278076171875,-0.013689041137695312
1701713552358316500,9.881316650390625,0.047832489013671875,-0.00705718994140625,-0.027515411376953125
1701713552367911400,9.890911376953126,0.0361332893371582,-0.017188072204589844,-0.04131746292114258
1701713552377505500,9.900505615234374,0.027399539947509766,-0.0417027473449707,-0.06440591812133789
1701713552387099100,9.91009912109375,0.035830020904541016,-0.07806873321533203,-0.05890989303588867
1701713552396693500,9.919693603515626,0.030558109283447266,-0.11208534240722656,-0.048967838287353516
1701713552406288400,9.929288330078125,0.040207862854003906,-0.14409875869750977,-0.027811527252197266
1701713552415882500,9.938882568359375,0.057466983795166016,-0.17420291900634766,-0.026305198669433594
1701713552425476000,9.94847607421875,0.09612560272216797,-0.19060182571411133,-0.05602407455444336
1701713552435070200,9.9580703125,0.1347522735595703,-0.1841721534729004,-0.036368370056152344
1701713552444665300,9.967665283203125,0.14510774612426758,-0.19060707092285156,-0.052899837493896484
1701713552454259500,9.977259521484376,0.14419174194335938,-0.18844318389892578,-0.053098201751708984
1701713552463853000,9.98685302734375,0.12769031524658203,-0.144927978515625,-0.04887104034423828
1701713552473447200,9.996447265625,0.09801959991455078,-0.14302635192871094,-0.04504585266113281
1701713552483042300,10.006042236328126,0.06945085525512695,-0.08998918533325195,-0.022559165954589844
1701713552492636400,10.015636474609375,0.0700674057006836,-0.031090259552001953,-0.01916980743408203
1701713552502229800,10.025229736328125,0.042788028717041016,0.017523765563964844,0.02942037582397461
1701713552511824100,10.03482421875,0.013829708099365234,0.09158182144165039,0.05197715759277344
1701713552521419000,10.0444189453125,-0.036150455474853516,0.12294435501098633,0.08201169967651367
1701713552531013400,10.054013427734375,-0.09784984588623047,0.17142820358276367,0.09803581237792969
1701713552540606700,10.063606689453126,-0.14538145065307617,0.20868492126464844,0.09087419509887695
1701713552550201000,10.073201171875,-0.18389129638671875,0.2681112289428711,0.1010122299194336
1701713552559796200,10.082796142578125,-0.2251744270324707,0.3047347068786621,0.08840274810791016
1701713552569390300,10.092390380859374,-0.2458806037902832,0.3353586196899414,0.10725831985473633
1701713552578983700,10.101983642578125,-0.27444934844970703,0.33623409271240234,0.1074066162109375
1701713552588578000,10.111578125,-0.2521510124206543,0.3079185485839844,0.09367942810058594
1701713552598173000,10.1211728515625,-0.24332380294799805,0.31421422958374023,0.08021688461303711
1701713552607767300,10.130767333984375,-0.22869539260864258,0.2695465087890625,0.0763554573059082
1701713552617360600,10.140360595703125,-0.19149017333984375,0.2240147590637207,0.03973722457885742
1701713552626954800,10.149954833984374,-0.16954708099365234,0.18686437606811523,0.03446197509765625
1701713552636550000,10.1595498046875,-0.1435108184814453,0.15999889373779297,0.0010623931884765625
1701713552646144300,10.169144287109376,-0.12267065048217773,0.11016130447387695,-0.02698040008544922
1701713552655737600,10.178737548828124,-0.07634258270263672,0.0872349739074707,-0.03792238235473633
1701713552665331700,10.188331787109375,-0.04007911682128906,0.04597902297973633,-0.06960010528564453
1701713552674926800,10.1979267578125,-0.0017476081848144531,0.010055065155029297,-0.07460212707519531
1701713552684521000,10.20752099609375,0.03384828567504883,-0.008919715881347656,-0.0982370376586914
1701713552694114600,10.217114501953125,0.049945831298828125,-0.04635334014892578,-0.09793329238891602
1701713552703708700,10.226708740234375,0.07060575485229492,-0.08329105377197266,-0.10235881805419922
1701713552713303800,10.2363037109375,0.07928323745727539,-0.08925914764404297,-0.08802604675292969
1701713552722898000,10.24589794921875,0.07368946075439453,-0.09531736373901367,-0.05766487121582031
1701713552732491500,10.255491455078126,0.08225154876708984,-0.10629558563232422,-0.04235410690307617
1701713552742085600,10.265085693359374,0.0671381950378418,-0.08915138244628906,-0.03470754623413086
1701713552751680800,10.2746806640625,0.08066034317016602,-0.09391403198242188,-0.015786170959472656
1701713552761275000,10.28427490234375,0.10094642639160156,-0.09649181365966797,-0.02343463897705078
1701713552770868200,10.2938681640625,0.09747457504272461,-0.10875272750854492,-0.038254737854003906
1701713552780462600,10.303462646484375,0.11073446273803711,-0.09751605987548828,-0.0599827766418457
1701713552790057700,10.3130576171875,0.08865594863891602,-0.07500410079956055,-0.06503438949584961
1701713552799651800,10.32265185546875,0.09781694412231445,-0.07424068450927734,-0.067596435546875
1701713552809245200,10.3322451171875,0.08603811264038086,-0.06909036636352539,-0.08420085906982422
1701713552818839600,10.341839599609376,0.044313907623291016,-0.05014753341674805,-0.08387517929077148
1701713552828434400,10.351434326171875,0.036780357360839844,-0.050660133361816406,-0.06454849243164062
1701713552838028800,10.36102880859375,0.008863449096679688,-0.03511667251586914,-0.0335993766784668
1701713552847622100,10.3706220703125,-0.0037713050842285156,-0.024970054626464844,-0.012397289276123047
1701713552857216500,10.380216552734375,-0.018003463745117188,-0.02477884292602539,0.0038547515869140625
1701713552866811400,10.389811279296875,-0.0290985107421875,-0.0013570785522460938,0.02237558364868164
1701713552876405800,10.39940576171875,-0.023189544677734375,0.009717941284179688,0.01010751724243164
1701713552885999000,10.4089990234375,-0.026847362518310547,0.037024497985839844,0.0332341194152832
1701713552895593200,10.41859326171875,-0.0070362091064453125,0.03339385986328125,0.046570777893066406
1701713552905188400,10.428188232421874,-0.008888721466064453,0.051195621490478516,0.052695274353027344
1701713552914782500,10.437782470703125,-0.013137340545654297,0.04775667190551758,0.08247756958007812
1701713552924376000,10.4473759765625,-0.04824972152709961,0.02343273162841797,0.06463909149169922
1701713552933970200,10.45697021484375,-0.05713653564453125,0.01605510711669922,0.10576963424682617
1701713552943565300,10.4665654296875,-0.030974864959716797,0.006754875183105469,0.11555814743041992
1701713552953159400,10.476159423828125,-0.022190570831298828,0.028460025787353516,0.10853004455566406
1701713552962753000,10.4857529296875,-0.013953685760498047,0.045403480529785156,0.08274555206298828
1701713552972347100,10.49534716796875,-0.010768413543701172,0.05289316177368164,0.04570198059082031
1701713552981942300,10.5049423828125,-0.010074138641357422,0.0417323112487793,0.0401606559753418
1701713552991536400,10.514536376953124,0.000013828277587890625,0.035710811614990234,0.01615762710571289
1701713553001130000,10.5241298828125,0.012215137481689453,0.02991199493408203,-0.014435768127441406
1701713553010724000,10.53372412109375,0.01235818862915039,0.010207176208496094,-0.025622844696044922
1701713553020319200,10.5433193359375,0.026818275451660156,0.014309406280517578,-0.03414487838745117
1701713553029913300,10.552913330078125,-0.013232707977294922,-0.0028448104858398438,-0.033231258392333984
1701713553039506700,10.562506591796875,-0.026636123657226562,-0.029377460479736328,-0.041956424713134766
1701713553049101000,10.57210107421875,-0.06335830688476562,-0.027339935302734375,-0.04126405715942383
1701713553058696000,10.581696044921875,-0.07833099365234375,-0.05612516403198242,-0.03378772735595703
1701713553068290300,10.591290283203126,-0.09310388565063477,-0.06107378005981445,-0.03612184524536133
1701713553077883600,10.600883544921874,-0.08664798736572266,-0.03297996520996094,-0.02920675277709961
1701713553087478000,10.61047802734375,-0.07801961898803711,-0.017063140869140625,-0.03653144836425781
1701713553097073000,10.620072998046876,-0.05790853500366211,0.017606258392333984,-0.05778646469116211
1701713553106667300,10.629667236328125,-0.01703023910522461,0.04958820343017578,-0.054936885833740234
1701713553116260600,10.639260498046875,-0.01698780059814453,0.03648996353149414,-0.059114933013916016
1701713553125855000,10.64885498046875,-0.00989532470703125,0.04262685775756836,-0.03476428985595703
1701713553135449900,10.658449951171875,-0.007763862609863281,0.06067609786987305,-0.02949666976928711
1701713553145044000,10.6680439453125,-0.0012259483337402344,0.05041837692260742,-0.0007524490356445312
1701713553154637600,10.677637451171876,0.004789829254150391,0.05470418930053711,0.017971515655517578
1701713553164231700,10.687231689453125,0.01043844223022461,0.0402684211730957,0.019853591918945312
1701713553173826800,10.696826904296875,0.0135650634765625,0.04026031494140625,0.04053926467895508
1701713553183421000,10.7064208984375,0.025849342346191406,0.035665035247802734,0.039630889892578125
1701713553193014500,10.7160146484375,0.021376609802246094,0.03356218338012695,0.03873872756958008
1701713553202608600,10.725608642578125,0.0051937103271484375,0.03861713409423828,0.004965305328369141
1701713553212203800,10.735203857421874,-0.01027059555053711,0.017507076263427734,-0.0021109580993652344
1701713553221798000,10.7447978515625,-0.006778717041015625,-0.026793479919433594,0.004921913146972656
1701713553231391500,10.7543916015625,-0.03629112243652344,-0.037580013275146484,0.013984203338623047
1701713553240985600,10.763985595703126,-0.04181957244873047,-0.055373191833496094,-0.0031952857971191406
1701713553250580700,10.773580810546875,-0.031031131744384766,-0.0612187385559082,0.026591777801513672
1701713553260174800,10.7831748046875,-0.018250465393066406,-0.03171539306640625,0.02972888946533203
1701713553269768200,10.792768310546874,-0.019942283630371094,-0.028659343719482422,0.027897357940673828
1701713553279362600,10.802362548828125,-0.014605045318603516,0.0001811981201171875,0.016545772552490234
1701713553288957400,10.81195751953125,-0.0069427490234375,0.02383279800415039,0.012508869171142578
1701713553298551800,10.8215517578125,0.021706104278564453,0.02837657928466797,-0.0008034706115722656
1701713553308145200,10.831145263671875,0.021626949310302734,0.03996753692626953,-0.013821125030517578
1701713553317739500,10.840739501953125,0.019241809844970703,0.06090259552001953,-0.035840511322021484
1701713553327334400,10.85033447265625,-0.0018773078918457031,0.058007240295410156,-0.04794025421142578
1701713553336928800,10.8599287109375,-0.02978038787841797,0.045864105224609375,-0.05034828186035156
1701713553346522000,10.869522216796875,-0.050350189208984375,0.02227163314819336,-0.057473182678222656
1701713553356116200,10.8791162109375,-0.06142902374267578,0.00861215591430664,-0.04576826095581055
1701713553365711400,10.88871142578125,-0.05612516403198242,0.007195472717285156,-0.043662071228027344
1701713553375305500,10.898305419921876,-0.05595970153808594,0.015461921691894531,-0.034577369689941406
1701713553384899000,10.907899169921874,-0.05834627151489258,0.00016927719116210938,-0.018629074096679688
1701713553394493200,10.9174931640625,-0.039653778076171875,0.0017914772033691406,-0.007580757141113281
1701713553404088300,10.92708837890625,-0.03297233581542969,-0.008265018463134766,-0.012972354888916016
1701713553413682400,10.936682373046875,-0.014498233795166016,0.0007963180541992188,-0.006218910217285156
1701713553423276000,10.946276123046875,-0.019815444946289062,0.0004076957702636719,-0.006429195404052734
1701713553432870100,10.9558701171875,0.008194923400878906,0.016499996185302734,-0.0016436576843261719
1701713553442465300,10.96546533203125,0.007679939270019531,0.025438785552978516,-0.0035796165466308594
1701713553452059400,10.975059326171875,0.0025854110717773438,0.05076408386230469,0.01354837417602539
1701713553461653000,10.984653076171876,-0.009488582611083984,0.04976940155029297,0.016268253326416016
1701713553471247000,10.9942470703125,-0.019141674041748047,0.05597209930419922,0.009540081024169922
1701713553480842200,11.00384228515625,-0.0099639892578125,0.05295610427856445,0.014907360076904297
1701713553490436400,11.013436279296876,-0.012711524963378906,0.035802364349365234,0.04836463928222656
1701713553500029700,11.02302978515625,-0.010766029357910156,0.03094196319580078,0.032062530517578125
1701713553509624000,11.0326240234375,0.02401447296142578,0.04982423782348633,0.04434776306152344
1701713553519219200,11.04221923828125,0.025374889373779297,0.0708627700805664,0.01668071746826172
1701713553528813300,11.051813232421875,-0.017601966857910156,0.07264852523803711,0.018071651458740234
1701713553538406700,11.06140673828125,-0.02432727813720703,0.057978153228759766,0.0009064674377441406
1701713553548001000,11.0710009765625,-0.01660919189453125,0.05078744888305664,-0.02495431900024414
1701713553557596000,11.080595947265625,-0.02508401870727539,0.0034470558166503906,-0.0361323356628418
1701713553567190300,11.090190185546875,-0.03554964065551758,-0.05294656753540039,-0.021523475646972656
1701713553576783600,11.09978369140625,0.019733428955078125,-0.06131601333618164,-0.03810310363769531
1701713553586377700,11.109377685546875,0.01468658447265625,-0.07889986038208008,-0.028987884521484375
1701713553595972900,11.118972900390625,-0.01684427261352539,-0.06546258926391602,-0.046443939208984375
1701713553605567000,11.12856689453125,-0.017873764038085938,-0.040296077728271484,-0.06872034072875977
1701713553615160600,11.13816064453125,-0.04514265060424805,-0.027139663696289062,-0.11194515228271484
1701713553624754700,11.147754638671875,-0.0650477409362793,-0.021207332611083984,-0.09802007675170898
1701713553634349800,11.157349853515624,-0.044751644134521484,0.003577709197998047,-0.07726097106933594
1701713553643944000,11.16694384765625,-0.07436800003051758,-0.00018453598022460938,-0.05918312072753906
1701713553653537500,11.17653759765625,-0.07525920867919922,0.015122413635253906,-0.052964210510253906
1701713553663131600,11.186131591796874,-0.08817720413208008,0.02334880828857422,-0.01856517791748047
1701713553672726800,11.195726806640625,-0.0752725601196289,0.026965618133544922,-0.008261680603027344
1701713553682321000,11.20532080078125,-0.07456684112548828,0.04023313522338867,-0.01208639144897461
1701713553691914200,11.214914306640624,-0.06705570220947266,0.0560460090637207,-0.020264625549316406
1701713553701508600,11.224508544921875,-0.07402467727661133,0.0650625228881836,-0.02078533172607422
1701713553711103500,11.234103515625,-0.06926250457763672,0.06733417510986328,-0.006712913513183594
1701713553720697900,11.24369775390625,-0.03870391845703125,0.08409690856933594,-0.0017719268798828125
1701713553730291200,11.253291259765625,-0.025348663330078125,0.08474159240722656,-0.019826889038085938
1701713553739885600,11.262885498046876,-0.04288530349731445,0.05287647247314453,-0.027608871459960938
1701713553749480400,11.27248046875,-0.03645944595336914,0.04777717590332031,-0.008762836456298828
1701713553759074800,11.28207470703125,-0.030280590057373047,0.04534006118774414,0.009948253631591797
1701713553768668200,11.291668212890626,-0.038564205169677734,0.03851747512817383,0.02144908905029297
1701713553778262500,11.301262451171874,-0.03963136672973633,0.03921222686767578,0.016777992248535156
1701713553787857400,11.310857421875,-0.059424400329589844,0.02375507354736328,0.03394794464111328
1701713553797451500,11.320451416015626,-0.05322837829589844,0.006712436676025391,0.0654306411743164
1701713553807045000,11.330045166015625,-0.040505409240722656,-0.002528667449951172,0.06834173202514648
1701713553816639200,11.33963916015625,-0.05608177185058594,0.028446197509765625,0.04793739318847656
1701713553826234400,11.349234375,-0.07571268081665039,-0.04010725021362305,0.07052230834960938
1701713553835828500,11.358828369140625,-0.0344538688659668,0.12405586242675781,-0.026792049407958984
1701713553845422000,11.368422119140625,-0.03433799743652344,0.0484466552734375,0.005240440368652344
1701713553855016200,11.37801611328125,-0.051085472106933594,0.028917789459228516,0.027904033660888672
1701713553864611300,11.387611328125,-0.05132341384887695,0.06900978088378906,0.017643451690673828
1701713553874205400,11.397205322265625,-0.03042459487915039,0.09468269348144531,0.00572967529296875
1701713553883799000,11.406799072265626,-0.07819795608520508,0.08498048782348633,-0.0007476806640625
1701713553893393200,11.41639306640625,-0.06431007385253906,0.0712738037109375,0.028670787811279297
1701713553902988300,11.42598828125,-0.03232097625732422,0.0748753547668457,0.039168357849121094
1701713553912582400,11.43558251953125,-0.05746173858642578,0.07154321670532227,0.030923843383789062
1701713553922175700,11.44517578125,-0.08217859268188477,0.04008769989013672,0.05363321304321289
1701713553931770000,11.45477001953125,-0.07611322402954102,0.025829315185546875,0.07139015197753906
1701713553941365200,11.464365234375,-0.04228973388671875,0.028708457946777344,0.07031488418579102
1701713553950959400,11.47395947265625,-0.02581310272216797,0.07192230224609375,0.05544567108154297
1701713553960552700,11.483552734375,-0.02415323257446289,0.06763267517089844,0.04565000534057617
1701713553970146800,11.493146728515624,-0.04892587661743164,0.044879913330078125,0.03604412078857422
1701713553979742000,11.502741943359375,-0.024406909942626953,0.05357933044433594,0.02682352066040039
1701713553989336000,11.512336181640626,-0.017115116119384766,0.03198862075805664,0.02292156219482422
1701713553998929700,11.5219296875,-0.06400823593139648,-0.12808656692504883,0.07590627670288086
1701713554008523800,11.531523681640625,-0.04504060745239258,0.1698312759399414,-0.10671329498291016
1701713554018119000,11.541118896484376,-0.036507606506347656,0.06592416763305664,-0.035832881927490234
1701713554027713000,11.550713134765624,-0.05685853958129883,0.025832176208496094,-0.0051784515380859375
1701713554037306600,11.560306640625,-0.06808996200561523,0.03665494918823242,-0.00017404556274414062
1701713554046900700,11.569900634765625,-0.07709646224975586,0.05034208297729492,-0.00843954086303711
1701713554056495900,11.579495849609375,-0.06527519226074219,0.05298662185668945,-0.01775646209716797
1701713554066090000,11.589090087890625,-0.03831195831298828,0.05916452407836914,-0.011847496032714844
1701713554075683300,11.598683349609376,-0.048206329345703125,0.0617365837097168,-0.0356292724609375
1701713554085277700,11.608277587890624,-0.05403900146484375,0.10558128356933594,-0.03867959976196289
1701713554094872800,11.617872802734375,-0.0842142105102539,0.0815882682800293,-0.009813785552978516
1701713554104467000,11.627467041015626,-0.11714553833007812,0.06384706497192383,-0.0013461112976074219
1701713554114060300,11.637060302734374,-0.11502742767333984,0.08990287780761719,0.04369068145751953
1701713554123654700,11.646654541015625,-0.11404085159301758,0.09796380996704102,0.06582260131835938
1701713554133249500,11.65624951171875,-0.15195178985595703,0.12843036651611328,0.06315183639526367
1701713554142844000,11.665843994140625,-0.14324569702148438,0.16452312469482422,0.08820056915283203
1701713554152437200,11.675437255859375,-0.2042222023010254,0.10944366455078125,0.12127113342285156
1701713554162031400,11.68503125,-0.2306652069091797,0.03513288497924805,0.20611810684204102
1701713554171626500,11.69462646484375,-0.17483997344970703,0.033998966217041016,0.23055124282836914
1701713554181220900,11.704220947265625,-0.12041902542114258,0.045932769775390625,0.27811574935913086
1701713554190814200,11.713814208984376,-0.10469913482666016,0.08710575103759766,0.2898850440979004
1701713554200408300,11.723408203125,-0.1363377571105957,0.14040613174438477,0.285247802734375
1701713554210003500,11.73300341796875,-0.13346529006958008,0.20528125762939453,0.3215522766113281
1701713554219597600,11.74259765625,-0.13645553588867188,0.2510862350463867,0.32807350158691406
1701713554229191200,11.752191162109375,-0.20368099212646484,0.2733321189880371,0.32445526123046875
1701713554238785300,11.761785400390625,-0.20473575592041016,0.3079953193664551,0.32778024673461914
1701713554248380400,11.77138037109375,-0.22358369827270508,0.3456583023071289,0.2932157516479492
1701713554257974500,11.780974609375,-0.22267532348632812,0.31102609634399414,0.2495102882385254
1701713554267567900,11.79056787109375,-0.2183833122253418,0.2449793815612793,0.3403968811035156
1701713554277162200,11.800162353515624,-0.23534584045410156,0.4783034324645996,0.14026212692260742
1701713554286757400,11.80975732421875,-0.23328304290771484,0.4505476951599121,0.19110393524169922
1701713554296351500,11.8193515625,-0.23377275466918945,0.3187737464904785,0.22695589065551758
1701713554305944800,11.82894482421875,-0.19977235794067383,0.26137304306030273,0.17956042289733887
1701713554315539200,11.838539306640625,-0.4460172653198242,-0.11453056335449219,-0.08203387260437012
1701713554325134000,11.848134033203126,0.09814643859863281,-1.1783056259155273,0.27147769927978516
1701713554334728400,11.857728515625,-0.1988539695739746,0.7182698249816895,0.2473597526550293
1701713554344321800,11.86732177734375,-0.16256999969482422,0.96148681640625,0.20789527893066406
1701713554353916200,11.876916259765625,-0.20626068115234375,0.6867427825927734,0.33472156524658203
