time,seconds_elapsed,z,y,x
1701857625794041300,0.158041259765625,0.014660334214568138,-1.7268651723861694,0.4414898455142975
1701857625803826400,0.167826416015625,0.29442837834358215,-1.6156909465789795,0.36818817257881165
1701857625813611500,0.177611572265625,0.5473191738128662,-1.277281641960144,0.2533488869667053
1701857625823396600,0.187396728515625,0.7684458494186401,-0.9119949340820312,0.07742489129304886
1701857625833181700,0.197181640625,0.9345963001251221,-0.5625903010368347,-0.15347537398338318
1701857625842966500,0.206966552734375,1.0445488691329956,-0.14095300436019897,-0.42957833409309387
1701857625852751600,0.216751708984375,1.0714260339736938,-0.0065666078589856625,-0.6897992491722107
1701857625862536700,0.22653662109375,0.9785773158073425,-0.12629267573356628,-0.8693883419036865
1701857625872321800,0.23632177734375,0.8441908955574036,-0.30099499225616455,-0.936581552028656
1701857625882107000,0.24610693359375,0.7745543122291565,-0.45141613483428955,-0.9060391783714294
1701857625891891700,0.2558916015625,0.781884491443634,-0.6810947060585022,-0.8791618943214417
1701857625901676800,0.2656767578125,0.6071822047233582,-1.1697725057601929,-0.9891144037246704
1701857625911461600,0.275461669921875,0.24311721324920654,-1.45198392868042,-1.0673028230667114
1701857625921246700,0.285246826171875,-0.05375456064939499,-1.2320789098739624,-0.9451334476470947
1701857625931031800,0.29503173828125,-0.18814095854759216,-0.9486457705497742,-0.724006712436676
1701857625940816600,0.304816650390625,-0.18936264514923096,-0.6444438695907593,-0.5053234100341797
1701857625950601700,0.314601806640625,-0.10873081535100937,-0.2667875289916992,-0.31351736187934875
1701857625960386800,0.32438671875,-0.009773556143045425,0.05329642444849014,-0.19989976286888123
1701857625970171600,0.334171630859375,0.08307522535324097,0.19867807626724243,-0.15958385169506073
1701857625979956700,0.343956787109375,0.1453816443681717,0.17302247881889343,-0.13270656764507294
1701857625989741800,0.353741943359375,0.13438639044761658,0.055739812552928925,-0.06551336497068405
1701857625999526700,0.363526611328125,0.05375456064939499,-0.1495048701763153,0.021226942539215088
1701857626009311700,0.373311767578125,-0.03298575058579445,-0.45019441843032837,0.09575030952692032
1701857626019096800,0.383096923828125,-0.06719319522380829,-0.70797199010849,0.18249061703681946
1701857626028881700,0.392881591796875,-0.05619794875383377,-0.8765658140182495,0.3107685446739197
1701857626038666800,0.402666748046875,-0.0525328628718853,-0.9767447710037231,0.47325390577316284
1701857626048451800,0.412451904296875,-0.08796200156211853,-0.9950701594352722,0.6358919739723206
1701857626058236700,0.422236572265625,-0.15149012207984924,-0.9400939345359802,0.7556180357933044
1701857626068021800,0.432021728515625,-0.2235700935125351,-0.8631271719932556,0.7922688722610474
1701857626077806800,0.441806884765625,-0.2761029601097107,-0.7959339618682861,0.7470661997795105
1701857626087591700,0.451591796875,-0.2907632887363434,-0.7556180357933044,0.648108959197998
1701857626097376800,0.461376708984375,-0.26877278089523315,-0.739736020565033,0.5296045541763306
1701857626107161900,0.471161865234375,-0.22723518311977386,-0.739736020565033,0.4121691882610321
1701857626116946700,0.48094677734375,-0.19302773475646973,-0.7727217674255371,0.31443363428115845
1701857626126731800,0.490731689453125,-0.19302773475646973,-0.8154810667037964,0.2545706033706665
1701857626136516900,0.500516845703125,-0.22967857122421265,-0.8276980519294739,0.2289150059223175
1701857626146301700,0.5103017578125,-0.29320669174194336,-0.8032641410827637,0.21425467729568481
1701857626156078000,0.520078125,-0.3567348122596741,-0.7372926473617554,0.18371231853961945
1701857626165672000,0.529671875,-0.3823903799057007,-0.6139014959335327,0.12629267573356628
1701857626175265000,0.53926513671875,-0.34451785683631897,-0.42072105407714844,0.04932591691613197
1701857626184857000,0.548857177734375,-0.25777754187583923,-0.2154763638973236,-0.04107947647571564
1701857626194450200,0.5584501953125,-0.1575985997915268,-0.0725381150841713,-0.1375933438539505
1701857626204044000,0.5680439453125,-0.062306419014930725,0.01175880990922451,-0.22189027070999146
1701857626213637000,0.57763720703125,0.01832541823387146,0.04352286830544472,-0.2670929729938507
1701857626223229200,0.587229248046875,0.07452336698770523,0.004428642801940441,-0.26220619678497314
1701857626232822300,0.596822265625,0.08918370306491852,-0.09208522737026215,-0.20234315097332
1701857626242416000,0.606416015625,0.05131116881966591,-0.17393875122070312,-0.09972081333398819
1701857626252009200,0.61600927734375,-0.029320668429136276,-0.19837264716625214,0.018783552572131157
1701857626261601500,0.6256015625,-0.11483928561210632,-0.18615570664405823,0.12262758612632751
1701857626271194400,0.6351943359375,-0.16737215220928192,-0.14583978056907654,0.188599094748497
1701857626280788200,0.644788330078125,-0.16859383881092072,-0.05787777900695801,0.21303297579288483
1701857626290381300,0.65438134765625,-0.129499614238739,0.04840964451432228,0.1910424828529358
1701857626299973600,0.6639736328125,-0.07696675509214401,0.13148486614227295,0.1250709742307663
1701857626309566700,0.673566650390625,-0.023212196305394173,0.1889045089483261,0.028557108715176582
1701857626319160600,0.68316064453125,0.021990500390529633,0.19989976286888123,-0.07773031294345856
1701857626328753400,0.69275341796875,0.043981000781059265,0.20356485247612,-0.1522536724805832
1701857626338345700,0.702345703125,0.04153761267662048,0.24876753985881805,-0.17913095653057098
1701857626347938600,0.7119384765625,0.024433890357613564,0.3171824514865875,-0.16813570261001587
1701857626357532400,0.721532470703125,0.004886778071522713,0.39170581102371216,-0.1388150453567505
1701857626367125500,0.73112548828125,-0.0012216945178806782,0.48577627539634705,-0.10949437320232391
1701857626376717800,0.7407177734375,0.028098974376916885,0.6103891134262085,-0.08994726091623306
1701857626386311000,0.750310791015625,0.08674030750989914,0.760657548904419,-0.09116895496845245
1701857626395904800,0.75990478515625,0.1588202863931656,0.9219212532043457,-0.1107160672545433
1701857626405497600,0.76949755859375,0.22845686972141266,1.0587509870529175,-0.14736689627170563
1701857626415090000,0.77908984375,0.2858765125274658,1.121057391166687,-0.19379130005836487
1701857626424683000,0.78868310546875,0.31886225938796997,1.1015102863311768,-0.2292204350233078
1701857626434276900,0.79827685546875,0.3286358118057251,1.0269869565963745,-0.23410721123218536
1701857626443869700,0.80786962890625,0.32130566239356995,0.8974873423576355,-0.20356485247612
1701857626453462000,0.8174619140625,0.31031039357185364,0.7301151752471924,-0.14614520967006683
1701857626463055000,0.82705517578125,0.3017585575580597,0.5383091568946838,-0.0716218426823616
1701857626472649000,0.83664892578125,0.3017585575580597,0.3501681983470917,0.007788302376866341
1701857626482241800,0.84624169921875,0.32252734899520874,0.19379130005836487,0.08231166750192642
1701857626491834000,0.855834228515625,0.367730051279068,0.09239064902067184,0.1519482582807541
1701857626501427200,0.86542724609375,0.4202629029750824,0.04840964451432228,0.21303297579288483
1701857626511021000,0.87502099609375,0.4618005156517029,0.037414394319057465,0.2570139765739441
1701857626520614000,0.88461376953125,0.4825693368911743,0.017867282032966614,0.27411770820617676
1701857626530206200,0.894206298828125,0.47768256068229675,-0.0029015245381742716,0.2692309319972992
1701857626539799300,0.90379931640625,0.45202696323394775,0.012980503961443901,0.26190075278282166
1701857626549393200,0.91339306640625,0.4202629029750824,0.07040014863014221,0.25090551376342773
1701857626558986200,0.922986328125,0.393385648727417,0.10216420143842697,0.22402822971343994
1701857626568578300,0.932578369140625,0.37506023049354553,0.08750387281179428,0.1776038408279419
1701857626578171400,0.94217138671875,0.3665083646774292,0.054518118500709534,0.12629267573356628
1701857626587765200,0.95176513671875,0.3665083646774292,0.0032069480512291193,0.08231166750192642
1701857626597358300,0.9613583984375,0.37383851408958435,-0.03833066672086716,0.052990999072790146
1701857626606950400,0.970950439453125,0.3921639323234558,-0.03833066672086716,0.03955236077308655
1701857626616543500,0.98054345703125,0.41171106696128845,-0.020005248486995697,0.037108972668647766
1701857626626137300,0.990137451171875,0.42637139558792114,-0.012675080448389053,0.03955236077308655
1701857626635730400,0.99973046875,0.42514967918395996,-0.01511846948415041,0.04688252881169319
1701857626645322800,1.00932275390625,0.393385648727417,-0.005344913341104984,0.06154286116361618
1701857626654915600,1.01891552734375,0.34451785683631897,0.009315420873463154,0.07864658534526825
1701857626664509400,1.028509521484375,0.29565006494522095,0.016645587980747223,0.08231166750192642
1701857626674102500,1.0381025390625,0.25777754187583923,0.02641914412379265,0.06642963737249374
1701857626683694800,1.04769482421875,0.2357870489358902,0.03497100621461868,0.031000498682260513
1701857626693287700,1.05728759765625,0.21868331730365753,0.016645587980747223,-0.015423892997205257
1701857626702881500,1.066881591796875,0.1954711228609085,-0.013896775431931019,-0.055739812552928925
1701857626712474600,1.076474609375,0.17470231652259827,-0.031000498682260513,-0.07895200699567795
1701857626722067000,1.08606689453125,0.16370706260204315,-0.04443913698196411,-0.08628217875957489
1701857626731659800,1.09565966796875,0.1453816443681717,-0.06520794332027435,-0.0850604772567749
1701857626741254000,1.10525390625,0.11606097966432571,-0.051769305020570755,-0.06429167091846466
1701857626750846700,1.1148466796875,0.08551861345767975,0.004428642801940441,-0.03130592033267021
1701857626760439000,1.12443896484375,0.05497625470161438,0.06429167091846466,-0.009315420873463154
1701857626770032000,1.1340322265625,0.025655584409832954,0.11315945535898209,-0.004428642801940441
1701857626779626000,1.1436259765625,-0.0024433890357613564,0.15836215019226074,-0.005650337319821119
1701857626789218800,1.15321875,-0.03542914241552353,0.20600824058055878,-0.0032069480512291193
1701857626798811100,1.16281103515625,-0.06963659077882767,0.23532891273498535,-0.0032069480512291193
1701857626808404200,1.172404296875,-0.10262233763933182,0.23532891273498535,-0.012980503961443901
1701857626817998000,1.181998046875,-0.12705622613430023,0.21944688260555267,-0.023975754156708717
1701857626827591000,1.1915908203125,-0.13560809195041656,0.20967331528663635,-0.03374931216239929
1701857626837183200,1.201183349609375,-0.13316470384597778,0.20600824058055878,-0.036192700266838074
1701857626846776300,1.2107763671875,-0.13927318155765533,0.2170034945011139,-0.017867282032966614
1701857626856370200,1.2203701171875,-0.1441599577665329,0.2304421216249466,0.009009997360408306
1701857626865963000,1.229962890625,-0.1429382562637329,0.21822518110275269,0.028557108715176582
1701857626875555300,1.239555419921875,-0.13805148005485535,0.1766875684261322,0.034665580838918686
1701857626885148400,1.2491484375,-0.13438639044761658,0.1253764033317566,0.034665580838918686
1701857626894742300,1.2587421875,-0.1172826737165451,0.08261708915233612,0.032222192734479904
1701857626904335400,1.26833544921875,-0.09529217332601547,0.039857782423496246,0.02244863659143448
1701857626913927400,1.277927490234375,-0.08918370306491852,0.001985253533348441,0.009009997360408306
1701857626923520500,1.2875205078125,-0.09895725548267365,-0.02733541466295719,-0.010537114925682545
1701857626933114400,1.2971142578125,-0.10628741979598999,-0.04321744292974472,-0.03130592033267021
1701857626942707200,1.306707275390625,-0.10262233763933182,-0.028557108715176582,-0.05085303261876106
1701857626952299500,1.316299560546875,-0.08551861345767975,-0.0016798300202935934,-0.0716218426823616
1701857626961892600,1.325892578125,-0.062306419014930725,0.020310672000050545,-0.09483403712511063
1701857626971486500,1.335486572265625,-0.03542914241552353,0.0459662564098835,-0.10827267915010452
1701857626981079600,1.34507958984375,-0.0012216945178806782,0.0716218426823616,-0.10582929104566574
1701857626990671600,1.354671630859375,0.03542914241552353,0.06673506647348404,-0.09972081333398819
1701857627000264700,1.3642646484375,0.06719319522380829,0.03497100621461868,-0.08994726091623306
1701857627009858600,1.373858642578125,0.09773556143045425,-0.017561858519911766,-0.07406523078680038
1701857627019451600,1.38345166015625,0.12094775587320328,-0.09697200357913971,-0.05329642444849014
1701857627029043700,1.393043701171875,0.129499614238739,-0.20081603527069092,-0.02641914412379265
1701857627038636800,1.40263671875,0.12216944992542267,-0.2973299026489258,0.018783552572131157
1701857627048230700,1.412230712890625,0.09651386737823486,-0.3852919042110443,0.07620319724082947
1701857627057823700,1.42182373046875,0.05497625470161438,-0.446529358625412,0.13117945194244385
1701857627067416000,1.431416015625,0.02076880633831024,-0.469741553068161,0.1629435122013092
1701857627077009000,1.4410087890625,0.0036650835536420345,-0.4734066128730774,0.164165198802948
1701857627086602800,1.450602783203125,0.004886778071522713,-0.46241137385368347,0.13973131775856018
1701857627096195800,1.46019580078125,0.01710372418165207,-0.4428642690181732,0.10308047384023666
1701857627105788200,1.4697880859375,0.025655584409832954,-0.4416425824165344,0.06765133142471313
1701857627115381200,1.47938134765625,0.02076880633831024,-0.45385950803756714,0.04688252881169319
1701857627124975000,1.48897509765625,-0.0036650835536420345,-0.4819584786891937,0.04688252881169319
1701857627134568000,1.49856787109375,-0.046424392610788345,-0.5063923597335815,0.05543438717722893
1701857627144160300,1.50816015625,-0.09407047927379608,-0.5051707029342651,0.06276455521583557
1701857627153753300,1.51775341796875,-0.13927318155765533,-0.4819584786891937,0.0590994730591774
1701857627163347200,1.52734716796875,-0.16615045070648193,-0.4294256269931793,0.04443913698196411
1701857627172940000,1.53693994140625,-0.16248537600040436,-0.3571929335594177,0.02244863659143448
1701857627182532400,1.546532470703125,-0.14171656966209412,-0.2802261710166931,0.0029015245381742716
1701857627192125400,1.55612548828125,-0.1185043677687645,-0.21425467729568481,-0.0032069480512291193
1701857627201719300,1.56571923828125,-0.09651386737823486,-0.1776038408279419,0.005344913341104984
1701857627211312000,1.57531201171875,-0.08185353130102158,-0.18737739324569702,0.02733541466295719
1701857627220904400,1.584904541015625,-0.08307522535324097,-0.23258009552955627,0.06154286116361618
1701857627230497500,1.59449755859375,-0.10017894953489304,-0.2838912606239319,0.10063708573579788
1701857627240091400,1.60409130859375,-0.12461283802986145,-0.34253260493278503,0.1360662281513214
1701857627249684200,1.613684326171875,-0.15515519678592682,-0.3962871730327606,0.16783028841018677
1701857627259276500,1.623276611328125,-0.1832541823387146,-0.41949936747550964,0.1910424828529358
1701857627268869600,1.63286962890625,-0.20280128717422485,-0.42194274067878723,0.19470755755901337
1701857627278463500,1.64246337890625,-0.21868331730365753,-0.41705596446990967,0.17271706461906433
1701857627288056300,1.652056396484375,-0.2223484069108963,-0.3975088596343994,0.12873606383800507
1701857627297648600,1.661648681640625,-0.2101314514875412,-0.3633013963699341,0.0725381150841713
1701857627307241700,1.67124169921875,-0.19180603325366974,-0.33031564950942993,0.007788302376866341
1701857627316835600,1.680835693359375,-0.17348061501979828,-0.29977330565452576,-0.055739812552928925
1701857627326428700,1.6904287109375,-0.15271180868148804,-0.270452618598938,-0.10338589549064636
1701857627336020700,1.700020751953125,-0.13560809195041656,-0.2533488869667053,-0.13514995574951172
1701857627345613800,1.70961376953125,-0.12461283802986145,-0.2423536479473114,-0.14370182156562805
1701857627355207700,1.719207763671875,-0.1185043677687645,-0.23868857324123383,-0.1363716572523117
1701857627364800800,1.72880078125,-0.11239589750766754,-0.25090551376342773,-0.1253764033317566
1701857627374392800,1.738392822265625,-0.11239589750766754,-0.27411770820617676,-0.10827267915010452
1701857627383986000,1.74798583984375,-0.12461283802986145,-0.296108216047287,-0.07895200699567795
1701857627393579800,1.757579833984375,-0.13805148005485535,-0.2973299026489258,-0.05329642444849014
1701857627403172900,1.7671728515625,-0.14049486815929413,-0.2826695740222931,-0.04230117425322533
1701857627412765000,1.776764892578125,-0.130721315741539,-0.2570139765739441,-0.054518118500709534
1701857627422358000,1.78635791015625,-0.1185043677687645,-0.21914145350456238,-0.08017370104789734
1701857627431952000,1.795951904296875,-0.10750912129878998,-0.16905197501182556,-0.10949437320232391
1701857627441545000,1.805544921875,-0.09895725548267365,-0.11896250396966934,-0.14003673195838928
1701857627451137300,1.81513720703125,-0.09040539711713791,-0.07620319724082947,-0.1656923145055771
1701857627460730000,1.824730224609375,-0.08307522535324097,-0.04932591691613197,-0.18279604613780975
1701857627470324000,1.834323974609375,-0.08674030750989914,-0.04443913698196411,-0.1901262104511261
1701857627479917000,1.8439169921875,-0.09773556143045425,-0.06032116711139679,-0.18646112084388733
1701857627489509400,1.85350927734375,-0.10995250940322876,-0.0847550556063652,-0.16935740411281586
1701857627499102200,1.863102294921875,-0.11972606182098389,-0.10308047384023666,-0.14492350816726685
1701857627508696000,1.872696044921875,-0.12216944992542267,-0.10185877978801727,-0.12171131372451782
1701857627518289200,1.8822890625,-0.11117420345544815,-0.06887302547693253,-0.10338589549064636
1701857627527881500,1.891881591796875,-0.08918370306491852,-0.016340164467692375,-0.08872556686401367
1701857627537474300,1.901474365234375,-0.07452336698770523,0.039857782423496246,-0.08261708915233612
1701857627547068200,1.911068115234375,-0.07574506103992462,0.0850604772567749,-0.08994726091623306
1701857627556661200,1.9206611328125,-0.08185353130102158,0.1119377613067627,-0.10705098509788513
1701857627566253600,1.930253662109375,-0.08796200156211853,0.11926792562007904,-0.1241547018289566
1701857627575846700,1.9398466796875,-0.10017894953489304,0.12048961967229843,-0.13026317954063416
1701857627585440500,1.9494404296875,-0.10995250940322876,0.11315945535898209,-0.12171131372451782
1701857627595033300,1.959033447265625,-0.1172826737165451,0.09361234307289124,-0.10338589549064636
1701857627604625700,1.968625732421875,-0.11361759155988693,0.072843536734581,-0.08139539510011673
1701857627614218800,1.97821875,-0.09773556143045425,0.037414394319057465,-0.058183200657367706
1701857627623812600,1.9878125,-0.07085828483104706,0.0068720318377017975,-0.0325276181101799
1701857627633405400,1.997405517578125,-0.03542914241552353,-0.02733541466295719,-0.004428642801940441
1701857627642997800,2.006997802734375,-0.013438640162348747,-0.08842013776302338,0.016340164467692375
1701857627652590800,2.0165908203125,-0.01832541823387146,-0.14583978056907654,0.033443886786699295
1701857627662184700,2.026184814453125,-0.03298575058579445,-0.1776038408279419,0.04321744292974472
1701857627671777500,2.035777587890625,-0.04031591862440109,-0.18371231853961945,0.037108972668647766
1701857627681369900,2.045369873046875,-0.045202698558568954,-0.16660858690738678,0.005344913341104984
1701857627690963000,2.054962890625,-0.05008947476744652,-0.13240113854408264,-0.054518118500709534
1701857627700556800,2.064556884765625,-0.05008947476744652,-0.0859767496585846,-0.1253764033317566
1701857627710149600,2.074149658203125,-0.046424392610788345,-0.03588727489113808,-0.19867807626724243
1701857627719742000,2.083741943359375,-0.04886778071522713,0.001985253533348441,-0.2548760175704956
1701857627729335000,2.0933349609375,-0.05619794875383377,0.025197450071573257,-0.2817533016204834
1701857627738929000,2.102928955078125,-0.061084724962711334,0.016645587980747223,-0.27808821201324463
1701857627748521700,2.112521728515625,-0.061084724962711334,-0.017561858519911766,-0.2548760175704956
1701857627758114000,2.122114013671875,-0.05497625470161438,-0.0590994730591774,-0.22066856920719147
1701857627767707100,2.13170703125,-0.043981000781059265,-0.10430216789245605,-0.18646112084388733
1701857627777301000,2.141301025390625,-0.03665083646774292,-0.1519482582807541,-0.16080553829669952
1701857627786893800,2.150893798828125,-0.042759306728839874,-0.19592925906181335,-0.14736689627170563
1701857627796486100,2.160486083984375,-0.05741964280605316,-0.20570281147956848,-0.14370182156562805
1701857627806079200,2.170079345703125,-0.0659715011715889,-0.1629435122013092,-0.1522536724805832
1701857627815673000,2.179673095703125,-0.06719319522380829,-0.10185877978801727,-0.17424418032169342
1701857627825266000,2.189265869140625,-0.05741964280605316,-0.04688252881169319,-0.20722992718219757
1701857627834858200,2.198858154296875,-0.04153761267662048,-0.005344913341104984,-0.24021568894386292
1701857627844451300,2.208451416015625,-0.024433890357613564,0.008093725889921188,-0.26342788338661194
1701857627854045200,2.218045166015625,-0.009773556143045425,-0.02367033064365387,-0.2695363461971283
1701857627863638300,2.22763818359375,-0.0012216945178806782,-0.09941539168357849,-0.26464956998825073
1701857627873230300,2.237230224609375,0.0012216945178806782,-0.18371231853961945,-0.24998924136161804
1701857627882823400,2.246823486328125,-0.0012216945178806782,-0.2533488869667053,-0.23410721123218536
1701857627892417300,2.256417236328125,-0.01832541823387146,-0.30099499225616455,-0.22311195731163025
1701857627902010400,2.26601025390625,-0.03298575058579445,-0.2790044844150543,-0.22189027070999146
1701857627911602400,2.2756025390625,-0.04031591862440109,-0.19959434866905212,-0.22433365881443024
1701857627921195500,2.285195556640625,-0.047646086663007736,-0.08842013776302338,-0.22555534541606903
1701857627930789400,2.294789306640625,-0.04031591862440109,0.06062658876180649,-0.20967331528663635
1701857627940382500,2.304382568359375,-0.024433890357613564,0.20967331528663635,-0.16813570261001587
1701857627949974500,2.313974609375,-0.03298575058579445,0.3171824514865875,-0.09239064902067184
1701857627959567600,2.323567626953125,-0.03298575058579445,0.335507869720459,-0.02764083817601204
1701857627969161500,2.333161376953125,0.03542914241552353,0.26342788338661194,-0.004428642801940441
1701857627978754600,2.342754638671875,0.1453816443681717,0.072843536734581,-0.022754060104489326
1701857627988346600,2.3523466796875,0.24433889985084534,-0.21791976690292358,-0.08383878320455551
1701857627997939700,2.361939697265625,0.3432961702346802,-0.4831801950931549,-0.15714046359062195
1701857628007533600,2.371533447265625,0.4471401870250702,-0.6432221531867981,-0.19623468816280365
1701857628017126700,2.381126708984375,0.5338805317878723,-0.791047215461731,-0.1901262104511261
1701857628026718700,2.39071875,0.6352811455726624,-0.9315420985221863,-0.13392825424671173
1701857628036311800,2.400311767578125,0.7598940134048462,-1.0439379215240479,0.007788302376866341
1701857628045905700,2.40990576171875,0.9028322696685791,-1.2027583122253418,0.21425467729568481
1701857628055498800,2.419498779296875,1.0836430788040161,-1.4556490182876587,0.41705596446990967
1701857628065090800,2.4290908203125,1.3108782768249512,-1.719534993171692,0.5967977643013
1701857628074684000,2.438683837890625,1.5747642517089844,-1.947991967201233,0.7776085734367371
1701857628084277800,2.44827783203125,1.8630841970443726,-2.164231777191162,0.9962918758392334
1701857628093870800,2.457870849609375,2.1355221271514893,-2.4146792888641357,1.2882769107818604
1701857628103463200,2.467463134765625,2.330993175506592,-2.6834518909454346,1.6303513050079346
1701857628113056000,2.477055908203125,2.5814404487609863,-2.924125909805298,1.9308881759643555
1701857628122649900,2.48664990234375,2.9406187534332275,-3.014531135559082,2.1544582843780518
1701857628132243000,2.496242919921875,3.23749041557312,-2.8141732215881348,2.424452781677246
1701857628141835300,2.505835205078125,3.4781641960144043,-2.4085707664489746,2.7701923847198486
1701857628151428000,2.515427978515625,3.671191930770874,-1.938218355178833,3.1696863174438477
1701857628161022000,2.52502197265625,3.8287906646728516,-1.5729316473007202,3.6229350566864014
1701857628170615000,2.534614990234375,3.9619553089141846,-1.323706030845642,4.106726169586182
1701857628180207000,2.54420703125,4.063355922698975,-1.0427162647247314,4.573413372039795
1701857628189800200,2.55380029296875,4.162312984466553,-0.6517740488052368,4.99978494644165
1701857628199394000,2.56339404296875,4.291965484619141,-0.11407572776079178,5.363849639892578
1701857628208987100,2.572987060546875,4.44589900970459,0.5212054252624512,5.630179405212402
1701857628218579500,2.582579345703125,4.635261535644531,1.1235008239746094,5.786556243896484
1701857628228172300,2.59217236328125,4.871048927307129,1.4765704870224,5.826871871948242
1701857628237766100,2.60176611328125,5.137378215789795,1.3690614700317383,5.724249839782715
1701857628247359200,2.611359130859375,5.341401100158691,0.649483323097229,5.411495685577393
1701857628256951600,2.62095166015625,5.398820877075195,-0.4343124032020569,4.9167094230651855
1701857628266544400,2.63054443359375,5.390268802642822,-1.1123528480529785,4.479342937469482
1701857628276138200,2.64013818359375,5.389047145843506,-1.073258638381958,4.206904888153076
1701857628285731300,2.6497314453125,5.458683967590332,-0.6810947060585022,4.010212421417236
1701857628295323600,2.65932373046875,5.644381523132324,-0.3107685446739197,3.7854204177856445
1701857628304916500,2.66891650390625,5.843517780303955,-0.2435753494501114,3.471445083618164
1701857628314510300,2.67851025390625,5.94369649887085,-0.5112791657447815,3.086611270904541
1701857628324103400,2.688103515625,5.898493766784668,-0.8851176500320435,2.7591969966888428
1701857628333695700,2.69769580078125,5.733564853668213,-1.1954281330108643,2.5710561275482178
1701857628343288600,2.70728857421875,5.527098655700684,-1.4238849878311157,2.494089365005493
1701857628352882400,2.71688232421875,5.374386787414551,-1.5753750801086426,2.4403347969055176
1701857628362475500,2.7264755859375,5.303528785705566,-1.6340163946151733,2.3364908695220947
1701857628372067800,2.73606787109375,5.304750442504883,-1.5937005281448364,2.1678969860076904
1701857628381660700,2.74566064453125,5.307193756103516,-1.4971866607666016,1.971204161643982
1701857628391254500,2.755254638671875,4.873492240905762,-1.905232548713684,1.4690876007080078
1701857628400847600,2.76484765625,4.113445281982422,-2.6810085773468018,0.448820024728775
1701857628410440000,2.77443994140625,3.7396068572998047,-2.933899402618408,-0.7166765332221985
1701857628420032800,2.78403271484375,3.364546775817871,-2.2607457637786865,-1.964026689529419
1701857628429627000,2.793626953125,2.5508980751037598,-0.43797749280929565,-2.5968644618988037
1701857628439219700,2.8032197265625,1.5051276683807373,2.1741580963134766,-2.230355978012085
1701857628448812000,2.81281201171875,0.8808417320251465,3.8515446186065674,-1.852852463722229
1701857628458404900,2.82240478515625,0.8991671800613403,4.244930267333984,-2.0092294216156006
1701857628467998700,2.831998779296875,1.2461284399032593,4.139864444732666,-2.3244266510009766
1701857628477591800,2.841591796875,1.4745852947235107,3.850322961807251,-2.444152593612671
1701857628487184100,2.85118408203125,1.5454435348510742,2.890071153640747,-2.2780020236968994
1701857628496777000,2.86077685546875,1.7433581352233887,1.1833637952804565,-1.6598247289657593
1701857628506370800,2.870370849609375,1.9290556907653809,-0.7055285573005676,-0.5627430081367493
1701857628515964000,2.8799638671875,1.9351640939712524,-2.3071701526641846,0.43049460649490356
1701857628525556200,2.88955615234375,1.8887397050857544,-3.1525826454162598,0.8081509470939636
1701857628535149000,2.899149169921875,1.9583762884140015,-3.130592107772827,0.8802309036254883
1701857628544743000,2.908742919921875,2.235701084136963,-2.597933292388916,0.6285618543624878
1701857628554336000,2.9183359375,2.516690731048584,-1.8905723094940186,0.23746687173843384
1701857628563928300,2.92792822265625,2.618091344833374,-1.4153331518173218,-0.058183200657367706
1701857628573521200,2.937521240234375,2.8392181396484375,-1.1147962808609009,-0.38071054220199585
1701857628583115000,2.947114990234375,3.05423641204834,-0.9119949340820312,-0.6360446810722351
1701857628592708000,2.9567080078125,3.164188861846924,-0.8130376935005188,-0.8119687438011169
1701857628602300400,2.966300537109375,2.967495918273926,-0.9828532338142395,-0.8290724158287048
1701857628611893200,2.975893310546875,2.875868797302246,-1.536280870437622,-0.6128324866294861
1701857628621487000,2.985487060546875,3.1629672050476074,-1.8734685182571411,-0.6629219651222229
1701857628631080200,2.995080078125,3.191066026687622,-1.4128897190093994,-1.0905150175094604
1701857628640672500,3.004672607421875,3.1312029361724854,-1.1025793552398682,-1.4582451581954956
1701857628650265300,3.014265380859375,2.910076379776001,-0.9266552925109863,-1.5095562934875488
1701857628659859200,3.023859130859375,2.7097184658050537,-0.6920899152755737,-1.3140851259231567
1701857628669452300,3.033452392578125,2.7097184658050537,-0.444085955619812,-0.9304730892181396
1701857628679044600,3.043044677734375,2.398186445236206,-0.6835380792617798,-0.5065450668334961
1701857628688637400,3.052637451171875,1.7433581352233887,-0.8350282311439514,0.04932591691613197
1701857628698231300,3.062231201171875,1.2400199174880981,-0.5992411375045776,0.4109475016593933
1701857628707824400,3.071824462890625,0.5741963982582092,-0.15561333298683167,0.3608580231666565
1701857628717416700,3.081416748046875,-0.08185353130102158,0.4808894991874695,0.2435753494501114
1701857628727009500,3.091009521484375,-0.6817055344581604,0.8596147894859314,0.2948864996433258
1701857628736603400,3.100603271484375,-1.236507534980774,0.8754968047142029,0.48791423439979553
1701857628746196500,3.110196533203125,-1.6812043190002441,0.964680552482605,0.739736020565033
1701857628755788800,3.119788818359375,-1.8119256496429443,1.1173923015594482,0.9571976661682129
1701857628765381600,3.129381591796875,-1.6787610054016113,1.3177502155303955,0.9559759497642517
1701857628774975500,3.1389755859375,-1.314695954322815,1.3996037244796753,0.7446228265762329
1701857628784568600,3.148568603515625,-0.8661814332008362,1.0685245990753174,0.5577035546302795
1701857628794160600,3.15816064453125,-0.48012593388557434,0.7301151752471924,0.5160132050514221
1701857628803753700,3.167753662109375,0.35795649886131287,0.2707580327987671,0.5662553906440735
1701857628813347600,3.17734765625,1.0482138395309448,0.18157434463500977,0.5074613690376282
1701857628822940700,3.186940673828125,1.5601038932800293,0.3086305856704712,0.3901786804199219
1701857628832533000,3.196532958984375,2.0500032901763916,0.3342861533164978,0.2655658423900604
1701857628842125800,3.206125732421875,2.313889503479004,0.23532891273498535,0.1507265567779541
1701857628851719700,3.2157197265625,2.216153860092163,0.038636088371276855,0.050547610968351364
1701857628861312800,3.225312744140625,1.8862963914871216,-0.22402822971343994,0.013896775431931019
1701857628870905000,3.234905029296875,1.5014625787734985,-0.5577035546302795,0.04810422286391258
1701857628880498000,3.244497802734375,1.3988401889801025,-1.003622055053711,0.111632339656353
1701857628890091800,3.254091796875,1.8838529586791992,-1.1709941625595093,0.13484452664852142
1701857628899684900,3.263684814453125,2.3969645500183105,-0.8985562920570374,0.10430216789245605
1701857628909277200,3.273277099609375,2.58021879196167,-0.648108959197998,0.07498150318861008
1701857628918870000,3.2828701171875,2.6535205841064453,-0.4575245976448059,0.017561858519911766
1701857628928464000,3.2924638671875,2.7182703018188477,-0.319320410490036,-0.10338589549064636
1701857628938057000,3.302056884765625,2.6889495849609375,-0.30221667885780334,-0.24021568894386292
1701857628947649000,3.31164892578125,2.487370014190674,-0.3205420970916748,-0.3574983477592468
1701857628957242000,3.3212421875,2.1599559783935547,-0.36574479937553406,-0.4259132444858551
1701857628966836000,3.3308359375,1.8007776737213135,-0.3352024257183075,-0.441795289516449
1701857628976429000,3.340428955078125,1.321873426437378,-0.2533488869667053,-0.3965925872325897
1701857628986021000,3.350021240234375,0.8600729703903198,-0.22647161781787872,-0.28908345103263855
1701857628995614200,3.3596142578125,0.5998520255088806,-0.2680092453956604,-0.12781979143619537
1701857629005208000,3.3692080078125,0.7183563709259033,-0.23380178213119507,0.04321744292974472
1701857629014801200,3.37880126953125,1.9058434963226318,-0.5125008225440979,-0.5517477989196777
1701857629024393200,3.388393310546875,2.9613873958587646,-1.0757020711898804,-0.5835118293762207
1701857629033986300,3.397986328125,2.8966376781463623,-0.5247178077697754,0.23868857324123383
1701857629043580200,3.407580078125,2.5533416271209717,0.14370182156562805,0.5906893014907837
1701857629053173200,3.41717333984375,2.5851056575775146,-0.28755635023117065,0.24846212565898895
1701857629062765300,3.426765380859375,2.5411245822906494,-0.14095300436019897,-0.1510319858789444
1701857629072358400,3.4363583984375,1.9608197212219238,-0.5821374654769897,-0.27686652541160583
1701857629081952300,3.4459521484375,1.1899304389953613,-1.0256125926971436,-0.4918847680091858
1701857629091545300,3.45554541015625,0.6120689511299133,-0.5894675850868225,-0.9817842841148376
1701857629101137400,3.465137451171875,0.3261924386024475,-0.10430216789245605,-1.3531793355941772
1701857629110730500,3.47473046875,0.3836120665073395,0.4136963188648224,-1.5486505031585693
1701857629120324400,3.484324462890625,0.3823903799057007,0.7569924592971802,-1.144269585609436
1701857629129917400,3.49391748046875,0.27121618390083313,0.2817533016204834,-0.3061871826648712
1701857629139509500,3.503509521484375,0.130721315741539,-0.2020377367734909,0.3352024257183075
1701857629149102600,3.5131025390625,-0.03542914241552353,-0.3730749487876892,0.5589252710342407
1701857629158696400,3.522696533203125,-0.36284327507019043,-0.3217637836933136,0.8570187091827393
1701857629168289300,3.532289306640625,-0.4837910234928131,-0.7898254990577698,0.9547542929649353
1701857629177881600,3.541881591796875,-0.5143333673477173,-0.9229902029037476,0.8826742768287659
1701857629187474700,3.551474609375,-0.6206207871437073,-0.5015056133270264,0.6823163628578186
1701857629197068500,3.561068603515625,-0.7012526392936707,-0.17882554233074188,0.42927291989326477
1701857629206661400,3.570661376953125,-0.601073682308197,-0.02244863659143448,0.18249061703681946
1701857629216253700,3.580253662109375,-0.24067382514476776,0.16813570261001587,-0.022754060104489326
1701857629225846800,3.5898466796875,-0.0916270911693573,0.4637857675552368,-0.18646112084388733
1701857629235440600,3.599440673828125,-0.09040539711713791,0.47233763337135315,-0.26464956998825073
1701857629245033500,3.609033447265625,-0.046424392610788345,0.4772244095802307,-0.30007871985435486
1701857629254625800,3.618625732421875,-0.0036650835536420345,0.4894413650035858,-0.27320143580436707
1701857629264219000,3.628218994140625,0.026877280324697495,0.5102101564407349,-0.23777230083942413
1701857629273812700,3.637812744140625,0.0390942245721817,0.5150969624519348,-0.16080553829669952
1701857629283405600,3.647405517578125,0.042759306728839874,0.5187620520591736,-0.11315945535898209
1701857629292998000,3.656997802734375,0.045202698558568954,0.5260922312736511,-0.10705098509788513
1701857629302591000,3.666591064453125,0.042759306728839874,0.51998370885849,-0.072843536734581
1701857629312184800,3.676184814453125,0.03542914241552353,0.5260922312736511,-0.03130592033267021
1701857629321777700,3.685777587890625,0.046424392610788345,0.5444176197052002,-0.023975754156708717
1701857629331370000,3.695369873046875,0.05986303091049194,0.5273138880729675,0.01511846948415041
1701857629340963000,3.704963134765625,0.08185353130102158,0.47233763337135315,0.0029015245381742716
1701857629350557000,3.714556884765625,0.10262233763933182,0.4246915578842163,-0.02641914412379265
1701857629360149800,3.724149658203125,0.12216944992542267,0.3746020793914795,-0.04474456235766411
1701857629369742000,3.7337421875,0.1441599577665329,0.34039464592933655,-0.07650861889123917
1701857629379335200,3.743335205078125,0.15149012207984924,0.3208475112915039,-0.08872556686401367
1701857629388929000,3.752928955078125,0.14782503247261047,0.2927485406398773,-0.06551336497068405
1701857629398521900,3.76252197265625,0.10873081535100937,0.2573194205760956,-0.010537114925682545
1701857629408114200,3.7721142578125,0.06352811306715012,0.1766875684261322,0.010231691412627697
1701857629417707300,3.781707275390625,0.0390942245721817,0.12293300777673721,0.016340164467692375
1701857629427301000,3.791301025390625,-0.012216945178806782,0.072843536734581,0.07009471952915192
1701857629436894000,3.80089404296875,-0.06963659077882767,0.017867282032966614,0.11774080991744995
1701857629446486300,3.810486328125,-0.10262233763933182,-0.010231691412627697,0.14095300436019897
1701857629456079400,3.820079345703125,-0.1319430023431778,-0.03955236077308655,0.17882554233074188
1701857629465673000,3.8296728515625,-0.16004198789596558,-0.07742489129304886,0.23624517023563385
1701857629475266000,3.83926611328125,-0.16737215220928192,-0.14461809396743774,0.2557922899723053
1701857629484858400,3.8488583984375,-0.1820324808359146,-0.18737739324569702,0.24601873755455017
1701857629494451200,3.858451171875,-0.16126367449760437,-0.22524993121623993,0.22402822971343994
1701857629504045000,3.868045166015625,-0.0659715011715889,-0.28755635023117065,0.16783028841018677
1701857629513638100,3.87763818359375,-0.024433890357613564,-0.3046600818634033,0.10063708573579788
1701857629523230500,3.88723046875,-0.029320668429136276,-0.296108216047287,0.0713164210319519
1701857629532823300,3.8968232421875,-0.02076880633831024,-0.31443363428115845,0.05787777900695801
1701857629542417200,3.906417236328125,0.007330167107284069,-0.34008920192718506,0.04199574887752533
1701857629552010200,3.91601025390625,0.04886778071522713,-0.36696648597717285,0.02367033064365387
1701857629561602300,3.925602294921875,0.08063183724880219,-0.399952232837677,0.011453386396169662
1701857629571195400,3.9351953125,0.11483928561210632,-0.444085955619812,0.018783552572131157
1701857629580789200,3.944789306640625,0.14660334587097168,-0.4856235682964325,0.03833066672086716
1701857629590382300,3.95438232421875,0.17714570462703705,-0.527161180973053,0.05421269312500954
1701857629599974400,3.963974365234375,0.20280128717422485,-0.5662553906440735,0.06765133142471313
1701857629609567500,3.9735673828125,0.20646637678146362,-0.578472375869751,0.08353336155414581
1701857629619161300,3.983161376953125,0.19424942135810852,-0.5772506594657898,0.08964183181524277
1701857629628754400,3.99275439453125,0.15149012207984924,-0.573585569858551,0.08842013776302338
1701857629638346500,4.002346435546875,0.10995250940322876,-0.5686988234519958,0.07864658534526825
1701857629647939600,4.011939697265625,0.09651386737823486,-0.5418215394020081,0.0725381150841713
1701857629657533400,4.021533447265625,0.09651386737823486,-0.5002838969230652,0.07375980913639069
1701857629667126500,4.03112646484375,0.09895725548267365,-0.46729815006256104,0.06032116711139679
1701857629676718600,4.040718505859375,0.129499614238739,-0.40850409865379333,0.037108972668647766
1701857629686311700,4.050311767578125,0.14904673397541046,-0.3486410677433014,0.01511846948415041
1701857629695905500,4.059905517578125,0.11483928561210632,-0.3498627543449402,-0.012980503961443901
1701857629705498600,4.06949853515625,0.07085828483104706,-0.376740038394928,-0.05329642444849014
1701857629715090700,4.079090576171875,0.03787253051996231,-0.40728241205215454,-0.08017370104789734
1701857629724683800,4.088683837890625,0.006108472589403391,-0.4330907166004181,-0.07406523078680038
1701857629734277600,4.098277587890625,-0.047646086663007736,-0.503948986530304,-0.04230117425322533
1701857629743870500,4.107870361328125,-0.11117420345544815,-0.6053496599197388,0.007788302376866341
1701857629753462800,4.117462890625,-0.16248537600040436,-0.6725428104400635,0.032222192734479904
1701857629763055900,4.127055908203125,-0.2101314514875412,-0.6126797795295715,0.03588727489113808
1701857629772649700,4.136649658203125,-0.2626643180847168,-0.43797749280929565,0.037108972668647766
1701857629782242600,4.14624267578125,-0.22479179501533508,-0.3694098889827728,0.08353336155414581
1701857629791835000,4.1558349609375,-0.06963659077882767,-0.3987305462360382,0.19470755755901337
1701857629801428000,4.165427978515625,0.09040539711713791,-0.35108447074890137,0.2814478874206543
1701857629811021800,4.175021728515625,0.20402298867702484,-0.2680092453956604,0.28633466362953186
1701857629820614700,4.18461474609375,0.2761029601097107,-0.13973131775856018,0.18126893043518066
1701857629830207000,4.19420703125,0.30908870697021484,-0.018783552572131157,-0.008093725889921188
1701857629839800000,4.203800048828125,0.3286358118057251,0.06062658876180649,-0.18157434463500977
1701857629849394000,4.213393798828125,0.36162158846855164,0.1107160672545433,-0.2438807636499405
1701857629858986800,4.22298681640625,0.41171106696128845,0.11560284346342087,-0.20234315097332
1701857629868579000,4.2325791015625,0.42392799258232117,0.04718795046210289,-0.09239064902067184
1701857629878172000,4.242171875,0.3640649616718292,-0.15683503448963165,0.052990999072790146
1701857629887765800,4.251765869140625,0.1441599577665329,-0.40361732244491577,0.18004722893238068
1701857629897358800,4.26135888671875,-0.11606097966432571,-0.2533488869667053,0.2032594233751297
1701857629906951200,4.270951171875,-0.21257483959197998,0.17302247881889343,0.1238492801785469
1701857629916544000,4.2805439453125,-0.26632940769195557,0.28664007782936096,0.0713164210319519
1701857629926137900,4.290137939453125,-0.25655585527420044,0.18768282234668732,0.07986827939748764
1701857629935731000,4.29973095703125,-0.16126367449760437,0.09239064902067184,0.09086353331804276
1701857629945323300,4.3093232421875,-0.046424392610788345,0.0007635590736754239,0.10185877978801727
1701857629954916000,4.318916015625,0.05008947476744652,-0.0713164210319519,0.09697200357913971
1701857629964510000,4.328510009765625,0.11117420345544815,-0.1360662281513214,0.04810422286391258
1701857629974103000,4.33810302734375,0.16615045070648193,-0.13973131775856018,-0.02886253222823143
1701857629983695400,4.3476953125,0.24189551174640656,-0.09941539168357849,-0.10827267915010452
1701857629993288200,4.3572880859375,0.3127537965774536,-0.06520794332027435,-0.19501298666000366
1701857630002882000,4.366882080078125,0.34696123003959656,-0.007788302376866341,-0.26098448038101196
1701857630012475100,4.37647509765625,0.35795649886131287,0.07895200699567795,-0.2829749882221222
1701857630022067200,4.386067138671875,0.34818294644355774,0.15958385169506073,-0.2683146595954895
1701857630031660300,4.395660400390625,0.3249707520008087,0.18523943424224854,-0.2279987335205078
1701857630041254100,4.405254150390625,0.3054236173629761,0.1644706279039383,-0.17424418032169342
1701857630050847200,4.41484716796875,0.26632940769195557,0.10582929104566574,-0.12048961967229843
1701857630060439300,4.424439208984375,0.20646637678146362,0.021532366052269936,-0.08017370104789734
1701857630070032400,4.434032470703125,0.10873081535100937,-0.0590994730591774,-0.06306997686624527
1701857630079626200,4.443626220703125,0.013438640162348747,-0.14706148207187653,-0.0850604772567749
1701857630089219000,4.453218994140625,-0.06719319522380829,-0.17393875122070312,-0.12659808993339539
1701857630098811400,4.462811279296875,-0.16737215220928192,-0.1751604527235031,-0.17057909071445465
1701857630108404500,4.472404541015625,-0.26999449729919434,-0.1495048701763153,-0.19501298666000366
1701857630117998300,4.481998291015625,-0.32374903559684753,-0.06154286116361618,-0.16813570261001587
1701857630127591200,4.491591064453125,-0.34451785683631897,0.023975754156708717,-0.12659808993339539
1701857630137183500,4.50118359375,-0.36162158846855164,0.07528692483901978,-0.0850604772567749
1701857630146776600,4.510776611328125,-0.3762819170951843,0.1241547018289566,-0.05329642444849014
1701857630156370400,4.520370361328125,-0.38605546951293945,0.1632489264011383,-0.04107947647571564
1701857630165963300,4.52996337890625,-0.3921639323234558,0.18646112084388733,-0.04107947647571564
1701857630175555600,4.5395556640625,-0.3897205591201782,0.21333840489387512,-0.04963133856654167
1701857630185148700,4.549148681640625,-0.3787252902984619,0.24876753985881805,-0.06184828653931618
1701857630194742500,4.558742431640625,-0.36039987206459045,0.28541839122772217,-0.06795676052570343
1701857630204335400,4.56833544921875,-0.33474430441856384,0.3208475112915039,-0.07040014863014221
1701857630213927700,4.577927734375,-0.3005368411540985,0.35627666115760803,-0.06795676052570343
1701857630223520800,4.587520751953125,-0.2626643180847168,0.3733803927898407,-0.054518118500709534
1701857630233114600,4.597114501953125,-0.2101314514875412,0.36605021357536316,-0.03130592033267021
1701857630242707500,4.60670751953125,-0.14660334587097168,0.31351736187934875,-0.015423892997205257
1701857630252299800,4.6162998046875,-0.0781884491443634,0.23655059933662415,-0.02886253222823143
1701857630261892600,4.625892578125,-0.01832541823387146,0.15836215019226074,-0.07773031294345856
1701857630271486700,4.63548681640625,-0.0036650835536420345,0.0984991192817688,-0.1388150453567505
1701857630281079600,4.64507958984375,-0.014660334214568138,0.09727742522954941,-0.21211670339107513
1701857630290671900,4.654671875,-0.04031591862440109,0.13026317954063416,-0.28541839122772217
1701857630300264700,4.6642646484375,-0.07452336698770523,0.1498102843761444,-0.3709369897842407
1701857630309858600,4.673858642578125,-0.09651386737823486,0.14614520967006683,-0.4637857675552368
1701857630319451600,4.68345166015625,-0.10262233763933182,0.14370182156562805,-0.5554128885269165
1701857630329043700,4.693043701171875,-0.1172826737165451,0.11315945535898209,-0.6189410090446472
1701857630338636800,4.70263671875,-0.13316470384597778,0.14125843346118927,-0.6629219651222229
1701857630348230700,4.712230712890625,-0.15026842057704926,0.2157817929983139,-0.6763606071472168
1701857630357823700,4.72182373046875,-0.1844758689403534,0.23410721123218536,-0.6580352187156677
1701857630367415800,4.731415771484375,-0.22967857122421265,0.22677704691886902,-0.6470399498939514
1701857630377009000,4.7410087890625,-0.2748812735080719,0.2047865390777588,-0.645818293094635
1701857630386602800,4.750602783203125,-0.32252734899520874,0.14370182156562805,-0.6311579346656799
1701857630396195800,4.76019580078125,-0.37139514088630676,0.04474456235766411,-0.6091674566268921
1701857630405788000,4.769787841796875,-0.43736663460731506,0.04840964451432228,-0.6079457402229309
1701857630415381000,4.779381103515625,-0.48989951610565186,0.039857782423496246,-0.5969504714012146
1701857630424974800,4.788974853515625,-0.5277720093727112,-0.04077405482530594,-0.5725166201591492
1701857630434567700,4.798567626953125,-0.5448757410049438,-0.10918894410133362,-0.5297572612762451
1701857630444160000,4.808159912109375,-0.5399889945983887,-0.18004722893238068,-0.48333290219306946
1701857630453753000,4.817753173828125,-0.5277720093727112,-0.24968381226062775,-0.43080002069473267
1701857630463347000,4.827346923828125,-0.5008947253227234,-0.3217637836933136,-0.38193225860595703
1701857630472939800,4.836939697265625,-0.45080527663230896,-0.40361732244491577,-0.3599417507648468
1701857630482532000,4.846531982421875,-0.39827242493629456,-0.49295374751091003,-0.35627666115760803
1701857630492125200,4.856125244140625,-0.3567348122596741,-0.5674771070480347,-0.35138988494873047
1701857630501719000,4.865718994140625,-0.30908870697021484,-0.6187883019447327,-0.3465031087398529
1701857630511312000,4.875311767578125,-0.25655585527420044,-0.6395570635795593,-0.34161633253097534
1701857630520904200,4.884904296875,-0.2101314514875412,-0.6346703171730042,-0.3306210935115814
1701857630530497300,4.894497314453125,-0.1844758689403534,-0.6029062271118164,-0.2964136302471161
1701857630540091100,4.904091064453125,-0.1820324808359146,-0.5454866290092468,-0.24998924136161804
1701857630549684000,4.91368408203125,-0.20035789906978607,-0.4819584786891937,-0.20356485247612
1701857630559276300,4.9232763671875,-0.22845686972141266,-0.4146125912666321,-0.15469707548618317
1701857630568869400,4.932869384765625,-0.2724378705024719,-0.33886751532554626,-0.08872556686401367
1701857630578463200,4.942463134765625,-0.34696123003959656,-0.3058817684650421,-0.02641914412379265
1701857630588056000,4.95205615234375,-0.39949411153793335,-0.2826695740222931,0.018783552572131157
1701857630597648400,4.9616484375,-0.43858832120895386,-0.27656111121177673,0.05787777900695801
1701857630607241200,4.9712412109375,-0.47646087408065796,-0.28999972343444824,0.09575030952692032
1701857630616835000,4.9808349609375,-0.5118899941444397,-0.32665055990219116,0.1360662281513214
1701857630626428200,4.99042822265625,-0.5277720093727112,-0.3608580231666565,0.1776038408279419
1701857630636020500,5.0000205078125,-0.5289937257766724,-0.3584146201610565,0.22402822971343994
1701857630645613300,5.00961328125,-0.5192201733589172,-0.3596363365650177,0.2423536479473114
1701857630655207200,5.019207275390625,-0.5045598149299622,-0.3755183517932892,0.23868857324123383
1701857630664800300,5.02880029296875,-0.46668729186058044,-0.3706315755844116,0.2166980654001236
1701857630674392600,5.038392578125,-0.42392799258232117,-0.3706315755844116,0.19226416945457458
1701857630683985400,5.0479853515625,-0.3775036036968231,-0.36574479937553406,0.1763821393251419
1701857630693579300,5.057579345703125,-0.32252734899520874,-0.35108447074890137,0.17393875122070312
1701857630703172400,5.06717236328125,-0.26877278089523315,-0.3364241421222687,0.188599094748497
1701857630712764400,5.076764404296875,-0.2223484069108963,-0.3242071866989136,0.2154763638973236
1701857630722357500,5.086357421875,-0.1954711228609085,-0.3180987238883972,0.24601873755455017
1701857630731951400,5.095951416015625,-0.17958909273147583,-0.30343836545944214,0.27289602160453796
1701857630741544400,5.10554443359375,-0.16615045070648193,-0.2790044844150543,0.30099499225616455
1701857630751136500,5.115136474609375,-0.14782503247261047,-0.2557922899723053,0.3327590525150299
1701857630760729600,5.1247294921875,-0.12461283802986145,-0.23624517023563385,0.36452311277389526
1701857630770323500,5.134323486328125,-0.09651386737823486,-0.22158484160900116,0.39140036702156067
1701857630779916500,5.14391650390625,-0.06352811306715012,-0.22036315500736237,0.40972578525543213
1701857630789508600,5.153508544921875,-0.024433890357613564,-0.22402822971343994,0.4146125912666321
1701857630799101700,5.163101806640625,0.01832541823387146,-0.23502348363399506,0.4109475016593933
1701857630808695600,5.172695556640625,0.06352811306715012,-0.2411319613456726,0.40850409865379333
1701857630818288400,5.182288330078125,0.10628741979598999,-0.23868857324123383,0.40850409865379333
1701857630827880700,5.191880615234375,0.1319430023431778,-0.2301367074251175,0.4121691882610321
1701857630837473800,5.201473876953125,0.14049486815929413,-0.21303297579288483,0.42194274067878723
1701857630847067600,5.211067626953125,0.130721315741539,-0.188599094748497,0.4402681589126587
1701857630856660500,5.220660400390625,0.10628741979598999,-0.16538690030574799,0.45981526374816895
1701857630866252800,5.230252685546875,0.07085828483104706,-0.1519482582807541,0.47325390577316284
1701857630875846000,5.239845947265625,0.030542362481355667,-0.1495048701763153,0.4818057715892792
1701857630885439700,5.249439697265625,-0.0024433890357613564,-0.17271706461906433,0.4928010404109955
1701857630895032600,5.259032470703125,-0.01710372418165207,-0.21791976690292358,0.5074613690376282
1701857630904625000,5.268625,-0.0024433890357613564,-0.2838912606239319,0.5172349214553833
1701857630914218000,5.278218017578125,0.03665083646774292,-0.35352784395217896,0.5037962794303894
1701857630923811800,5.287811767578125,0.09529217332601547,-0.4133908748626709,0.4818057715892792
1701857630933404700,5.29740478515625,0.16370706260204315,-0.43797749280929565,0.47203221917152405
1701857630942997000,5.3069970703125,0.22601348161697388,-0.42453885078430176,0.48669254779815674
1701857630952589800,5.31658984375,0.261442631483078,-0.3852919042110443,0.5184566378593445
1701857630962183700,5.32618359375,0.2626643180847168,-0.31565532088279724,0.5515950918197632
1701857630971776800,5.33577685546875,0.23334364593029022,-0.23258009552955627,0.5625903010368347
1701857630981369000,5.345369140625,0.19058434665203094,-0.1629435122013092,0.5344913601875305
1701857630990962000,5.3549619140625,0.16859383881092072,-0.10185877978801727,0.4769189953804016
1701857631000555800,5.3645556640625,0.16615045070648193,-0.0590994730591774,0.4121691882610321
1701857631010148900,5.37414892578125,0.17470231652259827,-0.016340164467692375,0.35474956035614014
1701857631019741200,5.3837412109375,0.18569757044315338,0.017867282032966614,0.31199023127555847
1701857631029334000,5.393333984375,0.1979145109653473,0.039857782423496246,0.2851129472255707
1701857631038928000,5.402927978515625,0.2089097648859024,0.0716218426823616,0.2777827978134155
1701857631048521000,5.41252099609375,0.21501824259757996,0.10949437320232391,0.28999972343444824
1701857631058113300,5.42211328125,0.21746163070201874,0.14858859777450562,0.32787227630615234
1701857631067706000,5.4317060546875,0.21501824259757996,0.17424418032169342,0.3877353072166443
1701857631077300000,5.441300048828125,0.20524467527866364,0.1754658818244934,0.4512633979320526
1701857631086893000,5.45089306640625,0.19058434665203094,0.17057909071445465,0.4940227270126343
1701857631096485000,5.460485107421875,0.17836740612983704,0.17302247881889343,0.5184566378593445
1701857631106078200,5.470078125,0.17836740612983704,0.1913478970527649,0.5381564497947693
1701857631115672000,5.479672119140625,0.17592400312423706,0.18401773273944855,0.5613686442375183
1701857631125265200,5.48926513671875,0.15393351018428802,0.1522536724805832,0.5796940326690674
1701857631134857200,5.498857177734375,0.11972606182098389,0.1363716572523117,0.5845808386802673
1701857631144450300,5.5084501953125,0.11239589750766754,0.1510319858789444,0.5796940326690674
1701857631154044200,5.518044189453125,0.1172826737165451,0.14003673195838928,0.5809157490730286
1701857631163637000,5.527636962890625,0.11117420345544815,0.13270656764507294,0.5882459282875061
1701857631173229300,5.537229248046875,0.11972606182098389,0.15591876208782196,0.5931326746940613
1701857631182822400,5.546822509765625,0.12827792763710022,0.1656923145055771,0.5919110178947449
1701857631192416300,5.556416259765625,0.11972606182098389,0.1656923145055771,0.5858024954795837
1701857631202009000,5.566009033203125,0.1172826737165451,0.17180079221725464,0.5760289430618286
1701857631211601400,5.575601318359375,0.11239589750766754,0.18646112084388733,0.5638120174407959
1701857631221194500,5.585194580078125,0.0916270911693573,0.2157817929983139,0.5454866290092468
1701857631230788400,5.594788330078125,0.05375456064939499,0.2548760175704956,0.5222744345664978
1701857631240381200,5.604381103515625,0.009773556143045425,0.2915268540382385,0.4928010404109955
1701857631249973500,5.613973388671875,-0.030542362481355667,0.31596073508262634,0.45615020394325256
1701857631259566600,5.623566650390625,-0.06352811306715012,0.31473904848098755,0.42072105407714844
1701857631269160400,5.633160400390625,-0.08674030750989914,0.28786176443099976,0.39262208342552185
1701857631278753300,5.642753173828125,-0.10628741979598999,0.2414373755455017,0.36452311277389526
1701857631288345600,5.652345703125,-0.1172826737165451,0.18646112084388733,0.3315373361110687
1701857631297938700,5.661938720703125,-0.1172826737165451,0.13392825424671173,0.29977330565452576
1701857631307532500,5.671532470703125,-0.10384403169155121,0.09116895496845245,0.270452618598938
1701857631317125400,5.68112548828125,-0.08674030750989914,0.06429167091846466,0.24479703605175018
1701857631326717700,5.6907177734375,-0.06963659077882767,0.058183200657367706,0.22158484160900116
1701857631336310800,5.700310791015625,-0.05497625470161438,0.06551336497068405,0.20081603527069092
1701857631345904400,5.709904296875,-0.04153761267662048,0.08139539510011673,0.18493400514125824
1701857631355497500,5.71949755859375,-0.03298575058579445,0.10094250738620758,0.1776038408279419
1701857631365089800,5.72908984375,-0.029320668429136276,0.12171131372451782,0.1751604527235031
1701857631374682600,5.7386826171875,-0.029320668429136276,0.13270656764507294,0.16783028841018677
1701857631384276500,5.7482763671875,-0.03298575058579445,0.13148486614227295,0.15805672109127045
1701857631393869600,5.75786962890625,-0.03787253051996231,0.13514995574951172,0.14583978056907654
1701857631403461600,5.767461669921875,-0.042759306728839874,0.14248012006282806,0.13117945194244385
1701857631413054700,5.7770546875,-0.043981000781059265,0.14370182156562805,0.11651911586523056
1701857631422648600,5.786648681640625,-0.042759306728839874,0.1388150453567505,0.10674555599689484
1701857631432241700,5.79624169921875,-0.04153761267662048,0.12904147803783417,0.10796725004911423
1701857631441833700,5.805833740234375,-0.042759306728839874,0.11438114941120148,0.11651911586523056
1701857631451426800,5.8154267578125,-0.046424392610788345,0.0984991192817688,0.12751436233520508
1701857631461020700,5.825020751953125,-0.0525328628718853,0.08261708915233612,0.13240113854408264
1701857631470613800,5.83461376953125,-0.05619794875383377,0.06429167091846466,0.1238492801785469
1701857631480205800,5.844205810546875,-0.05619794875383377,0.04474456235766411,0.10674555599689484
1701857631489799000,5.853798828125,-0.04886778071522713,0.022754060104489326,0.0847550556063652
1701857631499392800,5.863392822265625,-0.0390942245721817,-0.0004581354442052543,0.05787777900695801
1701857631508985600,5.872985595703125,-0.028098974376916885,-0.020005248486995697,0.034665580838918686
1701857631518578000,5.882577880859375,-0.02076880633831024,-0.031000498682260513,0.016340164467692375
1701857631528171000,5.8921708984375,-0.01832541823387146,-0.02489202655851841,0.004123218823224306
1701857631537764900,5.901764892578125,-0.01832541823387146,-0.013896775431931019,0.0016798300202935934
1701857631547357700,5.911357666015625,-0.02076880633831024,-0.005344913341104984,0.004123218823224306
1701857631556950000,5.920949951171875,-0.023212196305394173,-0.0004581354442052543,0.0065666078589856625
1701857631566543000,5.930543212890625,-0.024433890357613564,-0.004123218823224306,0.004123218823224306
1701857631576137000,5.940136962890625,-0.023212196305394173,-0.01511846948415041,0.0004581354442052543
1701857631585729800,5.949729736328125,-0.01954711228609085,-0.029778804630041122,-0.005650337319821119
1701857631595322000,5.959322021484375,-0.01954711228609085,-0.04443913698196411,-0.015423892997205257
1701857631604915200,5.968915283203125,-0.021990500390529633,-0.05665608495473862,-0.022754060104489326
1701857631614509000,5.978509033203125,-0.026877280324697495,-0.06398624926805496,-0.02764083817601204
1701857631624102000,5.988101806640625,-0.030542362481355667,-0.06276455521583557,-0.03008422814309597
1701857631633694200,5.997694091796875,-0.03298575058579445,-0.05543438717722893,-0.036192700266838074
1701857631643287300,6.007287353515625,-0.03176405653357506,-0.04443913698196411,-0.04352286830544472
1701857631652881200,6.016881103515625,-0.025655584409832954,-0.034665580838918686,-0.04963133856654167
1701857631662474000,6.026473876953125,-0.01832541823387146,-0.032222192734479904,-0.05085303261876106
1701857631672066300,6.03606640625,-0.004886778071522713,-0.03588727489113808,-0.0459662564098835
1701857631681659400,6.045659423828125,0.012216945178806782,-0.04321744292974472,-0.038636088371276855
1701857631691253200,6.055253173828125,0.026877280324697495,-0.052990999072790146,-0.02641914412379265
1701857631700846000,6.06484619140625,0.03665083646774292,-0.06154286116361618,-0.009315420873463154
1701857631710438400,6.0744384765625,0.043981000781059265,-0.06887302547693253,0.009009997360408306
1701857631720031500,6.084031494140625,0.0525328628718853,-0.07864658534526825,0.02367033064365387
1701857631729625000,6.093625,0.05864133685827255,-0.0847550556063652,0.032222192734479904
1701857631739218200,6.10321826171875,0.06352811306715012,-0.07986827939748764,0.03833066672086716
1701857631748810500,6.112810546875,0.06963659077882767,-0.06887302547693253,0.03955236077308655
1701857631758403300,6.1224033203125,0.0781884491443634,-0.050547610968351364,0.037108972668647766
1701857631767997200,6.1319970703125,0.08796200156211853,-0.02733541466295719,0.032222192734479904
1701857631777590300,6.14159033203125,0.09895725548267365,-0.0029015245381742716,0.028557108715176582
1701857631787182600,6.1511826171875,0.11239589750766754,0.022754060104489326,0.02489202655851841
1701857631796775400,6.160775390625,0.12339114397764206,0.04963133856654167,0.020005248486995697
1701857631806369300,6.170369384765625,0.13438639044761658,0.07040014863014221,0.013896775431931019
1701857631815962400,6.17996240234375,0.1441599577665329,0.08750387281179428,0.0065666078589856625
1701857631825554700,6.1895546875,0.14782503247261047,0.09727742522954941,-0.001985253533348441
1701857631835147500,6.1991474609375,0.14904673397541046,0.10460758954286575,-0.0068720318377017975
1701857631844741400,6.208741455078125,0.14782503247261047,0.11682453751564026,-0.008093725889921188
1701857631854334500,6.21833447265625,0.14171656966209412,0.12904147803783417,-0.005650337319821119
1701857631863926500,6.227926513671875,0.13560809195041656,0.1388150453567505,-0.0007635590736754239
1701857631873519600,6.23751953125,0.12827792763710022,0.14736689627170563,0.010231691412627697
1701857631883113500,6.247113525390625,0.11972606182098389,0.15347537398338318,0.018783552572131157
1701857631892706600,6.25670654296875,0.11483928561210632,0.1620272397994995,0.028557108715176582
1701857631902298600,6.266298583984375,0.10995250940322876,0.17180079221725464,0.037108972668647766
1701857631911891700,6.2758916015625,0.10873081535100937,0.18279604613780975,0.04199574887752533
1701857631921485600,6.285485595703125,0.10995250940322876,0.19379130005836487,0.04199574887752533
1701857631931078700,6.29507861328125,0.11361759155988693,0.20234315097332,0.033443886786699295
1701857631940670700,6.304670654296875,0.11972606182098389,0.21089501678943634,0.021226942539215088
1701857631950263800,6.314263916015625,0.12583453953266144,0.21822518110275269,0.004123218823224306
1701857631959857700,6.323857666015625,0.1319430023431778,0.2170034945011139,-0.015423892997205257
1701857631969450800,6.33345068359375,0.13927318155765533,0.21089501678943634,-0.036192700266838074
1701857631979042800,6.343042724609375,0.1441599577665329,0.20356485247612,-0.055739812552928925
1701857631988636000,6.352635986328125,0.15026842057704926,0.19745637476444244,-0.07650861889123917
1701857631998229800,6.362229736328125,0.15271180868148804,0.1889045089483261,-0.09727742522954941
1701857632007822600,6.371822509765625,0.15271180868148804,0.18523943424224854,-0.11438114941120148
1701857632017415000,6.381414794921875,0.14904673397541046,0.18401773273944855,-0.13514995574951172
1701857632027008000,6.391008056640625,0.1429382562637329,0.18401773273944855,-0.1510319858789444
1701857632036601900,6.400601806640625,0.1319430023431778,0.18523943424224854,-0.15958385169506073
1701857632046194700,6.410194580078125,0.1185043677687645,0.18646112084388733,-0.16080553829669952
1701857632055787000,6.419787109375,0.10384403169155121,0.18279604613780975,-0.1510319858789444
1701857632065380000,6.429380126953125,0.08674030750989914,0.16935740411281586,-0.13514995574951172
1701857632074974000,6.438973876953125,0.07207997888326645,0.1510319858789444,-0.11438114941120148
1701857632084566800,6.44856689453125,0.061084724962711334,0.1253764033317566,-0.09361234307289124
1701857632094159000,6.4581591796875,0.0525328628718853,0.09483403712511063,-0.08017370104789734
1701857632103752200,6.467752197265625,0.04886778071522713,0.06429167091846466,-0.072843536734581
1701857632113346000,6.477345947265625,0.047646086663007736,0.038636088371276855,-0.072843536734581
1701857632122939000,6.48693896484375,0.047646086663007736,0.021532366052269936,-0.08017370104789734
1701857632132531200,6.49653125,0.04886778071522713,0.012980503961443901,-0.09116895496845245
1701857632142124300,6.506124267578125,0.0525328628718853,0.017867282032966614,-0.10827267915010452
1701857632151718100,6.51571826171875,0.05741964280605316,0.03008422814309597,-0.12659808993339539
1701857632161311000,6.52531103515625,0.061084724962711334,0.04840964451432228,-0.14003673195838928
1701857632170903300,6.5349033203125,0.05986303091049194,0.07040014863014221,-0.14858859777450562
1701857632180496400,6.544496337890625,0.05864133685827255,0.08994726091623306,-0.15591876208782196
1701857632190090200,6.55409033203125,0.05741964280605316,0.10338589549064636,-0.15714046359062195
1701857632199683000,6.56368310546875,0.0525328628718853,0.10949437320232391,-0.15714046359062195
1701857632209275400,6.573275390625,0.047646086663007736,0.10705098509788513,-0.15469707548618317
1701857632218868500,6.582868408203125,0.04153761267662048,0.09972081333398819,-0.15347537398338318
1701857632228462300,6.59246240234375,0.03420744836330414,0.08750387281179428,-0.15836215019226074
1701857632238055200,6.60205517578125,0.023212196305394173,0.07773031294345856,-0.16935740411281586
1701857632247647500,6.6116474609375,0.012216945178806782,0.0716218426823616,-0.18279604613780975
1701857632257240600,6.621240478515625,0.006108472589403391,0.056961506605148315,-0.19501298666000366
1701857632266834400,6.63083447265625,-0.004886778071522713,0.04474456235766411,-0.20356485247612
1701857632276427300,6.64042724609375,-0.012216945178806782,0.07406523078680038,-0.21089501678943634
1701857632286019600,6.65001953125,-0.01832541823387146,0.08139539510011673,-0.22189027070999146
1701857632295612400,6.6596123046875,-0.01954711228609085,0.08139539510011673,-0.22677704691886902
1701857632305206300,6.669206298828125,-0.026877280324697495,0.07040014863014221,-0.22433365881443024
1701857632314799400,6.67879931640625,-0.03787253051996231,0.04230117425322533,-0.2170034945011139
1701857632324391700,6.6883916015625,-0.045202698558568954,0.005650337319821119,-0.21089501678943634
1701857632333984500,6.697984619140625,-0.046424392610788345,-0.033443886786699295,-0.19989976286888123
1701857632343578400,6.707578369140625,-0.043981000781059265,-0.06520794332027435,-0.18523943424224854
1701857632353171500,6.71717138671875,-0.04031591862440109,-0.10552386194467545,-0.16813570261001587
1701857632362763500,6.726763427734375,-0.04153761267662048,-0.14339639246463776,-0.15591876208782196
1701857632372356600,6.736356689453125,-0.047646086663007736,-0.16172181069850922,-0.1498102843761444
1701857632381950500,6.745950439453125,-0.05131116881966591,-0.1629435122013092,-0.1510319858789444
1701857632391543600,6.75554345703125,-0.05375456064939499,-0.14706148207187653,-0.15591876208782196
1701857632401135600,6.765135498046875,-0.05864133685827255,-0.12262758612632751,-0.1644706279039383
1701857632410728700,6.774728759765625,-0.062306419014930725,-0.09697200357913971,-0.1754658818244934
1701857632420322600,6.784322509765625,-0.0647498071193695,-0.0725381150841713,-0.18646112084388733
1701857632429915600,6.79391552734375,-0.06719319522380829,-0.050547610968351364,-0.19501298666000366
1701857632439507700,6.8035078125,-0.07085828483104706,-0.031000498682260513,-0.19989976286888123
1701857632449100800,6.813100830078125,-0.07452336698770523,-0.02244863659143448,-0.2011214643716812
1701857632458694700,6.822694580078125,-0.08185353130102158,-0.02244863659143448,-0.19989976286888123
1701857632468287700,6.832287841796875,-0.09284878522157669,-0.028557108715176582,-0.19745637476444244
1701857632477879800,6.8418798828125,-0.1050657257437706,-0.04077405482530594,-0.2011214643716812
1701857632487473000,6.851472900390625,-0.11483928561210632,-0.052990999072790146,-0.20600824058055878
1701857632497066800,6.861066650390625,-0.12094775587320328,-0.06032116711139679,-0.20845162868499756
1701857632506659800,6.870659912109375,-0.12583453953266144,-0.06154286116361618,-0.20967331528663635
1701857632516252000,6.880251953125,-0.129499614238739,-0.05787777900695801,-0.20845162868499756
1701857632525845000,6.889844970703125,-0.13316470384597778,-0.052990999072790146,-0.20600824058055878
1701857632535438800,6.89943896484375,-0.13682979345321655,-0.0456608310341835,-0.19867807626724243
1701857632545031700,6.90903173828125,-0.13682979345321655,-0.04199574887752533,-0.18768282234668732
1701857632554624000,6.9186240234375,-0.13316470384597778,-0.04321744292974472,-0.17180079221725464
1701857632564217000,6.928217041015625,-0.12339114397764206,-0.050547610968351364,-0.1522536724805832
1701857632573811000,6.93781103515625,-0.10995250940322876,-0.06032116711139679,-0.14003673195838928
1701857632583403800,6.94740380859375,-0.09529217332601547,-0.06276455521583557,-0.13392825424671173
1701857632592996000,6.95699609375,-0.0794101431965828,-0.06276455521583557,-0.13026317954063416
1701857632602589200,6.966589111328125,-0.05986303091049194,-0.0590994730591774,-0.12293300777673721
1701857632612183000,6.97618310546875,-0.043981000781059265,-0.052990999072790146,-0.11315945535898209
1701857632621776000,6.98577587890625,-0.030542362481355667,-0.04443913698196411,-0.10216420143842697
1701857632631368200,6.9953681640625,-0.01954711228609085,-0.03833066672086716,-0.09239064902067184
1701857632640961300,7.004961181640625,-0.009773556143045425,-0.034665580838918686,-0.08139539510011673
1701857632650555100,7.01455517578125,-0.0012216945178806782,-0.029778804630041122,-0.06429167091846466
1701857632660148000,7.02414794921875,0.0036650835536420345,-0.0261137206107378,-0.04963133856654167
1701857632669740300,7.033740234375,0.006108472589403391,-0.02489202655851841,-0.038636088371276855
1701857632679333400,7.04333349609375,0.012216945178806782,-0.02367033064365387,-0.037414394319057465
1701857632688927200,7.05292724609375,0.01954711228609085,-0.021226942539215088,-0.04107947647571564
1701857632698520000,7.06252001953125,0.026877280324697495,-0.018783552572131157,-0.04107947647571564
1701857632708112400,7.0721123046875,0.03420744836330414,-0.01511846948415041,-0.04107947647571564
1701857632717705500,7.08170556640625,0.03665083646774292,-0.007788302376866341,-0.04230117425322533
1701857632727299000,7.091299072265625,0.03420744836330414,0.0007635590736754239,-0.0459662564098835
1701857632736892200,7.10089208984375,0.030542362481355667,0.01175880990922451,-0.05207473039627075
1701857632746484500,7.110484375,0.028098974376916885,0.025197450071573257,-0.058183200657367706
1701857632756077300,7.120077392578125,0.024433890357613564,0.03497100621461868,-0.06673506647348404
1701857632765671200,7.129671142578125,0.025655584409832954,0.04352286830544472,-0.07773031294345856
1701857632775264300,7.13926416015625,0.030542362481355667,0.05085303261876106,-0.09116895496845245
1701857632784856300,7.148856201171875,0.04031591862440109,0.054518118500709534,-0.10094250738620758
1701857632794449400,7.158449462890625,0.05008947476744652,0.055739812552928925,-0.10705098509788513
1701857632804043300,7.168043212890625,0.05986303091049194,0.04963133856654167,-0.10949437320232391
1701857632813636400,7.17763623046875,0.0659715011715889,0.04230117425322533,-0.10949437320232391
1701857632823228400,7.187228515625,0.06841489672660828,0.03497100621461868,-0.10338589549064636
1701857632832821500,7.196821533203125,0.06963659077882767,0.03008422814309597,-0.09483403712511063
1701857632842415400,7.206415283203125,0.06841489672660828,0.02641914412379265,-0.0850604772567749
1701857632852008400,7.216008544921875,0.06841489672660828,0.022754060104489326,-0.07650861889123917
1701857632861600500,7.2256005859375,0.06841489672660828,0.017867282032966614,-0.0716218426823616
1701857632871193600,7.235193603515625,0.06841489672660828,0.015423892997205257,-0.06917845457792282
1701857632880787500,7.244787353515625,0.06841489672660828,0.016645587980747223,-0.06917845457792282
1701857632890380300,7.25438037109375,0.06841489672660828,0.020310672000050545,-0.07040014863014221
1701857632899972600,7.26397265625,0.06719319522380829,0.02641914412379265,-0.07650861889123917
1701857632909565700,7.273565673828125,0.062306419014930725,0.037414394319057465,-0.08261708915233612
1701857632919159600,7.28315966796875,0.05864133685827255,0.04963133856654167,-0.08750387281179428
1701857632928752400,7.29275244140625,0.0525328628718853,0.0594048947095871,-0.08994726091623306
1701857632938344700,7.3023447265625,0.045202698558568954,0.06917845457792282,-0.09116895496845245
1701857632947937800,7.311937744140625,0.03787253051996231,0.07895200699567795,-0.08872556686401367
1701857632957531600,7.32153173828125,0.028098974376916885,0.0850604772567749,-0.08872556686401367
1701857632967124500,7.33112451171875,0.01954711228609085,0.08750387281179428,-0.08994726091623306
1701857632976716800,7.340716796875,0.009773556143045425,0.08628217875957489,-0.08872556686401367
1701857632986310000,7.350309814453125,0,0.08383878320455551,-0.08872556686401367
1701857632995903700,7.35990380859375,-0.007330167107284069,0.08017370104789734,-0.08750387281179428
1701857633005496600,7.36949658203125,-0.013438640162348747,0.07650861889123917,-0.08750387281179428
1701857633015089000,7.3790888671875,-0.01832541823387146,0.072843536734581,-0.08750387281179428
1701857633024682000,7.388681884765625,-0.024433890357613564,0.06673506647348404,-0.08750387281179428
1701857633034275600,7.398275634765625,-0.026877280324697495,0.06184828653931618,-0.09239064902067184
1701857633043868700,7.40786865234375,-0.026877280324697495,0.058183200657367706,-0.10338589549064636
1701857633053461000,7.4174609375,-0.025655584409832954,0.054518118500709534,-0.11804623156785965
1701857633063053800,7.4270537109375,-0.01832541823387146,0.05085303261876106,-0.13270656764507294
1701857633072647700,7.436647705078125,-0.009773556143045425,0.04718795046210289,-0.14125843346118927
1701857633082240800,7.44624072265625,-0.006108472589403391,0.04840964451432228,-0.14492350816726685
1701857633091833000,7.4558330078125,-0.007330167107284069,0.05329642444849014,-0.14125843346118927
1701857633101426000,7.465426025390625,-0.01710372418165207,0.055739812552928925,-0.14003673195838928
1701857633111019800,7.475019775390625,-0.03298575058579445,0.056961506605148315,-0.14125843346118927
1701857633120612900,7.48461279296875,-0.045202698558568954,0.058183200657367706,-0.14736689627170563
1701857633130205200,7.494205078125,-0.05619794875383377,0.0594048947095871,-0.15469707548618317
1701857633139798000,7.503798095703125,-0.05986303091049194,0.05329642444849014,-0.1620272397994995
1701857633149392000,7.513391845703125,-0.05741964280605316,0.04107947647571564,-0.17180079221725464
1701857633158985000,7.52298486328125,-0.047646086663007736,0.02764083817601204,-0.18035265803337097
1701857633168577000,7.532576904296875,-0.03542914241552353,0.019088976085186005,-0.17913095653057098
1701857633178170000,7.542170166015625,-0.025655584409832954,0.017867282032966614,-0.16935740411281586
1701857633187764000,7.551763916015625,-0.01710372418165207,0.021532366052269936,-0.15347537398338318
1701857633197357000,7.561357177734375,-0.014660334214568138,0.02886253222823143,-0.1375933438539505
1701857633206949000,7.57094921875,-0.014660334214568138,0.04107947647571564,-0.12293300777673721
1701857633216542200,7.580542236328125,-0.01588202826678753,0.05207473039627075,-0.1119377613067627
1701857633226136000,7.590135986328125,-0.01710372418165207,0.058183200657367706,-0.10338589549064636
1701857633235729200,7.599729248046875,-0.021990500390529633,0.06184828653931618,-0.09361234307289124
1701857633245321200,7.6093212890625,-0.025655584409832954,0.06795676052570343,-0.0850604772567749
1701857633254914300,7.618914306640625,-0.029320668429136276,0.07040014863014221,-0.08261708915233612
1701857633264508200,7.628508056640625,-0.03298575058579445,0.07040014863014221,-0.0850604772567749
1701857633274101000,7.63810107421875,-0.03176405653357506,0.0716218426823616,-0.09239064902067184
1701857633283693300,7.647693359375,-0.03176405653357506,0.07040014863014221,-0.0984991192817688
1701857633293286400,7.657286376953125,-0.03298575058579445,0.06795676052570343,-0.10705098509788513
1701857633302880300,7.66688037109375,-0.03665083646774292,0.0594048947095871,-0.12293300777673721
1701857633312473000,7.67647314453125,-0.0390942245721817,0.04474456235766411,-0.14614520967006683
1701857633322065400,7.6860654296875,-0.04031591862440109,0.02886253222823143,-0.17180079221725464
1701857633331658500,7.695658447265625,-0.03665083646774292,0.012980503961443901,-0.19745637476444244
1701857633341252400,7.70525244140625,-0.030542362481355667,0.0007635590736754239,-0.21822518110275269
1701857633350845200,7.71484521484375,-0.02076880633831024,-0.009009997360408306,-0.23288552463054657
1701857633360437500,7.7244375,-0.014660334214568138,-0.0016798300202935934,-0.24021568894386292
1701857633370030300,7.7340302734375,-0.01588202826678753,0.02641914412379265,-0.24510246515274048
1701857633379624200,7.743624267578125,-0.01832541823387146,0.06184828653931618,-0.2573194205760956
1701857633389217300,7.75321728515625,-0.023212196305394173,0.09972081333398819,-0.27808821201324463
1701857633398809600,7.7628095703125,-0.04153761267662048,0.14858859777450562,-0.30007871985435486
1701857633408402400,7.77240234375,-0.06841489672660828,0.2047865390777588,-0.3171824514865875
1701857633417996300,7.781996337890625,-0.09651386737823486,0.2670929729938507,-0.3232909142971039
1701857633427589400,7.79158935546875,-0.12705622613430023,0.333064466714859,-0.3232909142971039
1701857633437181400,7.801181396484375,-0.16004198789596558,0.3892624080181122,-0.333064466714859
1701857633446774500,7.8107744140625,-0.19913621246814728,0.42957833409309387,-0.3574983477592468
1701857633456368400,7.820368408203125,-0.24556060135364532,0.46012070775032043,-0.39292749762535095
1701857633465961500,7.82996142578125,-0.2870981991291046,0.4747810363769531,-0.42102646827697754
1701857633475553500,7.839553466796875,-0.3298575282096863,0.4674508571624756,-0.44301697611808777
1701857633485146600,7.849146728515625,-0.365286648273468,0.44423866271972656,-0.4637857675552368
1701857633494740500,7.858740478515625,-0.39949411153793335,0.3880407214164734,-0.48577627539634705
1701857633504333600,7.86833349609375,-0.42881476879119873,0.31596073508262634,-0.5102101564407349
1701857633513925600,7.877925537109375,-0.43736663460731506,0.24632415175437927,-0.5248705148696899
1701857633523518700,7.887518798828125,-0.4202629029750824,0.1779092699289322,-0.5138752460479736
1701857633533112600,7.897112548828125,-0.4068242609500885,0.11438114941120148,-0.46867257356643677
1701857633542705400,7.906705322265625,-0.3689517378807068,0.039857782423496246,-0.4124746024608612
1701857633552297700,7.916297607421875,-0.30786702036857605,-0.02733541466295719,-0.358720064163208
1701857633561890800,7.925890869140625,-0.2504473626613617,-0.0859767496585846,-0.30007871985435486
1701857633571484700,7.935484619140625,-0.2089097648859024,-0.13973131775856018,-0.2292204350233078
1701857633581077500,7.945077392578125,-0.19058434665203094,-0.19959434866905212,-0.1644706279039383
1701857633590669800,7.954669921875,-0.1563768982887268,-0.24601873755455017,-0.13392825424671173
1701857633600263000,7.964262939453125,-0.13560809195041656,-0.270452618598938,-0.10582929104566574
1701857633609856800,7.973856689453125,-0.13560809195041656,-0.27411770820617676,-0.06062658876180649
1701857633619449600,7.98344970703125,-0.14782503247261047,-0.26312246918678284,-0.008093725889921188
1701857633629042000,7.9930419921875,-0.1710372269153595,-0.2411319613456726,0.04077405482530594
1701857633638634800,8.002634765625,-0.1954711228609085,-0.20936790108680725,0.07620319724082947
1701857633648228600,8.012228515625,-0.23334364593029022,-0.18493400514125824,0.10552386194467545
1701857633657821700,8.02182177734375,-0.2638860046863556,-0.1519482582807541,0.12629267573356628
1701857633667414000,8.0314140625,-0.27976804971694946,-0.10552386194467545,0.1372879147529602
1701857633677006800,8.0410068359375,-0.2919849753379822,-0.05421269312500954,0.14583978056907654
1701857633686600700,8.0506005859375,-0.30786702036857605,-0.012675080448389053,0.1629435122013092
1701857633696193800,8.06019384765625,-0.3274141252040863,0.014202198944985867,0.1776038408279419
1701857633705785900,8.069785888671875,-0.33718767762184143,0.056961506605148315,0.188599094748497
1701857633715379000,8.07937890625,-0.3396310806274414,0.0984991192817688,0.2044811248779297
1701857633724972800,8.088972900390624,-0.3396310806274414,0.13270656764507294,0.2289150059223175
1701857633734566000,8.09856591796875,-0.3298575282096863,0.15958385169506073,0.26434415578842163
1701857633744158000,8.108157958984375,-0.3029802441596985,0.1766875684261322,0.2924431264400482
1701857633753751000,8.1177509765625,-0.26632940769195557,0.18523943424224854,0.3095468580722809
1701857633763345000,8.127344970703126,-0.23090025782585144,0.19989976286888123,0.3242071866989136
1701857633772937700,8.136937744140624,-0.18691925704479218,0.21944688260555267,0.34375429153442383
1701857633782530000,8.146530029296875,-0.1319430023431778,0.23166382312774658,0.3755183517932892
1701857633792123100,8.156123046875,-0.07574506103992462,0.23899398744106293,0.4158342778682709
1701857633801717000,8.165717041015625,-0.03176405653357506,0.24021568894386292,0.45615020394325256
1701857633811309800,8.175309814453126,-0.013438640162348747,0.2438807636499405,0.4891359508037567
1701857633820902100,8.184902099609374,-0.01954711228609085,0.24021568894386292,0.5099047422409058
1701857633830495200,8.1944951171875,-0.0390942245721817,0.21944688260555267,0.5172349214553833
1701857633840089000,8.204089111328125,-0.06963659077882767,0.19379130005836487,0.5111264586448669
1701857633849682000,8.213681884765625,-0.09407047927379608,0.15836215019226074,0.5111264586448669
1701857633859274200,8.223274169921876,-0.0781884491443634,0.10582929104566574,0.5222744345664978
1701857633868867300,8.232867431640624,-0.010995250195264816,0.036192700266838074,0.5418215394020081
1701857633878461200,8.242461181640625,0.06963659077882767,-0.04932591691613197,0.5540384650230408
1701857633888054000,8.252053955078125,0.11361759155988693,-0.07620319724082947,0.555260181427002
1701857633897646300,8.261646240234375,0.11361759155988693,-0.016340164467692375,0.5540384650230408
1701857633907239200,8.2712392578125,0.0916270911693573,0.08872556686401367,0.5479300022125244
1701857633916833000,8.2808330078125,0.05497625470161438,0.13026317954063416,0.5234960913658142
1701857633926426000,8.290426025390625,0.013438640162348747,0.1620272397994995,0.45981526374816895
1701857633936018400,8.300018310546875,-0.010995250195264816,0.22555534541606903,0.3877353072166443
1701857633945611300,8.309611328125,-0.024433890357613564,0.284196674823761,0.3339807391166687
1701857633955205000,8.319205078125,-0.04031591862440109,0.3184041380882263,0.3071034550666809
1701857633964798200,8.328798095703124,-0.0659715011715889,0.3306210935115814,0.293664813041687
1701857633974390300,8.338390380859375,-0.09284878522157669,0.31351736187934875,0.2802261710166931
1701857633983983400,8.3479833984375,-0.11117420345544815,0.2670929729938507,0.25945737957954407
1701857633993577200,8.3575771484375,-0.11483928561210632,0.20722992718219757,0.23502348363399506
1701857634003170300,8.36717041015625,-0.10384403169155121,0.14370182156562805,0.2154763638973236
1701857634012762400,8.376762451171874,-0.08551861345767975,0.0850604772567749,0.2032594233751297
1701857634022355500,8.38635546875,-0.0647498071193695,0.0325276181101799,0.20814619958400726
1701857634031949300,8.39594921875,-0.043981000781059265,-0.016340164467692375,0.22402822971343994
1701857634041542100,8.405542236328126,-0.02076880633831024,-0.06398624926805496,0.24846212565898895
1701857634051134500,8.415134521484376,0.0036650835536420345,-0.10063708573579788,0.2802261710166931
1701857634060727600,8.4247275390625,0.026877280324697495,-0.11285403370857239,0.3205420970916748
1701857634070321400,8.4343212890625,0.03542914241552353,-0.11285403370857239,0.36574479937553406
1701857634079914200,8.443914306640625,0.029320668429136276,-0.10796725004911423,0.40728241205215454
1701857634089506600,8.453506591796875,0.013438640162348747,-0.10552386194467545,0.4366030693054199
1701857634099099600,8.463099609375,-0.007330167107284069,-0.10552386194467545,0.4549284875392914
1701857634108693200,8.472693359375,-0.028098974376916885,-0.11896250396966934,0.4683671295642853
1701857634118286300,8.482286376953125,-0.045202698558568954,-0.13117945194244385,0.474475622177124
1701857634127878700,8.491878662109375,-0.061084724962711334,-0.13362284004688263,0.4756973087787628
1701857634137471500,8.501471435546875,-0.0794101431965828,-0.12262758612632751,0.47325390577316284
1701857634147065300,8.5110654296875,-0.1050657257437706,-0.09575030952692032,0.47325390577316284
1701857634156658400,8.520658447265625,-0.14660334587097168,-0.06398624926805496,0.47203221917152405
1701857634166250500,8.53025048828125,-0.20157960057258606,-0.032222192734479904,0.4659237563610077
1701857634175843600,8.539843505859375,-0.25533416867256165,-0.0016798300202935934,0.4537068009376526
1701857634185437400,8.5494375,-0.3127537965774536,0.0325276181101799,0.4414898455142975
1701857634195030500,8.559030517578124,-0.3811686933040619,0.06306997686624527,0.43293800950050354
1701857634204622600,8.56862255859375,-0.4556920528411865,0.09239064902067184,0.43049460649490356
1701857634214215700,8.578215576171875,-0.5302154421806335,0.11682453751564026,0.4414898455142975
1701857634223809500,8.5878095703125,-0.6022953987121582,0.13392825424671173,0.4671454429626465
1701857634233402400,8.59740234375,-0.6682668924331665,0.14248012006282806,0.5050179958343506
1701857634242994700,8.60699462890625,-0.7256865501403809,0.14125843346118927,0.5381564497947693
1701857634252587800,8.616587890625,-0.7708892226219177,0.13148486614227295,0.5674771070480347
1701857634262181600,8.626181640625,-0.8014315962791443,0.12293300777673721,0.6016845703125
1701857634271774500,8.6357744140625,-0.8160919547080994,0.11315945535898209,0.6371136903762817
1701857634281366800,8.64536669921875,-0.8148702383041382,0.07406523078680038,0.6627692580223083
1701857634290960000,8.6549599609375,-0.8038749694824219,-0.007788302376866341,0.6713211536407471
1701857634300553700,8.6645537109375,-0.7843278646469116,-0.13973131775856018,0.6688777208328247
1701857634310146600,8.674146484375,-0.7550072073936462,-0.3339807391166687,0.6627692580223083
1701857634319739000,8.68373876953125,-0.7061394453048706,-0.45263782143592834,0.656660795211792
1701857634329332000,8.69333203125,-0.6377245187759399,-0.5723638534545898,0.679872989654541
1701857634338925800,8.70292578125,-0.5619794726371765,-0.6945333480834961,0.7091936469078064
1701857634348518700,8.7125185546875,-0.48012593388557434,-0.7873821258544922,0.7421793937683105
1701857634358111000,8.722111083984375,-0.39827242493629456,-0.8948912620544434,0.7788302302360535
1701857634367703800,8.731703857421875,-0.32130566239356995,-1.0488247871398926,0.8008207678794861
1701857634377297700,8.741297607421876,-0.23334364593029022,-1.2369656562805176,0.8118160367012024
1701857634386890800,8.750890869140624,-0.13438639044761658,-1.4251066446304321,0.8191461563110352
1701857634396483000,8.760483154296875,-0.01832541823387146,-1.5937005281448364,0.8203678727149963
1701857634406076000,8.770075927734375,0.1172826737165451,-1.6951011419296265,0.7873821258544922
1701857634415669800,8.779669677734375,0.2724378705024719,-1.6657804250717163,0.6945333480834961
1701857634425262800,8.789262939453126,0.42392799258232117,-1.489856481552124,0.5296045541763306
1701857634434855000,8.79885498046875,0.5399889945983887,-1.388455867767334,0.31321191787719727
1701857634444448000,8.808447998046875,0.6206207871437073,-1.300493836402893,0.04321744292974472
1701857634454041900,8.818041748046875,0.6743753552436829,-1.184432864189148,-0.2438807636499405
1701857634463634700,8.827634765625,0.7281299233436584,-1.063485026359558,-0.5077667832374573
1701857634473227000,8.83722705078125,0.7501204609870911,-1.0024003982543945,-0.7130114436149597
1701857634482820000,8.846820068359374,0.758672297000885,-1.0842539072036743,-0.8290724158287048
1701857634492414000,8.8564140625,0.7513421177864075,-1.3701304197311401,-0.8388460278511047
1701857634502006800,8.8660068359375,0.6768187880516052,-1.6975445747375488,-0.7350019812583923
1701857634511599000,8.87559912109375,0.5399889945983887,-1.6755540370941162,-0.5883986353874207
1701857634521192200,8.885192138671876,0.41537612676620483,-1.5265072584152222,-0.43080002069473267
1701857634530785800,8.894785888671874,0.33718767762184143,-1.3762388229370117,-0.28541839122772217
1701857634540379000,8.90437890625,0.2761029601097107,-1.1819894313812256,-0.18523943424224854
1701857634549971200,8.91397119140625,0.23212195932865143,-0.9791881442070007,-0.10949437320232391
1701857634559564000,8.92356396484375,0.1966928243637085,-0.8215895891189575,-0.05329642444849014
1701857634569158000,8.933157958984374,0.0781884491443634,-0.6615476012229919,-0.01175880990922451
1701857634578751000,8.9427509765625,-0.03787253051996231,-0.5625903010368347,-0.0068720318377017975
1701857634588343000,8.952343017578125,-0.1319430023431778,-0.6053496599197388,-0.017867282032966614
1701857634597936000,8.96193603515625,-0.20280128717422485,-0.6554391384124756,-0.02764083817601204
1701857634607530000,8.971530029296876,-0.2492256760597229,-0.7470661997795105,-0.03497100621461868
1701857634617123000,8.981123046875,-0.2651077210903168,-0.9718579649925232,-0.036192700266838074
1701857634626715100,8.990715087890624,-0.29687178134918213,-1.2565127611160278,-0.021532366052269936
1701857634636308200,9.00030810546875,-0.3286358118057251,-1.4910781383514404,-0.0007635590736754239
1701857634645902000,9.009902099609375,-0.35917818546295166,-1.6657804250717163,0.04199574887752533
1701857634655495000,9.019494873046876,-0.41048935055732727,-1.7732895612716675,0.10430216789245605
1701857634665087200,9.029087158203126,-0.4947862923145294,-1.790393352508545,0.16660858690738678
1701857634674680300,9.038680419921874,-0.6157340407371521,-1.6951011419296265,0.22402822971343994
1701857634684274200,9.048274169921875,-0.7366818189620972,-1.5155121088027954,0.2545706033706665
1701857634693867000,9.057866943359375,-0.8075400590896606,-1.3371446132659912,0.2166980654001236
1701857634703459300,9.067459228515625,-0.8148702383041382,-1.192984700202942,0.10185877978801727
1701857634713052400,9.077052490234376,-0.7855495810508728,-1.0842539072036743,-0.03130592033267021
1701857634722646300,9.086646240234375,-0.7733326554298401,-0.9865183234214783,-0.09727742522954941
1701857634732239000,9.096239013671875,-0.790436327457428,-0.837471604347229,-0.09972081333398819
1701857634741831400,9.10583154296875,-0.8393041491508484,-0.7922688722610474,-0.13392825424671173
1701857634751424300,9.11542431640625,-0.9089407324790955,-0.7519529461860657,-0.16080553829669952
1701857634761018000,9.12501806640625,-0.9956810474395752,-0.6774296164512634,-0.1388150453567505
1701857634770611200,9.134611083984375,-1.1019684076309204,-0.6493306159973145,-0.056961506605148315
1701857634780203300,9.144203369140625,-1.2096302509307861,-0.6688777208328247,0.06398624926805496
1701857634789796400,9.15379638671875,-1.2951488494873047,-0.6407787799835205,0.18004722893238068
1701857634799390200,9.16339013671875,-1.330578088760376,-0.5723638534545898,0.22524993121623993
1701857634808983300,9.1729833984375,-1.3085875511169434,-0.5344913601875305,0.16538690030574799
1701857634818575400,9.182575439453124,-1.259719729423523,-0.5625903010368347,0.09086353331804276
1701857634828168400,9.19216845703125,-1.2756017446517944,-0.4721849262714386,0.10063708573579788
1701857634837762300,9.20176220703125,-1.5358227491378784,-0.18004722893238068,0.1898207813501358
1701857634847355100,9.211355224609376,-1.888892412185669,0.10827267915010452,0.23258009552955627
1701857634856947500,9.220947509765624,-2.252957344055176,0.5285356044769287,0.1238492801785469
1701857634866540500,9.23054052734375,-2.527838706970215,0.9451334476470947,0.01511846948415041
1701857634876134400,9.240134521484375,-2.6219091415405273,1.0306520462036133,-0.12904147803783417
1701857634885727200,9.249727294921875,-2.6634466648101807,0.983005940914154,-0.24021568894386292
1701857634895319600,9.259319580078126,-2.768512487411499,0.8974873423576355,-0.2670929729938507
1701857634904912600,9.26891259765625,-2.8283755779266357,1.0062181949615479,-0.20234315097332
1701857634914506500,9.278506591796875,-2.950545072555542,1.1784770488739014,0.05787777900695801
1701857634924099300,9.288099365234375,-3.0971484184265137,1.2212363481521606,0.3889569938182831
1701857634933691600,9.297691650390625,-3.2706289291381836,1.1137272119522095,0.5283828973770142
1701857634943284500,9.307284423828126,-3.5980429649353027,1.042868971824646,0.4769189953804016
1701857634952878300,9.31687841796875,-3.965773105621338,0.9280297160148621,0.2948864996433258
1701857634962471400,9.326471435546875,-4.232102394104004,0.5566345453262329,0.16783028841018677
1701857634972063700,9.336063720703125,-4.113598346710205,0.34405970573425293,0.164165198802948
1701857634981656600,9.345656494140625,-4.1270365715026855,0.1510319858789444,0.4818057715892792
1701857634991250400,9.35525048828125,-4.367710590362549,0.11438114941120148,0.9681929349899292
1701857635000843500,9.364843505859374,-4.515535831451416,0.23532891273498535,1.3945642709732056
1701857635010435600,9.374435546875,-4.564403533935547,0.4027010500431061,1.7146482467651367
1701857635020028700,9.384028564453125,-4.565625190734863,0.783869743347168,1.8783552646636963
1701857635029622500,9.39362255859375,-4.582728862762451,1.1491564512252808,1.9504352807998657
1701857635039215400,9.40321533203125,-4.642591953277588,1.6097352504730225,1.9321098327636719
1701857635048807700,9.4128076171875,-4.728110313415527,1.8235317468643188,2.012741804122925
1701857635058400800,9.42240087890625,-4.670691013336182,1.7709989547729492,2.1996610164642334
1701857635067994600,9.43199462890625,-4.42268705368042,1.5681976079940796,2.2802927494049072
1701857635077587500,9.44158740234375,-4.023192882537842,1.2688825130462646,2.0579442977905273
1701857635087179800,9.4511796875,-3.679896593093872,1.1467130184173584,1.5900354385375977
1701857635096772900,9.46077294921875,-3.485647201538086,1.3030898571014404,1.285833477973938
1701857635106366700,9.47036669921875,-3.4025719165802,1.686702013015747,1.1954281330108643
1701857635115959600,9.47995947265625,-3.2901761531829834,2.1167385578155518,1.1331216096878052
1701857635125551900,9.4895517578125,-3.1814451217651367,2.3769593238830566,1.0011786222457886
1701857635135144700,9.499144775390626,-3.1484594345092773,2.479581832885742,0.8985562920570374
1701857635144738600,9.508738525390624,-3.100813388824463,2.615189790725708,0.8557969927787781
1701857635154331600,9.51833154296875,-3.031176805496216,2.8619720935821533,0.9095515608787537
1701857635163923700,9.527923828125,-2.887016773223877,3.283456802368164,0.9730796813964844
1701857635173516800,9.537516845703125,-2.7123146057128906,3.6719555854797363,0.9889616966247559
1701857635183110700,9.547110595703124,-2.6109139919281006,3.954167127609253,0.9315420985221863
1701857635192703700,9.556703857421875,-2.5095131397247314,3.968827247619629,0.9364288449287415
1701857635202295800,9.5662958984375,-2.2321887016296387,3.888195514678955,0.9119949340820312
1701857635211889000,9.575888916015625,-1.9609724283218384,3.8600964546203613,0.7788302302360535
1701857635221482800,9.585482666015626,-1.7349588871002197,3.7794647216796875,0.6236750483512878
1701857635231075600,9.59507568359375,-1.5358227491378784,3.6291961669921875,0.4903576374053955
1701857635240668000,9.60466796875,-1.3831108808517456,3.4239516258239746,0.4109475016593933
1701857635250261000,9.614260986328125,-1.2756017446517944,3.1490702629089355,0.36696648597717285
1701857635259854800,9.623854736328125,-1.1483927965164185,2.8008873462677,0.3058817684650421
1701857635269447700,9.63344775390625,-1.0054545402526855,2.3940632343292236,0.21181128919124603
1701857635279040000,9.6430400390625,-0.8808417320251465,1.9566965103149414,0.11529742181301117
1701857635288632800,9.6526328125,-0.763559103012085,1.5633108615875244,0.05787777900695801
1701857635298226700,9.662226806640625,-0.6902574300765991,1.2371183633804321,0.05543438717722893
1701857635307819800,9.67181982421875,-0.624285876750946,0.9463551044464111,0.09941539168357849
1701857635317411800,9.681411865234375,-0.5632011890411377,0.728893518447876,0.14828316867351532
1701857635327005000,9.6910048828125,-0.5106683373451233,0.6409314870834351,0.164165198802948
1701857635336598800,9.700598876953125,-0.45447036623954773,0.6128324866294861,0.14583978056907654
1701857635346192000,9.71019189453125,-0.4031592011451721,0.5896202921867371,0.09575030952692032
1701857635355784000,9.719783935546875,-0.37261682748794556,0.5774033665657043,0.06154286116361618
1701857635365377000,9.729376953125,-0.3689517378807068,0.5688515305519104,0.0590994730591774
1701857635374971000,9.738970947265624,-0.3787252902984619,0.5627430081367493,0.09086353331804276
1701857635384563700,9.748563720703125,-0.367730051279068,0.548082709312439,0.13117945194244385
1701857635394156000,9.758156005859375,-0.3396310806274414,0.488219678401947,0.1629435122013092
1701857635403749000,9.7677490234375,-0.31886225938796997,0.37704548239707947,0.17393875122070312
1701857635413343000,9.777343017578126,-0.29320669174194336,0.23288552463054657,0.15439164638519287
1701857635422935800,9.786935791015624,-0.2724378705024719,0.11682453751564026,0.13117945194244385
1701857635432528100,9.796528076171874,-0.2602209448814392,0.0325276181101799,0.11896250396966934
1701857635442121000,9.806120849609375,-0.2492256760597229,-0.018783552572131157,0.10430216789245605
1701857635451714800,9.81571484375,-0.23212195932865143,-0.06765133142471313,0.10308047384023666
1701857635461308000,9.825307861328126,-0.21746163070201874,-0.10063708573579788,0.10796725004911423
1701857635470900000,9.83489990234375,-0.21257483959197998,-0.15683503448963165,0.13240113854408264
1701857635480493000,9.8444931640625,-0.1966928243637085,-0.22647161781787872,0.1385096162557602
1701857635490087000,9.8540869140625,-0.16737215220928192,-0.30343836545944214,0.12629267573356628
1701857635499680000,9.863679931640625,-0.13927318155765533,-0.42453885078430176,0.10796725004911423
1701857635509272000,9.87327197265625,-0.09651386737823486,-0.578472375869751,0.04321744292974472
1701857635518865200,9.882865234375,-0.08185353130102158,-0.6346703171730042,-0.0459662564098835
1701857635528459000,9.892458984375,-0.0794101431965828,-0.5149442553520203,-0.12171131372451782
1701857635538051800,9.9020517578125,-0.05497625470161438,-0.31687700748443604,-0.16813570261001587
1701857635547644200,9.91164404296875,-0.026877280324697495,-0.12995775043964386,-0.19501298666000366
1701857635557237200,9.9212373046875,-0.006108472589403391,0.023975754156708717,-0.22189027070999146
1701857635566831000,9.9308310546875,0.007330167107284069,0.1253764033317566,-0.2414373755455017
1701857635576424000,9.940423828125,0.023212196305394173,0.14858859777450562,-0.2536543309688568
1701857635586016300,9.950016357421875,0.04886778071522713,0.10582929104566574,-0.27442312240600586
1701857635595609000,9.959609130859375,0.07452336698770523,0.06673506647348404,-0.30985227227211
1701857635605203000,9.969202880859376,0.09773556143045425,0.072843536734581,-0.34405970573425293
1701857635614796000,9.978796142578124,0.1185043677687645,0.09116895496845245,-0.36849361658096313
1701857635624388400,9.988388427734375,0.13805148005485535,0.10827267915010452,-0.3843756318092346
1701857635633981200,9.997981201171875,0.15515519678592682,0.11682453751564026,-0.37948885560035706
1701857635643575000,10.007574951171875,0.17958909273147583,0.08139539510011673,-0.35138988494873047
1701857635653168000,10.017168212890626,0.2089097648859024,0.012980503961443901,-0.31351736187934875
1701857635662760200,10.02676025390625,0.23945212364196777,-0.04199574887752533,-0.284196674823761
1701857635672353300,10.036353271484375,0.25533416867256165,-0.06520794332027435,-0.2585411071777344
1701857635681947100,10.045947021484375,0.25777754187583923,-0.07009471952915192,-0.23899398744106293
1701857635691540000,10.0555400390625,0.2504473626613617,-0.07009471952915192,-0.22433365881443024
1701857635701132300,10.06513232421875,0.23334364593029022,-0.06154286116361618,-0.20845162868499756
1701857635710725400,10.074725341796874,0.20402298867702484,-0.032222192734479904,-0.18401773273944855
1701857635720319200,10.0843193359375,0.16737215220928192,-0.005344913341104984,-0.14492350816726685
1701857635729912000,10.093912109375,0.14171656966209412,0.0007635590736754239,-0.10338589549064636
1701857635739504400,10.10350439453125,0.130721315741539,-0.01511846948415041,-0.07773031294345856
1701857635749097500,10.113097412109376,0.13560809195041656,-0.04932591691613197,-0.0716218426823616
1701857635758691000,10.122691162109374,0.14660334587097168,-0.0847550556063652,-0.08017370104789734
1701857635768284200,10.1322841796875,0.1575985997915268,-0.111632339656353,-0.09361234307289124
1701857635777876500,10.14187646484375,0.16370706260204315,-0.11774080991744995,-0.11315945535898209
1701857635787469300,10.15146923828125,0.16492876410484314,-0.10430216789245605,-0.13148486614227295
1701857635797063200,10.161063232421874,0.16859383881092072,-0.09208522737026215,-0.14614520967006683
1701857635806656300,10.17065625,0.17225892841815948,-0.09208522737026215,-0.15469707548618317
1701857635816248300,10.180248291015625,0.17592400312423706,-0.09330692142248154,-0.15836215019226074
1701857635825841400,10.18984130859375,0.17836740612983704,-0.10185877978801727,-0.15469707548618317
1701857635835435300,10.199435302734376,0.1844758689403534,-0.1104106456041336,-0.1510319858789444
1701857635845028000,10.209028076171874,0.19302773475646973,-0.12140589207410812,-0.1522536724805832
1701857635854620400,10.218620361328124,0.20402298867702484,-0.12995775043964386,-0.15714046359062195
1701857635864213500,10.228213623046875,0.20524467527866364,-0.12629267573356628,-0.1632489264011383
1701857635873807400,10.237807373046875,0.20402298867702484,-0.13484452664852142,-0.15469707548618317
1701857635883400200,10.247400146484376,0.20280128717422485,-0.1629435122013092,-0.13392825424671173
1701857635892992500,10.256992431640626,0.20280128717422485,-0.19226416945457458,-0.10949437320232391
1701857635902585600,10.266585693359374,0.20402298867702484,-0.22280654311180115,-0.09239064902067184
1701857635912179200,10.27617919921875,0.20768806338310242,-0.24846212565898895,-0.08139539510011673
1701857635921772300,10.285772216796875,0.20768806338310242,-0.2545706033706665,-0.07528692483901978
1701857635931364600,10.295364501953125,0.20646637678146362,-0.24846212565898895,-0.0716218426823616
1701857635940957400,10.30495751953125,0.20402298867702484,-0.2276933193206787,-0.0716218426823616
1701857635950551300,10.31455126953125,0.20280128717422485,-0.2044811248779297,-0.06917845457792282
1701857635960144400,10.324144287109375,0.20280128717422485,-0.18493400514125824,-0.06917845457792282
1701857635969736400,10.333736328125,0.20280128717422485,-0.17027367651462555,-0.072843536734581
1701857635979329500,10.34332958984375,0.20524467527866364,-0.16050012409687042,-0.08139539510011673
1701857635988923400,10.35292333984375,0.2089097648859024,-0.1507265567779541,-0.08994726091623306
1701857635998516200,10.36251611328125,0.21501824259757996,-0.13240113854408264,-0.10338589549064636
1701857636008108500,10.372108642578125,0.22479179501533508,-0.1385096162557602,-0.11560284346342087
1701857636017701600,10.38170166015625,0.2345653474330902,-0.1495048701763153,-0.13026317954063416
1701857636027295500,10.39129541015625,0.24189551174640656,-0.1519482582807541,-0.15347537398338318
1701857636036888300,10.400888427734374,0.2480039894580841,-0.1495048701763153,-0.1754658818244934
1701857636046480600,10.410480712890624,0.2516690790653229,-0.13973131775856018,-0.1901262104511261
1701857636056073700,10.42007373046875,0.24678228795528412,-0.1250709742307663,-0.19623468816280365
1701857636065667300,10.429667236328125,0.24433889985084534,-0.10918894410133362,-0.19867807626724243
1701857636075260400,10.439260498046876,0.24433889985084534,-0.09941539168357849,-0.19989976286888123
1701857636084852700,10.448852783203124,0.24433889985084534,-0.0981936976313591,-0.19989976286888123
1701857636094445600,10.458445556640624,0.24189551174640656,-0.10063708573579788,-0.2047865390777588
1701857636104039400,10.468039306640625,0.2357870489358902,-0.09330692142248154,-0.21211670339107513
1701857636113632500,10.477632568359375,0.23090025782585144,-0.0713164210319519,-0.21089501678943634
1701857636123224600,10.487224609375,0.22601348161697388,-0.06032116711139679,-0.20356485247612
1701857636132817700,10.496817626953124,0.2211267054080963,-0.06032116711139679,-0.19623468816280365
1701857636142411500,10.50641162109375,0.21623992919921875,-0.06154286116361618,-0.18523943424224854
1701857636152004400,10.51600439453125,0.2113531529903412,-0.06276455521583557,-0.1766875684261322
1701857636161596700,10.5255966796875,0.2089097648859024,-0.07009471952915192,-0.17057909071445465
1701857636171189800,10.535189697265626,0.20646637678146362,-0.0847550556063652,-0.1644706279039383
1701857636180783600,10.54478369140625,0.20524467527866364,-0.09575030952692032,-0.15469707548618317
1701857636190376400,10.55437646484375,0.20280128717422485,-0.10796725004911423,-0.14248012006282806
1701857636199968800,10.56396875,0.1954711228609085,-0.12262758612632751,-0.13026317954063416
1701857636209561900,10.573561767578125,0.19058434665203094,-0.13484452664852142,-0.11926792562007904
1701857636219155500,10.583155517578126,0.18691925704479218,-0.14217470586299896,-0.10949437320232391
1701857636228748500,10.59274853515625,0.1844758689403534,-0.14706148207187653,-0.09605573117733002
1701857636238340900,10.6023408203125,0.1844758689403534,-0.15561333298683167,-0.08139539510011673
1701857636247933700,10.61193359375,0.1844758689403534,-0.17149536311626434,-0.072843536734581
1701857636257527600,10.621527587890625,0.1820324808359146,-0.1910424828529358,-0.06795676052570343
1701857636267120600,10.63112060546875,0.1844758689403534,-0.20692451298236847,-0.07040014863014221
1701857636276712700,10.640712646484374,0.18569757044315338,-0.22524993121623993,-0.07528692483901978
1701857636286305800,10.650305908203125,0.1844758689403534,-0.23746687173843384,-0.08017370104789734
1701857636295899600,10.659899658203125,0.17836740612983704,-0.23991025984287262,-0.07895200699567795
1701857636305492500,10.669492431640625,0.17348061501979828,-0.23746687173843384,-0.07406523078680038
1701857636315084800,10.679084716796876,0.17225892841815948,-0.22647161781787872,-0.0716218426823616
1701857636324678000,10.688677978515624,0.17225892841815948,-0.2154763638973236,-0.06795676052570343
1701857636334271700,10.698271728515625,0.17714570462703705,-0.21058958768844604,-0.06795676052570343
1701857636343864600,10.707864501953125,0.18569757044315338,-0.21425467729568481,-0.07406523078680038
1701857636353457000,10.717456787109375,0.19302773475646973,-0.22036315500736237,-0.08628217875957489
1701857636363050000,10.727050048828126,0.19913621246814728,-0.2289150059223175,-0.10460758954286575
1701857636372643600,10.7366435546875,0.20402298867702484,-0.23502348363399506,-0.1253764033317566
1701857636382236700,10.746236572265625,0.20524467527866364,-0.23502348363399506,-0.14614520967006683
1701857636391829000,10.7558291015625,0.20157960057258606,-0.22524993121623993,-0.15958385169506073
1701857636401421800,10.765421875,0.20280128717422485,-0.21181128919124603,-0.17057909071445465
1701857636411015700,10.775015625,0.20402298867702484,-0.2044811248779297,-0.17913095653057098
1701857636420608800,10.78460888671875,0.20768806338310242,-0.19348587095737457,-0.18035265803337097
1701857636430200800,10.794200927734375,0.21379654109477997,-0.18615570664405823,-0.1779092699289322
1701857636439794000,10.8037939453125,0.21746163070201874,-0.18371231853961945,-0.17424418032169342
1701857636449387800,10.8133876953125,0.21379654109477997,-0.19348587095737457,-0.1620272397994995
1701857636458980600,10.822980712890624,0.20646637678146362,-0.21058958768844604,-0.14614520967006683
1701857636468573000,10.832572998046874,0.21746163070201874,-0.23258009552955627,-0.1388150453567505
1701857636478166000,10.842166015625,0.22967857122421265,-0.2582356929779053,-0.14248012006282806
1701857636487760000,10.851759765625,0.23212195932865143,-0.2802261710166931,-0.14736689627170563
1701857636497352700,10.861352783203126,0.23090025782585144,-0.3095468580722809,-0.1522536724805832
1701857636506945000,10.870945068359376,0.2223484069108963,-0.3217637836933136,-0.15469707548618317
1701857636516538000,10.8805380859375,0.2223484069108963,-0.32787227630615234,-0.15591876208782196
1701857636526131700,10.890131591796875,0.23334364593029022,-0.3217637836933136,-0.16813570261001587
1701857636535724800,10.899724853515625,0.24678228795528412,-0.31321191787719727,-0.18157434463500977
1701857636545317000,10.909317138671875,0.24556060135364532,-0.31565532088279724,-0.18401773273944855
1701857636554910000,10.918909912109376,0.23212195932865143,-0.3205420970916748,-0.18401773273944855
1701857636564503800,10.92850390625,0.22967857122421265,-0.33886751532554626,-0.18035265803337097
1701857636574097000,10.938096923828125,0.24433889985084534,-0.34253260493278503,-0.18401773273944855
1701857636583689000,10.94768896484375,0.2480039894580841,-0.3486410677433014,-0.18646112084388733
1701857636593282000,10.957281982421875,0.24311721324920654,-0.36574479937553406,-0.18401773273944855
1701857636602876000,10.9668759765625,0.23212195932865143,-0.3828485310077667,-0.18279604613780975
1701857636612468700,10.97646875,0.21379654109477997,-0.4011739492416382,-0.18035265803337097
1701857636622061000,10.98606103515625,0.20157960057258606,-0.4146125912666321,-0.18157434463500977
1701857636631654100,10.995654052734375,0.20646637678146362,-0.40606072545051575,-0.1913478970527649
1701857636641248000,11.005248046875,0.2089097648859024,-0.3852919042110443,-0.19745637476444244
1701857636650840800,11.0148408203125,0.20157960057258606,-0.36452311277389526,-0.19256959855556488
1701857636660433200,11.02443310546875,0.1954711228609085,-0.34375429153442383,-0.18279604613780975
1701857636670026200,11.034026123046875,0.18936264514923096,-0.32542887330055237,-0.17057909071445465
1701857636679619800,11.043619873046875,0.1844758689403534,-0.3058817684650421,-0.15958385169506073
1701857636689213000,11.053212890625,0.17836740612983704,-0.2838912606239319,-0.15591876208782196
1701857636698805200,11.06280517578125,0.17470231652259827,-0.25945737957954407,-0.15958385169506073
1701857636708398000,11.072398193359374,0.1698155403137207,-0.2313583940267563,-0.16935740411281586
1701857636717992000,11.081991943359375,0.16615045070648193,-0.19348587095737457,-0.17424418032169342
1701857636727585000,11.0915849609375,0.16126367449760437,-0.1519482582807541,-0.1754658818244934
1701857636737177000,11.101177001953126,0.15515519678592682,-0.111632339656353,-0.17302247881889343
1701857636746770200,11.110770263671874,0.1441599577665329,-0.08231166750192642,-0.16935740411281586
1701857636756364000,11.120364013671875,0.13560809195041656,-0.06765133142471313,-0.16691401600837708
1701857636765956900,11.129956787109375,0.130721315741539,-0.05421269312500954,-0.17302247881889343
1701857636775549200,11.139549072265625,0.12461283802986145,-0.04810422286391258,-0.17913095653057098
1701857636785142300,11.149142333984376,0.11361759155988693,-0.0456608310341835,-0.17913095653057098
1701857636794736000,11.158736083984374,0.10262233763933182,-0.0456608310341835,-0.17424418032169342
1701857636804329000,11.168328857421875,0.0916270911693573,-0.04688252881169319,-0.1656923145055771
1701857636813921300,11.17792138671875,0.08429691940546036,-0.04932591691613197,-0.15714046359062195
1701857636823514400,11.187514404296875,0.08063183724880219,-0.051769305020570755,-0.1498102843761444
1701857636833108200,11.197108154296876,0.0794101431965828,-0.05421269312500954,-0.14736689627170563
1701857636842701000,11.206701171875,0.08063183724880219,-0.0590994730591774,-0.1498102843761444
1701857636852293400,11.21629345703125,0.08185353130102158,-0.06398624926805496,-0.1522536724805832
1701857636861886200,11.22588623046875,0.08429691940546036,-0.06154286116361618,-0.1522536724805832
1701857636871480000,11.23547998046875,0.08551861345767975,-0.05421269312500954,-0.1498102843761444
1701857636881073200,11.2450732421875,0.08796200156211853,-0.04443913698196411,-0.14614520967006683
1701857636890665200,11.254665283203124,0.08918370306491852,-0.034665580838918686,-0.14003673195838928
1701857636900258300,11.26425830078125,0.08551861345767975,-0.031000498682260513,-0.13148486614227295
1701857636909852200,11.27385205078125,0.07330167293548584,-0.03955236077308655,-0.11804623156785965
1701857636919445200,11.2834453125,0.07207997888326645,-0.034665580838918686,-0.10827267915010452
1701857636929037300,11.293037353515626,0.06841489672660828,-0.021226942539215088,-0.09727742522954941
1701857636938630400,11.30263037109375,0.05986303091049194,-0.009009997360408306,-0.08383878320455551
1701857636948224300,11.312224365234375,0.0525328628718853,0.004428642801940441,-0.06917845457792282
1701857636957817000,11.321817138671875,0.047646086663007736,0.016645587980747223,-0.0594048947095871
1701857636967409400,11.331409423828125,0.042759306728839874,0.02641914412379265,-0.05085303261876106
1701857636977002500,11.34100244140625,0.03298575058579445,0.0325276181101799,-0.04230117425322533
1701857636986596400,11.350596435546874,0.023212196305394173,0.037414394319057465,-0.0325276181101799
1701857636996189200,11.360189208984375,0.013438640162348747,0.04230117425322533,-0.025197450071573257
1701857637005781500,11.369781494140625,0.004886778071522713,0.04963133856654167,-0.020310672000050545
1701857637015374300,11.379374267578125,-0.0024433890357613564,0.058183200657367706,-0.014202198944985867
1701857637024968200,11.38896826171875,-0.009773556143045425,0.06795676052570343,-0.009315420873463154
1701857637034561300,11.398561279296874,-0.01710372418165207,0.07528692483901978,-0.0032069480512291193
1701857637044153300,11.4081533203125,-0.023212196305394173,0.08261708915233612,0.0016798300202935934
1701857637053746400,11.417746337890625,-0.030542362481355667,0.08872556686401367,0.009009997360408306
1701857637063340300,11.42734033203125,-0.03665083646774292,0.09239064902067184,0.01511846948415041
1701857637072933400,11.436933349609374,-0.04153761267662048,0.09239064902067184,0.017561858519911766
1701857637082525400,11.446525390625,-0.046424392610788345,0.08994726091623306,0.021226942539215088
1701857637092118500,11.456118408203125,-0.05131116881966591,0.08383878320455551,0.02489202655851841
1701857637101712400,11.46571240234375,-0.05619794875383377,0.07528692483901978,0.02733541466295719
1701857637111305200,11.47530517578125,-0.062306419014930725,0.06306997686624527,0.029778804630041122
1701857637120897500,11.4848974609375,-0.0659715011715889,0.056961506605148315,0.034665580838918686
1701857637130490600,11.49449072265625,-0.06719319522380829,0.058183200657367706,0.03955236077308655
1701857637140084500,11.50408447265625,-0.062306419014930725,0.06062658876180649,0.04443913698196411
1701857637149677300,11.51367724609375,-0.05741964280605316,0.0594048947095871,0.04688252881169319
1701857637159269600,11.52326953125,-0.05008947476744652,0.04963133856654167,0.04199574887752533
1701857637168862500,11.532862548828126,-0.046424392610788345,0.03374931216239929,0.034665580838918686
1701857637178456300,11.542456298828125,-0.042759306728839874,0.015423892997205257,0.02733541466295719
1701857637188049400,11.55204931640625,-0.0390942245721817,-0.0065666078589856625,0.021226942539215088
1701857637197641700,11.561641845703125,-0.03665083646774292,-0.029778804630041122,0.018783552572131157
1701857637207234600,11.571234619140625,-0.03542914241552353,-0.04688252881169319,0.017561858519911766
1701857637216828400,11.580828369140624,-0.03420744836330414,-0.0590994730591774,0.017561858519911766
1701857637226421500,11.59042138671875,-0.03420744836330414,-0.06642963737249374,0.018783552572131157
1701857637236013600,11.600013671875,-0.03420744836330414,-0.07009471952915192,0.020005248486995697
1701857637245606700,11.609606689453125,-0.03665083646774292,-0.06765133142471313,0.02367033064365387
1701857637255200500,11.619200439453126,-0.03665083646774292,-0.06765133142471313,0.02489202655851841
1701857637264793300,11.62879345703125,-0.03665083646774292,-0.07009471952915192,0.018783552572131157
1701857637274385700,11.6383857421875,-0.03420744836330414,-0.07375980913639069,0.009009997360408306
1701857637283978800,11.647978759765625,-0.03176405653357506,-0.07986827939748764,0.0029015245381742716
1701857637293572600,11.657572509765625,-0.03176405653357506,-0.08719844371080399,0.0029015245381742716
1701857637303165400,11.66716552734375,-0.030542362481355667,-0.09208522737026215,0.004123218823224306
1701857637312757800,11.6767578125,-0.026877280324697495,-0.09086353331804276,0.005344913341104984
1701857637322350800,11.686350830078124,-0.023212196305394173,-0.08842013776302338,0.0065666078589856625
1701857637331944700,11.69594482421875,-0.023212196305394173,-0.08719844371080399,0.0016798300202935934
1701857637341537500,11.70553759765625,-0.03542914241552353,-0.08964183181524277,0.0004581354442052543
1701857637351129900,11.7151298828125,-0.129499614238739,-0.11651911586523056,0.052990999072790146
1701857637360722700,11.72472265625,-0.13682979345321655,-0.14461809396743774,0.05665608495473862
1701857637370316500,11.734316650390625,-0.09407047927379608,-0.19592925906181335,-0.0325276181101799
1701857637379909600,11.74390966796875,-0.025655584409832954,-0.21791976690292358,-0.13148486614227295
1701857637389501700,11.753501708984375,0.01954711228609085,-0.17882554233074188,-0.14003673195838928
1701857637399094800,11.7630947265625,0.026877280324697495,-0.12629267573356628,-0.09727742522954941
1701857637408688600,11.772688720703124,0.010995250195264816,-0.08108997344970703,-0.037414394319057465
1701857637418281700,11.78228173828125,-0.01588202826678753,-0.03833066672086716,0.03588727489113808
1701857637427873800,11.791873779296875,-0.04031591862440109,-0.007788302376866341,0.09575030952692032
1701857637437467000,11.801466796875,-0.0525328628718853,0.016645587980747223,0.1372879147529602
1701857637447060700,11.811060791015626,-0.05375456064939499,0.021532366052269936,0.14339639246463776
1701857637456653600,11.820653564453124,-0.05131116881966591,-0.011453386396169662,0.10796725004911423
1701857637466246000,11.830245849609375,-0.04886778071522713,-0.07864658534526825,0.0456608310341835
1701857637475839000,11.8398388671875,-0.026877280324697495,-0.1385096162557602,-0.020310672000050545
1701857637485432800,11.849432861328125,0.008551862090826035,-0.16050012409687042,-0.07895200699567795
1701857637495025700,11.859025634765626,0.029320668429136276,-0.1250709742307663,-0.08139539510011673
1701857637504618000,11.868617919921874,0.01710372418165207,-0.08353336155414581,-0.04840964451432228
1701857637514211000,11.878211181640625,0.004886778071522713,-0.05543438717722893,-0.019088976085186005
1701857637523804700,11.8878046875,0,-0.04443913698196411,-0.008093725889921188
1701857637533397800,11.897397705078125,-0.0012216945178806782,-0.03833066672086716,-0.004428642801940441
1701857637542990000,11.906989990234376,-0.0036650835536420345,-0.03588727489113808,-0.005650337319821119
1701857637552583000,11.9165830078125,-0.008551862090826035,-0.032222192734479904,-0.008093725889921188
