time,seconds_elapsed,z,y,x
1697746081166573800,0.15857373046875,-0.34482327103614807,0.04459185153245926,-0.6529957056045532
1697746081176166700,0.168166748046875,-0.5268557667732239,0.23273280262947083,-0.5967977643013
1697746081185760300,0.17776025390625,-0.6001574397087097,0.17409147322177887,-0.46729815006256104
1697746081195353000,0.18735302734375,-0.5537330508232117,-0.04214845970273018,-0.2632751762866974
1697746081204945200,0.196945068359375,-0.5549547076225281,-0.04337015375494957,0.039857782423496246
1697746081214538000,0.2065380859375,-0.5635066032409668,-0.01038440316915512,0.38193225860595703
1697746081224131600,0.216131591796875,-0.531742513179779,-0.14110571146011353,0.6250494718551636
1697746081233724400,0.225724365234375,-0.4828747510910034,-0.46241137385368347,0.7178982496261597
1697746081243316500,0.23531640625,-0.4694361090660095,-0.7934905886650085,0.705681324005127
1697746081252909300,0.244909423828125,-0.4975350797176361,-0.9290986657142639,0.6629219651222229
1697746081262503000,0.2545029296875,-0.5268557667732239,-0.7886037826538086,0.6580352187156677
1697746081272095700,0.264095703125,-0.5231906771659851,-0.4966188073158264,0.7130114436149597
1697746081281687800,0.273687744140625,-0.4743228852748871,-0.2217375487089157,0.7997517585754395
1697746081291280600,0.28328076171875,-0.37292224168777466,-0.00916270911693573,0.8486195802688599
1697746081300874200,0.292874267578125,-0.24586601555347443,0.12033691257238388,0.8278507590293884
1697746081310467000,0.302467041015625,-0.12965233623981476,0.15087927877902985,0.695907711982727
1697746081320059100,0.31205908203125,-0.04046862944960594,0.11422843486070633,0.4931064546108246
1697746081329652000,0.32165185546875,0.0328330397605896,0.09345962852239609,0.30130040645599365
1697746081339245600,0.33124560546875,0.1244601309299469,0.12033691257238388,0.1656923145055771
1697746081348838400,0.34083837890625,0.23563432693481445,0.15087927877902985,0.0716218426823616
1697746081358430500,0.350430419921875,0.3382566571235657,0.1044548824429512,-0.007788302376866341
1697746081368023300,0.360023193359375,0.3968980014324188,0.07513421028852463,-0.07864658534526825
1697746081377617000,0.369616943359375,0.4091149568557739,0.13866232335567474,-0.14721418917179108
1697746081387209700,0.379209716796875,0.37979426980018616,0.2241809368133545,-0.20463383197784424
1697746081396801800,0.3888017578125,0.3187095522880554,0.2363978922367096,-0.24250635504722595
1697746081406394600,0.39839453125,0.2429644912481308,0.1582094430923462,-0.2852656841278076
1697746081415988200,0.40798828125,0.1782146841287613,0.06658235192298889,-0.32313820719718933
1697746081425581000,0.4175810546875,0.12201674282550812,-0.004275931045413017,-0.3414636254310608
1697746081435173000,0.427173095703125,0.06826218217611313,-0.06169557198882103,-0.33413344621658325
1697746081444766000,0.436765869140625,0.01572931744158268,-0.08857285231351852,-0.312142938375473
1697746081454359600,0.446359619140625,-0.02214321307837963,-0.07635590434074402,-0.26938363909721375
1697746081463952400,0.455952392578125,-0.05390727147459984,-0.04825693368911743,-0.19974705576896667
1697746081473544400,0.46554443359375,-0.08322793990373611,-0.055587101727724075,-0.12262758612632751
1697746081483137300,0.47513720703125,-0.11254860460758209,-0.09834641218185425,-0.05421269312500954
1697746081492731000,0.48473095703125,-0.15546062588691711,-0.1582094430923462,-0.0029015245381742716
1697746081502324000,0.494323974609375,-0.2092151790857315,-0.24494975805282593,0.03130592033267021
1697746081511915800,0.503915771484375,-0.26663482189178467,-0.312142938375473,0.04718795046210289
1697746081521508600,0.513508544921875,-0.32161107659339905,-0.3390202224254608,0.04107947647571564
1697746081531102200,0.523102294921875,-0.36070531606674194,-0.3402419090270996,0.019088976085186005
1697746081540695000,0.532695068359375,-0.381474107503891,-0.3011476993560791,-0.010231691412627697
1697746081550287000,0.542287109375,-0.3668137788772583,-0.20463383197784424,-0.04077405482530594
1697746081559880000,0.5518798828125,-0.3045073449611664,-0.09834641218185425,-0.06154286116361618
1697746081569473500,0.5614736328125,-0.21165858209133148,-0.04581354558467865,-0.06154286116361618
1697746081579066600,0.571066650390625,-0.12720894813537598,-0.08124268800020218,-0.02489202655851841
1697746081588658400,0.580658447265625,-0.06978929787874222,-0.14843589067459106,0.04963133856654167
1697746081598251500,0.59025146484375,-0.05512896552681923,-0.2095206081867218,0.1375933438539505
1697746081607844900,0.599844970703125,-0.07467607408761978,-0.2632751762866974,0.21211670339107513
1697746081617438000,0.60943798828125,-0.10644013434648514,-0.32069480419158936,0.2585411071777344
1697746081627029800,0.61902978515625,-0.13331741094589233,-0.363454133272171,0.2658712565898895
1697746081636622800,0.628622802734375,-0.14690876007080078,-0.37567105889320374,0.2292204350233078
1697746081646216400,0.638216552734375,-0.1432436853647232,-0.34635040163993835,0.17302247881889343
1697746081655809300,0.647809326171875,-0.13331741094589233,-0.29381752014160156,0.11682453751564026
1697746081665401000,0.657401123046875,-0.1247655525803566,-0.2473931461572647,0.07406523078680038
1697746081674994200,0.666994140625,-0.10766182839870453,-0.22540263831615448,0.055739812552928925
1697746081684587800,0.676587890625,-0.08689302206039429,-0.22540263831615448,0.06917845457792282
1697746081694180600,0.6861806640625,-0.08078455179929733,-0.2498365342617035,0.09727742522954941
1697746081703772400,0.6957724609375,-0.09300149232149124,-0.2901524603366852,0.12781979143619537
1697746081713365500,0.705365478515625,-0.11865708231925964,-0.32069480419158936,0.14125843346118927
1697746081722959000,0.714958984375,-0.15057384967803955,-0.32191649079322815,0.1253764033317566
1697746081732552000,0.724552001953125,-0.17622943222522736,-0.29381752014160156,0.08750387281179428
1697746081742143700,0.734143798828125,-0.17989452183246613,-0.25350162386894226,0.039857782423496246
1697746081751736800,0.74373681640625,-0.16523417830467224,-0.20219044387340546,-0.0029015245381742716
1697746081761330400,0.753330322265625,-0.13713520765304565,-0.14721418917179108,-0.037108972668647766
1697746081770923300,0.76292333984375,-0.10766182839870453,-0.08979454636573792,-0.04810422286391258
1697746081780515000,0.77251513671875,-0.09055810421705246,-0.04337015375494957,-0.037108972668647766
1697746081790108200,0.782108154296875,-0.09666658192873001,-0.031153209507465363,-0.011453386396169662
1697746081799701800,0.79170166015625,-0.11621369421482086,-0.055587101727724075,0.015423892997205257
1697746081809294600,0.801294677734375,-0.14080029726028442,-0.10078980028629303,0.021532366052269936
1697746081818886700,0.81088671875,-0.15546062588691711,-0.15332266688346863,0.0032069480512291193
1697746081828479500,0.8204794921875,-0.168899267911911,-0.18753011524677277,-0.03955236077308655
1697746081838073000,0.830072998046875,-0.17989452183246613,-0.19241689145565033,-0.10185877978801727
1697746081847666000,0.839666015625,-0.17745113372802734,-0.18630841374397278,-0.16309621930122375
1697746081857257700,0.8492578125,-0.15546062588691711,-0.16553960740566254,-0.1948602795600891
1697746081866850800,0.858850830078125,-0.13209572434425354,-0.13866232335567474,-0.17897824943065643
1697746081876444400,0.8684443359375,-0.11743538826704025,-0.13621893525123596,-0.12751436233520508
1697746081886037200,0.878037353515625,-0.11499200016260147,-0.1447708010673523,-0.0590994730591774
1697746081895629300,0.88762939453125,-0.1247655525803566,-0.16187451779842377,-0.004123218823224306
1697746081905222100,0.89722216796875,-0.13713520765304565,-0.18753011524677277,0.015423892997205257
1697746081914815700,0.906815673828125,-0.14813046157360077,-0.21685077250003815,0.0007635590736754239
1697746081924408600,0.91640869140625,-0.16523417830467224,-0.25472331047058105,-0.04932591691613197
1697746081934000600,0.926000732421875,-0.1835595965385437,-0.2864873707294464,-0.11896250396966934
1697746081943593500,0.935593505859375,-0.18844637274742126,-0.2718270421028137,-0.18630841374397278
1697746081953187000,0.94518701171875,-0.17500774562358856,-0.21440738439559937,-0.25350162386894226
1697746081962780000,0.95477978515625,-0.21288026869297028,-0.16798299551010132,-0.3573456406593323
1697746081972372000,0.9643720703125,-0.22998400032520294,-0.13988402485847473,-0.4416425824165344
1697746081981964800,0.97396484375,-0.13331741094589233,-0.1582094430923462,-0.4367557764053345
1697746081991558400,0.983558349609375,-0.08689302206039429,-0.10811996459960938,-0.3671191930770874
1697746082001151200,0.993151123046875,-0.12843063473701477,-0.05925218388438225,-0.28282228112220764
1697746082010743300,1.002743408203125,-0.16767756640911102,-0.08857285231351852,-0.20463383197784424
1697746082020336000,1.012336181640625,-0.19821994006633759,-0.16676130890846252,-0.1582094430923462
1697746082029929700,1.0219296875,-0.23120568692684174,-0.2363978922367096,-0.1557660549879074
1697746082039522600,1.0315224609375,-0.25319617986679077,-0.2877090573310852,-0.17653486132621765
1697746082049114600,1.041114501953125,-0.2593046724796295,-0.30603447556495667,-0.20585553348064423
1697746082058707500,1.05070751953125,-0.2605263590812683,-0.28037887811660767,-0.24128466844558716
1697746082068301000,1.060301025390625,-0.2605263590812683,-0.2498365342617035,-0.2754921019077301
1697746082077894000,1.069893798828125,-0.25686126947402954,-0.23028941452503204,-0.2999260127544403
1697746082087486000,1.07948583984375,-0.25686126947402954,-0.20585553348064423,-0.30847787857055664
1697746082097078800,1.089078857421875,-0.26907822489738464,-0.17531315982341766,-0.3035911023616791
1697746082106672400,1.09867236328125,-0.2898470163345337,-0.14965757727622986,-0.29503923654556274
1697746082116265200,1.10826513671875,-0.30695074796676636,-0.1569877415895462,-0.29381752014160156
1697746082125857300,1.117857177734375,-0.3045073449611664,-0.1850867122411728,-0.29503923654556274
1697746082135450000,1.1274501953125,-0.2886253297328949,-0.19974705576896667,-0.28037887811660767
1697746082145043700,1.137043701171875,-0.275186687707901,-0.21929416060447693,-0.2473931461572647
1697746082154636500,1.146636474609375,-0.251974493265152,-0.2241809368133545,-0.18019993603229523
1697746082164228600,1.156228515625,-0.22021043300628662,-0.19241689145565033,-0.08108997344970703
1697746082173821400,1.165821533203125,-0.19821994006633759,-0.16187451779842377,0.016645587980747223
1697746082183415000,1.1754150390625,-0.18966807425022125,-0.17531315982341766,0.07650861889123917
1697746082193007900,1.1850078125,-0.18844637274742126,-0.21440738439559937,0.09239064902067184
1697746082202600000,1.194599853515625,-0.19944162666797638,-0.24372805655002594,0.07528692483901978
1697746082212192800,1.20419287109375,-0.21288026869297028,-0.25350162386894226,0.037414394319057465
1697746082221786400,1.213786376953125,-0.2238755226135254,-0.2583884000778198,-0.004123218823224306
1697746082231379200,1.223379150390625,-0.23120568692684174,-0.25594499707221985,-0.033443886786699295
1697746082240971300,1.23297119140625,-0.23364907503128052,-0.2339545041322708,-0.04077405482530594
1697746082250564000,1.242564208984375,-0.22998400032520294,-0.20219044387340546,-0.032222192734479904
1697746082260157700,1.25215771484375,-0.22021043300628662,-0.17897824943065643,-0.031000498682260513
1697746082269750500,1.26175048828125,-0.20188501477241516,-0.15332266688346863,-0.04199574887752533
1697746082279342600,1.271342529296875,-0.17745113372802734,-0.12155860662460327,-0.051769305020570755
1697746082288935400,1.280935302734375,-0.1701209545135498,-0.09590301662683487,-0.0590994730591774
1697746082298529000,1.290529052734375,-0.1835595965385437,-0.10201149433851242,-0.0713164210319519
1697746082308121900,1.300121826171875,-0.20677179098129272,-0.1178935244679451,-0.08353336155414581
1697746082317714000,1.3097138671875,-0.22509720921516418,-0.1447708010673523,-0.0981936976313591
1697746082327306800,1.319306640625,-0.24220094084739685,-0.1716480851173401,-0.11529742181301117
1697746082336900400,1.328900390625,-0.25441789627075195,-0.19241689145565033,-0.13117945194244385
1697746082346493200,1.3384931640625,-0.25563958287239075,-0.1960819661617279,-0.1447708010673523
1697746082356085200,1.348085205078125,-0.24708771705627441,-0.16553960740566254,-0.15332266688346863
1697746082365678000,1.357677978515625,-0.2373141646385193,-0.12522368133068085,-0.16065283119678497
1697746082375271700,1.367271728515625,-0.22631891071796417,-0.09956810623407364,-0.16553960740566254
1697746082384864500,1.376864501953125,-0.21288026869297028,-0.09712471067905426,-0.16798299551010132
1697746082394456600,1.38645654296875,-0.2104368805885315,-0.12033691257238388,-0.1582094430923462
1697746082404049400,1.39604931640625,-0.22021043300628662,-0.1557660549879074,-0.13499724864959717
1697746082413643000,1.40564306640625,-0.2360924631357193,-0.183865025639534,-0.09941539168357849
1697746082423235800,1.41523583984375,-0.24708771705627441,-0.1948602795600891,-0.06520794332027435
1697746082432828000,1.424827880859375,-0.251974493265152,-0.20463383197784424,-0.04321744292974472
1697746082442420700,1.434420654296875,-0.2483094036579132,-0.20585553348064423,-0.034665580838918686
1697746082452014300,1.444014404296875,-0.23975755274295807,-0.1960819661617279,-0.04199574887752533
1697746082461607200,1.453607177734375,-0.22876229882240295,-0.1704263836145401,-0.0590994730591774
1697746082471199200,1.46319921875,-0.21776704490184784,-0.15210096538066864,-0.08719844371080399
1697746082480792000,1.4727919921875,-0.2104368805885315,-0.1423274129629135,-0.111632339656353
1697746082490385700,1.4823857421875,-0.20432840287685394,-0.15087927877902985,-0.13240113854408264
1697746082499978500,1.491978515625,-0.20066332817077637,-0.18142163753509521,-0.15454435348510742
1697746082509570600,1.501570556640625,-0.20432840287685394,-0.20707722008228302,-0.17775654792785645
1697746082519163400,1.511163330078125,-0.21898874640464783,-0.22051586210727692,-0.20585553348064423
1697746082528757000,1.520757080078125,-0.2373141646385193,-0.23028941452503204,-0.2351761907339096
1697746082538349800,1.530349853515625,-0.2483094036579132,-0.2510582208633423,-0.2583884000778198
1697746082547942000,1.53994189453125,-0.2483094036579132,-0.2596100866794586,-0.26938363909721375
1697746082557534700,1.54953466796875,-0.2348707765340805,-0.2498365342617035,-0.2596100866794586
1697746082567128300,1.55912841796875,-0.21654535830020905,-0.23273280262947083,-0.23273280262947083
1697746082576721400,1.568721435546875,-0.1957765519618988,-0.21440738439559937,-0.1973036676645279
1697746082586313200,1.578313232421875,-0.1823379099369049,-0.20707722008228302,-0.16676130890846252
1697746082595906000,1.587906005859375,-0.17378604412078857,-0.21929416060447693,-0.15332266688346863
1697746082605500000,1.5975,-0.18111620843410492,-0.24372805655002594,-0.15943112969398499
1697746082615092500,1.607092529296875,-0.2092151790857315,-0.2644968628883362,-0.17409147322177887
1697746082624684500,1.6166845703125,-0.24464432895183563,-0.265718549489975,-0.17897824943065643
1697746082634277400,1.62627734375,-0.27029991149902344,-0.2376195788383484,-0.17409147322177887
1697746082643871000,1.63587109375,-0.28007346391677856,-0.1973036676645279,-0.1569877415895462
1697746082653464000,1.645464111328125,-0.27029991149902344,-0.13744063675403595,-0.13988402485847473
1697746082663056000,1.655055908203125,-0.24586601555347443,-0.07146912813186646,-0.1250709742307663
1697746082672648700,1.664648681640625,-0.2214321345090866,-0.02626643143594265,-0.12018419802188873
1697746082682242600,1.67424267578125,-0.20188501477241516,-0.016492875292897224,-0.12629267573356628
1697746082691835100,1.683835205078125,-0.17500774562358856,-0.037261683493852615,-0.13240113854408264
1697746082701427200,1.69342724609375,-0.145687073469162,-0.056808795779943466,-0.13988402485847473
1697746082711020000,1.70302001953125,-0.023364907130599022,-0.02504473738372326,-0.1582094430923462
1697746082720613600,1.712613525390625,0.05726693198084831,-0.021379653364419937,-0.1557660549879074
1697746082730206700,1.722206787109375,-0.06368082761764526,-0.10201149433851242,-0.12018419802188873
1697746082739798500,1.731798583984375,-0.2226538211107254,-0.15087927877902985,-0.06154286116361618
1697746082749391600,1.7413916015625,-0.2507528066635132,-0.16798299551010132,0.019088976085186005
1697746082758985200,1.750985107421875,-0.21898874640464783,-0.1557660549879074,0.04963133856654167
1697746082768577800,1.760577880859375,-0.19333316385746002,-0.11911521852016449,0.017867282032966614
1697746082778169900,1.770169921875,-0.16523417830467224,-0.07513421028852463,-0.016340164467692375
1697746082787762700,1.7797626953125,-0.13713520765304565,-0.04459185153245926,-0.0261137206107378
1697746082797356500,1.7893564453125,-0.13209572434425354,-0.022601349279284477,-0.028557108715176582
1697746082806949400,1.798949462890625,-0.145687073469162,-0.006719320081174374,-0.02244863659143448
1697746082816541200,1.808541259765625,-0.15912571549415588,-0.007941014133393764,-0.007788302376866341
1697746082826134300,1.81813427734375,-0.17256435751914978,-0.018936265259981155,0.008093725889921188
1697746082835728000,1.827727783203125,-0.18722468614578247,-0.0030542362947016954,0.015423892997205257
1697746082845320400,1.837320556640625,-0.19333316385746002,0.0397050715982914,0.01175880990922451
1697746082854912500,1.84691259765625,-0.17867282032966614,0.12278030067682266,-0.016340164467692375
1697746082864505300,1.85650537109375,-0.16034740209579468,0.19363857805728912,-0.08842013776302338
1697746082874099200,1.86609912109375,-0.144465371966362,0.16309621930122375,-0.1250709742307663
1697746082883692000,1.875692138671875,-0.13835690915584564,0.0787992998957634,-0.12140589207410812
1697746082893283800,1.885283935546875,-0.13209572434425354,-0.017714571207761765,-0.09086353331804276
1697746082902877000,1.894876953125,-0.12110047042369843,-0.10323318839073181,-0.04077405482530594
1697746082912470500,1.904470458984375,-0.11621369421482086,-0.17286977171897888,0.0068720318377017975
1697746082922063400,1.9140634765625,-0.11010521650314331,-0.2241809368133545,0.04230117425322533
1697746082931655200,1.9236552734375,-0.10644013434648514,-0.24006296694278717,0.06184828653931618
1697746082941248000,1.933248046875,-0.10399674624204636,-0.22051586210727692,0.07773031294345856
1697746082950841900,1.942841796875,-0.09666658192873001,-0.18997350335121155,0.08628217875957489
1697746082960434700,1.9524345703125,-0.08200624585151672,-0.1582094430923462,0.08261708915233612
1697746082970026500,1.962026611328125,-0.07101099193096161,-0.13866232335567474,0.07406523078680038
1697746082979619600,1.97161962890625,-0.06123743951320648,-0.11667182296514511,0.06917845457792282
1697746082989213200,1.981213134765625,-0.05024218559265137,-0.09956810623407364,0.06551336497068405
1697746082998806000,1.990805908203125,-0.045355409383773804,-0.08612946420907974,0.06917845457792282
1697746083008397800,2.000397705078125,-0.045355409383773804,-0.08490777015686035,0.06917845457792282
1697746083017990700,2.00999072265625,-0.047798797488212585,-0.08979454636573792,0.07040014863014221
1697746083027584500,2.01958447265625,-0.05390727147459984,-0.0922379344701767,0.0716218426823616
1697746083037177300,2.02917724609375,-0.06001574173569679,-0.09712471067905426,0.06795676052570343
1697746083046769200,2.03876904296875,-0.06734590977430344,-0.08857285231351852,0.06306997686624527
1697746083056362200,2.0483623046875,-0.08322793990373611,-0.06169557198882103,0.06062658876180649
1697746083065955800,2.057955810546875,-0.10766182839870453,-0.034818295389413834,0.05329642444849014
1697746083075548700,2.067548583984375,-0.13835690915584564,-0.02870982140302658,0.03374931216239929
1697746083085140500,2.077140380859375,-0.16767756640911102,-0.04581354558467865,0.001985253533348441
1697746083094733300,2.0867333984375,-0.1847812980413437,-0.08490777015686035,-0.03955236077308655
1697746083104327200,2.0963271484375,-0.19088977575302124,-0.12888877093791962,-0.0859767496585846
1697746083113920000,2.105919921875,-0.18966807425022125,-0.15943112969398499,-0.12751436233520508
1697746083123511800,2.11551171875,-0.18722468614578247,-0.16309621930122375,-0.15454435348510742
1697746083133105000,2.12510498046875,-0.17256435751914978,-0.13499724864959717,-0.16676130890846252
1697746083142698500,2.134698486328125,-0.145687073469162,-0.08857285231351852,-0.15943112969398499
1697746083152291300,2.144291259765625,-0.11743538826704025,-0.06169557198882103,-0.13499724864959717
1697746083161883100,2.153883056640625,-0.0978882759809494,-0.0653606578707695,-0.09452861547470093
1697746083171476200,2.163476318359375,-0.08689302206039429,-0.08490777015686035,-0.04810422286391258
1697746083181069800,2.17306982421875,-0.0844496339559555,-0.12766708433628082,-0.0065666078589856625
1697746083190662700,2.18266259765625,-0.08811471611261368,-0.17653486132621765,0.020310672000050545
1697746083200254500,2.19225439453125,-0.09666658192873001,-0.21196399629116058,0.03374931216239929
1697746083209847600,2.20184765625,-0.10399674624204636,-0.23028941452503204,0.03374931216239929
1697746083219441200,2.211441162109375,-0.10033166408538818,-0.22784602642059326,0.020310672000050545
1697746083229034000,2.221033935546875,-0.08811471611261368,-0.21562908589839935,0.001985253533348441
1697746083238625800,2.230625732421875,-0.07345438003540039,-0.21440738439559937,-0.018783552572131157
1697746083248218600,2.240218505859375,-0.06490252166986465,-0.22540263831615448,-0.032222192734479904
1697746083257812500,2.2498125,-0.07101099193096161,-0.22784602642059326,-0.03833066672086716
1697746083267405300,2.2594052734375,-0.08322793990373611,-0.23273280262947083,-0.04199574887752533
1697746083276997000,2.2689970703125,-0.08689302206039429,-0.24006296694278717,-0.03833066672086716
1697746083286590200,2.278590087890625,-0.08811471611261368,-0.25472331047058105,-0.004123218823224306
1697746083296183800,2.288183837890625,-0.10399674624204636,-0.2742704153060913,0.0716218426823616
1697746083305776600,2.297776611328125,-0.15301723778247833,-0.3255815804004669,0.16813570261001587
1697746083315368400,2.307368408203125,-0.2079934924840927,-0.42453885078430176,0.24754585325717926
1697746083324961300,2.316961181640625,-0.22754059731960297,-0.5015056133270264,0.2915268540382385
1697746083334555100,2.32655517578125,-0.23120568692684174,-0.5491516590118408,0.3184041380882263
1697746083344148000,2.33614794921875,-0.23120568692684174,-0.6126797795295715,0.34039464592933655
1697746083353739800,2.34573974609375,-0.18966807425022125,-0.6163448691368103,0.34283801913261414
1697746083363332900,2.355332763671875,-0.14080029726028442,-0.5589252710342407,0.3086305856704712
1697746083372926500,2.364926513671875,-0.09422318637371063,-0.4416425824165344,0.20356485247612
1697746083382519300,2.374519287109375,-0.05268557742238045,-0.30481278896331787,0.02764083817601204
1697746083392111000,2.384111083984375,-0.01725643500685692,-0.20707722008228302,-0.18753011524677277
1697746083401704000,2.393703857421875,0.0035123717971146107,-0.15087927877902985,-0.395218163728714
1697746083411297800,2.4032978515625,-0.02092151902616024,-0.14110571146011353,-0.5686988234519958
1697746083420890600,2.412890625,-0.08322793990373611,-0.1704263836145401,-0.6945333480834961
1697746083430482400,2.422482421875,-0.16279079020023346,-0.25594499707221985,-0.7739434838294983
1697746083440075500,2.432075439453125,-0.24097923934459686,-0.38910970091819763,-0.7800519466400146
1697746083449669000,2.441669189453125,-0.29717719554901123,-0.5100574493408203,-0.6725428104400635
1697746083459261700,2.45126171875,-0.3142809271812439,-0.5686988234519958,-0.45508119463920593
1697746083468853800,2.460853759765625,-0.3167243003845215,-0.624896764755249,-0.19363857805728912
1697746083478446600,2.470446533203125,-0.3301629424095154,-0.7922688722610474,0.056961506605148315
1697746083488040400,2.48004052734375,-0.3558185398578644,-1.040272831916809,0.27564483880996704
1697746083497633300,2.48963330078125,-0.3961344361305237,-1.2589561939239502,0.4760027229785919
1697746083507225000,2.49922509765625,-0.46332764625549316,-1.4226632118225098,0.6470399498939514
1697746083516818200,2.508818115234375,-0.5341859459877014,-1.554606318473816,0.7276718020439148
1697746083526411800,2.518411865234375,-0.5573981404304504,-1.6425682306289673,0.709346354007721
1697746083536004400,2.52800439453125,-0.5488462448120117,-1.6584503650665283,0.6445965766906738
1697746083545596400,2.537596435546875,-0.47920966148376465,-1.6425682306289673,0.571294903755188
1697746083555189200,2.547189208984375,-0.23364907503128052,-1.7965017557144165,0.5016583204269409
1697746083564782800,2.556782958984375,-0.03802524134516716,-1.9308881759643555,0.5150969624519348
1697746083574376000,2.5663759765625,-0.12843063473701477,-2.018850088119507,0.5358657836914062
1697746083583967700,2.5759677734375,-0.3643703758716583,-2.1935524940490723,0.5138752460479736
1697746083593560600,2.585560546875,-0.5207473039627075,-2.288844585418701,0.439351886510849
1697746083603154400,2.595154541015625,-0.5109737515449524,-2.02740216255188,0.3086305856704712
1697746083612747000,2.6047470703125,-0.2727433145046234,-1.0952491760253906,0.12048961967229843
1697746083622339000,2.614339111328125,0.0328330397605896,0.038483377546072006,-0.0847550556063652
1697746083631932000,2.623931884765625,0.23807771503925323,0.6065713167190552,-0.21562908589839935
1697746083641525500,2.633525390625,0.32726141810417175,0.860683798789978,-0.3695625960826874
1697746083651118300,2.643118408203125,0.2673983871936798,0.9083298444747925,-0.555260181427002
1697746083660710400,2.65271044921875,0.16721943020820618,0.6041279435157776,-0.6664343476295471
1697746083670303200,2.66230322265625,0.0841442123055458,0.1423274129629135,-0.6627692580223083
1697746083679897000,2.67189697265625,0.020616095513105392,-0.2632751762866974,-0.5381564497947693
1697746083689489700,2.68148974609375,-0.02214321307837963,-0.5919110178947449,-0.291374146938324
1697746083699081700,2.691081787109375,-0.047798797488212585,-0.8900044560432434,0.019088976085186005
1697746083708674600,2.700674560546875,-0.0844496339559555,-1.1453386545181274,0.30374380946159363
1697746083718268200,2.71026806640625,-0.12843063473701477,-1.271173119544983,0.5016583204269409
1697746083727861000,2.719861083984375,-0.15057384967803955,-1.2186403274536133,0.5969504714012146
1697746083737453000,2.729453125,-0.12843063473701477,-0.8179244995117188,0.6042806506156921
1697746083747046000,2.7390458984375,0.013285927474498749,-0.22906772792339325,0.5920637249946594
1697746083756639500,2.748639404296875,0.23441264033317566,-0.0006108472589403391,0.5651864409446716
1697746083766232300,2.758232421875,0.4518742561340332,0.04459185153245926,0.5236487984657288
1697746083775824400,2.767824462890625,0.7120952010154724,-0.08246438205242157,0.5395308136940002
1697746083785417200,2.777417236328125,0.9894198179244995,-0.3414636254310608,0.6788040399551392
1697746083795010800,2.7870107421875,1.1787824630737305,-0.5760289430618286,0.9023740887641907
1697746083804603600,2.796603759765625,1.1909993886947632,-0.7947123050689697,1.1063971519470215
1697746083814195700,2.80619580078125,1.0321791172027588,-1.3566917181015015,1.2187930345535278
1697746083823788500,2.81578857421875,1.1054807901382446,-2.282736301422119,1.2982031106948853
1697746083833382100,2.825382080078125,1.2704095840454102,-2.9401605129241943,1.2444485425949097
1697746083842975000,2.83497509765625,1.4267865419387817,-3.353093385696411,1.0477557182312012
1697746083852567000,2.844567138671875,1.5440691709518433,-3.46793270111084,0.6653653979301453
1697746083862160000,2.854159912109375,1.6295877695083618,-3.384857416152954,0.10338589549064636
1697746083871753500,2.86375341796875,1.7102196216583252,-3.234588861465454,-0.5369347333908081
1697746083881346300,2.87334619140625,1.815285325050354,-3.439833641052246,-1.0683718919754028
1697746083890938400,2.8829384765625,1.9545584917068481,-3.7244884967803955,-1.4715310335159302
1697746083900531000,2.892531005859375,2.076727867126465,-3.6988327503204346,-1.8404828310012817
1697746083910124000,2.9021240234375,2.1793503761291504,-3.425173282623291,-2.0664963722229004
1697746083919716900,2.911716796875,2.3332839012145996,-2.5087497234344482,-1.45198392868042
1697746083929308700,2.92130859375,2.606943368911743,-2.100703716278076,-0.22540263831615448
1697746083938901800,2.93090185546875,2.962456464767456,-1.9675390720367432,1.2664390802383423
1697746083948495400,2.940495361328125,3.237337827682495,-1.7989451885223389,2.7117037773132324
1697746083958088200,2.950088134765625,3.330186605453491,-1.489856481552124,3.711049795150757
1697746083967680000,2.959679931640625,3.2849838733673096,-1.5607147216796875,4.153303146362305
1697746083977273000,2.969273193359375,3.1689229011535645,-2.105590581893921,4.036020755767822
1697746083986866700,2.97886669921875,2.9783384799957275,-2.817838430404663,3.6084275245666504
1697746083996459500,2.98845947265625,2.6912403106689453,-3.3714187145233154,3.2956736087799072
1697746084006051300,2.99805126953125,2.3540525436401367,-3.5852153301239014,3.395852565765381
1697746084015644400,3.00764453125,2.1280391216278076,-3.656073570251465,3.9236247539520264
1697746084025238000,3.017238037109375,2.0498507022857666,-3.7012763023376465,4.450174808502197
1697746084034830800,3.026830810546875,2.1500296592712402,-3.572998285293579,4.648089408874512
1697746084044422700,3.036422607421875,2.4688918590545654,-3.2883434295654297,4.532028675079346
1697746084054015500,3.046015380859375,3.1322720050811768,-2.540513753890991,4.414745807647705
1697746084063609000,3.055609130859375,4.058316707611084,-1.2870551347732544,4.585783004760742
1697746084073202200,3.0652021484375,4.61907434463501,-0.7372926473617554,4.422076225280762
1697746084082794000,3.0747939453125,4.859747886657715,-0.6529957056045532,3.8576531410217285
1697746084092387000,3.084386962890625,4.787668228149414,-0.6835380792617798,3.1111977100372314
1697746084101980700,3.093980712890625,4.6154093742370605,-0.91566002368927,2.329313278198242
1697746084111573200,3.1035732421875,4.471249103546143,-0.8594620823860168,1.6439427137374878
1697746084121165300,3.113165283203125,4.345414638519287,-0.5247178077697754,1.0501991510391235
1697746084130758100,3.122758056640625,4.218358516693115,-0.46241137385368347,0.6617003083229065
1697746084140351700,3.132351806640625,3.9825713634490967,-0.6236750483512878,0.5077667832374573
1697746084149944600,3.141944580078125,3.6001811027526855,-0.754396378993988,0.548082709312439
1697746084159536600,3.15153662109375,3.142045497894287,-0.8118160367012024,0.669030487537384
1697746084169129500,3.16112939453125,2.8818247318267822,-0.7531746625900269,0.7301151752471924
1697746084178723000,3.17072314453125,2.9062585830688477,-0.70797199010849,0.6384881138801575
1697746084188316000,3.18031591796875,3.123720169067383,-0.42698222398757935,0.45889899134635925
1697746084197908000,3.189907958984375,3.4865634441375732,0.25472331047058105,0.18157434463500977
1697746084207500800,3.199500732421875,3.8481850624084473,0.869235634803772,-0.24372805655002594
1697746084217094400,3.209094482421875,4.14505672454834,1.22963547706604,-0.739736020565033
1697746084226687200,3.218687255859375,4.391839027404785,1.6535634994506836,-1.2357439994812012
1697746084236279300,3.228279296875,4.539664268493652,2.0982604026794434,-1.6156909465789795
1697746084245872000,3.2378720703125,4.461475849151611,2.4050583839416504,-1.8074970245361328
1697746084255465700,3.2474658203125,4.041212558746338,2.369476556777954,-1.9357749223709106
1697746084265058600,3.25705859375,3.2788753509521484,2.1862223148345947,-2.1080338954925537
1697746084274650600,3.266650634765625,2.3332839012145996,1.7610726356506348,-2.268075942993164
1697746084284243500,3.276243408203125,1.430451512336731,1.3676869869232178,-2.4342262744903564
1697746084293837000,3.285837158203125,0.742637574672699,1.428771734237671,-2.6626832485198975
1697746084303430000,3.295429931640625,0.5239542126655579,1.401894450187683,-2.9693286418914795
1697746084313022000,3.30502197265625,0.6803311109542847,0.9584193229675293,-3.268643617630005
1697746084322614800,3.31461474609375,0.8965710401535034,0.5137225389480591,-3.228327751159668
1697746084332208400,3.32420849609375,1.1128109693527222,0.32313820719718933,-2.754310369491577
1697746084341801200,3.33380126953125,1.288735032081604,0.014049487188458443,-2.134911060333252
1697746084351393300,3.343393310546875,1.514748454093933,-0.48806697130203247,-1.5619364976882935
1697746084360986000,3.352986083984375,1.871483325958252,-0.938872218132019,-1.142895221710205
1697746084370579700,3.362579833984375,2.184237003326416,-1.2052016258239746,-1.0891406536102295
1697746084380172500,3.372172607421875,2.4078071117401123,-1.2565127611160278,-1.1819894313812256
1697746084389764600,3.3817646484375,2.4493448734283447,-1.3041589260101318,-1.0231691598892212
1697746084399357400,3.391357421875,3.0479750633239746,-1.2369656562805176,-0.6688777208328247
1697746084408951000,3.400950927734375,3.7394542694091797,-1.4153331518173218,-0.20707722008228302
1697746084418543900,3.4105439453125,4.259896278381348,-1.428771734237671,0.32939937710762024
1697746084428136000,3.420135986328125,4.567763328552246,-1.4470971822738647,0.8913788795471191
1697746084437728800,3.429728759765625,4.90372896194458,-1.3579134941101074,1.4729053974151611
1697746084447322400,3.439322265625,5.144402980804443,-1.2039799690246582,2.065427303314209
1697746084456915200,3.448915283203125,5.420658588409424,-0.9144383668899536,2.600529432296753
1697746084466507300,3.45850732421875,5.900784492492676,-0.5076140761375427,3.0012452602386475
1697746084476100000,3.46810009765625,6.603259086608887,0.5638120174407959,3.3078906536102295
1697746084485693700,3.477693603515625,7.2678608894348145,1.719534993171692,3.7183799743652344
1697746084495286500,3.48728662109375,6.986870765686035,0.7336275577545166,4.183845520019531
1697746084504878600,3.496878662109375,5.366903781890869,0.07391251623630524,4.95595645904541
1697746084514471400,3.506471435546875,4.127953052520752,1.6071391105651855,4.933966159820557
1697746084524065000,3.51606494140625,3.818864345550537,2.7031519412994385,2.9951367378234863
1697746084533657900,3.525657958984375,3.5342094898223877,2.617633104324341,1.9945690631866455
1697746084543249700,3.535249755859375,2.867164373397827,2.236311912536621,2.2083654403686523
1697746084552842800,3.5448427734375,1.9008039236068726,1.8294875621795654,2.3500821590423584
1697746084562436400,3.554436279296875,1.0480611324310303,0.8264763355255127,2.5760955810546875
1697746084572029200,3.564029296875,0.14645062386989594,0.1582094430923462,3.2565793991088867
1697746084581621200,3.573621337890625,-0.3142809271812439,0.9718579649925232,2.297549247741699
1697746084591214000,3.583214111328125,-0.3301629424095154,0.9914051294326782,1.5889664888381958
1697746084600807700,3.5928076171875,-0.36314868927001953,0.8704573512077332,1.4118207693099976
1697746084610400500,3.602400390625,-0.4987567961215973,0.6065713167190552,1.200467586517334
1697746084619992300,3.611992431640625,-0.674680769443512,0.32313820719718933,0.9316948056221008
1697746084629585400,3.62158544921875,-0.7797465324401855,0.05925218388438225,0.6397097706794739
1697746084639179000,3.631178955078125,-0.8286142945289612,-0.2095206081867218,0.3465031087398529
1697746084648771800,3.640771728515625,-0.9727742671966553,-0.39888325333595276,0.18157434463500977
1697746084658363600,3.65036376953125,-1.1047172546386719,-0.3658975064754486,0.17057909071445465
1697746084667956500,3.65995654296875,-1.197566032409668,-0.1960819661617279,0.22066856920719147
1697746084677550000,3.669550048828125,-1.3539429903030396,-0.06413896381855011,0.20722992718219757
1697746084687143200,3.67914306640625,-1.6947957277297974,0.1447708010673523,0.14125843346118927
1697746084696735000,3.68873486328125,-2.088181257247925,0.2229592502117157,-0.06765133142471313
1697746084706327800,3.698327880859375,-2.473015069961548,0.2901524603366852,-0.3390202224254608
1697746084715921700,3.707921630859375,-2.870065927505493,0.2987042963504791,-0.5613686442375183
1697746084725514200,3.71751416015625,-3.098522663116455,0.13377554714679718,-0.7250757217407227
1697746084735106300,3.727106201171875,-2.915268659591675,-0.08124268800020218,-0.7678350210189819
1697746084744699100,3.73669921875,-2.2079074382781982,-0.4318690001964569,-0.8008207678794861
1697746084754292700,3.746292724609375,-1.3576080799102783,-0.8386932611465454,-0.8961129188537598
1697746084763885600,3.755885498046875,-0.6600204706192017,-0.762948215007782,-1.0915840864181519
1697746084773477600,3.7654775390625,-0.47676628828048706,-0.837471604347229,-1.3518049716949463
1697746084783070500,3.775070556640625,-0.9153546094894409,-0.9608627557754517,-1.5191770792007446
1697746084792664000,3.7846640625,-1.6728051900863647,-0.8313631415367126,-1.4910781383514404
1697746084802257000,3.7942568359375,-2.2628836631774902,-0.5613686442375183,-1.3371446132659912
1697746084811849000,3.803848876953125,-2.67825984954834,-0.3255815804004669,-1.0390511751174927
1697746084821441800,3.81344189453125,-2.7527830600738525,-0.18753011524677277,-0.7348492741584778
1697746084831035400,3.823035400390625,-2.4461379051208496,0.06291726976633072,-0.6163448691368103
1697746084840628200,3.832628173828125,-1.9269176721572876,0.08857285231351852,-0.656660795211792
1697746084850220300,3.84222021484375,-1.4296879768371582,-0.07391251623630524,-0.7934905886650085
1697746084859813000,3.851813232421875,-1.0277504920959473,-0.23884128034114838,-0.9743013978004456
1697746084869406700,3.86140673828125,-0.5842754244804382,-0.21807247400283813,-1.111131191253662
1697746084878999600,3.87099951171875,-0.07467607408761978,-0.3439069986343384,-1.1807677745819092
1697746084888591600,3.880591552734375,0.533727765083313,-1.4690876007080078,-1.1221264600753784
1697746084898184400,3.890184326171875,1.274074673652649,-2.760418653488159,-1.0793671607971191
1697746084907778000,3.899778076171875,1.964332103729248,-3.0452263355255127,-1.1673290729522705
1697746084917371000,3.909370849609375,2.5238680839538574,-3.222372055053711,-1.3469182252883911
1697746084926963000,3.918962890625,3.379054307937622,-3.7684693336486816,-1.4483188390731812
1697746084936555800,3.9285556640625,4.320981025695801,-4.15818977355957,-1.3481398820877075
1697746084946149400,3.9381494140625,4.368627071380615,-3.659738540649414,-1.2369656562805176
1697746084955742200,3.9477421875,3.7504494190216064,-1.6853275299072266,-1.4825263023376465
1697746084965334300,3.957334228515625,2.852504014968872,0.43919917941093445,-1.9748691320419312
1697746084974927000,3.966927001953125,2.0559592247009277,1.7732895612716675,-2.490424156188965
1697746084984520700,3.976520751953125,1.5831633806228638,2.2583022117614746,-2.7469801902770996
1697746084994113500,3.986113525390625,1.3424896001815796,1.8734685182571411,-2.705442428588867
1697746085003705600,3.99570556640625,0.9368869662284851,0.9608627557754517,-2.560060977935791
1697746085013298400,4.00529833984375,0.24907296895980835,0.2852656841278076,-2.337712526321411
1697746085022892000,4.01489208984375,-0.5207473039627075,0.22540263831615448,-2.1312460899353027
1697746085032484900,4.02448486328125,-1.0888352394104004,0.4049917459487915,-1.9137845039367676
1697746085042077000,4.034076904296875,-1.3624948263168335,0.46729815006256104,-1.6059174537658691
1697746085051669800,4.043669677734375,-1.313627004623413,0.6090146899223328,-1.3847907781600952
1697746085061263400,4.053263427734375,-1.0668447017669678,0.7995990514755249,-1.2833900451660156
1697746085070856200,4.062856201171875,-0.6991146802902222,0.7592831254005432,-1.1807677745819092
1697746085080448300,4.0724482421875,-0.23853585124015808,0.41354358196258545,-0.9743013978004456
1697746085090041000,4.082041015625,0.18432316184043884,0.1044548824429512,-0.7201889157295227
1697746085099634700,4.091634765625,0.38223767280578613,-0.19363857805728912,-0.518609344959259
1697746085109227500,4.1012275390625,0.3834593594074249,-0.5002838969230652,-0.4049917459487915
1697746085118819600,4.110819580078125,0.27595025300979614,-0.6554391384124756,-0.4343124032020569
1697746085128412400,4.120412353515625,0.12690351903438568,-0.6872031688690186,-0.5051707029342651
1697746085138006000,4.130006103515625,-0.0038177953101694584,-0.7165238261222839,-0.573585569858551
1697746085147598800,4.139598876953125,-0.12354385852813721,-0.7324058413505554,-0.6322268843650818
1697746085157190700,4.149190673828125,-0.27152159810066223,-0.70797199010849,-0.6957550048828125
1697746085166783700,4.15878369140625,-0.47676628828048706,-0.6163448691368103,-0.7666133046150208
1697746085176377300,4.16837744140625,-0.7027797698974609,-0.4074351191520691,-0.8582404255867004
1697746085185970200,4.17797021484375,-0.9031376838684082,-0.16798299551010132,-0.9633061289787292
1697746085195562000,4.18756201171875,-1.0570712089538574,-0.020157959312200546,-1.0390511751174927
1697746085205155000,4.197155029296875,-1.134037971496582,-0.021379653364419937,-1.064706802368164
1697746085214748700,4.206748779296875,-1.1413681507110596,-0.0653606578707695,-1.0476030111312866
1697746085224341500,4.216341552734375,-1.1083823442459106,-0.0787992998957634,-0.9914051294326782
1697746085233933300,4.225933349609375,-1.0289721488952637,-0.020157959312200546,-0.9095515608787537
1697746085243526400,4.2355263671875,-0.9214630722999573,0.17897824943065643,-0.8435800671577454
1697746085253120000,4.2451201171875,-0.8200624585151672,0.41232189536094666,-0.8105943202972412
1697746085262712800,4.254712890625,-0.6844543814659119,0.7018635272979736,-0.7617265582084656
1697746085272304600,4.2643046875,-0.4987567961215973,0.9266552925109863,-0.6700994372367859
1697746085281897500,4.2738974609375,-0.29839888215065,0.8985562920570374,-0.5894675850868225
1697746085291491000,4.283490966796875,-0.06978929787874222,0.5821374654769897,-0.45385950803756714
1697746085301084200,4.293084228515625,0.15622419118881226,0.07391251623630524,-0.22051586210727692
1697746085310676000,4.302676025390625,0.3077143132686615,-0.24372805655002594,0.03130592033267021
1697746085320268800,4.312268798828125,0.35169529914855957,-0.2718270421028137,0.20234315097332
1697746085329862700,4.321862548828125,0.26495498418807983,-0.07269082218408585,0.2683146595954895
1697746085339455200,4.331455322265625,0.10613471269607544,0.30603447556495667,0.26220619678497314
1697746085349047300,4.34104736328125,-0.13331741094589233,0.5198310017585754,0.30985227227211
1697746085358640000,4.35064013671875,-0.45477578043937683,0.4416425824165344,0.44790375232696533
1697746085368233700,4.360233642578125,-0.6759024858474731,0.2901524603366852,0.6116108298301697
1697746085377826600,4.36982666015625,-0.6820109486579895,0.17286977171897888,0.7484406232833862
1697746085387418600,4.379418701171875,-0.5745018720626831,0.19974705576896667,0.8107470273971558
1697746085397011500,4.389011474609375,-0.4169032573699951,0.38422292470932007,0.8254073858261108
1697746085406605000,4.39860498046875,-0.06734590977430344,0.4330907166004181,0.7679877281188965
1697746085416198000,4.408197998046875,0.4665345847606659,0.3365768492221832,0.7191199064254761
1697746085425790000,4.4177900390625,0.9246700406074524,0.8521319031715393,0.73255854845047
1697746085435382800,4.4273828125,1.2142115831375122,1.6682238578796387,0.7301151752471924
1697746085444976400,4.436976318359375,1.2899566888809204,1.8160488605499268,0.6763606071472168
1697746085454569200,4.4465693359375,1.0162971019744873,1.276059865951538,0.488219678401947
1697746085464161300,4.456161376953125,0.7133168578147888,0.4709632396697998,0.0850604772567749
1697746085473754000,4.465754150390625,0.6497887969017029,-0.12033691257238388,-0.3158080279827118
1697746085483347700,4.47534765625,0.7389724850654602,-0.24128466844558716,-0.4746283292770386
1697746085492940500,4.4849404296875,0.7841751575469971,0.033596597611904144,-0.41110020875930786
1697746085502532600,4.49453271484375,0.7548545002937317,0.5112791657447815,-0.29503923654556274
1697746085512125400,4.50412548828125,0.760962963104248,0.6835380792617798,-0.032222192734479904
1697746085521719000,4.513718994140625,0.9368869662284851,0.6395570635795593,0.2157817929983139
1697746085531311900,4.523311767578125,1.0871554613113403,0.6432221531867981,0.43324342370033264
1697746085540904000,4.532904052734375,1.093263864517212,0.6236750483512878,0.6384881138801575
1697746085550496800,4.542496826171875,0.9979717135429382,0.40010493993759155,0.7569924592971802
1697746085560090400,4.55209033203125,0.92711341381073,-0.05070032179355621,0.8229639530181885
1697746085569683200,4.56168310546875,1.2581926584243774,-0.21562908589839935,0.9952229261398315
1697746085579275300,4.571275146484375,1.9435632228851318,0.04947862774133682,1.514443039894104
1697746085588868000,4.5808681640625,2.4493448734283447,0.5051707029342651,2.4050583839416504
1697746085598461700,4.590461669921875,2.9380226135253906,0.7116370797157288,3.0220141410827637
1697746085608054500,4.600054443359375,3.402266502380371,0.24128466844558716,3.2590229511260986
1697746085617646600,4.609646484375,3.601402759552002,-0.2376195788383484,2.8204345703125
1697746085627239400,4.619239501953125,3.5977375507354736,-0.4367557764053345,1.6439427137374878
1697746085636833000,4.6288330078125,3.303309202194214,-0.46851983666419983,-0.02733541466295719
1697746085646425900,4.63842578125,2.632598876953125,-0.5430431962013245,-1.2381874322891235
1697746085656018000,4.648017822265625,1.9655537605285645,-0.7763868570327759,-1.7134265899658203
1697746085665610800,4.65761083984375,1.7847429513931274,-0.7715001106262207,-1.7464122772216797
1697746085675204400,4.667204345703125,1.916685938835144,-0.5393781065940857,-1.4275500774383545
1697746085684797200,4.676797119140625,2.245321750640869,-0.09956810623407364,-0.7849387526512146
1697746085694389200,4.68638916015625,2.470113515853882,0.3365768492221832,-0.010231691412627697
1697746085703982000,4.695982177734375,2.4493448734283447,0.762948215007782,0.62627112865448
1697746085713575700,4.70557568359375,2.2673122882843018,0.9706363081932068,1.0379822254180908
1697746085723168500,4.71516845703125,2.1048269271850586,1.035386085510254,1.2603305578231812
1697746085732760600,4.724760498046875,1.9533368349075317,1.1709941625595093,1.3238587379455566
1697746085742353400,4.734353515625,1.7945165634155273,1.3762388229370117,1.26399564743042
1697746085751947000,4.743947021484375,1.6418046951293945,1.4263283014297485,1.1515997648239136
1697746085761539800,4.753539794921875,1.5049749612808228,1.151447057723999,1.0489774942398071
1697746085771132000,4.7631318359375,1.390135645866394,0.4734066128730774,0.9891144037246704
1697746085780724700,4.772724853515625,1.3461546897888184,-0.4049917459487915,0.8950439691543579
1697746085790318300,4.782318359375,1.4267865419387817,-0.8594620823860168,0.645818293094635
1697746085799911200,4.7919111328125,1.1885560750961304,-1.1697725057601929,0.3746020793914795
1697746085809503200,4.801503173828125,0.705986738204956,-1.6156909465789795,0.13026317954063416
1697746085819096000,4.811095947265625,0.1366770714521408,-2.0616095066070557,-0.0456608310341835
1697746085828689700,4.820689697265625,-0.32161107659339905,-2.305948495864868,-0.05421269312500954
1697746085838282500,4.830282470703125,-0.36314868927001953,-2.1300244331359863,0.08628217875957489
1697746085847874300,4.839874267578125,-0.07589777559041977,-1.5643798112869263,0.35505497455596924
1697746085857467400,4.84946728515625,0.2160872220993042,-0.9962918758392334,0.7447755336761475
1697746085867061000,4.85906103515625,0.2930539846420288,-0.6529957056045532,1.167481780052185
1697746085876653800,4.86865380859375,0.20875705778598785,-0.6346703171730042,1.579192876815796
1697746085886246000,4.878245849609375,0.04871506989002228,-1.0854755640029907,1.9261541366577148
1697746085895838700,4.887838623046875,-0.17745113372802734,-1.8881288766860962,2.050766944885254
1697746085905432300,4.897432373046875,-0.41445985436439514,-2.5466222763061523,1.8504090309143066
1697746085915025200,4.907025146484375,-0.6331431865692139,-2.43300461769104,1.381278395652771
1697746085924617000,4.916616943359375,-0.8640434741973877,-1.4861913919448853,0.7924215793609619
1697746085934210000,4.9262099609375,-1.1315945386886597,-0.12766708433628082,0.23655059933662415
1697746085943803600,4.9358037109375,-1.3429477214813232,1.1697725057601929,-0.18630841374397278
1697746085953396500,4.945396484375,-1.4272446632385254,2.0176284313201904,-0.46851983666419983
1697746085962988300,4.95498828125,-1.4040324687957764,2.195995807647705,-0.6517740488052368
1697746085972581400,4.964581298828125,-1.2781978845596313,1.7793980836868286,-0.7947123050689697
1697746085982175000,4.974175048828125,-1.0802834033966064,0.9791881442070007,-0.7824953198432922
1697746085991767800,4.983767822265625,-0.8567132949829102,0.13988402485847473,-0.5222744345664978
1697746086001359600,4.993359619140625,-0.5586197972297668,-0.2718270421028137,-0.07986827939748764
1697746086010952700,5.00295263671875,-0.26785650849342346,-0.3658975064754486,0.3733803927898407
1697746086020546300,5.01254638671875,-0.10644013434648514,-0.27915719151496887,0.654370129108429
1697746086030139100,5.02213916015625,-0.05757235363125801,-0.06658235192298889,0.7117897868156433
1697746086039731000,5.03173095703125,-0.007482878863811493,0.15087927877902985,0.5896202921867371
1697746086049323800,5.04132373046875,0.062153708189725876,0.21318569779396057,0.33917292952537537
1697746086058917600,5.050917724609375,0.10246963053941727,0.04459185153245926,0.019088976085186005
1697746086068510500,5.060510498046875,0.10613471269607544,-0.2620534598827362,-0.31947311758995056
1697746086078102300,5.070102294921875,0.07070557028055191,-0.555260181427002,-0.6346703171730042
1697746086087695400,5.0796953125,-0.0331384651362896,-0.7666133046150208,-0.8667922616004944
1697746086097289000,5.0892890625,-0.18600298464298248,-0.8496885299682617,-1.0072871446609497
1697746086106881500,5.098881591796875,-0.3374931216239929,-0.7372926473617554,-1.1123528480529785
1697746086116473600,5.1084736328125,-0.4718795120716095,-0.46485477685928345,-1.2381874322891235
1697746086126066400,5.11806640625,-0.587940514087677,-0.08979454636573792,-1.4067811965942383
1697746086135660000,5.127659912109375,-0.6795675754547119,0.3414636254310608,-1.5888136625289917
1697746086145252900,5.1372529296875,-0.7149966955184937,0.7458444833755493,-1.7537424564361572
1697746086154845000,5.146844970703125,-0.7101099491119385,1.0195040702819824,-1.8698034286499023
1697746086164437800,5.156437744140625,-0.7137750387191772,1.1257915496826172,-1.8966807126998901
1697746086174031600,5.166031494140625,-0.7101099491119385,1.1880979537963867,-1.8404828310012817
1697746086183624200,5.175624267578125,-0.6905628442764282,1.2846118211746216,-1.7219784259796143
1697746086193216300,5.18521630859375,-0.6685723066329956,1.4238849878311157,-1.5900354385375977
1697746086202809000,5.19480908203125,-0.6722373962402344,1.5949221849441528,-1.489856481552124
1697746086212402700,5.204402587890625,-0.7699729800224304,1.7916150093078613,-1.4605357646942139
1697746086221995500,5.21399560546875,-1.0045382976531982,1.90645432472229,-1.5326157808303833
1697746086231587600,5.223587646484375,-1.3563863039016724,1.725643515586853,-1.646233320236206
1697746086241180400,5.233180419921875,-1.7888661623001099,1.2198619842529297,-1.7158699035644531
1697746086250774000,5.24277392578125,-2.1883602142333984,0.5234960913658142,-1.6914360523223877
1697746086260366800,5.252366943359375,-2.464463233947754,-0.12278030067682266,-1.568044900894165
1697746086269959000,5.261958984375,-2.623283624649048,-0.6175665855407715,-1.3676869869232178
1697746086279551700,5.2715517578125,-2.716132402420044,-1.0928057432174683,-1.1783243417739868
1697746086289145300,5.281145263671875,-2.751561403274536,-1.609582543373108,-1.0866972208023071
1697746086298738200,5.29073828125,-2.713688850402832,-1.9773125648498535,-1.0598199367523193
1697746086308330200,5.300330322265625,-2.5902976989746094,-1.9834210872650146,-0.9889616966247559
1697746086317923000,5.309923095703125,-2.404600143432617,-1.7378604412078857,-0.8961129188537598
1697746086327516700,5.3195166015625,-2.193247079849243,-1.3603568077087402,-0.8557969927787781
1697746086337109500,5.329109619140625,-1.9733420610427856,-0.9645278453826904,-0.91566002368927
1697746086346701600,5.33870166015625,-1.7180079221725464,-0.7043069005012512,-1.0976924896240234
1697746086356294400,5.34829443359375,-1.369825005531311,-0.6554391384124756,-1.342031478881836
1697746086365888000,5.357887939453125,-1.0130901336669922,-0.8655705451965332,-1.4935215711593628
1697746086375480800,5.367480712890625,-0.8115105628967285,-1.1624423265457153,-1.5277290344238281
1697746086385073000,5.377072998046875,-0.7907418012619019,-1.13800847530365,-1.4788612127304077
1697746086394665700,5.386665771484375,-0.8371661901473999,-0.9217684864997864,-1.3945642709732056
1697746086404259300,5.39625927734375,-0.8310576677322388,-0.7238540053367615,-1.2907202243804932
1697746086413852200,5.40585205078125,-0.8017370104789734,-0.5882459282875061,-1.136786699295044
1697746086423444200,5.4154443359375,-0.7834116220474243,-0.4306473135948181,-0.9449806809425354
1697746086433037000,5.425037109375,-0.7895200848579407,-0.2852656841278076,-0.7372926473617554
1697746086442630700,5.434630615234375,-0.8359444737434387,-0.10811996459960938,-0.5063923597335815
1697746086452223500,5.444223388671875,-0.9287932515144348,0.07391251623630524,-0.25716668367385864
1697746086461815600,5.453815673828125,-1.0460759401321411,0.2486148327589035,0.0032069480512291193
1697746086471408400,5.463408447265625,-1.1462548971176147,0.37200596928596497,0.23288552463054657
1697746086481002000,5.473001953125,-1.1963443756103516,0.3683409094810486,0.40636613965034485
1697746086490594800,5.4825947265625,-1.1841274499893188,0.2620534598827362,0.4955498278141022
1697746086500187000,5.492186767578125,-1.109604001045227,0.09712471067905426,0.5248705148696899
1697746086509779700,5.50177978515625,-1.0094250440597534,-0.08490777015686035,0.5150969624519348
1697746086519373300,5.511373291015625,-0.9153546094894409,-0.24617144465446472,0.4906630516052246
1697746086528966100,5.520966064453125,-0.8176190853118896,-0.34879377484321594,0.462564080953598
1697746086538558200,5.53055810546875,-0.7027797698974609,-0.37200596928596497,0.44790375232696533
1697746086548151000,5.540151123046875,-0.5635066032409668,-0.3292466700077057,0.44423866271972656
1697746086557744600,5.54974462890625,-0.42545512318611145,-0.23884128034114838,0.4796678125858307
1697746086567337500,5.55933740234375,-0.37292224168777466,-0.09712471067905426,0.6287145614624023
1697746086576929500,5.568929443359375,-0.40102121233940125,0.023823043331503868,0.8840487003326416
1697746086586522400,5.5785224609375,-0.3423798978328705,-0.018936265259981155,1.145491361618042
1697746086596116000,5.588115966796875,-0.15912571549415588,-0.16676130890846252,1.2224581241607666
1697746086605708800,5.597708740234375,0.15378080308437347,-0.12888877093791962,0.9927794933319092
1697746086615300900,5.60730078125,0.6277982592582703,0.09468132257461548,0.6006155610084534
1697746086624893700,5.616893798828125,1.2166550159454346,-0.08124268800020218,0.45889899134635925
1697746086634487300,5.6264873046875,1.6882290840148926,-0.518609344959259,0.8754968047142029
1697746086644080000,5.636080078125,1.916685938835144,-0.018936265259981155,1.4313678741455078
1697746086653672200,5.645672119140625,1.8287240266799927,0.9547542929649353,1.459466814994812
1697746086663265000,5.65526513671875,1.3229424953460693,1.254069447517395,1.1369394063949585
1697746086672858600,5.664858642578125,0.7560762166976929,0.8533536195755005,0.9145910739898682
1697746086682451500,5.674451416015625,0.4677563011646271,0.3414636254310608,0.8034168481826782
1697746086692043500,5.68404345703125,0.4005630910396576,-0.01038440316915512,0.7423321604728699
1697746086701636400,5.69363623046875,0.3883461356163025,-0.22662433981895447,0.7423321604728699
1697746086711230000,5.70322998046875,0.38956785202026367,-0.3414636254310608,0.7973083853721619
1697746086720822800,5.71282275390625,0.42133188247680664,-0.41476529836654663,0.8266290426254272
1697746086730414800,5.722414794921875,0.533727765083313,-0.4428642690181732,0.7875348329544067
1697746086740007700,5.732007568359375,0.7524111270904541,-0.3817795515060425,0.7178982496261597
1697746086749601300,5.741601318359375,1.0456178188323975,-0.21807247400283813,0.669030487537384
1697746086759194000,5.751194091796875,1.3828054666519165,0.10323318839073181,0.6372663974761963
1697746086768786200,5.7607861328125,1.7236582040786743,0.5625903010368347,0.6409314870834351
1697746086778379000,5.77037890625,2.0144214630126953,1.0512681007385254,0.7020162343978882
1697746086787972600,5.77997265625,2.2062275409698486,1.4996299743652344,0.830294132232666
1697746086797565400,5.7895654296875,2.314958333969116,1.8966807126998901,0.9927794933319092
1697746086807157500,5.799157470703125,2.369934558868408,2.178892135620117,1.1112838983535767
1697746086816750300,5.808750244140625,2.3760430812835693,2.255858898162842,1.1149489879608154
1697746086826344000,5.818343994140625,2.32351016998291,2.073826551437378,0.9793408513069153
1697746086835936800,5.827936767578125,2.203784227371216,1.656006932258606,0.7386670708656311
1697746086845528800,5.83752880859375,1.987544298171997,1.0891406536102295,0.47233763337135315
1697746086855121700,5.84712158203125,1.667460322380066,0.4831801950931549,0.2414373755455017
1697746086864715300,5.85671533203125,1.2862915992736816,-0.12400199472904205,0.1119377613067627
1697746086874308000,5.86630810546875,0.9368869662284851,-0.7250757217407227,0.17424418032169342
1697746086883900200,5.875900146484375,0.6241331696510315,-1.111131191253662,0.36971530318260193
1697746086893493000,5.885492919921875,0.3077143132686615,-1.136786699295044,0.6006155610084534
1697746086903086600,5.895086669921875,-0.04291202127933502,-0.8252546191215515,0.8192988634109497
1697746086912679400,5.904679443359375,-0.39979952573776245,-0.30603447556495667,1.002553105354309
1697746086922271500,5.914271484375,-0.7186617851257324,0.21440738439559937,1.154043197631836
1697746086931864300,5.9238642578125,-0.9471186995506287,0.578472375869751,1.2774343490600586
1697746086941458000,5.9334580078125,-1.0277504920959473,0.8008207678794861,1.372726559638977
1697746086951050800,5.94305078125,-0.9385668039321899,0.9144383668899536,1.4313678741455078
1697746086960642800,5.952642822265625,-0.6759024858474731,0.8643488883972168,1.4399197101593018
1697746086970235600,5.962235595703125,-0.2593046724796295,0.633448600769043,1.3385190963745117
1697746086979829200,5.971829345703125,0.19287502765655518,0.2229592502117157,1.107618808746338
1697746086989422000,5.981422119140625,0.46897798776626587,-0.2473931461572647,0.8376243114471436
1697746086999014100,5.99101416015625,0.49585527181625366,-0.6493306159973145,0.617719292640686
1697746087008607000,6.00060693359375,0.35169529914855957,-0.8472451567649841,0.4869979918003082
1697746087018200600,6.01020068359375,0.17332790791988373,-0.7177455425262451,0.43202173709869385
1697746087027793400,6.01979345703125,0.10979979485273361,-0.3011476993560791,0.43202173709869385
1697746087037385500,6.029385498046875,0.16111096739768982,0.1692046970129013,0.46989426016807556
1697746087046978300,6.038978271484375,0.23929941654205322,0.5418215394020081,0.5004366040229797
1697746087056572000,6.048572021484375,0.34070006012916565,0.7800519466400146,0.5187620520591736
1697746087066164700,6.058164794921875,0.4640912115573883,0.8252546191215515,0.5444176197052002
1697746087075756800,6.0677568359375,0.5667135715484619,0.6358919739723206,0.5774033665657043
1697746087085349600,6.077349609375,0.6155813336372375,0.25716668367385864,0.6140542030334473
1697746087094943200,6.086943115234375,0.6021426916122437,-0.21440738439559937,0.6421532034873962
1697746087104536000,6.0965361328125,0.5373928546905518,-0.6639909744262695,0.6372663974761963
1697746087114128100,6.106128173828125,0.4665345847606659,-0.8863393664360046,0.5957288146018982
1697746087123721000,6.115720947265625,0.43477052450180054,-0.7751652002334595,0.5346440672874451
1697746087133314600,6.125314453125,0.43232715129852295,-0.4159869849681854,0.4674508571624756
1697746087142907400,6.134907470703125,0.4543176591396332,-0.014049487188458443,0.41736137866973877
1697746087152499500,6.14449951171875,0.4921901822090149,0.26694026589393616,0.39292749762535095
1697746087162092300,6.15409228515625,0.48363831639289856,0.3524588644504547,0.3623851239681244
1697746087171686000,6.163685791015625,0.39445462822914124,0.2754921019077301,0.28786176443099976
1697746087181278700,6.17327880859375,0.3089359998703003,0.11056335270404816,0.17302247881889343
1697746087190870800,6.182870849609375,0.26495498418807983,-0.031153209507465363,0.06429167091846466
1697746087200463600,6.192463623046875,0.21242213249206543,-0.07391251623630524,0.0068720318377017975
1697746087210057200,6.20205712890625,0.1378987729549408,-0.07635590434074402,0.0068720318377017975
1697746087219650000,6.211650146484375,0.0841442123055458,-0.08857285231351852,0.056961506605148315
1697746087229241900,6.221241943359375,0.06581879407167435,-0.12888877093791962,0.1644706279039383
1697746087238835000,6.2308349609375,0.05726693198084831,-0.2229592502117157,0.284196674823761
1697746087248428500,6.240428466796875,0.042606595903635025,-0.3903313875198364,0.3379512429237366
1697746087258021400,6.250021484375,0.03771981969475746,-0.5638120174407959,0.2683146595954895
1697746087267613400,6.259613525390625,0.009620844386518002,-0.6615476012229919,0.07406523078680038
1697746087277206300,6.269206298828125,-0.072232685983181,-0.6554391384124756,-0.20096874237060547
1697746087286800000,6.2787998046875,-0.17867282032966614,-0.5699204802513123,-0.49173203110694885
1697746087296392700,6.288392822265625,-0.26663482189178467,-0.45508119463920593,-0.7348492741584778
1697746087305984500,6.297984619140625,-0.3558185398578644,-0.3500154912471771,-0.9193251132965088
1697746087315577600,6.30757763671875,-0.4572191834449768,-0.265718549489975,-1.0793671607971191
1697746087325171200,6.317171142578125,-0.5537330508232117,-0.16798299551010132,-1.2638429403305054
1697746087334764000,6.326763916015625,-0.6258130073547363,-0.02504473738372326,-1.4739744663238525
1697746087344356000,6.336356201171875,-0.6697940230369568,0.13988402485847473,-1.6902143955230713
1697746087353949000,6.345948974609375,-0.6966713070869446,0.29381752014160156,-1.8661383390426636
1697746087363542500,6.35554248046875,-0.7284353375434875,0.4477510452270508,-1.9602088928222656
1697746087373135400,6.36513525390625,-0.7443174123764038,0.6371136903762817,-1.976090908050537
1697746087382727200,6.37472705078125,-0.7455390691757202,0.8594620823860168,-1.9504352807998657
1697746087392320300,6.3843203125,-0.7601994276046753,1.0757020711898804,-1.9223363399505615
1697746087401913900,6.393913818359375,-0.8212841153144836,1.2467392683029175,-1.9198929071426392
1697746087411506700,6.403506591796875,-0.9483403563499451,1.3151541948318481,-1.9638739824295044
1697746087421098500,6.413098388671875,-1.1548067331314087,1.2345223426818848,-2.0640528202056885
1697746087430691600,6.422691650390625,-1.4150276184082031,0.9767447710037231,-2.1300244331359863
1697746087440285200,6.43228515625,-1.6984608173370361,0.7067502737045288,-2.097038745880127
1697746087449878000,6.4418779296875,-1.961125135421753,0.45141613483428955,-1.9418834447860718
1697746087459469800,6.4514697265625,-2.1761434078216553,0.17286977171897888,-1.7280869483947754
1697746087469063000,6.46106298828125,-2.2873175144195557,-0.08735115826129913,-1.536280870437622
1697746087478656500,6.470656494140625,-2.284874200820923,-0.3830012381076813,-1.3908991813659668
1697746087488249300,6.480249267578125,-2.261662006378174,-0.8570187091827393,-1.3102673292160034
1697746087497841200,6.489841064453125,-2.2433366775512695,-1.45198392868042,-1.2870551347732544
1697746087507434200,6.499434326171875,-2.1370491981506348,-1.9125627279281616,-1.2736165523529053
1697746087517027800,6.50902783203125,-1.9794505834579468,-1.946770191192627,-1.1819894313812256
1697746087526620700,6.51862060546875,-1.8523943424224854,-1.6572285890579224,-1.0207257270812988
1697746087536212500,6.52821240234375,-1.7534370422363281,-1.2320789098739624,-0.8557969927787781
1697746087545805600,6.5378056640625,-1.647149682044983,-0.8057075142860413,-0.7348492741584778
1697746087555399200,6.547399169921875,-1.5225367546081543,-0.4220954477787018,-0.6749862432479858
1697746087564992000,6.556991943359375,-1.4309097528457642,-0.17653486132621765,-0.6383354067802429
1697746087574583800,6.566583740234375,-1.3747117519378662,-0.15943112969398499,-0.5809157490730286
1697746087584177000,6.576177001953125,-1.3197355270385742,-0.31947311758995056,-0.5247178077697754
1697746087593770500,6.5857705078125,-1.2696460485458374,-0.4709632396697998,-0.4856235682964325
1697746087603363300,6.59536328125,-1.235438585281372,-0.5540384650230408,-0.47585001587867737
1697746087612955100,6.604955078125,-1.220778226852417,-0.5564818382263184,-0.49295374751091003
1697746087622548200,6.61454833984375,-1.1902358531951904,-0.5405998229980469,-0.5076140761375427
1697746087632141800,6.624141845703125,-1.1389247179031372,-0.5919110178947449,-0.48928865790367126
1697746087641734700,6.633734619140625,-1.0582928657531738,-0.6420004963874817,-0.42698222398757935
1697746087651326500,6.643326416015625,-0.961778998374939,-0.6432221531867981,-0.3243598937988281
1697746087660919300,6.652919189453125,-0.8640434741973877,-0.5931326746940613,-0.2107423096895218
1697746087670513200,6.66251318359375,-0.7675296068191528,-0.5125008225440979,-0.10308047384023666
1697746087680106000,6.67210595703125,-0.6807892918586731,-0.45263782143592834,-0.009009997360408306
1697746087689697800,6.68169775390625,-0.5818319916725159,-0.46363306045532227,0.03497100621461868
1697746087699291000,6.691290771484375,-0.4731011986732483,-0.4856235682964325,0.020310672000050545
1697746087708884500,6.700884521484375,-0.4169032573699951,-0.38666632771492004,-0.034665580838918686
1697746087718477300,6.710477294921875,-0.3949127495288849,-0.3830012381076813,-0.07864658534526825
1697746087728069000,6.720069091796875,-0.34726667404174805,-0.4318690001964569,-0.05787777900695801
1697746087737662000,6.729661865234375,-0.3423798978328705,-0.32191649079322815,0.005650337319821119
1697746087747255800,6.739255859375,-0.34482327103614807,-0.1692046970129013,0.10582929104566574
1697746087756848600,6.7488486328125,-0.3252761662006378,0.02504473738372326,0.22311195731163025
1697746087766440400,6.7584404296875,-0.28496024012565613,0.2217375487089157,0.3574983477592468
1697746087776033500,6.768033447265625,-0.23853585124015808,0.37689274549484253,0.5273138880729675
1697746087785627100,6.777627197265625,-0.15301723778247833,0.49417543411254883,0.7105680704116821
1697746087795219700,6.7872197265625,0.04504998400807381,0.6004628539085388,0.8461761474609375
1697746087804811800,6.796811767578125,0.42133188247680664,0.5332696437835693,0.9035958051681519
1697746087814404600,6.806404541015625,0.8379297256469727,0.39888325333595276,0.8254073858261108
1697746087823998200,6.815998291015625,1.1567920446395874,0.2620534598827362,0.6555918455123901
1697746087833591300,6.82559130859375,1.3962441682815552,-0.0922379344701767,0.6897992491722107
1697746087843183000,6.83518310546875,1.533073902130127,-0.7116370797157288,0.775317907333374
1697746087852776000,6.84477587890625,1.5025315284729004,-0.6407787799835205,0.8388460278511047
1697746087862369800,6.854369873046875,1.2691879272460938,0.5002838969230652,0.9891144037246704
1697746087871962400,6.86396240234375,0.7157602906227112,1.0928057432174683,1.2114628553390503
1697746087881554400,6.873554443359375,0.1647760421037674,0.518609344959259,1.270104169845581
1697746087891147300,6.883147216796875,0.029167955741286278,-0.036039989441633224,1.0477557182312012
1697746087900740900,6.892740966796875,0.09513945877552032,-0.47951510548591614,0.8107470273971558
1697746087910334000,6.902333984375,0.24662958085536957,-0.7360709309577942,0.7802046537399292
1697746087919925800,6.91192578125,0.37735089659690857,-0.7592831254005432,0.8645015954971313
1697746087929518600,6.9215185546875,0.5080721974372864,-0.6200099587440491,0.8645015954971313
1697746087939112400,6.931112548828125,0.6888830065727234,-0.47951510548591614,0.8254073858261108
1697746087948705000,6.940705078125,0.8965710401535034,-0.36223241686820984,0.7814263701438904
1697746087958297000,6.950297119140625,1.0895987749099731,-0.26694026589393616,0.7704311013221741
1697746087967890000,6.959889892578125,1.2691879272460938,-0.14965757727622986,0.8119687438011169
1697746087977483500,6.9694833984375,1.4524420499801636,0.08246438205242157,0.9158127307891846
1697746087987076400,6.979076416015625,1.644248127937317,0.3939964771270752,1.0599727630615234
1697746087996668400,6.98866845703125,1.8042900562286377,0.7446228265762329,1.2566654682159424
1697746088006261200,6.99826123046875,1.9008039236068726,1.0915840864181519,1.4948959350585938
1697746088015855000,7.007855224609375,1.935011386871338,1.3518049716949463,1.6695982217788696
1697746088025447700,7.01744775390625,1.9130208492279053,1.4238849878311157,1.6732633113861084
1697746088035039700,7.027039794921875,1.838497519493103,1.2980504035949707,1.4704620838165283
1697746088044632600,7.036632568359375,1.7102196216583252,1.0671501159667969,1.1015102863311768
1697746088054226200,7.04622607421875,1.5318522453308105,0.8118160367012024,0.6421532034873962
1697746088063819000,7.055819091796875,1.3485980033874512,0.5686988234519958,0.18157434463500977
1697746088073411000,7.0654111328125,1.186112642288208,0.36101073026657104,-0.19119518995285034
1697746088083004000,7.07500390625,1.0468394756317139,0.183865025639534,-0.43919917941093445
1697746088092597500,7.084597412109375,0.92711341381073,-0.00916270911693573,-0.5320479869842529
1697746088102190300,7.0941904296875,0.8892409205436707,-0.3646758198738098,-0.2779355049133301
1697746088111782400,7.103782470703125,0.918561577796936,-0.6786513328552246,0.2548760175704956
1697746088121375200,7.113375244140625,0.9002361297607422,-0.6029062271118164,0.7545490860939026
1697746088130968800,7.12296875,0.7951704263687134,-0.11056335270404816,1.1100621223449707
1697746088140561700,7.132561767578125,0.6241331696510315,0.527161180973053,1.3275238275527954
1697746088150153700,7.14215380859375,0.4262186884880066,1.035386085510254,1.426481008529663
1697746088159746600,7.15174658203125,0.23196925222873688,1.221083641052246,1.421594262123108
1697746088169340200,7.161340087890625,0.07437065243721008,1.0219475030899048,1.358066201210022
1697746088178933000,7.17093310546875,-0.007482878863811493,0.4978405237197876,1.2591089010238647
1697746088188525000,7.180525146484375,0.024281177669763565,-0.16065283119678497,1.097845196723938
1697746088198118000,7.190117919921875,0.13301199674606323,-0.679872989654541,0.8681666851043701
1697746088207711500,7.19971142578125,0.2148655205965042,-0.8680139780044556,0.5957288146018982
1697746088217304300,7.20930419921875,0.2160872220993042,-0.7837170362472534,0.3574983477592468
1697746088226896400,7.218896484375,0.18187977373600006,-0.5992411375045776,0.31473904848098755
1697746088236489200,7.2284892578125,0.14278554916381836,-0.3292466700077057,0.45523393154144287
1697746088246082800,7.238082763671875,0.1122431829571724,0.037261683493852615,0.6079457402229309
1697746088255675600,7.247675537109375,0.1366770714521408,0.3683409094810486,0.6629219651222229
1697746088265267700,7.257267822265625,0.23685602843761444,0.5137225389480591,0.6140542030334473
1697746088274860500,7.266860595703125,0.3712424337863922,0.5100574493408203,0.5102101564407349
1697746088284454100,7.2764541015625,0.4677563011646271,0.4709632396697998,0.4136963188648224
1697746088294047000,7.286046875,0.4934118688106537,0.4428642690181732,0.3574983477592468
1697746088303639000,7.29563916015625,0.4628695249557495,0.41232189536094666,0.34161633253097534
1697746088313232000,7.30523193359375,0.40667155385017395,0.3439069986343384,0.3623851239681244
1697746088322825500,7.314825439453125,0.3639122545719147,0.2217375487089157,0.3978142738342285
1697746088332418300,7.324418212890625,0.349251925945282,0.0397050715982914,0.42102646827697754
1697746088342010400,7.33401025390625,0.3480302393436432,-0.1582094430923462,0.42224815487861633
1697746088351603200,7.343603271484375,0.3345915973186493,-0.25594499707221985,0.41736137866973877
1697746088361196800,7.35319677734375,0.3211529552936554,-0.24372805655002594,0.41858309507369995
1697746088370789600,7.36278955078125,0.32970482110977173,-0.182643324136734,0.4136963188648224
1697746088380381700,7.372381591796875,0.36635565757751465,-0.08735115826129913,0.39048412442207336
1697746088389974500,7.381974609375,0.4005630910396576,0.02993151545524597,0.3379512429237366
1697746088399568100,7.391568115234375,0.40422818064689636,0.12278030067682266,0.2707580327987671
1697746088409161000,7.401160888671875,0.36757734417915344,0.13866232335567474,0.20967331528663635
1697746088418753000,7.4107529296875,0.3052709102630615,0.054365407675504684,0.15714046359062195
1697746088428345900,7.420345947265625,0.22097399830818176,-0.07146912813186646,0.11315945535898209
1697746088437939500,7.429939453125,0.1647760421037674,-0.15087927877902985,0.07773031294345856
1697746088447532300,7.4395322265625,0.1782146841287613,-0.11422843486070633,0.08261708915233612
1697746088457124400,7.449124267578125,0.21975229680538177,0.055587101727724075,0.1363716572523117
1697746088466717200,7.45871728515625,0.2588465213775635,0.30725616216659546,0.25121092796325684
1697746088476310800,7.468310791015625,0.26006820797920227,0.49173203110694885,0.3892624080181122
1697746088485903600,7.477903564453125,0.20020519196987152,0.503948986530304,0.4931064546108246
1697746088495495700,7.48749560546875,0.11712995916604996,0.3561239540576935,0.5297572612762451
1697746088505088500,7.497088623046875,0.04993676394224167,0.12522368133068085,0.4906630516052246
1697746088514682000,7.50668212890625,0.021837789565324783,-0.1044548824429512,0.39414918422698975
1697746088524275000,7.51627490234375,0.030389651656150818,-0.3158080279827118,0.252432644367218
1697746088533867000,7.525866943359375,0.04016320779919624,-0.5125008225440979,0.06551336497068405
1697746088543459800,7.5354599609375,-0.007482878863811493,-0.6615476012229919,-0.15454435348510742
1697746088553053400,7.545053466796875,-0.12110047042369843,-0.7091936469078064,-0.363454133272171
1697746088562646300,7.554646240234375,-0.22021043300628662,-0.7372926473617554,-0.5515950918197632
1697746088572238300,7.56423828125,-0.28129515051841736,-0.8130376935005188,-0.7470661997795105
1697746088581831200,7.5738310546875,-0.3399364948272705,-0.8716790676116943,-0.9449806809425354
1697746088591424800,7.5834248046875,-0.41079479455947876,-0.8203678727149963,-1.1453386545181274
1697746088601017600,7.593017578125,-0.4706578254699707,-0.624896764755249,-1.349361538887024
1697746088610609700,7.602609619140625,-0.5183038711547852,-0.33169007301330566,-1.5375025272369385
1697746088620202500,7.612202392578125,-0.5586197972297668,0.0006108472589403391,-1.6755540370941162
1697746088629796000,7.621796142578125,-0.6001574397087097,0.3365768492221832,-1.7635160684585571
1697746088639389000,7.631388916015625,-0.6160394549369812,0.6175665855407715,-1.8087186813354492
1697746088648981000,7.64098095703125,-0.5745018720626831,0.8362498879432678,-1.8197139501571655
1697746088658573800,7.65057373046875,-0.5109737515449524,1.0011786222457886,-1.8148272037506104
1697746088668167400,7.66016748046875,-0.4718795120716095,1.1477819681167603,-1.8294875621795654
1697746088677760300,7.66976025390625,-0.5036435723304749,1.2980504035949707,-1.8954590559005737
1697746088687352300,7.679352294921875,-0.6917845010757446,1.397007703781128,-2.024958610534668
1697746088696945200,7.688945068359375,-1.0619579553604126,1.387234091758728,-2.1654534339904785
1697746088706538800,7.698538818359375,-1.5457489490509033,1.1538904905319214,-2.192330837249756
1697746088716131600,7.708131591796875,-2.0808510780334473,0.6859814524650574,-2.0664963722229004
1697746088725723600,7.7177236328125,-2.5939629077911377,0.17409147322177887,-1.868581771850586
1697746088735316500,7.72731640625,-2.997122049331665,-0.36223241686820984,-1.6425682306289673
1697746088744910000,7.73691015625,-3.162050724029541,-0.8887827396392822,-1.4385453462600708
1697746088754503000,7.7465029296875,-3.1278433799743652,-1.4189982414245605,-1.2797249555587769
1697746088764095000,7.756094970703125,-3.025221109390259,-1.9137845039367676,-1.1697725057601929
1697746088773687800,7.765687744140625,-2.898164749145508,-2.233868360519409,-1.02683424949646
1697746088783281400,7.775281494140625,-2.76011323928833,-2.3071701526641846,-0.8362498879432678
1697746088792874200,7.784874267578125,-2.6025147438049316,-2.169118642807007,-0.6652126908302307
1697746088802466300,7.79446630859375,-2.4632415771484375,-1.8881288766860962,-0.5369347333908081
1697746088812059100,7.80405908203125,-2.363062620162964,-1.614469289779663,-0.45508119463920593
1697746088821652700,7.81365283203125,-2.242114782333374,-1.3933426141738892,-0.41476529836654663
1697746088831245600,7.82324560546875,-2.0417568683624268,-1.22963547706604,-0.40987852215766907
1697746088840837600,7.832837646484375,-1.8426207304000854,-1.1086877584457397,-0.39643988013267517
1697746088850430500,7.842430419921875,-1.7082343101501465,-1.0561549663543701,-0.363454133272171
1697746088860024000,7.852024169921875,-1.6337109804153442,-1.0121738910675049,-0.3365768492221832
1697746088869617000,7.861616943359375,-1.5811781883239746,-0.8790091872215271,-0.337798535823822
1697746088879209000,7.871208984375,-1.5384187698364258,-0.762948215007782,-0.3512371778488159
1697746088888801800,7.8808017578125,-1.5152065753936768,-0.7128587365150452,-0.3695625960826874
1697746088898395400,7.8903955078125,-1.4858859777450562,-0.6945333480834961,-0.3817795515060425
1697746088907988200,7.89998828125,-1.4541219472885132,-0.7091936469078064,-0.36223241686820984
1697746088917580300,7.909580322265625,-1.418692708015442,-0.6823163628578186,-0.2779355049133301
1697746088927173000,7.919173095703125,-1.3490561246871948,-0.578472375869751,-0.1238492801785469
1697746088936766700,7.9287666015625,-1.25254225730896,-0.4587462842464447,0.0325276181101799
1697746088946359600,7.938359619140625,-1.1438114643096924,-0.3426853120326996,0.14003673195838928
1697746088955951600,7.94795166015625,-1.0204203128814697,-0.28037887811660767,0.18646112084388733
1697746088965544400,7.95754443359375,-0.8896990418434143,-0.26816195249557495,0.1889045089483261
1697746088975138000,7.967137939453125,-0.7711946368217468,-0.291374146938324,0.15591876208782196
1697746088984731000,7.97673095703125,-0.6575770974159241,-0.2999260127544403,0.07528692483901978
1697746088994323000,7.986322998046875,-0.545181155204773,-0.26938363909721375,-0.020005248486995697
1697746089003915800,7.995915771484375,-0.48043137788772583,-0.1985253542661667,-0.08108997344970703
1697746089013509400,8.00550927734375,-0.4596625566482544,-0.13744063675403595,-0.07375980913639069
1697746089023102200,8.015102294921874,-0.43645036220550537,-0.06047387793660164,-0.010231691412627697
1697746089032694300,8.0246943359375,-0.39857783913612366,0.03237490355968475,0.08139539510011673
1697746089042287000,8.034287109375,-0.35826191306114197,0.12033691257238388,0.18401773273944855
1697746089051880700,8.043880615234375,-0.29839888215065,0.17286977171897888,0.31229567527770996
1697746089061473500,8.0534736328125,-0.2104368805885315,0.14843589067459106,0.4955498278141022
1697746089071065600,8.063065673828126,-0.01725643500685692,0.05070032179355621,0.7252284288406372
1697746089080658400,8.072658447265624,0.35658207535743713,0.0006108472589403391,0.913369357585907
1697746089090252000,8.082251953125,0.8611419200897217,0.016492875292897224,0.8706100583076477
1697746089099844900,8.091844970703125,1.3608149290084839,0.1178935244679451,0.5150969624519348
1697746089109437000,8.10143701171875,1.7334318161010742,0.17653486132621765,0.06184828653931618
1697746089119029800,8.11102978515625,1.8678182363510132,-0.005497625097632408,-0.0590994730591774
1697746089128623400,8.120623291015624,1.5501775741577148,-0.016492875292897224,0.39170581102371216
1697746089138216200,8.13021630859375,1.0639432668685913,0.7201889157295227,1.1088404655456543
1697746089147808300,8.139808349609375,0.8171609044075012,1.3029371500015259,1.3091983795166016
1697746089157401000,8.149401123046875,0.6546755433082581,0.8252546191215515,1.1137272119522095
1697746089166994700,8.15899462890625,0.5373928546905518,0.06291726976633072,0.8669449687004089
1697746089176587500,8.16858740234375,0.5948125123977661,-0.38544461131095886,0.6788040399551392
1697746089186179600,8.1781796875,0.7780666947364807,-0.444085955619812,0.5920637249946594
1697746089195772400,8.1877724609375,0.8464815616607666,-0.3658975064754486,0.6800256967544556
1697746089205366000,8.197365966796875,0.9014578461647034,-0.2987042963504791,0.8791618943214417
1697746089214958800,8.206958740234375,1.074938416481018,-0.06658235192298889,0.9842276573181152
1697746089224551000,8.216551025390626,1.2606359720230103,0.21929416060447693,0.9573503732681274
1697746089234143700,8.226143798828126,1.399909257888794,0.3549022674560547,0.8718317747116089
1697746089243737300,8.2357373046875,1.515970230102539,0.3536805510520935,0.807081937789917
1697746089253330200,8.245330078125,1.6271443367004395,0.3414636254310608,0.8217422962188721
1697746089262922200,8.254922119140625,1.7199931144714355,0.31825143098831177,0.9121476411819458
1697746089272515000,8.26451513671875,1.792073130607605,0.29626092314720154,1.0550858974456787
1697746089282108700,8.274108642578126,1.8519362211227417,0.3158080279827118,1.213906168937683
1697746089291701500,8.283701416015624,1.9117991924285889,0.38544461131095886,1.3409624099731445
1697746089301293600,8.29329345703125,1.9594452381134033,0.4343124032020569,1.3922736644744873
1697746089310886400,8.302886474609375,1.9533368349075317,0.42698222398757935,1.3776133060455322
1697746089320480000,8.31247998046875,1.8665964603424072,0.37200596928596497,1.2994248867034912
1697746089330072800,8.32207275390625,1.7004460096359253,0.28282228112220764,1.1613733768463135
1697746089339665000,8.331664794921876,1.4952013492584229,0.18142163753509521,0.9634588360786438
1697746089349257700,8.3412578125,1.3143905401229858,0.08490777015686035,0.7313368916511536
1697746089358851300,8.350851318359375,1.2081031799316406,-0.005497625097632408,0.5053234100341797
1697746089368444200,8.360444091796875,1.1848909854888916,-0.06413896381855011,0.333064466714859
1697746089378036200,8.3700361328125,1.2166550159454346,-0.0653606578707695,0.2683146595954895
1697746089387629000,8.379629150390626,1.2814048528671265,-0.055587101727724075,0.43324342370033264
1697746089397222700,8.38922265625,1.3485980033874512,-0.04581354558467865,0.8241856694221497
1697746089406815500,8.3988154296875,1.3632583618164062,-0.0018325417768210173,1.215127944946289
1697746089416407600,8.408407470703125,1.303395390510559,0.06902574002742767,1.4936742782592773
1697746089426000400,8.41800048828125,1.1934428215026855,0.13499724864959717,1.6439427137374878
1697746089435594000,8.427593994140626,1.0578347444534302,0.1716480851173401,1.6793718338012695
1697746089445186800,8.437186767578124,0.9051229357719421,0.17531315982341766,1.6280606985092163
1697746089454779000,8.44677880859375,0.7267554998397827,0.1582094430923462,1.529103398323059
1697746089464371700,8.456371826171875,0.533727765083313,0.08124268800020218,1.3837217092514038
1697746089473965300,8.46596533203125,0.3761292099952698,-0.11667182296514511,1.1711468696594238
1697746089483558100,8.47555810546875,0.2918322682380676,-0.42698222398757935,0.8926005363464355
1697746089493150200,8.485150146484376,0.26251161098480225,-0.7189671993255615,0.6140542030334473
1697746089502743000,8.494742919921874,0.19776180386543274,-0.8826742768287659,0.4796678125858307
1697746089512336600,8.504336669921875,0.0853659063577652,-0.8557969927787781,0.5260922312736511
1697746089521929500,8.513929443359375,0.01572931744158268,-0.6322268843650818,0.6421532034873962
1697746089531521500,8.523521484375,0.0584886260330677,-0.34635040163993835,0.7313368916511536
1697746089541114400,8.5331142578125,0.20142687857151031,-0.1313321590423584,0.7716528177261353
1697746089550708000,8.5427080078125,0.3883461356163025,0.02870982140302658,0.7508839964866638
1697746089560300800,8.55230078125,0.5435013771057129,0.15332266688346863,0.6824691295623779
1697746089569892900,8.561892822265625,0.6192464232444763,0.19119518995285034,0.6103891134262085
1697746089579485700,8.571485595703125,0.6241331696510315,0.06780404597520828,0.5578562617301941
1697746089589079300,8.581079345703126,0.6045860648155212,-0.17897824943065643,0.5248705148696899
1697746089598672100,8.590672119140624,0.6021426916122437,-0.4037700295448303,0.5175403356552124
1697746089608264700,8.6002646484375,0.6277982592582703,-0.5027272701263428,0.5383091568946838
1697746089617857000,8.60985693359375,0.6522321701049805,-0.4844018816947937,0.5908420085906982
1697746089627450600,8.61945068359375,0.6351284384727478,-0.4330907166004181,0.6592568755149841
1697746089637043500,8.62904345703125,0.5923691391944885,-0.4282039403915405,0.7117897868156433
1697746089646635500,8.638635498046876,0.5813738703727722,-0.46485477685928345,0.7350019812583923
1697746089656228400,8.648228271484374,0.6229115128517151,-0.5015056133270264,0.7276718020439148
1697746089665822000,8.657822021484375,0.7072083950042725,-0.48928865790367126,0.6873558759689331
1697746089675414800,8.667414794921875,0.7756233215332031,-0.37200596928596497,0.6213843822479248
1697746089685006800,8.6770068359375,0.7597413063049316,-0.20341213047504425,0.5554128885269165
1697746089694599700,8.686599609375,0.6204680800437927,-0.14721418917179108,0.47111594676971436
1697746089704193300,8.696193359375,0.44332239031791687,-0.22906772792339325,0.36971530318260193
1697746089713786000,8.7057861328125,0.34070006012916565,-0.20707722008228302,0.2951919436454773
1697746089723378200,8.715378173828125,0.3345915973186493,0.0006108472589403391,0.2817533016204834
1697746089732971000,8.724970947265625,0.36513394117355347,0.26816195249557495,0.37704548239707947
1697746089742564600,8.734564697265625,0.35169529914855957,0.4037700295448303,0.5260922312736511
1697746089752157400,8.744157470703126,0.30038413405418396,0.2608317732810974,0.5810684561729431
1697746089761749500,8.75374951171875,0.3223746418952942,-0.12766708433628082,0.5786250829696655
1697746089771342300,8.76334228515625,0.44332239031791687,-0.7250757217407227,0.5835118293762207
1697746089780936000,8.77293603515625,0.5630484819412231,-1.294385313987732,0.5798467397689819
1697746089790528800,8.78252880859375,0.6265766024589539,-1.5484977960586548,0.5578562617301941
1697746089800120800,8.792120849609375,0.6424586176872253,-1.4715310335159302,0.4784461259841919
1697746089809713700,8.801713623046876,0.6265766024589539,-1.2015365362167358,0.30740886926651
1697746089819307300,8.811307373046875,0.5703786015510559,-0.9718579649925232,0.09483403712511063
1697746089828900000,8.820900146484375,0.4775298535823822,-0.8887827396392822,-0.0981936976313591
1697746089838492200,8.8304921875,0.3761292099952698,-0.8704573512077332,-0.2608317732810974
1697746089848085000,8.8400849609375,0.2820587158203125,-0.80937260389328,-0.4062134325504303
1697746089857678600,8.8496787109375,0.18432316184043884,-0.7336275577545166,-0.5515950918197632
1697746089867271400,8.859271484375,0.06948387622833252,-0.70797199010849,-0.6994200944900513
1697746089876863500,8.868863525390625,-0.046577103435993195,-0.7324058413505554,-0.8496885299682617
1697746089886456300,8.878456298828125,-0.16401249170303345,-0.7324058413505554,-0.998735249042511
1697746089896050000,8.8880498046875,-0.29717719554901123,-0.6603258848190308,-1.1441168785095215
1697746089905642800,8.897642822265626,-0.4596625566482544,-0.5332696437835693,-1.2785032987594604
1697746089915234600,8.907234619140626,-0.634364902973175,-0.3817795515060425,-1.4043378829956055
1697746089924827600,8.91682763671875,-0.8139539957046509,-0.24250635504722595,-1.5265072584152222
1697746089934421200,8.926421142578125,-0.9837695360183716,-0.1557660549879074,-1.6535634994506836
1697746089944014000,8.93601416015625,-1.1242643594741821,-0.1459924876689911,-1.7830631732940674
1697746089953606100,8.945606201171875,-1.2452120780944824,-0.18875180184841156,-1.8844637870788574
1697746089963199000,8.955198974609376,-1.346612811088562,-0.24128466844558716,-1.9357749223709106
1697746089972792600,8.96479248046875,-1.4003673791885376,-0.29626092314720154,-1.938218355178833
1697746089982385400,8.974385498046875,-1.3673815727233887,-0.37444937229156494,-1.883242130279541
1697746089991977200,8.983977294921875,-1.268424391746521,-0.5320479869842529,-1.719534993171692
1697746090001570300,8.9935703125,-1.1914576292037964,-0.8399149775505066,-1.4165548086166382
1697746090011164000,9.003163818359376,-1.1816840171813965,-1.222305417060852,-1.032942771911621
1697746090020756700,9.0127568359375,-1.182905673980713,-1.5961438417434692,-0.6554391384124756
1697746090030348800,9.022348876953124,-1.1926792860031128,-1.961430549621582,-0.395218163728714
1697746090039941600,9.031941650390625,-1.2562073469161987,-2.36092472076416,-0.33535513281822205
1697746090049535200,9.04153515625,-1.3979239463806152,-2.7689707279205322,-0.47585001587867737
1697746090059128000,9.051128173828126,-1.614163875579834,-2.9816982746124268,-0.7812736630439758
1697746090068719900,9.060719970703126,-1.8255170583724976,-2.8043997287750244,-1.1954281330108643
1697746090078313000,9.07031298828125,-1.9171441793441772,-2.2082128524780273,-1.6303513050079346
1697746090087906600,9.079906494140625,-1.9098140001296997,-1.5203988552093506,-1.9272230863571167
1697746090097499400,9.08949951171875,-1.8988187313079834,-1.1331216096878052,-1.955322027206421
1697746090107091500,9.099091552734375,-1.8890451192855835,-0.9767447710037231,-1.7415255308151245
1697746090116684300,9.108684326171876,-1.8536159992218018,-0.8252546191215515,-1.410446286201477
1697746090126278000,9.11827783203125,-1.809635043144226,-0.6884248852729797,-1.12823486328125
1697746090135870700,9.12787060546875,-1.7461068630218506,-0.6285618543624878,-0.9400939345359802
1697746090145462500,9.137462646484375,-1.6557015180587769,-0.6077930331230164,-0.8301414251327515
1697746090155055600,9.1470556640625,-1.5555225610733032,-0.5625903010368347,-0.7702783942222595
1697746090164649200,9.156649169921875,-1.489551067352295,-0.6383354067802429,-0.7116370797157288
1697746090174242000,9.166241943359376,-1.4687821865081787,-0.8448017835617065,-0.6444438695907593
1697746090183834000,9.175834228515624,-1.4700039625167847,-0.9877400398254395,-0.5699204802513123
1697746090193427000,9.185427001953125,-1.471225619316101,-1.040272831916809,-0.4734066128730774
1697746090203020500,9.1950205078125,-1.4687821865081787,-1.0805888175964355,-0.3304683566093445
1697746090212613400,9.20461328125,-1.4504568576812744,-1.1221264600753784,-0.1459924876689911
1697746090222205200,9.214205078125,-1.3954805135726929,-1.1490037441253662,0.05085303261876106
1697746090231798300,9.22379833984375,-1.276976227760315,-1.1697725057601929,0.23655059933662415
1697746090241391900,9.233391845703125,-1.096165418624878,-1.2100883722305298,0.40514445304870605
1697746090250984700,9.242984619140625,-0.8774821162223816,-1.206423282623291,0.5517477989196777
1697746090260576500,9.252576416015625,-0.6612421870231628,-1.1209046840667725,0.6678087711334229
1697746090270169600,9.262169677734375,-0.45111069083213806,-1.0109522342681885,0.7423321604728699
1697746090279763200,9.27176318359375,-0.28251686692237854,-0.9633061289787292,0.7887565493583679
1697746090289356000,9.28135595703125,-0.168899267911911,-0.9791881442070007,0.8192988634109497
1697746090298947800,9.29094775390625,-0.07589777559041977,-0.9999569654464722,0.8425110578536987
1697746090308541000,9.300541015625,0.014507622458040714,-0.9840749502182007,0.853506326675415
1697746090318134500,9.310134521484375,0.09147437661886215,-0.9254335761070251,0.8767185211181641
1697746090327727400,9.319727294921876,0.12934690713882446,-0.8313631415367126,0.9341381788253784
1697746090337319200,9.329319091796876,0.1391204595565796,-0.7727217674255371,0.9952229261398315
1697746090346912300,9.338912353515624,0.14156384766101837,-0.8948912620544434,0.9817842841148376
1697746090356505900,9.348505859375,0.14767232537269592,-1.2919420003890991,0.8131904006004333
1697746090366098700,9.3580986328125,0.14278554916381836,-1.7512991428375244,0.5554128885269165
1697746090375690500,9.3676904296875,0.2796153426170349,-1.9736474752426147,0.49921491742134094
1697746090385283600,9.37728369140625,0.6497887969017029,-2.082378387451172,0.5260922312736511
1697746090394877200,9.386877197265624,0.7707365155220032,-1.9736474752426147,0.3110739588737488
1697746090404470000,9.396469970703125,0.35169529914855957,-1.6071391105651855,-0.16065283119678497
1697746090414061800,9.406061767578125,-0.2739650011062622,-1.1697725057601929,-0.5674771070480347
1697746090423654700,9.415654541015625,-0.9104678630828857,-1.0317209959030151,-0.6762079000473022
1697746090433248500,9.42524853515625,-1.1914576292037964,-1.106244444847107,-0.5418215394020081
1697746090442841300,9.43484130859375,-1.1706887483596802,-1.0378295183181763,-0.32313820719718933
1697746090452433200,9.44443310546875,-0.9752176403999329,-0.7214106321334839,-0.14965757727622986
1697746090462026200,9.454026123046875,-0.6551336646080017,-0.3170297145843506,0.004428642801940441
1697746090471619800,9.463619873046875,-0.44011545181274414,0.11422843486070633,0.20845162868499756
1697746090481212400,9.47321240234375,-0.42545512318611145,0.648108959197998,0.51998370885849
1697746090490804500,9.482804443359376,-0.46577104926109314,1.0048437118530273,0.8779402375221252
1697746090500397300,9.492397216796874,-0.30817243456840515,0.8154810667037964,0.9549070000648499
1697746090509991000,9.501990966796875,0.07559234648942947,-0.0653606578707695,0.35627666115760803
1697746090519584000,9.511583984375,0.39201122522354126,-1.113574504852295,-0.5332696437835693
1697746090529175800,9.52117578125,0.30038413405418396,-1.34080970287323,-1.1001359224319458
1697746090538768600,9.5307685546875,-0.02092151902616024,-0.7983773946762085,-1.2821683883666992
1697746090548362500,9.540362548828124,-0.24708771705627441,-0.33535513281822205,-1.1086877584457397
1697746090557955000,9.549955078125,-0.33504971861839294,-0.3414636254310608,-0.6969767212867737
1697746090567547100,9.559547119140625,-0.25441789627075195,-0.6505523324012756,-0.22051586210727692
1697746090577140000,9.569139892578125,-0.0038177953101694584,-0.9633061289787292,0.12904147803783417
1697746090586733600,9.578733642578126,0.27595025300979614,-1.1441168785095215,0.3110739588737488
1697746090596326700,9.58832666015625,0.5117372870445251,-1.2247487306594849,0.35505497455596924
1697746090605918500,9.59791845703125,0.6937697529792786,-1.142895221710205,0.36971530318260193
1697746090615511300,9.60751123046875,0.7792884111404419,-0.9327637553215027,0.5065450668334961
1697746090625105200,9.617105224609375,0.7792884111404419,-0.8619054555892944,0.7960866689682007
1697746090634697700,9.62669775390625,0.7414158582687378,-0.966971218585968,1.185807228088379
1697746090644289800,9.636289794921876,0.6949914693832397,-1.0683718919754028,1.6048485040664673
1697746090653882600,9.645882568359376,0.6216897964477539,-1.1013575792312622,1.9786869287490845
1697746090663476200,9.655476318359375,0.5435013771057129,-1.073258638381958,2.230355978012085
1697746090673069000,9.665069091796875,0.5263976454734802,-0.9706363081932068,2.3439736366271973
1697746090682661000,9.6746611328125,0.5911474227905273,-0.8191461563110352,2.285332202911377
1697746090692254000,9.68425390625,0.6717792749404907,-0.7605048418045044,1.9615832567214966
1697746090701847600,9.69384765625,0.7035433053970337,-0.8875610828399658,1.3629529476165771
1697746090711440400,9.7034404296875,0.6962131857872009,-0.91566002368927,0.6519267559051514
1697746090721032400,9.713032470703125,0.7267554998397827,-0.7262973785400391,0.023975754156708717
1697746090730625300,9.722625244140625,0.8367080092430115,-0.6358919739723206,-0.33535513281822205
1697746090740219000,9.732218994140625,0.9637642502784729,-0.8044858574867249,-0.337798535823822
1697746090749811700,9.741811767578126,0.9576557874679565,-1.0793671607971191,0.1375933438539505
1697746090759403800,9.75140380859375,0.8147175312042236,-1.23940908908844,0.913369357585907
1697746090768996600,9.76099658203125,0.6852179169654846,-1.2748382091522217,1.514443039894104
1697746090778590200,9.770590087890625,0.6803311109542847,-1.2467392683029175,1.7636687755584717
1697746090788183000,9.78018310546875,0.7719582319259644,-1.294385313987732,1.705027461051941
1697746090797775000,9.789775146484375,0.8623636364936829,-1.5081819295883179,1.4386980533599854
1697746090807368000,9.799367919921876,0.8806890249252319,-1.7965017557144165,1.0318737030029297
1697746090816961500,9.80896142578125,0.8000571727752686,-1.9455485343933105,0.5676298141479492
1697746090826554400,9.818554443359375,0.6058077812194824,-1.883242130279541,0.23899398744106293
1697746090836146400,9.828146484375,0.34314343333244324,-1.725643515586853,0.25121092796325684
1697746090845739300,9.8377392578125,0.12934690713882446,-1.5888136625289917,0.617719292640686
1697746090855332600,9.84733251953125,0.03649812191724777,-1.5375025272369385,1.1137272119522095
1697746090864925700,9.85692578125,0.030389651656150818,-1.530172348022461,1.4729053974151611
1697746090874517800,9.866517822265624,0.01695101149380207,-1.4703093767166138,1.562089204788208
1697746090884110600,9.876110595703125,-0.03436015918850899,-1.3469182252883911,1.3629529476165771
1697746090893704200,9.8857041015625,-0.06978929787874222,-1.1807677745819092,0.9451334476470947
1697746090903297000,9.895297119140626,-0.01725643500685692,-1.0011786222457886,0.5224271416664124
1697746090912889000,9.90488916015625,0.1525591015815735,-0.9095515608787537,0.3306210935115814
1697746090922482000,9.91448193359375,0.35658207535743713,-0.9804098606109619,0.4002576768398285
1697746090932075500,9.924075439453125,0.4640912115573883,-1.1538904905319214,0.566408097743988
1697746090941668400,9.93366845703125,0.44820916652679443,-1.295607089996338,0.6702521443367004
1697746090951260400,9.943260498046875,0.38956785202026367,-1.3224843740463257,0.6714738607406616
1697746090960853200,9.952853271484376,0.37002071738243103,-1.2320789098739624,0.5969504714012146
1697746090970446800,9.96244677734375,0.37979426980018616,-1.0671501159667969,0.488219678401947
1697746090980039700,9.972039794921875,0.39078953862190247,-0.8509102463722229,0.3965925872325897
1697746090989631700,9.9816318359375,0.3834593594074249,-0.6163448691368103,0.36482852697372437
1697746090999224600,9.991224609375,0.34070006012916565,-0.42331716418266296,0.3965925872325897
1697746091008818200,10.000818115234376,0.2832804024219513,-0.3011476993560791,0.46012070775032043
1697746091018411000,10.010410888671874,0.23685602843761444,-0.2486148327589035,0.51998370885849
1697746091028003000,10.020003173828124,0.21242213249206543,-0.25716668367385864,0.5627430081367493
1697746091037596000,10.029595947265625,0.22341738641262054,-0.29748260974884033,0.5737382769584656
1697746091047189500,10.039189453125,0.26006820797920227,-0.31825143098831177,0.5529694557189941
1697746091056782300,10.0487822265625,0.30038413405418396,-0.3414636254310608,0.5150969624519348
1697746091066374400,10.05837451171875,0.3345915973186493,-0.42576053738594055,0.4747810363769531
1697746091075967200,10.06796728515625,0.3578037917613983,-0.6285618543624878,0.44790375232696533
1697746091085560800,10.077560791015625,0.3602471649646759,-0.9034430980682373,0.46134239435195923
1697746091095153700,10.087153564453125,0.3321481943130493,-1.1355650424957275,0.5077667832374573
1697746091104745700,10.096745849609375,0.2564031481742859,-1.2601778507232666,0.5774033665657043
1697746091114338600,10.106338623046875,0.10002623498439789,-1.2894985675811768,0.6311579346656799
1697746091123932200,10.11593212890625,-0.11743538826704025,-1.2846118211746216,0.603058934211731
1697746091133525000,10.12552490234375,-0.3301629424095154,-1.2601778507232666,0.5004366040229797
1697746091143117000,10.135116943359375,-0.4853181540966034,-1.1392301321029663,0.43202173709869385
1697746091152710000,10.1447099609375,-0.5390726923942566,-0.8704573512077332,0.3868190348148346
1697746091162303500,10.154303466796875,-0.5292991399765015,-0.5833591222763062,0.30252209305763245
1697746091171896300,10.163896240234376,-0.46577104926109314,-0.518609344959259,0.1779092699289322
1697746091181488400,10.17348828125,-0.3692571818828583,-0.7592831254005432,0.04352286830544472
1697746091191081000,10.1830810546875,-0.30695074796676636,-1.2369656562805176,-0.08353336155414581
1697746091200674800,10.1926748046875,-0.3289412558078766,-1.7500773668289185,-0.21929416060447693
1697746091210267600,10.202267578125,-0.35948359966278076,-2.105590581893921,-0.363454133272171
1697746091219859500,10.211859375,-0.3570402264595032,-2.285179615020752,-0.5308262705802917
1697746091229452300,10.221452392578126,-0.3655920922756195,-2.3438210487365723,-0.7372926473617554
1697746091239046100,10.231046142578125,-0.38880428671836853,-2.274184226989746,-0.9486457705497742
1697746091248638700,10.240638671875,-0.4169032573699951,-2.067718029022217,-1.1477819681167603
1697746091258230800,10.250230712890625,-0.4572191834449768,-1.7048747539520264,-1.3579134941101074
1697746091267823600,10.25982373046875,-0.5073086619377136,-1.2320789098739624,-1.5888136625289917
1697746091277417500,10.26941748046875,-0.5806103348731995,-0.6700994372367859,-1.7830631732940674
1697746091287010000,10.279010009765624,-0.6697940230369568,-0.02504473738372326,-1.8771336078643799
1697746091296602000,10.28860205078125,-0.7540909647941589,0.6151232123374939,-1.891793966293335
1697746091306195000,10.29819482421875,-0.8347227573394775,1.0757020711898804,-1.8905723094940186
1697746091315788800,10.307788818359375,-0.9153546094894409,1.2247487306594849,-1.923557996749878
1697746091325381400,10.31738134765625,-0.9776610136032104,1.0830321311950684,-1.9748691320419312
1697746091334973400,10.326973388671876,-1.0033166408538818,0.7507312893867493,-1.947991967201233
1697746091344566300,10.336566162109374,-1.0607362985610962,0.1313321590423584,-1.7085397243499756
1697746091354159900,10.346159912109375,-1.2549856901168823,-0.8533536195755005,-1.2552911043167114
1697746091363752700,10.355752685546875,-1.567739486694336,-1.7036529779434204,-0.8496885299682617
1697746091373344800,10.3653447265625,-1.9305827617645264,-2.18133544921875,-0.6432221531867981
1697746091382937600,10.3749375,-2.363062620162964,-2.415900945663452,-0.5992411375045776
1697746091392531200,10.38453125,-2.8370800018310547,-2.549065589904785,-0.6200099587440491
1697746091402124000,10.3941240234375,-3.2292439937591553,-2.7005558013916016,-0.6297835111618042
1697746091411716000,10.403716064453125,-3.4870216846466064,-2.9755897521972656,-0.5662553906440735
1697746091421309000,10.413308837890625,-3.6177427768707275,-3.3567583560943604,-0.41232189536094666
1697746091430902500,10.422902587890626,-3.6495070457458496,-3.740370512008667,-0.20707722008228302
1697746091440495400,10.432495361328124,-3.621407985687256,-3.9724924564361572,0.012980503961443901
1697746091450087400,10.44208740234375,-3.5481061935424805,-3.8979690074920654,0.23532891273498535
1697746091459680300,10.45168017578125,-3.4357104301452637,-3.6585168838500977,0.40758782625198364
1697746091469273900,10.46127392578125,-3.2671165466308594,-3.364088535308838,0.48455458879470825
1697746091478866700,10.47086669921875,-3.025221109390259,-3.0391178131103516,0.46989426016807556
1697746091488458800,10.480458740234376,-2.736901044845581,-2.782409191131592,0.4027010500431061
1697746091498051600,10.490051513671874,-2.4742367267608643,-2.5906031131744385,0.31473904848098755
1697746091507645200,10.499645263671875,-2.2860958576202393,-2.386580228805542,0.22066856920719147
1697746091517238000,10.509238037109375,-2.1773650646209717,-2.2228732109069824,0.14370182156562805
1697746091526830000,10.518830078125,-2.134605646133423,-2.213099718093872,0.11926792562007904
1697746091536423200,10.528423095703126,-2.1077284812927246,-2.255858898162842,0.15958385169506073
1697746091546016500,10.5380166015625,-2.083294630050659,-2.219208002090454,0.23166382312774658
1697746091555608800,10.54760888671875,-2.0613040924072266,-2.062831163406372,0.29885703325271606
1697746091565201400,10.557201416015625,-2.0124363899230957,-1.8392610549926758,0.35505497455596924
1697746091574796300,10.56679638671875,-1.9537949562072754,-1.6266862154006958,0.39170581102371216
1697746091584391200,10.57639111328125,-1.9000403881072998,-1.4727526903152466,0.41736137866973877
1697746091593980700,10.585980712890626,-1.8438425064086914,-1.388455867767334,0.44668206572532654
1697746091603572700,10.59557275390625,-1.7705408334732056,-1.3664653301239014,0.4796678125858307
1697746091613165600,10.60516552734375,-1.6789137125015259,-1.3676869869232178,0.5102101564407349
1697746091622759200,10.61475927734375,-1.5848431587219238,-1.3762388229370117,0.5309789776802063
1697746091632352000,10.62435205078125,-1.5078765153884888,-1.3713520765304565,0.543195903301239
1697746091641944000,10.633944091796875,-1.4455699920654297,-1.3518049716949463,0.548082709312439
1697746091651537000,10.643536865234376,-1.378376841545105,-1.3359229564666748,0.5639647245407104
1697746091661130500,10.653130615234375,-1.300188422203064,-1.299272060394287,0.5871769189834595
1697746091670723300,10.662723388671875,-1.2085613012313843,-1.2381874322891235,0.6226060390472412
1697746091680315100,10.672315185546875,-1.1022738218307495,-1.152668833732605,0.6678087711334229
1697746091689908200,10.681908203125,-0.9984298348426819,-1.0744802951812744,0.7252284288406372
1697746091699501800,10.691501708984376,-0.8994725942611694,-1.0109522342681885,0.7973083853721619
1697746091709094400,10.701094482421874,-0.8603783845901489,-0.9095515608787537,0.8779402375221252
1697746091718686500,10.7106865234375,-0.8945857882499695,-0.8044858574867249,0.9390249252319336
1697746091728279300,10.720279296875,-0.9434536099433899,-0.8032641410827637,0.9915578365325928
1697746091737873000,10.729872802734375,-0.9935430884361267,-0.7617265582084656,1.0355387926101685
1697746091747465700,10.7394658203125,-1.0204203128814697,-0.7128587365150452,1.074633002281189
1697746091757057800,10.749057861328126,-1.0057599544525146,-0.6774296164512634,1.107618808746338
1697746091766650600,10.758650634765624,-0.9715525507926941,-0.5589252710342407,1.1137272119522095
1697746091776244200,10.768244140625,-0.9336800575256348,-0.3671191930770874,1.0954018831253052
1697746091785837000,10.777837158203125,-0.9373451471328735,-0.20219044387340546,1.0856282711029053
1697746091795429000,10.78742919921875,-0.976439356803894,-0.12644538283348083,1.1137272119522095
1697746091805022000,10.79702197265625,-1.0143119096755981,-0.13499724864959717,1.1699252128601074
1697746091814615600,10.806615478515624,-1.0387457609176636,-0.1447708010673523,1.2688825130462646
1697746091824208400,10.81620849609375,-0.9874345660209656,-0.314586341381073,1.372726559638977
1697746091833800400,10.825800537109375,-0.823727548122406,-0.7568397521972656,1.2664390802383423
1697746091843393300,10.835393310546875,-0.6294780969619751,-1.0341644287109375,0.8779402375221252
1697746091852987000,10.84498681640625,-0.4327852725982666,-1.0757020711898804,0.6164975762367249
1697746091862579700,10.854579833984374,-0.3399364948272705,-1.1086877584457397,0.7130114436149597
1697746091872171800,10.864171875,-0.25441789627075195,-1.0537115335464478,1.168703556060791
1697746091881764600,10.8737646484375,0.14156384766101837,-0.8912261724472046,1.5596457719802856
1697746091891358200,10.883358154296875,0.5789304971694946,-0.6591041684150696,1.4619102478027344
1697746091900951000,10.892950927734375,0.7768449783325195,-0.47585001587867737,1.1283875703811646
1697746091910543000,10.902543212890626,0.7719582319259644,-0.16187451779842377,0.9439117312431335
1697746091920136000,10.912135986328124,0.7463026642799377,0.2779355049133301,0.9463551044464111
1697746091929729500,10.9217294921875,0.8391514420509338,0.624896764755249,1.0856282711029053
1697746091939322400,10.931322265625,1.0358442068099976,0.684759795665741,1.3226370811462402
1697746091948914400,10.94091455078125,1.264301061630249,0.7177455425262451,1.5022261142730713
1697746091958507300,10.95050732421875,1.423121452331543,0.8435800671577454,1.524216651916504
1697746091968100900,10.960100830078124,1.5086400508880615,0.8350282311439514,1.4350329637527466
1697746091977693700,10.969693603515625,1.5355173349380493,0.7043069005012512,1.3275238275527954
1697746091987285800,10.97928564453125,1.5037531852722168,0.5296045541763306,1.2126845121383667
1697746091996878600,10.988878662109375,1.436560034751892,0.37322768568992615,1.1051753759384155
1697746092006472200,10.99847216796875,1.3388245105743408,0.2351761907339096,1.019656777381897
1697746092016064500,11.008064453125,1.219098448753357,0.12888877093791962,0.9671239256858826
1697746092025657000,11.017656982421874,1.1103676557540894,0.036039989441633224,0.936581552028656
1697746092035250200,11.027250244140625,1.0492829084396362,-0.00916270911693573,0.9121476411819458
1697746092044843300,11.03684326171875,1.0407310724258423,0.014049487188458443,0.8950439691543579
1697746092054438100,11.046438232421876,1.0957072973251343,0.055587101727724075,0.8828269839286804
1697746092064028200,11.056028076171875,1.209324836730957,0.0910162404179573,0.8730534315109253
1697746092073621000,11.06562109375,1.3681451082229614,0.15943112969398499,0.8571714162826538
1697746092083214600,11.075214599609374,1.5440691709518433,0.20219044387340546,0.8473978638648987
1697746092092807400,11.084807373046875,1.7261016368865967,0.265718549489975,0.8364025950431824
1697746092102399500,11.0943994140625,1.893473744392395,0.3817795515060425,0.807081937789917
1697746092111992300,11.103992431640625,2.0266385078430176,0.518609344959259,0.7643226385116577
1697746092121586000,11.1135859375,2.1329259872436523,0.6664343476295471,0.7276718020439148
1697746092131178800,11.1231787109375,2.184237003326416,0.791047215461731,0.7264500856399536
1697746092140770800,11.132770751953124,2.1365909576416016,0.8667922616004944,0.7802046537399292
1697746092150363600,11.14236376953125,2.004647970199585,0.9046648144721985,0.8913788795471191
1697746092159957200,11.151957275390625,1.8433842658996582,0.9022213816642761,1.0159916877746582
1697746092169550000,11.161550048828126,1.6735687255859375,0.8594620823860168,1.1173923015594482
1697746092179142100,11.17114208984375,1.4964231252670288,0.7666133046150208,1.1723686456680298
1697746092188735000,11.18073486328125,1.3168339729309082,0.6151232123374939,1.1796988248825073
1697746092198328600,11.19032861328125,1.1470184326171875,0.37567105889320374,1.1491564512252808
1697746092207921400,11.19992138671875,1.0004150867462158,0.07757759839296341,1.08074152469635
1697746092217513500,11.209513427734375,0.8648070096969604,-0.2095206081867218,0.9756757616996765
1697746092227106300,11.219106201171876,0.6998782753944397,-0.420873761177063,0.8645015954971313
1697746092236700000,11.228699951171874,0.48608171939849854,-0.5296045541763306,0.7863131165504456
1697746092246292700,11.238292724609375,0.241742804646492,-0.503948986530304,0.7618792653083801
1697746092255884800,11.247884765625,0.0022906772792339325,-0.3573456406593323,0.7740961909294128
1697746092265477600,11.2574775390625,-0.18600298464298248,-0.17409147322177887,0.7631009221076965
1697746092275071200,11.2670712890625,-0.2373141646385193,-0.006719320081174374,0.7533273696899414
1697746092284664000,11.2766640625,-0.12354385852813721,0.1178935244679451,0.8192988634109497
1697746092294256000,11.286256103515624,0.10491301864385605,0.1973036676645279,0.9035958051681519
1697746092303849000,11.295848876953125,0.37857258319854736,0.23273280262947083,0.9390249252319336
1697746092313442300,11.3054423828125,0.6192464232444763,0.20463383197784424,0.9145910739898682
1697746092323035100,11.31503515625,0.7756233215332031,0.12766708433628082,0.8486195802688599
1697746092332627200,11.324627197265626,0.8257128000259399,0.06169557198882103,0.760657548904419
1697746092342220000,11.334219970703124,0.7744016051292419,0.06291726976633072,0.672695517539978
1697746092351815400,11.3438154296875,0.6558972597122192,0.14110571146011353,0.5993938446044922
1697746092361408300,11.353408203125,0.5263976454734802,0.265718549489975,0.5774033665657043
1697746092371000300,11.363000244140625,0.4396573007106781,0.3927747905254364,0.6250494718551636
1697746092380593200,11.37259326171875,0.39445462822914124,0.4575245976448059,0.7032378911972046
1697746092390186800,11.382186767578125,0.3602471649646759,0.3573456406593323,0.7728744745254517
1697746092399779600,11.391779541015625,0.3443651497364044,0.17286977171897888,0.7692093849182129
1697746092409371600,11.40137158203125,0.33947837352752686,0.07513421028852463,0.6702521443367004
1697746092418964500,11.410964599609375,0.32848310470581055,0.11178504675626755,0.5163186192512512
1697746092428558000,11.42055810546875,0.28938889503479004,0.18142163753509521,0.35261157155036926
1697746092438151000,11.43015087890625,0.20997874438762665,0.23273280262947083,0.20234315097332
1697746092447743000,11.439742919921875,0.11468657106161118,0.35856732726097107,0.12171131372451782
1697746092457335800,11.449335693359375,0.025502873584628105,0.5479300022125244,0.14370182156562805
1697746092466929400,11.458929443359375,-0.07589777559041977,0.6151232123374939,0.2279987335205078
1697746092476522200,11.468522216796876,-0.16523417830467224,0.49295374751091003,0.28541839122772217
1697746092486114300,11.4781142578125,-0.20310671627521515,0.2632751762866974,0.22189027070999146
1697746092495707100,11.48770703125,-0.20066332817077637,0.01038440316915512,0.012980503961443901
1697746092505300700,11.49730078125,-0.17622943222522736,-0.18142163753509521,-0.3011476993560791
1697746092514893600,11.5068935546875,-0.125987246632576,-0.24372805655002594,-0.6261184215545654
1697746092524485400,11.5164853515625,-0.049020491540431976,-0.23273280262947083,-0.8790091872215271
1697746092534078500,11.526078369140626,-0.06490252166986465,-0.20096874237060547,-1.0573766231536865
1697746092543672000,11.535672119140624,-0.29229041934013367,-0.1447708010673523,-1.175881028175354
1697746092553265000,11.545264892578125,-0.5818319916725159,-0.014049487188458443,-1.2381874322891235
1697746092562856700,11.554856689453125,-0.800515353679657,0.16065283119678497,-1.309045672416687
1697746092572449500,11.564449462890625,-0.9397885203361511,0.30603447556495667,-1.4373235702514648
1697746092582043100,11.574043212890626,-1.0008732080459595,0.40254834294319153,-1.6291296482086182
1697746092591636000,11.583635986328124,-0.9788827300071716,0.47951510548591614,-1.900345802307129
1697746092601228000,11.59322802734375,-0.8762603998184204,0.6004628539085388,-2.202104330062866
1697746092610820900,11.60282080078125,-0.7027797698974609,0.7812736630439758,-2.4488866329193115
1697746092620414500,11.61241455078125,-0.5012001991271973,1.0072871446609497,-2.5783863067626953
1697746092630007300,11.62200732421875,-0.3778090178966522,1.3041589260101318,-2.585716485977173
1697746092639599400,11.631599365234376,-0.4743228852748871,1.6865493059158325,-2.5124146938323975
1697746092649192200,11.641192138671874,-0.8506048321723938,2.073826551437378,-2.3768067359924316
1697746092658785800,11.650785888671875,-1.4174710512161255,2.2802927494049072,-2.147128105163574
1697746092668378600,11.660378662109375,-2.0894031524658203,2.183779001235962,-1.868581771850586
1697746092677970700,11.669970703125,-2.6807031631469727,1.8807986974716187,-1.6547852754592896
1697746092687563500,11.6795634765625,-3.075310468673706,1.3114891052246094,-1.4922997951507568
1697746092697157000,11.6891572265625,-3.289107084274292,0.3549022674560547,-1.3114891052246094
1697746092706750000,11.69875,-3.3489701747894287,-0.7470661997795105,-1.0952491760253906
1697746092716342000,11.708342041015625,-3.292772054672241,-1.669445514678955,-0.9168817400932312
1697746092725934800,11.717934814453125,-3.1486122608184814,-2.395132064819336,-0.7898254990577698
1697746092735528400,11.727528564453126,-2.9238204956054688,-2.724989652633667,-0.6444438695907593
1697746092745121300,11.737121337890626,-2.7026937007904053,-2.650466203689575,-0.46241137385368347
1697746092754713000,11.746713134765624,-2.519439458847046,-2.329160690307617,-0.3170297145843506
1697746092764306200,11.75630615234375,-2.3618409633636475,-1.8869072198867798,-0.2608317732810974
1697746092773899800,11.765899658203125,-2.189582109451294,-1.4275500774383545,-0.3158080279827118
1697746092783492400,11.775492431640625,-1.9330261945724487,-1.12823486328125,-0.45141613483428955
1697746092793084400,11.78508447265625,-1.6129422187805176,-0.9498674869537354,-0.6029062271118164
1697746092802677200,11.79467724609375,-1.336839199066162,-0.81425940990448,-0.7043069005012512
1697746092812270800,11.804270751953124,-1.1535850763320923,-0.7580614686012268,-0.7458444833755493
1697746092821863700,11.81386376953125,-1.0448542833328247,-0.7495095729827881,-0.7519529461860657
1697746092831455700,11.823455810546875,-0.9898779988288879,-0.7482879161834717,-0.731184184551239
1697746092841048600,11.833048583984375,-0.9715525507926941,-0.762948215007782,-0.6884248852729797
1697746092850642200,11.84264208984375,-0.9568922519683838,-0.7507312893867493,-0.6383354067802429
1697746092860235000,11.852235107421874,-0.9287932515144348,-0.6591041684150696,-0.5686988234519958
1697746092869827000,11.8618271484375,-0.8909206986427307,-0.446529358625412,-0.4587462842464447
1697746092879420000,11.871419921875,-0.8322793841362,-0.15454435348510742,-0.30847787857055664
1697746092889013500,11.881013427734375,-0.7357655167579651,0.1435490995645523,-0.16309621930122375
1697746092898606300,11.8906064453125,-0.587940514087677,0.3805578351020813,-0.06765133142471313
1697746092908198700,11.90019873046875,-0.3900259733200073,0.48928865790367126,-0.028557108715176582
1697746092917791200,11.909791259765624,-0.14690876007080078,0.4611896872520447,-0.037108972668647766
1697746092927384300,11.91938427734375,0.04504998400807381,0.3658975064754486,-0.06887302547693253
1697746092936977700,11.928977783203125,0.12812520563602448,0.23273280262947083,-0.09697200357913971
1697746092946572500,11.938572509765624,0.15988926589488983,0.16065283119678497,-0.12262758612632751
1697746092956359400,11.948359375,0.1782146841287613,0.18019993603229523,-0.12995775043964386
1697746092966146300,11.958146240234376,0.2564031481742859,0.47829338908195496,0.012980503961443901
1697746092975933200,11.96793310546875,0.3736858069896698,0.7873821258544922,0.22066856920719147
1697746092985719800,11.9777197265625,0.5630484819412231,0.9694145917892456,0.4540122151374817
1697746092995506400,11.98750634765625,0.8293778896331787,0.8338065147399902,0.47111594676971436
1697746093005293000,11.99729296875,1.0236272811889648,0.6065713167190552,0.28664007782936096
1697746093015079700,12.00707958984375,1.061499834060669,0.26938363909721375,0.29030516743659973
1697746093024866000,12.016865966796875,1.0260707139968872,-0.11056335270404816,0.51998370885849
1697746093034652400,12.02665234375,0.8562551736831665,0.312142938375473,1.0318737030029297
1697746093044439000,12.03643896484375,0.7096518278121948,1.2247487306594849,1.3556227684020996
1697746093054225200,12.04622509765625,0.6058077812194824,1.032942771911621,1.1943590641021729
1697746093064011500,12.056011474609376,0.5948125123977661,0.3695625960826874,0.8180772066116333
1697746093073797600,12.065797607421874,0.6852179169654846,-0.06902574002742767,0.5358657836914062
