time,seconds_elapsed,z,y,x
1701881284720728800,0.101728759765625,7.005287170410156,5.1218366622924805,2.121835470199585
1701881284730322000,0.111322021484375,6.6915283203125,5.445167064666748,2.521735906600952
1701881284739914200,0.120914306640625,6.258427619934082,5.662913799285889,2.339881420135498
1701881284749505500,0.130505615234375,5.994917869567871,5.861817359924316,2.0309081077575684
1701881284759098000,0.14009814453125,6.275177478790283,6.297610282897949,1.334297776222229
1701881284768691200,0.149691162109375,7.2951178550720215,7.109076023101807,0.14685949683189392
1701881284778283300,0.159283203125,7.915158271789551,7.350750923156738,-0.789332389831543
1701881284787874800,0.168874755859375,5.31984281539917,7.140182971954346,-0.9616156220436096
1701881284797467100,0.178467041015625,7.060322284698486,6.821638107299805,-1.2299108505249023
1701881284807060200,0.188060302734375,7.017251491546631,5.950351715087891,-0.8682954907417297
1701881284816652500,0.197652587890625,8.056334495544434,6.548856258392334,-1.6103696823120117
1701881284826244000,0.207244140625,8.920442581176758,6.694818496704102,-1.7470595836639404
1701881284835836400,0.21683642578125,9.320343017578125,6.395715713500977,-1.2346965074539185
1701881284845429500,0.226429443359375,9.490233421325684,6.168098449707031,-1.052542805671692
1701881284855021800,0.236021728515625,9.847063064575195,6.1704912185668945,-1.5337992906570435
1701881284864613400,0.24561328125,9.748957633972168,6.450750827789307,-1.2969099283218384
1701881284874205700,0.255205810546875,9.701101303100586,6.165705680847168,-0.7079764008522034
1701881284883798800,0.264798828125,9.64367389678955,5.698806285858154,0.07746763527393341
1701881284893390800,0.274390869140625,8.886942863464355,5.435595512390137,1.1117652654647827
1701881284902982400,0.283982421875,8.489734649658203,5.164907455444336,1.9471594095230103
1701881284912574700,0.29357470703125,8.776873588562012,4.990231513977051,1.8658034801483154
1701881284922167800,0.303167724609375,8.470592498779297,5.100301265716553,1.4778671264648438
1701881284931760000,0.312760009765625,8.089834213256836,5.1290154457092285,1.0325030088424683
1701881284941351700,0.3223515625,8.350651741027832,5.351847171783447,0.6783652305603027
1701881284950944000,0.331944091796875,8.319544792175293,5.583950519561768,0.5682953596115112
1701881284960537000,0.341537109375,8.125726699829102,5.732305526733398,0.6640082597732544
1701881284970129400,0.35112939453125,7.989335536956787,5.85703182220459,0.9750752449035645
1701881284979720700,0.360720703125,7.670791149139404,5.909673690795898,1.4467604160308838
1701881284989313300,0.370313232421875,7.448258876800537,6.060421466827393,1.688734531402588
1701881284998906000,0.379906005859375,7.201498985290527,6.290132522583008,1.8681962490081787
1701881285008498400,0.38949853515625,6.583851337432861,6.304788589477539,2.591127872467041
1701881285018090000,0.399090087890625,6.636493682861328,5.962316036224365,3.2279176712036133
1701881285027682300,0.408682373046875,6.873682022094727,5.952744483947754,3.7235312461853027
1701881285037275400,0.418275390625,7.146463871002197,6.13699197769165,4.267001152038574
1701881285046867700,0.42786767578125,6.706184387207031,6.431608200073242,4.552045822143555
1701881285056459300,0.437459228515625,6.145965099334717,6.682854652404785,4.513761043548584
1701881285066051600,0.447051513671875,6.023632049560547,6.754639148712158,4.326821327209473
1701881285075644700,0.456644775390625,6.270391941070557,6.7091755867004395,4.008575916290283
1701881285085236700,0.46623681640625,6.495316982269287,6.613462448120117,3.6972100734710693
1701881285094828300,0.475828369140625,6.962216377258301,6.39810848236084,3.625425338745117
1701881285104420600,0.485420654296875,7.488936901092529,6.084349632263184,3.9870407581329346
1701881285114013700,0.495013671875,7.6636128425598145,5.8713884353637695,4.362713813781738
1701881285123606000,0.50460595703125,7.445865631103516,5.698806285858154,4.573581218719482
1701881285133197600,0.514197509765625,7.144071102142334,5.55523681640625,4.772185802459717
1701881285142790000,0.523789794921875,6.641279220581055,5.3542399406433105,4.994718074798584
1701881285152383000,0.533383056640625,6.251249313354492,4.971088886260986,6.2159552574157715
1701881285161975300,0.542975341796875,6.519245147705078,5.263312339782715,5.346762180328369
1701881285171566800,0.55256689453125,5.789135456085205,5.404489040374756,5.270191669464111
1701881285181159200,0.5621591796875,5.413163185119629,5.6461639404296875,5.456831932067871
1701881285190752300,0.571752197265625,5.274379253387451,5.749354839324951,5.284548759460449
1701881285200344300,0.58134423828125,5.169095039367676,5.787639617919922,5.004289627075195
1701881285209936000,0.590935791015625,5.358128070831299,5.778068542480469,4.78893518447876
1701881285219528200,0.600528076171875,5.5953168869018555,5.564808368682861,4.678865432739258
1701881285229121300,0.610121337890625,5.702993869781494,5.229813098907471,4.678865432739258
1701881285238713600,0.619713623046875,5.827420234680176,4.968696117401123,4.875077247619629
1701881285248305200,0.62930517578125,5.999703884124756,4.71744966506958,5.095515727996826
1701881285257897500,0.6388974609375,5.982954025268555,4.398905277252197,5.509474277496338
1701881285267490600,0.648490478515625,5.923133373260498,4.257728576660156,5.8974103927612305
1701881285277083000,0.658082763671875,5.84656286239624,4.272085666656494,6.050550937652588
1701881285286674200,0.667674072265625,5.769992828369141,4.226622104644775,6.0146589279174805
1701881285296266800,0.677266845703125,5.528018474578857,4.068696022033691,5.756234169006348
1701881285305859800,0.68685986328125,4.974977493286133,3.7046875953674316,5.753840923309326
1701881285315452000,0.696451904296875,4.426722049713135,3.436392307281494,6.040979862213135
1701881285325043500,0.70604345703125,4.247260093688965,3.4316067695617676,6.079265117645264
1701881285334635800,0.7156357421875,4.275974273681641,3.402892827987671,6.093621730804443
1701881285344228900,0.725228759765625,4.6902313232421875,3.433999538421631,5.933302879333496
1701881285353821200,0.7348212890625,5.327021598815918,3.436392307281494,5.471189022064209
1701881285363412700,0.744412841796875,6.49770975112915,2.9410781860351562,5.274977684020996
1701881285373005000,0.754005126953125,7.541578769683838,3.075076103210449,5.978766441345215
1701881285382598100,0.76359814453125,7.2110700607299805,2.801995277404785,7.048956394195557
1701881285392190500,0.7731904296875,6.773183822631836,2.6057839393615723,7.918148994445801
1701881285401781800,0.78278173828125,6.409175395965576,2.667997360229492,9.208478927612305
1701881285411374300,0.792374267578125,5.616852283477783,2.9362924098968506,10.316953659057617
1701881285420967400,0.801967529296875,4.5562334060668945,3.402892827987671,11.38235855102539
1701881285430559500,0.8115595703125,3.009572744369507,3.9559340476989746,12.251252174377441
1701881285440151000,0.821151123046875,0.9002995491027832,4.403690814971924,11.95454216003418
1701881285449743400,0.830743408203125,-0.4378865361213684,5.445167064666748,11.7990083694458
1701881285459336400,0.84033642578125,-0.4666004180908203,6.395715713500977,11.633605003356934
1701881285468928800,0.8499287109375,-0.5575276613235474,6.500999927520752,10.565807342529297
1701881285478520300,0.859520263671875,-1.09381902217865,6.254240036010742,9.830911636352539
1701881285488112600,0.869112548828125,-1.189831018447876,6.110671043395996,9.462118148803711
1701881285497705700,0.878705810546875,-0.8617152571678162,5.924030780792236,9.179764747619629
1701881285507297800,0.8882978515625,-0.7037889361381531,5.502594947814941,9.069695472717285
1701881285516889300,0.897889404296875,-0.363709032535553,5.016552448272705,9.00987434387207
1701881285526482000,0.90748193359375,0.08165507018566132,4.4946184158325195,8.815756797790527
1701881285536074800,0.91707470703125,0.5195416212081909,3.841078519821167,8.547760963439941
1701881285545667000,0.9266669921875,1.0606186389923096,3.2042887210845947,8.222037315368652
1701881285555258600,0.936258544921875,1.7383856773376465,2.6727828979492188,7.901399612426758
1701881285564851000,0.945850830078125,2.978466033935547,2.1460628509521484,7.668996810913086
1701881285574444000,0.955444091796875,4.934299468994141,2.1317057609558105,7.405786037445068
1701881285584036400,0.965036376953125,6.069095611572266,1.9977078437805176,7.271788120269775
1701881285593628000,0.9746279296875,6.766005039215088,1.7485551834106445,7.015456676483154
1701881285603220200,0.98422021484375,7.579864025115967,1.6289139986038208,6.85753059387207
1701881285612813300,0.993813232421875,8.058727264404297,1.4997016191482544,6.773781776428223
1701881285622405400,1.0034052734375,8.097012519836426,1.231406331062317,6.718746662139893
1701881285631997000,1.012996826171875,7.95344352722168,1.0160523653030396,6.625127792358398
1701881285641589200,1.02258935546875,7.795217990875244,0.8174480199813843,6.471987247467041
1701881285651182300,1.032182373046875,7.591827869415283,0.7432705163955688,6.196812629699707
1701881285660774700,1.041774658203125,7.438687324523926,0.8940183520317078,5.756234169006348
1701881285670366200,1.0513662109375,7.350152969360352,1.1356934309005737,5.4520463943481445
1701881285679958500,1.06095849609375,7.172784805297852,1.3178470134735107,5.499902725219727
1701881285689551600,1.070551513671875,6.835396766662598,1.4829518795013428,5.9524455070495605
1701881285699144000,1.08014404296875,6.464210510253906,1.5906288623809814,6.598806858062744
1701881285708735200,1.0897353515625,6.1002020835876465,1.609771490097046,7.211668491363525
1701881285718327800,1.099327880859375,5.679065227508545,1.4590235948562622,7.716853141784668
1701881285727921000,1.1089208984375,5.3748779296875,1.2556337118148804,8.011468887329102
1701881285737513000,1.118512939453125,5.224130153656006,1.1213364601135254,8.03539752960205
1701881285747104500,1.1281044921875,5.245665550231934,1.0423734188079834,7.747959613800049
1701881285756696800,1.13769677734375,5.2384867668151855,0.9681958556175232,7.513463020324707
1701881285766290000,1.1472900390625,5.231308460235596,0.905982494354248,7.539783954620361
1701881285775882200,1.15688232421875,5.408377170562744,0.8294121623039246,7.3292155265808105
1701881285785473800,1.166473876953125,5.870491027832031,0.7073782086372375,6.881458759307861
1701881285795066000,1.176066162109375,6.392425537109375,0.4773681163787842,6.426523208618164
1701881285804659200,1.1856591796875,6.897610187530518,0.11575279384851456,5.940481185913086
1701881285814251300,1.195251220703125,7.264011383056641,-0.3939184248447418,5.483152866363525
1701881285823842800,1.2048427734375,7.275975227355957,-1.0190433263778687,5.325226783752441
1701881285833435400,1.214435302734375,6.710970401763916,-1.7778671979904175,5.906981945037842
1701881285843028500,1.224028564453125,5.97098970413208,-2.4385852813720703,7.257132053375244
1701881285852620500,1.23362060546875,5.350949764251709,-2.706880569458008,8.408976554870605
1701881285862212000,1.243212158203125,4.577768802642822,-2.8049862384796143,8.921041488647461
1701881285871804400,1.252804443359375,3.6631124019622803,-2.9653055667877197,8.815756797790527
1701881285881397500,1.2623974609375,2.9521448612213135,-3.1208388805389404,8.324929237365723
1701881285890989800,1.27198974609375,2.2483558654785156,-3.226123094558716,7.9612202644348145
1701881285900581400,1.281581298828125,1.4198411703109741,-3.420240879058838,8.001897811889648
1701881285910173700,1.291173583984375,0.7782655358314514,-3.594916820526123,8.147860527038574
1701881285919766800,1.300766845703125,0.34725838899612427,-3.6044881343841553,8.059326171875
1701881285929358800,1.31035888671875,0.036191441118717194,-3.5997025966644287,7.822137355804443
1701881285938950400,1.319950439453125,-0.2225325107574463,-3.7552361488342285,7.546962738037109
1701881285948542700,1.329542724609375,-0.5072783827781677,-3.992424488067627,7.35314416885376
1701881285958135800,1.3391357421875,-0.7516453862190247,-4.219742774963379,7.410571575164795
1701881285967728000,1.34872802734375,-0.8377870321273804,-4.4497528076171875,7.884649753570557
1701881285977319700,1.358319580078125,-1.1850453615188599,-4.815854549407959,8.214859008789062
1701881285986912000,1.367912109375,-1.8505492210388184,-5.275575637817383,8.509475708007812
1701881285996505000,1.377505126953125,-2.6261229515075684,-5.795117378234863,8.86361312866211
1701881286006097400,1.387097412109375,-2.8319056034088135,-5.819045543670654,9.16540813446045
1701881286015689000,1.39668896484375,-2.8079774379730225,-5.752046585083008,9.167800903320312
1701881286025281300,1.40628125,-3.162414312362671,-5.8118672370910645,8.787042617797852
1701881286034874400,1.415874267578125,-3.6675989627838135,-6.005685806274414,8.72482967376709
1701881286044466400,1.425466552734375,-4.031607151031494,-6.302694797515869,9.038588523864746
1701881286054058000,1.43505810546875,-4.146462440490723,-6.666703224182129,9.014659881591797
1701881286063650300,1.444650390625,-3.8709888458251953,-6.941877365112305,8.803792953491211
1701881286073243400,1.454243408203125,-3.500101327896118,-7.142874717712402,8.782257080078125
1701881286082835700,1.463835693359375,-3.0403802394866943,-7.265207767486572,8.767900466918945
1701881286092427300,1.47342724609375,-3.0882368087768555,-7.322635650634766,9.241978645324707
1701881286102019600,1.48301953125,-3.7609190940856934,-7.2867431640625,9.718449592590332
1701881286111612700,1.49261279296875,-3.66520619392395,-6.894021034240723,8.9883394241333
1701881286121205000,1.502205078125,-3.4857444763183594,-6.63559627532959,8.360821723937988
1701881286130796300,1.51179638671875,-3.3562328815460205,-6.798308372497559,7.635497093200684
1701881286140388600,1.521388671875,-3.351447105407715,-7.097411155700684,7.075277328491211
1701881286149981700,1.530981689453125,-3.4618160724639893,-7.506882667541504,6.745068073272705
1701881286159574000,1.540573974609375,0.15583257377147675,-12.230613708496094,19.68276023864746
1701881286169165600,1.55016552734375,6.299105644226074,-12.682857513427734,19.687545776367188
1701881286178758000,1.5597578125,3.347259759902954,-7.6767730712890625,8.372785568237305
1701881286188351000,1.56935107421875,-0.976570725440979,-6.623631954193115,5.973980903625488
1701881286197943300,1.578943359375,-2.2692930698394775,-9.134899139404297,6.074479579925537
1701881286207534800,1.588534912109375,-0.08614161610603333,-12.4842529296875,5.887839317321777
1701881286217127200,1.598127197265625,2.011167526245117,-11.054841041564941,4.853541851043701
1701881286226720300,1.60772021484375,1.5227324962615967,-9.273683547973633,3.481856107711792
1701881286236312300,1.617312255859375,-0.17946170270442963,-8.455039024353027,2.816352367401123
1701881286245904000,1.62690380859375,-1.0651051998138428,-8.20110034942627,2.2031915187835693
1701881286255496200,1.63649609375,0.35922250151634216,-8.799605369567871,5.540580749511719
1701881286265089300,1.64608935546875,1.2714861631393433,-7.669594764709473,6.211169242858887
1701881286274681600,1.655681640625,-0.06699903309345245,-7.892426490783691,6.244668960571289
1701881286284273200,1.665273193359375,-0.6248258352279663,-8.251349449157715,6.266204357147217
1701881286293865500,1.674865478515625,-0.2632105052471161,-8.746963500976562,6.448058605194092
1701881286303458600,1.68445849609375,0.6945167779922485,-8.89801025390625,6.09122896194458
1701881286313051000,1.69405078125,1.3384851217269897,-8.601000785827637,4.9277191162109375
1701881286322642400,1.703642333984375,1.261914849281311,-8.373682975769043,4.647758960723877
1701881286332234800,1.71323486328125,0.8333004713058472,-8.229814529418945,5.013860702514648
1701881286341827800,1.722827880859375,1.2906286716461182,-7.643273830413818,3.2781670093536377
1701881286351420000,1.732419921875,1.0103694200515747,-7.657630443572998,4.221537113189697
1701881286361011500,1.742011474609375,1.5705889463424683,-7.593024253845215,4.085146427154541
1701881286370603800,1.751603759765625,1.8077775239944458,-7.533204078674316,4.4344987869262695
1701881286380196900,1.76119677734375,1.111167073249817,-7.191030025482178,3.883850336074829
1701881286389789200,1.7707890625,0.32572299242019653,-6.486942291259766,2.765803813934326
1701881286399380700,1.780380615234375,-2.3676979541778564,-5.97936487197876,2.9862427711486816
1701881286408973000,1.78997314453125,-4.718646049499512,-6.6954169273376465,4.037290096282959
1701881286418566100,1.799566162109375,-2.9925239086151123,-7.87567663192749,4.1042890548706055
1701881286428158500,1.809158447265625,-0.4618147611618042,-8.455039024353027,3.9870407581329346
1701881286437749800,1.818749755859375,0.01704886183142662,-8.715856552124023,4.966004371643066
1701881286447342300,1.82834228515625,1.2044870853424072,-8.380861282348633,4.118646144866943
1701881286456935200,1.83793505859375,1.5275181531906128,-8.481359481811523,3.608675718307495
1701881286466527500,1.847527587890625,0.9864411354064941,-8.876474380493164,3.567997694015503
1701881286476119000,1.857119140625,0.6873382925987244,-9.838688850402832,3.474677562713623
1701881286485711400,1.86671142578125,0.5748756527900696,-10.628918647766113,2.50498628616333
1701881286495304400,1.876304443359375,0.36640095710754395,-10.76530933380127,2.0404794216156006
1701881286504896800,1.885896728515625,0.1534397453069687,-11.026126861572266,1.8945173025131226
1701881286514488300,1.89548828125,0.38315072655677795,-11.490633010864258,2.4164516925811768
1701881286524080600,1.90508056640625,0.5629115104675293,-11.868998527526855,2.801995277404785
1701881286533673700,1.914673828125,0.6394818425178528,-12.079566955566406,3.1657042503356934
1701881286543265800,1.924265869140625,0.39990049600601196,-12.278470039367676,3.6182470321655273
1701881286552857300,1.933857421875,0.34247273206710815,-11.931211471557617,3.9559340476989746
1701881286562449700,1.94344970703125,-0.03559323772788048,-11.29202938079834,3.804887056350708
1701881286572042800,1.953042724609375,-0.5455635786056519,-10.45633602142334,3.3837504386901855
1701881286581635000,1.962635009765625,-0.8114659786224365,-9.91286563873291,2.981456995010376
1701881286591226600,1.9722265625,-0.5096712112426758,-9.951150894165039,2.6916263103485107
1701881286600819000,1.98181884765625,-0.04785645380616188,-9.821938514709473,2.2393829822540283
1701881286610412000,1.991412109375,0.026620151475071907,-9.611370086669922,2.3901307582855225
1701881286620004400,2.00100439453125,-0.43549370765686035,-9.427123069763184,2.526521682739258
1701881286629595600,2.010595703125,-0.8952147960662842,-9.297611236572266,2.4690937995910645
1701881286639188200,2.020188232421875,-1.1994023323059082,-9.23300552368164,2.48105788230896
1701881286648781000,2.029781005859375,-1.1057831048965454,-9.244969367980957,2.701197624206543
1701881286658373400,2.039373291015625,-0.7540382146835327,-9.189934730529785,2.837887763977051
1701881286667965000,2.04896484375,0.2754737138748169,-9.058329582214355,2.5863420963287354
1701881286677557200,2.05855712890625,2.3967108726501465,-8.440681457519531,1.8705891370773315
1701881286687150300,2.068150390625,1.8652052879333496,-5.316253662109375,-0.2554338276386261
1701881286696742700,2.07774267578125,0.6801598072052002,-5.175076961517334,-0.1333998590707779
1701881286706334200,2.087334228515625,-0.5000999569892883,-6.482156753540039,0.125324085354805
1701881286715926500,2.096926513671875,-0.6415755748748779,-7.739285945892334,0.7070791125297546
1701881286725519600,2.10651953125,-1.903191328048706,-6.187839508056641,3.0723843574523926
1701881286735111700,2.116111572265625,-2.420340061187744,-4.18863582611084,2.0572292804718018
1701881286744703200,2.125703125,-2.1257238388061523,-3.326920747756958,1.2625130414962769
1701881286754295600,2.135295654296875,0.7136593461036682,-4.260420799255371,1.0707881450653076
1701881286763888600,2.144888671875,3.76361083984375,-5.881258964538574,0.11575279384851456
1701881286773481000,2.15448095703125,-0.05024927482008934,-6.419943332672119,-0.20997019112110138
1701881286783072500,2.164072509765625,-1.1225329637527466,-7.4015984535217285,0.23778675496578217
1701881286792664800,2.173664794921875,0.4334000051021576,-8.376075744628906,1.1213364601135254
1701881286802258000,2.1832578125,-0.07178468257188797,-7.729415416717529,1.6911274194717407
1701881286811850200,2.192850341796875,-0.6487540602684021,-6.989734172821045,2.129014015197754
1701881286821441500,2.202441650390625,-3.2676985263824463,-7.392027378082275,1.0950154066085815
1701881286831034000,2.2120341796875,-5.360221862792969,-7.705487251281738,-0.0687936544418335
1701881286840627200,2.221627197265625,-8.173283576965332,-8.577073097229004,-0.29850462079048157
1701881286850219300,2.23121923828125,-8.106285095214844,-8.89083194732666,-0.542572557926178
1701881286859810800,2.240810791015625,-2.92073917388916,-9.087042808532715,-0.5330012440681458
1701881286869403100,2.250403076171875,4.613661289215088,-9.089435577392578,-2.1705892086029053
1701881286878996200,2.259996337890625,8.123333930969238,-16.5397891998291,-8.380861282348633
1701881286888588500,2.269588623046875,3.3903305530548096,-34.852359771728516,-9.546764373779297
1701881286898180000,2.27918017578125,1.5083755254745483,-42.15435791015625,1.4922239780426025
1701881286907772400,2.2887724609375,1.1805589199066162,-30.602706909179688,15.224932670593262
1701881286917365500,2.298365478515625,0.32572299242019653,-10.75813102722168,7.096812725067139
1701881286926957600,2.30795751953125,-1.3142578601837158,-5.996114253997803,-0.09272187948226929
1701881286936549000,2.317549072265625,-2.006082773208618,-8.244171142578125,-1.1123634576797485
1701881286946141400,2.327141357421875,-0.8976075649261475,-9.484550476074219,0.041575293987989426
1701881286955734500,2.336734619140625,-0.5096712112426758,-9.02961540222168,-0.44446679949760437
1701881286965326800,2.346326904296875,-0.5647061467170715,-8.866903305053711,-0.605085015296936
1701881286974918400,2.35591845703125,-0.42831525206565857,-8.993722915649414,-0.8371888399124146
1701881286984510700,2.3655107421875,-0.16031911969184875,-9.405288696289062,-0.7701897621154785
1701881286994103800,2.375103759765625,-0.07417750358581543,-10.028020858764648,-0.43489551544189453
1701881287003696000,2.384696044921875,-0.1052841991186142,-10.406086921691895,-0.1094716340303421
1701881287013287700,2.39428759765625,-0.2392822653055191,-10.621739387512207,0.09661021083593369
1701881287022880000,2.4038798828125,-0.4163511395454407,-10.645668029785156,0.16121642291545868
1701881287032473000,2.41347314453125,-0.4833501875400543,-10.540383338928223,0.12293126434087753
1701881287042065200,2.423065185546875,-0.42352959513664246,-10.458728790283203,0.05593222752213478
1701881287051656700,2.43265673828125,-0.4307080805301666,-10.62413215637207,0.11814561486244202
1701881287061249000,2.4422490234375,-0.5575276613235474,-10.789237022399902,0.22582264244556427
1701881287070842000,2.451842041015625,-0.5838487148284912,-10.698309898376465,0.271286278963089
1701881287080434400,2.461434326171875,-0.5551348328590393,-10.20748233795166,0.30957141518592834
1701881287090026000,2.47102587890625,-0.5096712112426758,-9.692726135253906,0.2234298139810562
1701881287099618300,2.480618408203125,-1.06271231174469,-9.79801082611084,-0.030209386721253395
1701881287109211400,2.49021142578125,-0.2847459018230438,-7.949853897094727,-0.9544371366500854
1701881287118803500,2.499803466796875,-0.21296121180057526,-7.229315280914307,-1.7829519510269165
1701881287128395000,2.50939501953125,-0.7707880139350891,-7.413562774658203,-1.5242279767990112
1701881287137987600,2.518987548828125,-1.5296118259429932,-7.370491981506348,-1.0668997764587402
1701881287147580700,2.52858056640625,-2.561516523361206,-10.691131591796875,0.6879364848136902
1701881287157172700,2.5381728515625,-0.35892340540885925,-12.75464153289795,2.0620148181915283
1701881287166764300,2.547764404296875,0.13668999075889587,-12.625429153442383,0.7549355626106262
1701881287176356600,2.557356689453125,-0.646361231803894,-11.234601020812988,0.09182456880807877
1701881287185949700,2.56694970703125,-1.170688509941101,-10.264909744262695,0.3981058597564697
1701881287195542000,2.5765419921875,-0.8569296002388,-9.951150894165039,0.1372881978750229
1701881287205133600,2.586133544921875,-0.7061817646026611,-9.606584548950195,-0.20997019112110138
1701881287214726000,2.595725830078125,-0.701396107673645,-9.331110954284668,-0.28654050827026367
1701881287224319000,2.605319091796875,-0.7085745930671692,-9.16122055053711,-0.28175488114356995
1701881287233911000,2.6149111328125,-0.6990033388137817,-9.046364784240723,-0.2267199456691742
1701881287243502600,2.624502685546875,-0.6894320249557495,-8.981759071350098,-0.12861421704292297
1701881287253095000,2.634094970703125,-0.7492526173591614,-8.993722915649414,-0.023030918091535568
1701881287262688000,2.64368798828125,-0.8497511148452759,-9.067900657653809,0.05353940650820732
1701881287272280300,2.6532802734375,-0.9311071038246155,-9.24736213684082,0.07986045628786087
1701881287281872000,2.662871826171875,-1.0052846670150757,-9.477372169494629,0.11575279384851456
1701881287291464200,2.672464111328125,-1.0770692825317383,-9.723833084106445,0.1540379524230957
1701881287301057300,2.682057373046875,-1.0914262533187866,-10.016056060791016,0.20907287299633026
1701881287310649600,2.691649658203125,-1.1249257326126099,-10.279267311096191,0.26889345049858093
1701881287320241000,2.701240966796875,-1.1177473068237305,-10.564311981201172,0.3526422381401062
1701881287329833500,2.71083349609375,-1.0794621706008911,-10.805987358093262,0.4794618487358093
1701881287339426600,2.720426513671875,-1.0292128324508667,-10.995019912719727,0.5970092415809631
1701881287349018600,2.7300185546875,-1.0028917789459229,-11.081161499023438,0.714257538318634
1701881287358610200,2.739610107421875,-0.9981061220169067,-11.030912399291992,0.7501499056816101
1701881287368202500,2.749202392578125,-0.9981061220169067,-10.841879844665527,0.7645068168640137
1701881287377795600,2.758795654296875,-1.0052846670150757,-10.516156196594238,0.714257538318634
1701881287387388000,2.768387939453125,-0.9622138142585754,-10.140482902526855,0.6305087804794312
1701881287396979500,2.7779794921875,-0.91914302110672,-9.855438232421875,0.5539384484291077
1701881287406571800,2.78757177734375,-0.8784649968147278,-9.69511890411377,0.5659025311470032
1701881287416164900,2.797164794921875,-0.8617152571678162,-9.551549911499023,0.6065805554389954
1701881287425757000,2.8067568359375,-0.8760721683502197,-9.460622787475586,0.6400800347328186
1701881287435348500,2.816348388671875,-0.8688937425613403,-9.414859771728516,0.6592226624488831
1701881287444940800,2.82594091796875,-0.8569296002388,-9.383752822875977,0.6831508874893188
1701881287454534000,2.835533935546875,-0.885643482208252,-9.311968803405762,0.7022934556007385
1701881287464126200,2.845126220703125,-0.9167501926422119,-9.27129077911377,0.7501499056816101
1701881287473717800,2.8547177734375,-0.9406784176826477,-9.22582721710205,0.7932206988334656
1701881287483310000,2.86431005859375,-0.9909276962280273,-9.206684112548828,0.776470959186554
1701881287492903200,2.873903076171875,-1.043569803237915,-9.197113037109375,0.7429714202880859
1701881287502495500,2.88349560546875,-1.0507482290267944,-9.25454044342041,0.7597211599349976
1701881287512086800,2.893086669921875,-1.0100702047348022,-9.374181747436523,0.7740781307220459
1701881287521679400,2.902679443359375,-1.0196415185928345,-9.491728782653809,0.7740781307220459
1701881287531272400,2.9122724609375,-0.9430712461471558,-9.594620704650879,0.7429714202880859
1701881287540864500,2.921864501953125,-0.9311071038246155,-9.716654777526855,0.7381857633590698
1701881287550456000,2.9314560546875,-0.9095717072486877,-9.831509590148926,0.6592226624488831
1701881287560048400,2.94104833984375,-0.8593224287033081,-10.051948547363281,0.6448656916618347
1701881287569641500,2.950641357421875,-0.8569296002388,-10.360623359680176,0.6879364848136902
1701881287579233800,2.96023388671875,-0.8473583459854126,-10.65523910522461,0.6448656916618347
1701881287588825300,2.969825439453125,-0.7947162389755249,-10.85862922668457,0.5826523303985596
1701881287598417700,2.979417724609375,-0.7588238716125488,-11.002198219299316,0.4698905348777771
1701881287608010800,2.9890107421875,-0.7085745930671692,-11.040483474731445,0.4052843451499939
1701881287617602800,2.998602783203125,-0.6846463680267334,-10.944770812988281,0.29042884707450867
1701881287627194400,3.0081943359375,-0.6367899179458618,-10.736595153808594,0.1899302899837494
1701881287636786700,3.01778662109375,-0.6320042610168457,-10.444372177124023,0.09421738982200623
1701881287646379800,3.0273798828125,-0.612861692905426,-10.147662162780762,-0.013459627516567707
1701881287655972000,3.03697216796875,-0.5120640397071838,-9.903294563293457,-0.09272187948226929
1701881287665563600,3.046563720703125,-0.380458801984787,-9.723833084106445,-0.21236300468444824
1701881287675156000,3.056156005859375,-0.30149564146995544,-9.5802640914917,-0.2793620526790619
1701881287684749000,3.0657490234375,-0.24885354936122894,-9.484550476074219,-0.355932354927063
1701881287694341400,3.07534130859375,-0.2225325107574463,-9.4390869140625,-0.42293140292167664
1701881287703932700,3.0849326171875,-0.20338992774486542,-9.436694145202637,-0.4731806814670563
1701881287713525200,3.094525146484375,-0.2273181527853012,-9.45583724975586,-0.5306084156036377
1701881287723118000,3.1041181640625,-0.2392822653055191,-9.56351375579834,-0.5521438121795654
1701881287732710400,3.11371044921875,-0.2584248483181,-9.673583984375,-0.5688936114311218
1701881287742302000,3.123302001953125,-0.2727817893028259,-9.786046028137207,-0.5545366406440735
1701881287751894300,3.132894287109375,-0.2967100143432617,-9.865009307861328,-0.5306084156036377
1701881287761487400,3.1424873046875,-0.2847459018230438,-9.958329200744629,-0.511465847492218
1701881287771079700,3.15207958984375,-0.26081767678260803,-10.039984703063965,-0.494716078042984
1701881287780671200,3.161671142578125,-0.21296121180057526,-10.133304595947266,-0.47557350993156433
1701881287790263600,3.171263671875,-0.13878370821475983,-10.212267875671387,-0.44446679949760437
1701881287799856600,3.180856689453125,-0.059820566326379776,-10.248160362243652,-0.4085744619369507
1701881287809448700,3.19044873046875,0.036191441118717194,-10.248160362243652,-0.372682124376297
1701881287819040300,3.200040283203125,0.08644071966409683,-10.197911262512207,-0.3655036687850952
1701881287828632600,3.209632568359375,0.12233305722475052,-10.166804313659668,-0.355932354927063
1701881287838225700,3.2192255859375,0.16061821579933167,-10.157233238220215,-0.3415754437446594
1701881287847818000,3.22881787109375,0.18933209776878357,-10.140482902526855,-0.355932354927063
1701881287857409500,3.238409423828125,0.1989033818244934,-10.138090133666992,-0.389431893825531
1701881287867001900,3.248001953125,0.1989033818244934,-10.138090133666992,-0.42293140292167664
1701881287876595000,3.257594970703125,0.16779668629169464,-10.142875671386719,-0.42293140292167664
1701881287886187300,3.267187255859375,0.13668999075889587,-10.104591369628906,-0.4325026869773865
1701881287895778600,3.276778564453125,0.11994023621082306,-10.099804878234863,-0.42771705985069275
1701881287905371100,3.28637109375,-0.002093719784170389,-10.087841033935547,-0.42293140292167664
1701881287914964000,3.2959638671875,-0.08135596662759781,-10.092626571655273,-0.4061816334724426
1701881287924556300,3.305556396484375,-0.17946170270442963,-10.08305549621582,-0.4205385744571686
1701881287934147800,3.31514794921875,-0.2225325107574463,-10.092626571655273,-0.4085744619369507
1701881287943740200,3.324740234375,-0.4043870270252228,-10.025628089904785,-0.48514479398727417
1701881287953333200,3.334333251953125,-0.46899324655532837,-10.006484985351562,-0.48514479398727417
1701881287962925600,3.343925537109375,-0.5575276613235474,-9.963115692138672,-0.4660021960735321
1701881287972517000,3.35351708984375,-0.4833501875400543,-9.915258407592773,-0.4875376224517822
1701881287982109400,3.363109375,-0.41156548261642456,-9.977771759033203,-0.46839502453804016
1701881287991702500,3.37270263671875,-0.40677985548973083,-10.08305549621582,-0.4731806814670563
1701881288001294600,3.382294677734375,-0.5144568681716919,-10.133304595947266,-0.5497509837150574
1701881288010886100,3.39188623046875,-0.48574298620224,-10.159626007080078,-0.6290132403373718
1701881288020478500,3.401478515625,-0.31824541091918945,-10.169197082519531,-0.7773682475090027
1701881288030071600,3.411071533203125,-0.2632105052471161,-10.264909744262695,-0.8252246975898743
1701881288039663900,3.420663818359375,-0.2632105052471161,-10.386943817138672,-0.7366902828216553
1701881288049255400,3.43025537109375,-0.2679961323738098,-10.47069263458252,-0.6002993583679199
1701881288058847700,3.43984765625,-0.33499518036842346,-10.537692070007324,-0.44446679949760437
1701881288068440800,3.44944091796875,-0.34695929288864136,-10.597811698913574,-0.31764721870422363
1701881288078033000,3.459032958984375,-0.19621145725250244,-10.60977554321289,-0.20757736265659332
1701881288087624400,3.46862451171875,-0.026021946221590042,-10.489835739135742,-0.0568295381963253
1701881288097217000,3.478217041015625,0.09601201117038727,-10.298409461975098,-0.025423740968108177
1701881288106809900,3.487809814453125,0.057726845145225525,-10.030413627624512,-0.08075776696205139
1701881288116402200,3.497402099609375,-0.023629123345017433,-9.740582466125488,-0.1333998590707779
1701881288125993700,3.50699365234375,-0.08374879509210587,-9.434301376342773,-0.20997019112110138
1701881288135586000,3.5165859375,-0.07896314561367035,-9.237791061401367,-0.23629122972488403
1701881288145179100,3.52617919921875,-0.06939185410737991,-9.182756423950195,-0.25782662630081177
1701881288154771500,3.535771484375,-0.064606212079525,-9.273683547973633,-0.2841476798057556
1701881288164363000,3.545363037109375,-0.059820566326379776,-9.46301555633545,-0.3032902777194977
1701881288173955300,3.554955322265625,-0.05742774158716202,-9.69511890411377,-0.32721850275993347
1701881288183548400,3.56454833984375,-0.08853443711996078,-9.89850902557373,-0.2841476798057556
1701881288193140500,3.574140380859375,-0.10289137065410614,-10.073484420776367,-0.19561325013637543
1701881288202732000,3.58373193359375,-0.018843477591872215,-10.195518493652344,-0.11186445504426956
1701881288212324400,3.593324462890625,0.06011966988444328,-10.267302513122559,-0.052043892443180084
1701881288221917400,3.60291748046875,0.09840483218431473,-10.279267311096191,-0.032602209597826004
1701881288231509800,3.612509765625,0.16301104426383972,-10.269695281982422,-0.10707881301641464
1701881288241101300,3.622101318359375,0.17258232831954956,-10.257731437683105,-0.2602194547653198
1701881288250693600,3.631693603515625,0.1869392693042755,-10.224231719970703,-0.42293140292167664
1701881288260286700,3.64128662109375,0.16540385782718658,-10.181160926818848,-0.5760720372200012
1701881288269878800,3.650878662109375,0.12711870670318604,-10.166804313659668,-0.6481558084487915
1701881288279470300,3.66047021484375,0.07447660714387894,-10.123733520507812,-0.6337988972663879
1701881288289062700,3.670062744140625,0.024227328598499298,-10.078269958496094,-0.5688936114311218
1701881288298655700,3.67965576171875,-0.0526420995593071,-10.020842552185059,-0.4540380835533142
1701881288308248000,3.689248046875,-0.09571290761232376,-9.98973560333252,-0.3535395562648773
1701881288317839600,3.698839599609375,-0.10767702013254166,-9.975079536437988,-0.3152543902397156
1701881288327432000,3.708431884765625,-0.09571290761232376,-9.98973560333252,-0.2793620526790619
1701881288337025000,3.71802490234375,-0.018843477591872215,-10.018449783325195,-0.2602194547653198
1701881288346617300,3.727617431640625,0.057726845145225525,-10.044770240783691,-0.2745763957500458
1701881288356208600,3.737208740234375,0.13190434873104095,-10.037591934204102,-0.3008974492549896
1701881288365801200,3.74680126953125,0.2108674943447113,-10.044770240783691,-0.34636107087135315
1701881288375394300,3.756394287109375,0.2347957193851471,-10.032806396484375,-0.36311084032058716
1701881288384986400,3.765986328125,0.21565313637256622,-10.047163009643555,-0.37507495284080505
1701881288394578000,3.775577880859375,0.15583257377147675,-10.039984703063965,-0.39900317788124084
1701881288404170200,3.785170166015625,0.06251249462366104,-10.018449783325195,-0.38703906536102295
1701881288413763300,3.794763427734375,-0.03798605874180794,-10.016056060791016,-0.3678964674472809
1701881288423355600,3.804355712890625,-0.08853443711996078,-10.016056060791016,-0.355932354927063
1701881288432947200,3.813947265625,-0.09571290761232376,-10.008877754211426,-0.36311084032058716
1701881288442539500,3.82353955078125,-0.04785645380616188,-9.980164527893066,-0.389431893825531
1701881288452132600,3.833132568359375,0.026620151475071907,-9.948758125305176,-0.42771705985069275
1701881288461724700,3.842724609375,0.10797612369060516,-9.927223205566406,-0.4731806814670563
1701881288471316200,3.852316162109375,0.17258232831954956,-9.932008743286133,-0.5401797294616699
1701881288480908500,3.861908447265625,0.19172491133213043,-9.910472869873047,-0.5832505226135254
1701881288490501600,3.871501708984375,0.20129621028900146,-9.896116256713867,-0.5784648656845093
1701881288500094000,3.881093994140625,0.20847466588020325,-9.917651176452637,-0.5521438121795654
1701881288509685500,3.890685546875,0.17736798524856567,-9.89133071899414,-0.542572557926178
1701881288519277800,3.90027783203125,0.1582254022359848,-9.838688850402832,-0.50907301902771
1701881288528871000,3.909870849609375,0.14386846125125885,-9.824331283569336,-0.5066801905632019
1701881288538463200,3.919463134765625,0.1414756327867508,-9.79801082611084,-0.5138586759567261
1701881288548054500,3.929054443359375,0.15583257377147675,-9.78126049041748,-0.5401797294616699
1701881288557646800,3.938646728515625,0.14865410327911377,-9.762118339538574,-0.5665007829666138
1701881288567240000,3.948239990234375,0.1295115202665329,-9.764511108398438,-0.6098706722259521
1701881288576832300,3.957832275390625,0.07926224917173386,-9.802796363830566,-0.6314060688018799
1701881288586423800,3.967423828125,0.04336991161108017,-9.814760208129883,-0.6601199507713318
1701881288596016000,3.97701611328125,-0.00687936507165432,-9.836296081542969,-0.667298436164856
1701881288605609200,3.986609130859375,0.05294119939208031,-9.955936431884766,-0.6457630395889282
1701881288615201500,3.996201416015625,0.04576273262500763,-9.987342834472656,-0.605085015296936
1701881288624792800,4.005792724609375,0.06729813665151596,-9.960722923278809,-0.5832505226135254
1701881288634385400,4.015385498046875,0.09601201117038727,-9.965508460998535,-0.5784648656845093
1701881288643978200,4.024978271484375,0.14865410327911377,-9.963115692138672,-0.5712863802909851
1701881288653570600,4.034570556640625,0.1701895147562027,-9.948758125305176,-0.5712863802909851
1701881288663162000,4.044162109375,0.1941177397966385,-9.92961597442627,-0.6194419860839844
1701881288672754400,4.05375439453125,0.12711870670318604,-9.89850902557373,-0.6481558084487915
1701881288682347500,4.063347412109375,0.18454644083976746,-10.032806396484375,-0.6625127792358398
1701881288691939800,4.07293994140625,0.13668999075889587,-10.07587718963623,-0.6792625188827515
1701881288701531400,4.082531494140625,0.11036894470453262,-10.085448265075684,-0.6888338327407837
1701881288711123700,4.092123779296875,0.1295115202665329,-10.133304595947266,-0.7055835723876953
1701881288720716800,4.101716796875,0.13908281922340393,-10.20748233795166,-0.6984050869941711
1701881288730308900,4.111308837890625,0.1414756327867508,-10.252945899963379,-0.6912266612052917
1701881288739900400,4.120900390625,0.11276176571846008,-10.281660079956055,-0.6984050869941711
1701881288749492700,4.13049267578125,0.08883354067802429,-10.281660079956055,-0.7295117974281311
1701881288759085800,4.1400859375,0.10319047421216965,-10.2385892868042,-0.7366902828216553
1701881288768678100,4.14967822265625,0.1175474151968956,-10.157233238220215,-0.7510471940040588
1701881288778269700,4.159269775390625,0.11276176571846008,-10.06152057647705,-0.7295117974281311
1701881288787862000,4.168862060546875,0.06251249462366104,-9.876974105834961,-0.7438687682151794
1701881288797455000,4.178455078125,0.20368902385234833,-10.030413627624512,-0.6744768619537354
1701881288807047400,4.18804736328125,0.17976079881191254,-10.047163009643555,-0.6816553473472595
1701881288816638700,4.197638671875,0.15583257377147675,-9.99691390991211,-0.6409773826599121
1701881288826231300,4.207231201171875,0.1582254022359848,-9.967901229858398,-0.6290132403373718
1701881288835824000,4.21682421875,0.16061821579933167,-9.934401512145996,-0.6314060688018799
1701881288845416400,4.22641650390625,0.1582254022359848,-9.908080101013184,-0.6170491576194763
1701881288855008000,4.236008056640625,0.1534397453069687,-9.90568733215332,-0.6242275834083557
1701881288864600300,4.245600341796875,0.13908281922340393,-9.817152976989746,-0.636191725730896
1701881288874193400,4.255193359375,0.1582254022359848,-9.888937950134277,-0.5377869009971619
1701881288883785700,4.26478564453125,0.17976079881191254,-10.008877754211426,-0.494716078042984
1701881288893377300,4.274377197265625,0.11994023621082306,-9.946365356445312,-0.45164528489112854
1701881288902969600,4.283969482421875,0.09601201117038727,-9.92243766784668,-0.4205385744571686
1701881288912562700,4.293562744140625,0.0649053156375885,-9.941579818725586,-0.3774677813053131
1701881288922154800,4.30315478515625,0.06729813665151596,-9.984950065612793,-0.3367897868156433
1701881288931746300,4.312746337890625,0.07926224917173386,-10.066306114196777,-0.3152543902397156
1701881288941338600,4.322338623046875,0.11036894470453262,-10.140482902526855,-0.3152543902397156
1701881288950931700,4.331931640625,0.11036894470453262,-10.190732955932617,-0.29371899366378784
1701881288960524000,4.34152392578125,0.12711870670318604,-10.212267875671387,-0.2841476798057556
1701881288970115600,4.351115478515625,0.12233305722475052,-10.224231719970703,-0.3032902777194977
1701881288979708000,4.3607080078125,0.1175474151968956,-10.212267875671387,-0.3200400173664093
1701881288989301000,4.370301025390625,0.11994023621082306,-10.209875106811523,-0.3128615617752075
1701881288998893000,4.37989306640625,0.12711870670318604,-10.173982620239258,-0.3248256742954254
1701881289008484600,4.389484619140625,0.08883354067802429,-10.118947982788086,-0.3200400173664093
1701881289018077000,4.399076904296875,0.057726845145225525,-10.059126853942871,-0.33918261528015137
1701881289027670000,4.408669921875,0.04336991161108017,-10.016056060791016,-0.35114672780036926
1701881289037262300,4.418262451171875,0.04576273262500763,-9.984950065612793,-0.3415754437446594
1701881289046854000,4.42785400390625,0.07208377867937088,-9.970293998718262,-0.37028929591178894
1701881289056446200,4.4374462890625,0.09361918270587921,-9.963115692138672,-0.3798605799674988
1701881289066039300,4.447039306640625,0.10079765319824219,-9.955936431884766,-0.3966103494167328
1701881289075631600,4.456631591796875,0.11276176571846008,-9.941579818725586,-0.4061816334724426
1701881289085223200,4.46622314453125,0.11276176571846008,-9.908080101013184,-0.43489551544189453
1701881289094815500,4.4758154296875,0.1295115202665329,-9.89850902557373,-0.4707878530025482
1701881289104408600,4.48540869140625,0.15104693174362183,-9.886545181274414,-0.4875376224517822
1701881289114000600,4.495000732421875,0.1701895147562027,-9.862616539001465,-0.49710890650749207
1701881289123592200,4.50459228515625,0.17736798524856567,-9.865009307861328,-0.494716078042984
1701881289133184500,4.5141845703125,0.20129621028900146,-9.860223770141602,-0.47796630859375
1701881289142777600,4.523777587890625,0.20368902385234833,-9.857831001281738,-0.4827519655227661
1701881289152370000,4.533369873046875,0.21565313637256622,-9.838688850402832,-0.48035913705825806
1701881289161961500,4.54296142578125,0.20608185231685638,-9.831509590148926,-0.4995017349720001
1701881289171553800,4.5525537109375,0.17976079881191254,-9.831509590148926,-0.5330012440681458
1701881289181147000,4.56214697265625,0.16540385782718658,-9.833903312683105,-0.5641079545021057
1701881289190739000,4.571739013671875,0.1821536272764206,-9.857831001281738,-0.5832505226135254
1701881289200330500,4.58133056640625,0.18933209776878357,-9.869794845581055,-0.602692186832428
1701881289209922800,4.5909228515625,0.20129621028900146,-9.876974105834961,-0.6122635006904602
1701881289219516000,4.600515869140625,0.18933209776878357,-9.903294563293457,-0.6146563291549683
1701881289229108200,4.610108154296875,0.1295115202665329,-9.855438232421875,-0.669691264629364
1701881289238699800,4.61969970703125,0.19651055335998535,-9.92961597442627,-0.5617151260375977
1701881289248292000,4.6292919921875,0.2922234535217285,-10.049555778503418,-0.605085015296936
1701881289257885200,4.63888525390625,0.24915266036987305,-10.006484985351562,-0.5856433510780334
1701881289267477200,4.648477294921875,0.27308088541030884,-9.972686767578125,-0.5784648656845093
1701881289277068800,4.65806884765625,0.2706880569458008,-9.977771759033203,-0.5545366406440735
1701881289286661000,4.6676611328125,0.24436701834201813,-9.963115692138672,-0.5282155871391296
1701881289296254200,4.677254150390625,0.21804596483707428,-9.967901229858398,-0.5234299302101135
1701881289305846500,4.686846435546875,0.1989033818244934,-9.963115692138672,-0.5066801905632019
1701881289315438000,4.69643798828125,0.21565313637256622,-9.975079536437988,-0.46360939741134644
1701881289325030400,4.706030517578125,0.20368902385234833,-9.98255729675293,-0.45164528489112854
1701881289334623500,4.71562353515625,0.22522443532943726,-9.975079536437988,-0.41096729040145874
1701881289344215800,4.7252158203125,0.22761724889278412,-9.967901229858398,-0.3678964674472809
1701881289353807000,4.73480712890625,0.23958136141300201,-9.94397258758545,-0.33918261528015137
1701881289363399700,4.744399658203125,0.26590242981910706,-9.92961597442627,-0.3032902777194977
1701881289372992500,4.753992431640625,0.25393831729888916,-9.927223205566406,-0.2626122832298279
1701881289382584800,4.763584716796875,0.2587239444255829,-9.946365356445312,-0.22911277413368225
1701881289392176400,4.77317626953125,0.2802593410015106,-9.958329200744629,-0.20757736265659332
1701881289401768700,4.782768798828125,0.28983065485954285,-9.977771759033203,-0.18843477964401245
1701881289411361800,4.79236181640625,0.2946162819862366,-9.955936431884766,-0.14057832956314087
1701881289420954000,4.8019541015625,0.2946162819862366,-9.917651176452637,-0.1381855010986328
1701881289430545700,4.811545654296875,0.2874378263950348,-9.886545181274414,-0.09990034252405167
1701881289440138000,4.821137939453125,0.27786654233932495,-9.874580383300781,-0.04007977992296219
1701881289449731000,4.83073095703125,0.25393831729888916,-9.900901794433594,0.024825535714626312
1701881289459323100,4.8403232421875,0.2587239444255829,-9.910472869873047,0.07986045628786087
1701881289468914700,4.849914794921875,0.2587239444255829,-9.92961597442627,0.1301097273826599
1701881289478507000,4.859507080078125,0.2994019389152527,-9.939187049865723,0.1372881978750229
1701881289488100000,4.86910009765625,0.31375887989997864,-9.867402076721191,0.1779661774635315
1701881289497692400,4.8786923828125,0.34247273206710815,-9.716654777526855,0.27846473455429077
1701881289507284000,4.888283935546875,0.5027918815612793,-9.613762855529785,0.3000001311302185
1701881289516876300,4.897876220703125,0.617946445941925,-9.573084831237793,0.30239295959472656
1701881289526469400,4.907469482421875,0.6586244106292725,-9.592227935791016,0.3406781256198883
1701881289536061400,4.9170615234375,0.6849454641342163,-9.678369522094727,0.30239295959472656
1701881289545653000,4.926653076171875,0.7280163168907166,-9.742975234985352,0.18753747642040253
1701881289555245300,4.936245361328125,0.7280163168907166,-9.833903312683105,0.03678964823484421
1701881289564838400,4.94583837890625,0.7543373107910156,-9.915258407592773,-0.1381855010986328
1701881289574430700,4.9554306640625,0.7878368496894836,-9.953543663024902,-0.2961117923259735
1701881289584022300,4.965022216796875,0.8213363885879517,-9.932008743286133,-0.389431893825531
1701881289593614600,4.974614501953125,0.8500502705574036,-9.89133071899414,-0.4875376224517822
1701881289603207700,4.984207763671875,0.802193820476532,-9.872187614440918,-0.5353940725326538
1701881289612800000,4.993800048828125,0.7088736891746521,-9.91286563873291,-0.5497509837150574
1701881289622391600,5.0033916015625,0.6610172390937805,-9.951150894165039,-0.6457630395889282
1701881289631983900,5.01298388671875,0.6658028960227966,-9.953543663024902,-0.7989036440849304
1701881289641577000,5.022576904296875,0.6873382925987244,-9.970293998718262,-0.9520443081855774
1701881289651169000,5.0321689453125,0.6681957244873047,-9.920044898986816,-1.1315059661865234
1701881289660760600,5.041760498046875,0.7184450030326843,-9.896116256713867,-1.1410772800445557
1701881289670353000,5.051352783203125,0.8189435601234436,-9.92961597442627,-1.2681959867477417
1701881289679946000,5.060946044921875,0.7806583642959595,-9.900901794433594,-1.4691931009292603
1701881289689538300,5.070538330078125,0.737587571144104,-9.896116256713867,-1.581655740737915
1701881289699129900,5.0801298828125,0.7399803996086121,-9.934401512145996,-1.7614165544509888
1701881289708722200,5.08972216796875,0.771087110042572,-9.958329200744629,-1.893021821975708
1701881289718315300,5.099315185546875,0.9098708033561707,-9.992128372192383,-1.952842354774475
1701881289727907300,5.1089072265625,1.163809061050415,-9.934401512145996,-2.1394824981689453
1701881289737499000,5.118498779296875,1.3336994647979736,-9.903294563293457,-2.3407788276672363
1701881289747091200,5.12809130859375,1.2092727422714233,-9.869794845581055,-2.489133834838867
1701881289756684300,5.137684326171875,0.8356932997703552,-9.802796363830566,-2.5465614795684814
1701881289766276600,5.147276611328125,0.36640095710754395,-9.659226417541504,-2.582453727722168
1701881289775868200,5.1568681640625,0.026620151475071907,-9.518050193786621,-2.599203586578369
1701881289785460500,5.16646044921875,-0.22013968229293823,-9.362217903137207,-2.730808734893799
1701881289795053600,5.176053466796875,-0.12921242415905,-9.02243709564209,-3.042174816131592
1701881289804646000,5.18564599609375,0.5892325639724731,-8.428717613220215,-3.262314558029175
1701881289814237200,5.1952373046875,0.8117650747299194,-7.767999649047852,-3.5018959045410156
1701881289823829500,5.20482958984375,0.4405784606933594,-7.016055107116699,-4.136292934417725
1701881289833422600,5.214422607421875,0.5868397355079651,-6.4701924324035645,-3.3532419204711914
1701881289843015000,5.224014892578125,0.6059823632240295,-6.608976364135742,-1.1099705696105957
1701881289852606500,5.2336064453125,-0.1339980661869049,-7.595417499542236,0.36699917912483215
1701881289862198800,5.24319873046875,-0.9454640746116638,-8.34018325805664,0.5970092415809631
1701881289871791900,5.2527919921875,-1.7186448574066162,-8.512466430664062,-1.3471591472625732
1701881289881384200,5.26238427734375,-1.311864972114563,-7.789535045623779,-3.504288673400879
1701881289890975500,5.2719755859375,-0.21296121180057526,-6.6714887619018555,-3.389134168624878
1701881289900568000,5.281568115234375,0.36640095710754395,-5.658726215362549,-1.9648064374923706
1701881289910161000,5.291160888671875,0.4668995141983032,-4.789533615112305,-1.093220829963684
1701881289919753200,5.300753173828125,0.6753742098808289,-3.8030924797058105,-1.1099705696105957
1701881289929344800,5.3103447265625,0.9290133714675903,-2.8935208320617676,-1.8595223426818848
1701881289938937000,5.31993701171875,0.9649057388305664,-2.7260231971740723,-1.7494524717330933
1701881289948530200,5.3295302734375,2.1858434677124023,-3.6451661586761475,-0.5955137610435486
1701881289958122500,5.33912255859375,4.058227062225342,-5.117649555206299,0.5946164131164551
1701881289967714000,5.348714111328125,5.350949764251709,-6.254838466644287,1.7772690057754517
1701881289977306400,5.358306396484375,5.372485160827637,-6.795915603637695,2.9551360607147217
1701881289986899500,5.3678994140625,5.1188459396362305,-6.685845375061035,3.7522449493408203
1701881289996491500,5.377491455078125,4.795515537261963,-6.036792278289795,4.18564510345459
1701881290006083000,5.3870830078125,3.519542932510376,-5.376074314117432,3.828815221786499
1701881290015675400,5.39667529296875,3.9290146827697754,-5.368896007537842,2.725125789642334
1701881290025268500,5.4062685546875,5.539982795715332,-6.350551128387451,2.638984203338623
1701881290034860800,5.41586083984375,6.172286033630371,-7.794320583343506,3.019742250442505
1701881290044452400,5.425452392578125,5.997310638427734,-9.264111518859863,3.4387853145599365
1701881290054044700,5.435044677734375,4.800301551818848,-10.612168312072754,3.3933215141296387
1701881290063637800,5.4446376953125,3.1076784133911133,-11.493026733398438,3.632603883743286
1701881290073229800,5.454229736328125,1.0199406147003174,-11.51695442199707,4.037290096282959
1701881290082821400,5.4638212890625,-1.0316057205200195,-10.77248764038086,3.996612071990967
1701881290092413700,5.47341357421875,-1.7572290897369385,-8.244171142578125,3.1680972576141357
1701881290102006800,5.4830068359375,-0.768395185470581,-5.337789058685303,1.949552297592163
1701881290111599000,5.49259912109375,0.4501497745513916,-2.622832775115967,1.1213364601135254
1701881290121190700,5.502190673828125,1.079761266708374,-1.088435173034668,1.272084355354309
1701881290130783000,5.511782958984375,0.7830511927604675,-0.8656035661697388,2.210369825363159
1701881290140376000,5.5213759765625,1.2092727422714233,-1.9334007501602173,1.2074781656265259
1701881290149968400,5.530968505859375,2.612065076828003,-3.681058645248413,1.3438689708709717
1701881290159559700,5.5405595703125,2.549851655960083,-5.711368560791016,3.1345977783203125
1701881290169152000,5.550152099609375,1.529910922050476,-7.710272789001465,4.583152770996094
1701881290178745000,5.5597451171875,-0.5383850932121277,-9.616155624389648,5.670092582702637
1701881290188337400,5.56933740234375,-2.5471596717834473,-10.557133674621582,7.12074089050293
1701881290197929000,5.578928955078125,-4.7234320640563965,-9.881759643554688,9.304191589355469
1701881290207521300,5.588521240234375,-5.650052547454834,-8.359326362609863,10.747961044311523
1701881290217114400,5.5981142578125,-4.914857864379883,-7.435098171234131,10.173384666442871
1701881290226706700,5.607706787109375,-1.673181176185608,-6.309873104095459,7.068099021911621
1701881290236298000,5.617298095703125,-3.835096597671509,-12.642179489135742,4.9133620262146
1701881290245890600,5.626890625,-3.3538401126861572,-18.00509262084961,3.2159535884857178
1701881290255483400,5.6364833984375,-2.9087750911712646,-23.633609771728516,3.795315742492676
1701881290265075700,5.64607568359375,1.0007981061935425,-26.0419864654541,4.516153812408447
1701881290274667300,5.655667236328125,1.8652052879333496,-26.260032653808594,4.671687126159668
1701881290284259600,5.665259521484375,-0.9287142753601074,-26.458637237548828,2.028515338897705
1701881290293852700,5.674852783203125,-3.004487991333008,-29.283662796020508,-1.277767300605774
1701881290303445000,5.684445068359375,-1.9127626419067383,-27.986154556274414,-7.145566463470459
1701881290313036500,5.69403662109375,-3.562314748764038,-19.515562057495117,-10.10698413848877
1701881290322628900,5.70362890625,-6.260521411895752,-14.873486518859863,-6.353243350982666
1701881290332222000,5.713221923828125,-10.909775733947754,-19.056140899658203,-3.7292141914367676
1701881290341814000,5.72281396484375,-9.698409080505371,-22.19223403930664,0.05114658549427986
1701881290351405600,5.732405517578125,-12.10917854309082,-24.043081283569336,-3.757927894592285
1701881290360998000,5.741997802734375,-8.857930183410645,-20.403898239135742,-3.757927894592285
1701881290370591000,5.751591064453125,-7.416852951049805,-12.144172668457031,-1.6223337650299072
1701881290380183300,5.761183349609375,-9.540184020996094,-5.591727256774902,1.8490537405014038
1701881290389774800,5.77077490234375,-11.517851829528809,-3.1998021602630615,4.412963390350342
1701881290399367200,5.7803671875,-10.004690170288086,-2.6682963371276855,4.9755754470825195
1701881290408960300,5.789960205078125,-8.87946605682373,-2.7188446521759033,3.2135608196258545
1701881290418552300,5.79955224609375,-8.78375244140625,-2.476870536804199,0.5802595019340515
1701881290428143900,5.809143798828125,-9.571290969848633,-1.950150489807129,-0.9161519408226013
1701881290437736200,5.818736083984375,-10.864312171936035,-0.6765705943107605,-1.5864413976669312
1701881290447329300,5.828329345703125,-11.88185977935791,0.39122650027275085,-1.3160524368286133
1701881290456921600,5.837921630859375,-12.056535720825195,0.8246265053749084,-0.7079764008522034
1701881290466513200,5.84751318359375,-12.530613899230957,0.4414757788181305,-0.7773682475090027
1701881290476105500,5.85710546875,-8.350353240966797,0.3002992272377014,1.7126628160476685
1701881290485698600,5.866698486328125,-9.880263328552246,0.008075776509940624,0.5249254703521729
1701881290495291000,5.876290771484375,-9.540184020996094,0.6807580590248108,-0.7965108156204224
1701881290504882200,5.885882080078125,-9.83958625793457,1.4709876775741577,-3.3484561443328857
1701881290514474800,5.895474853515625,-10.440483093261719,1.9354944229125977,-6.389135360717773
1701881290524067600,5.905067626953125,-10.481161117553711,1.705484390258789,-8.962615966796875
1701881290533660000,5.914659912109375,-10.011869430541992,0.7528418302536011,-9.798309326171875
1701881290543251500,5.92425146484375,-9.20279598236084,-0.30538398027420044,-8.668298721313477
1701881290552843800,5.93384375,-8.273782730102539,-1.052542805671692,-6.990033149719238
1701881290562436900,5.943436767578125,-7.52931547164917,-1.1219347715377808,-5.407480239868164
1701881290572029200,5.953029296875,-7.33549690246582,-0.3556332588195801,-4.464109897613525
1701881290581620700,5.962620849609375,-7.2227349281311035,0.8533403873443604,-4.289433479309082
1701881290591213000,5.972213134765625,-6.911668300628662,1.9331015348434448,-4.574478626251221
1701881290600806100,5.98180615234375,-6.49980354309082,2.8187451362609863,-5.1203413009643555
1701881290610398200,5.991398193359375,-5.956333637237549,3.8530426025390625,-6.070590972900391
1701881290619989800,6.00098974609375,-6.013761520385742,4.465904235839844,-6.772286415100098
1701881290629582000,6.01058203125,-6.298806667327881,4.705485820770264,-7.337291717529297
1701881290639175200,6.020175048828125,-6.782455921173096,4.817948341369629,-7.5406813621521
1701881290648767500,6.029767578125,-7.215556621551514,4.8059844970703125,-7.476075172424316
1701881290658359000,6.039359130859375,-7.203592777252197,4.930410861968994,-7.23170804977417
1701881290667951400,6.048951416015625,-6.911668300628662,5.064409255981445,-7.1886372566223145
1701881290677544400,6.05854443359375,-6.368198394775391,5.583950519561768,-7.116852760314941
1701881290687136800,6.06813671875,-6.001797199249268,6.340681076049805,-7.124031066894531
1701881290696728000,6.07772802734375,-5.970690727233887,7.0683979988098145,-7.16949462890625
1701881290706320400,6.0873203125,-5.9300127029418945,7.432406425476074,-7.186244487762451
1701881290715913500,6.09691357421875,-5.642574787139893,7.312466144561768,-6.992425918579102
1701881290725505800,6.106505859375,-5.242973327636719,6.761817455291748,-6.4441704750061035
1701881290735097300,6.116097412109375,-4.876572608947754,5.804389476776123,-5.685346603393555
1701881290744689700,6.125689697265625,-4.483850479125977,5.30638313293457,-5.25673246383667
1701881290754282800,6.13528271484375,-4.007678985595703,5.311169147491455,-5.033900737762451
1701881290763875000,6.144875,-3.8470606803894043,5.571986675262451,-5.129912853240967
1701881290773466400,6.15446630859375,-3.8590247631073,6.412465572357178,-5.615655422210693
1701881290783059000,6.164058837890625,-3.744169235229492,6.7091755867004395,-6.0849480628967285
1701881290792652000,6.173652099609375,-3.037987470626831,6.46032190322876,-6.166304111480713
1701881290802244000,6.183244140625,-2.6021945476531982,6.448358058929443,-6.245566368103027
1701881290811835600,6.192835693359375,-2.36291241645813,6.524928092956543,-6.2862443923950195
1701881290821428000,6.202427978515625,-1.89840567111969,6.472286224365234,-6.022734642028809
1701881290831021000,6.21202099609375,-1.40279221534729,6.395715713500977,-5.898307800292969
1701881290840613400,6.22161328125,-1.0268200635910034,6.405287265777588,-5.821737289428711
1701881290850205000,6.231204833984375,-0.854536771774292,6.400501251220703,-5.72841739654541
1701881290859797200,6.24079736328125,-1.0268200635910034,6.527320861816406,-5.826523303985596
1701881290869390300,6.250390380859375,-0.9598209857940674,6.666104793548584,-5.912664890289307
1701881290878982400,6.259982421875,-0.8473583459854126,6.821638107299805,-5.723631858825684
1701881290888574000,6.269573974609375,-0.7851449251174927,6.814459800720215,-5.500800132751465
1701881290898166300,6.279166259765625,-0.8425726890563965,6.560820579528809,-5.397908687591553
1701881290907759400,6.28875927734375,-0.8665009140968323,6.062814235687256,-5.25673246383667
1701881290917351700,6.2983515625,-0.8952147960662842,5.806782245635986,-5.352445125579834
1701881290926943200,6.307943115234375,-1.0196415185928345,5.600700378417969,-5.687739372253418
1701881290936535600,6.31753564453125,-1.4745769500732422,5.227420330047607,-6.183053493499756
1701881290946128600,6.327128662109375,-1.8218353986740112,4.990231513977051,-6.654738903045654
1701881290955720700,6.336720703125,-2.226222276687622,4.949553489685059,-6.966104984283447
1701881290965312300,6.346312255859375,-2.8390841484069824,5.02133846282959,-7.1958160400390625
1701881290974904600,6.355904541015625,-3.1695926189422607,4.851448059082031,-7.147959232330322
1701881290984497700,6.36549755859375,-3.9813578128814697,4.8466620445251465,-7.734499931335449
1701881290994090000,6.375090087890625,-4.000500202178955,4.537689208984375,-7.966903209686279
1701881291003681500,6.384681640625,-3.6269209384918213,4.3773698806762695,-8.38564682006836
1701881291013273900,6.39427392578125,-3.1839497089385986,3.9942193031311035,-8.349754333496094
1701881291022867000,6.403866943359375,-3.3155548572540283,3.6017963886260986,-8.682656288146973
1701881291032459300,6.413459228515625,-3.2533414363861084,3.120539903640747,-8.68026351928711
1701881291042050600,6.423050537109375,-3.116950511932373,2.699103832244873,-8.644371032714844
1701881291051643000,6.432642822265625,-3.392125129699707,2.347059965133667,-8.632407188415527
1701881291061236000,6.442236083984375,-3.7130625247955322,2.062314033508301,-8.953044891357422
1701881291070828300,6.451828369140625,-4.050749778747559,1.82063889503479,-9.273982048034668
1701881291080419800,6.461419921875,-4.53200626373291,1.5068800449371338,-9.336195945739746
1701881291090012200,6.47101220703125,-5.108975410461426,1.3298112154006958,-9.838987350463867
1701881291099605200,6.480605224609375,-5.343472003936768,1.2580264806747437,-9.87248706817627
1701881291109197600,6.490197509765625,-5.207081317901611,1.051944613456726,-9.362516403198242
1701881291118788900,6.499788818359375,-5.077569484710693,0.961017370223999,-9.992128372192383
1701881291128381400,6.50938134765625,-4.385744571685791,0.5395814776420593,-8.723334312438965
1701881291137974500,6.518974609375,-4.419244289398193,0.5108676552772522,-9.527621269226074
1701881291147566600,6.528566650390625,-4.215854167938232,0.33858439326286316,-9.626026153564453
1701881291157158100,6.538158203125,-3.9717864990234375,0.1495514214038849,-8.665905952453613
1701881291166750500,6.54775048828125,-5.0225348472595215,0.0032901312224566936,-9.31466007232666
1701881291176343600,6.557343505859375,-6.22702169418335,-0.0062811593525111675,-10.394421577453613
1701881291185936000,6.566935791015625,-6.672086715698242,0.1543370634317398,-10.8397855758667
1701881291195527400,6.57652734375,-5.7649078369140625,-0.04217349737882614,-8.984151840209961
1701881291205119700,6.58611962890625,-5.408078193664551,0.17108681797981262,-8.89801025390625
1701881291214712800,6.595712890625,-4.883750915527344,0.47258245944976807,-8.900403022766113
1701881291224305000,6.605304931640625,-4.4048871994018555,0.6185446381568909,-8.37129020690918
1701881291233896400,6.614896484375,-4.268496513366699,0.7743772268295288,-8.697012901306152
1701881291243488800,6.62448876953125,-4.390530586242676,0.7767700552940369,-8.785547256469727
1701881291253081900,6.634081787109375,-4.563112735748291,0.7384848594665527,-8.77358341217041
1701881291262674200,6.643674072265625,-4.78803825378418,0.7313064336776733,-8.802297592163086
1701881291272265700,6.653265625,-5.173581600189209,0.7097710371017456,-8.814261436462402
1701881291281858000,6.662858154296875,-5.5085768699646,0.7528418302536011,-8.838189125061035
1701881291291451100,6.672451171875,-5.556433200836182,0.8629116415977478,-8.802297592163086
1701881291301043200,6.682043212890625,-5.448756217956543,0.9897312521934509,-8.75922679901123
1701881291310634800,6.691634765625,-5.082355499267578,1.1955139636993408,-8.639585494995117
1701881291320227000,6.70122705078125,-4.8502516746521,1.4374881982803345,-8.512765884399414
1701881291329820200,6.710820068359375,-4.6301116943359375,1.6648063659667969,-8.366504669189453
1701881291339412500,6.72041259765625,-4.428815841674805,1.8230317831039429,-8.22293472290039
1701881291349004000,6.730004150390625,-4.309174537658691,1.911566138267517,-8.120043754577637
1701881291358596400,6.739596435546875,-4.333102703094482,1.9163517951965332,-7.971688747406006
1701881291368189400,6.749189453125,-4.428815841674805,1.8708882331848145,-7.825427532196045
1701881291377781800,6.75878173828125,-4.615755081176758,1.8059829473495483,-7.760821342468262
1701881291387373000,6.768373046875,-4.792823791503906,1.7389838695526123,-7.6962151527404785
1701881291396965400,6.77796533203125,-4.828716278076172,1.7198412418365479,-7.722536087036133
1701881291406558500,6.787558349609375,-4.766502857208252,1.7102699279785156,-7.842176914215088
1701881291416150800,6.79715087890625,-4.735395908355713,1.7389838695526123,-7.957331657409668
1701881291425742300,6.806742431640625,-4.728217601776123,1.7509479522705078,-8.062616348266602
1701881291435334700,6.816334716796875,-4.716253280639648,1.7820546627044678,-8.206185340881348
1701881291444927700,6.825927734375,-4.749752998352051,1.7916259765625,-8.256434440612793
1701881291454520000,6.83552001953125,-4.716253280639648,1.7653049230575562,-8.397610664367676
1701881291464111600,6.845111572265625,-4.783252239227295,1.7030915021896362,-8.481658935546875
1701881291473704000,6.854703857421875,-4.689932346343994,1.6791633367538452,-8.543871879577637
1701881291483297000,6.864297119140625,-4.644468784332275,1.607378602027893,-8.553443908691406
1701881291492889000,6.87388916015625,-4.687539577484131,1.5308083295822144,-8.606085777282715
1701881291502480600,6.883480712890625,-4.6995038986206055,1.4015958309173584,-8.668298721313477
1701881291512073000,6.893072998046875,-4.730610370635986,1.3106685876846313,-8.768797874450684
1701881291521666000,6.902666015625,-4.764110088348389,1.212263822555542,-8.756834030151367
1701881291531258400,6.91225830078125,-4.859822750091553,1.1644073724746704,-8.778368949890137
1701881291540850000,6.921849853515625,-4.838287353515625,1.1428718566894531,-8.790332794189453
1701881291550442200,6.931442138671875,-4.845465660095215,1.176371455192566,-8.728119850158691
1701881291560035300,6.941035400390625,-4.9363932609558105,1.1955139636993408,-8.711369514465332
1701881291569627400,6.95062744140625,-5.000999450683594,1.236191987991333,-8.644371032714844
1701881291579219000,6.960218994140625,-4.9052863121032715,1.3130614757537842,-8.610871315002441
1701881291588811300,6.969811279296875,-4.965106964111328,1.3130614757537842,-8.541479110717773
1701881291598404400,6.979404296875,-5.063212871551514,1.2266206741333008,-8.4502534866333
1701881291607996700,6.98899658203125,-5.097011566162109,1.231406331062317,-8.395217895507812
1701881291617588200,6.998588134765625,-5.207081317901611,1.1261221170425415,-8.266005516052246
1701881291627180500,7.0081806640625,-5.07517671585083,0.716949462890625,-8.627620697021484
1701881291636773600,7.017773681640625,-5.345864772796631,0.7648059129714966,-7.916653633117676
1701881291646365700,7.02736572265625,-5.482255935668945,0.9299107193946838,-7.7129645347595215
1701881291655957200,7.036957275390625,-5.6018967628479,0.7743772268295288,-7.40189790725708
1701881291665549600,7.046549560546875,-5.707480430603027,0.4414757788181305,-7.045068264007568
1701881291675142700,7.056142578125,-5.487041473388672,0.7073782086372375,-7.34686279296875
1701881291684735000,7.06573486328125,-5.434399127960205,0.5419743061065674,-7.152745246887207
1701881291694326500,7.075326416015625,-5.2645087242126465,0.8054839372634888,-7.363612651824951
1701881291703918800,7.0849189453125,-5.152046203613281,0.8748757839202881,-7.392326354980469
1701881291713512000,7.094511962890625,-5.125725269317627,0.9658030271530151,-7.327421188354492
1701881291723104300,7.104104248046875,-4.993820667266846,1.1237293481826782,-7.440182685852051
1701881291732695600,7.113695556640625,-4.979464054107666,1.1069796085357666,-7.619644641876221
1701881291742288000,7.123287841796875,-5.137689113616943,1.1787642240524292,-7.756035327911377
1701881291751881000,7.132880859375,-5.242973327636719,1.2867404222488403,-7.964509963989258
1701881291761473300,7.142473388671875,-5.338686466217041,1.3704891204833984,-8.134400367736816
1701881291771064800,7.15206494140625,-5.4296135902404785,1.4350954294204712,-8.24686336517334
1701881291780657200,7.1616572265625,-5.470291614532471,1.4350954294204712,-8.304290771484375
1701881291790250200,7.171250244140625,-5.482255935668945,1.4398809671401978,-8.318648338317871
1701881291799842300,7.18084228515625,-5.448756217956543,1.4231312274932861,-8.323433876037598
1701881291809433900,7.190433837890625,-5.3817572593688965,1.4087743759155273,-8.266005516052246
1701881291819026200,7.200026123046875,-5.2405805587768555,1.4135600328445435,-8.306683540344238
1701881291828619300,7.209619384765625,-5.168796062469482,1.3010972738265991,-8.325826644897461
1701881291838211600,7.219211669921875,-5.1065826416015625,1.2556337118148804,-8.270791053771973
1701881291847803100,7.22880322265625,-4.931607246398926,1.1668001413345337,-8.383254051208496
1701881291857395500,7.2383955078125,-4.7952165603637695,1.0351948738098145,-8.37129020690918
1701881291866988500,7.247988525390625,-4.711467742919922,0.9011968374252319,-8.390432357788086
1701881291876580900,7.257580810546875,-4.704289436340332,0.7576274871826172,-8.435895919799805
1701881291886172200,7.267172119140625,-4.776073932647705,0.6065805554389954,-8.56301498413086
1701881291895764700,7.2767646484375,-4.72582483291626,0.24287149310112,-8.972187995910645
1701881291905357600,7.286357666015625,-5.180759906768799,0.7001997232437134,-8.100900650024414
1701881291914950000,7.295949951171875,-5.209474086761475,0.6687939167022705,-8.105687141418457
1701881291924541400,7.30554150390625,-5.25972318649292,0.5132604837417603,-8.1224365234375
1701881291934133800,7.3151337890625,-5.3578290939331055,0.49651068449020386,-8.053044319152832
1701881291943726800,7.324726806640625,-5.455934524536133,0.5563312768936157,-8.009973526000977
1701881291953319200,7.334319091796875,-5.5229339599609375,0.6065805554389954,-8.038687705993652
1701881291962910700,7.34391064453125,-5.534897804260254,0.6831508874893188,-8.036294937133789
1701881291972503000,7.3535029296875,-5.551647663116455,0.7456633448600769,-8.02193832397461
1701881291982096100,7.36309619140625,-5.506184101104736,0.8341978192329407,-7.933403491973877
1701881291991688200,7.372688232421875,-5.4296135902404785,0.870090126991272,-8.014759063720703
1701881292001279700,7.38227978515625,-5.345864772796631,0.9131609201431274,-8.112865447998047
1701881292010872000,7.3918720703125,-5.2645087242126465,0.9562317728996277,-8.110472679138184
1701881292020465200,7.401465087890625,-5.192724227905273,0.9825528264045715,-8.076972961425781
1701881292030057500,7.411057373046875,-5.12811803817749,0.9777671694755554,-8.074580192565918
1701881292039649000,7.42064892578125,-5.079962253570557,0.9658030271530151,-8.096115112304688
1701881292049241300,7.430241455078125,-5.072783946990967,0.9538389444351196,-8.088936805725098
1701881292058834400,7.43983447265625,-5.06082010269165,0.9442676305770874,-8.074580192565918
1701881292068426500,7.449426513671875,-5.084748268127441,0.9538389444351196,-8.036294937133789
1701881292078018000,7.45901806640625,-5.147260665893555,0.9705886840820312,-8.048258781433105
1701881292087610400,7.4686103515625,-5.24536657333374,1.0064810514450073,-8.02193832397461
1701881292097203500,7.478203369140625,-5.288437366485596,1.023230791091919,-8.033902168273926
1701881292106795800,7.487795654296875,-5.309972763061523,1.051944613456726,-8.036294937133789
1701881292116387300,7.49738720703125,-5.32911491394043,1.0710872411727905,-8.050651550292969
1701881292125979600,7.506979736328125,-5.309972763061523,1.1165509223937988,-8.014759063720703
1701881292135572700,7.51657275390625,-5.326722145080566,1.1476575136184692,-8.000402450561523
1701881292145164800,7.526164794921875,-5.300401210784912,1.205085277557373,-8.019545555114746
1701881292154756400,7.53575634765625,-5.300401210784912,1.2218350172042847,-8.00518798828125
1701881292164348700,7.5453486328125,-5.269294738769531,1.2604193687438965,-7.988438606262207
1701881292173941800,7.554941650390625,-5.228616714477539,1.2409776449203491,-8.038687705993652
1701881292183534000,7.5645341796875,-5.197509765625,1.2026925086975098,-8.065009117126465
1701881292193125600,7.574125732421875,-5.1305108070373535,1.1524431705474854,-8.153543472290039
1701881292202718000,7.583718017578125,-5.147260665893555,1.2290135622024536,-8.280363082885742
1701881292212311000,7.59331103515625,-5.034498691558838,1.0375877618789673,-8.26839828491211
1701881292221903400,7.6029033203125,-4.969892501831055,0.9753743410110474,-8.23250675201416
1701881292231494700,7.61249462890625,-4.893322467803955,0.9514461159706116,-8.206185340881348
1701881292241087200,7.622087158203125,-4.859822750091553,0.9346963167190552,-8.299505233764648
1701881292250680000,7.63168017578125,-4.859822750091553,0.9538389444351196,-8.328219413757324
1701881292260272400,7.6412724609375,-4.88853645324707,0.9346963167190552,-8.356932640075684
1701881292269864000,7.650864013671875,-4.9363932609558105,0.8964111804962158,-8.35453987121582
1701881292279456300,7.660456298828125,-4.979464054107666,0.8653044700622559,-8.38564682006836
1701881292289049300,7.67004931640625,-5.01296329498291,0.8341978192329407,-8.373682975769043
1701881292298641700,7.6796416015625,-5.017749309539795,0.8174480199813843,-8.37846851348877
1701881292308233200,7.689233154296875,-5.017749309539795,0.8030911087989807,-8.366504669189453
1701881292317825500,7.698825439453125,-5.029713153839111,0.7791628837585449,-8.411968231201172
1701881292327418600,7.708418701171875,-5.027320384979248,0.7671987414360046,-8.390432357788086
1701881292337010700,7.7180107421875,-5.06799840927124,0.8629116415977478,-8.53190803527832
1701881292346602200,7.727602294921875,-4.991427898406982,0.6954140663146973,-8.493622779846191
1701881292356194600,7.737194580078125,-5.032105922698975,0.7241279482841492,-8.359326362609863
1701881292365787600,7.74678759765625,-5.010570526123047,0.7121638655662537,-8.321041107177734
1701881292375380000,7.7563798828125,-5.017749309539795,0.7097710371017456,-8.309076309204102
1701881292384971500,7.765971435546875,-5.056034088134766,0.7265207767486572,-8.287541389465332
1701881292394563800,7.775563720703125,-5.065605640411377,0.7313064336776733,-8.304290771484375
1701881292404157000,7.785156982421875,-5.101797103881836,0.7648059129714966,-8.273183822631836
1701881292413749000,7.7947490234375,-5.118546962738037,0.7695915699005127,-8.26121997833252
1701881292423340500,7.804340576171875,-5.13529634475708,0.8054839372634888,-8.179863929748535
1701881292432932900,7.813932861328125,-5.156831741333008,0.8413762450218201,-8.160721778869629
1701881292442526000,7.82352587890625,-5.159224510192871,0.8461619019508362,-8.127222061157227
1701881292452118300,7.8331181640625,-5.156831741333008,0.8605188727378845,-8.10807991027832
1701881292461709800,7.842709716796875,-5.144867897033691,0.8868398666381836,-8.096115112304688
1701881292471302100,7.85230224609375,-5.13529634475708,0.9107680916786194,-8.11525821685791
1701881292480895200,7.861895263671875,-5.12811803817749,0.9323035478591919,-8.11525821685791
1701881292490487600,7.871487548828125,-5.097011566162109,0.9370891451835632,-8.13679313659668
1701881292500078800,7.881078857421875,-5.084748268127441,0.9586246013641357,-8.167900085449219
1701881292509671200,7.890671142578125,-5.094618320465088,0.9442676305770874,-8.203792572021484
1701881292519264300,7.90026416015625,-5.084748268127441,0.9394819736480713,-8.23968505859375
1701881292528856600,7.909856689453125,-5.099404335021973,0.9083753228187561,-8.25404167175293
1701881292538448100,7.9194482421875,-5.092225551605225,0.8676972985267639,-8.26121997833252
1701881292548040400,7.92904052734375,-5.123332500457764,0.8246265053749084,-8.256434440612793
1701881292557633500,7.938633544921875,-5.118546962738037,0.8102695941925049,-8.251648902893066
1701881292567225900,7.948225830078125,-5.111368179321289,0.783948540687561,-8.24686336517334
1701881292576817200,7.957817138671875,-5.089832782745361,0.7767700552940369,-8.25404167175293
1701881292586409700,7.96740966796875,-5.094618320465088,0.783948540687561,-8.244470596313477
1701881292596002600,7.97700244140625,-5.065605640411377,0.7911269664764404,-8.251648902893066
1701881292605595000,7.986594970703125,-5.041677474975586,0.7983054518699646,-8.266005516052246
1701881292615186400,7.9961865234375,-5.032105922698975,0.8102695941925049,-8.258827209472656
1701881292624778800,8.00577880859375,-5.008177757263184,0.8150551915168762,-8.249256134033203
1701881292634371800,8.015371826171876,-5.010570526123047,0.836590588092804,-8.220541954040527
1701881292643964200,8.024964111328124,-5.0225348472595215,0.8605188727378845,-8.220541954040527
1701881292653555700,8.0345556640625,-5.065605640411377,0.8413762450218201,-8.22293472290039
1701881292663148000,8.04414794921875,-5.06082010269165,0.8318049907684326,-8.213363647460938
1701881292672741000,8.0537412109375,-5.079962253570557,0.8318049907684326,-8.206185340881348
1701881292682333200,8.063333251953125,-5.092225551605225,0.8437690734863281,-8.213363647460938
1701881292691924700,8.0729248046875,-5.099404335021973,0.8509475588798523,-8.206185340881348
1701881292701517000,8.08251708984375,-5.087141036987305,0.8772686123847961,-8.196614265441895
1701881292711110100,8.092110107421876,-5.077569484710693,0.8796614408493042,-8.191828727722168
1701881292720702500,8.101702392578124,-5.072783946990967,0.9083753228187561,-8.191828727722168
1701881292730294000,8.1112939453125,-5.072783946990967,0.9155537486076355,-8.167900085449219
1701881292739886300,8.12088623046875,-5.089832782745361,0.9203394055366516,-8.14397144317627
1701881292749479400,8.1304794921875,-5.108975410461426,0.9275178909301758,-8.13679313659668
1701881292759071500,8.140071533203125,-5.116153717041016,0.9227322340011597,-8.127222061157227
1701881292768663000,8.1496630859375,-5.144867897033691,0.9251250624656677,-8.117650985717773
1701881292778255400,8.15925537109375,-5.159224510192871,0.9227322340011597,-8.132007598876953
1701881292787848400,8.168848388671876,-5.1783671379089355,0.9299107193946838,-8.13679313659668
1701881292797440800,8.178440673828124,-5.192724227905273,0.9346963167190552,-8.141578674316406
1701881292807032300,8.1880322265625,-5.207081317901611,0.9370891451835632,-8.165507316589355
1701881292816624600,8.197624755859374,-5.219045162200928,0.961017370223999,-8.177471160888672
1701881292826217700,8.2072177734375,-5.257330417633057,1.0064810514450073,-8.182256698608398
1701881292835810000,8.21681005859375,-5.180759906768799,0.9155537486076355,-8.165507316589355
1701881292845401300,8.2264013671875,-5.180759906768799,0.9418748021125793,-8.139185905456543
1701881292854993700,8.23599365234375,-5.180759906768799,0.9442676305770874,-8.127222061157227
1701881292864586800,8.245586669921876,-5.192724227905273,0.9323035478591919,-8.134400367736816
1701881292874179000,8.255178955078126,-5.185545921325684,0.9227322340011597,-8.132007598876953
1701881292883770600,8.2647705078125,-5.197509765625,0.9251250624656677,-8.151150703430176
1701881292893363000,8.274363037109374,-5.195116996765137,0.9323035478591919,-8.155936241149902
1701881292902956000,8.2839560546875,-5.185545921325684,0.8629116415977478,-8.120043754577637
1701881292912548400,8.29354833984375,-5.180759906768799,0.8126623630523682,-8.11525821685791
1701881292922139600,8.3031396484375,-5.185545921325684,0.8054839372634888,-8.084151268005371
1701881292931732200,8.312732177734375,-5.180759906768799,0.7911269664764404,-8.10807991027832
1701881292941325300,8.3223251953125,-5.207081317901611,0.7671987414360046,-8.127222061157227
1701881292950917400,8.33191748046875,-5.19033145904541,0.7456633448600769,-8.189435958862305
1701881292960509000,8.341509033203126,-5.257330417633057,0.8485547304153442,-8.280363082885742
1701881292970101200,8.351101318359374,-5.207081317901611,0.6759724020957947,-8.208578109741211
1701881292979694300,8.3606943359375,-5.1544389724731445,0.625723123550415,-8.263612747192383
1701881292989286700,8.37028662109375,-5.111368179321289,0.6592226624488831,-8.24686336517334
1701881292998878200,8.379878173828125,-5.082355499267578,0.6496513485908508,-8.24686336517334
1701881293008470500,8.389470458984375,-4.541577339172363,0.4295116662979126,-8.120043754577637
1701881293018063600,8.399063720703126,-4.0435709953308105,0.4893322288990021,-8.033902168273926
1701881293027655700,8.40865576171875,-4.010071754455566,0.748056173324585,-8.127222061157227
1701881293037247200,8.418247314453126,-4.426422595977783,0.9538389444351196,-8.306683540344238
1701881293046839600,8.427839599609374,-4.95074987411499,1.0375877618789673,-8.416753768920898
1701881293056432600,8.4374326171875,-5.613861083984375,1.0328021049499512,-8.411968231201172
1701881293066025000,8.44702490234375,-6.0640106201171875,0.9466604590415955,-8.380861282348633
1701881293075616500,8.456616455078125,-5.961119174957275,0.8509475588798523,-8.395217895507812
1701881293085208800,8.466208740234375,-5.731408596038818,0.7935197949409485,-8.402397155761719
1701881293094802000,8.475802001953125,-5.575575828552246,0.7959126234054565,-8.404789924621582
1701881293104394000,8.48539404296875,-5.338686466217041,0.8485547304153442,-8.400003433227539
1701881293113985500,8.494985595703126,-5.108975410461426,0.9729815125465393,-8.443074226379395
1701881293123577900,8.504577880859374,-4.957928657531738,1.054337501525879,-8.366504669189453
1701881293133171000,8.5141708984375,-4.809573650360107,1.0663015842437744,-8.323433876037598
1701881293142763300,8.52376318359375,-4.644468784332275,1.0615159273147583,-8.24686336517334
1701881293152354800,8.533354736328125,-4.651647090911865,1.083051323890686,-8.132007598876953
1701881293161947100,8.542947021484375,-4.7401814460754395,1.1333006620407104,-8.10807991027832
1701881293171540200,8.552540283203125,-4.900500774383545,1.1117652654647827,-8.048258781433105
1701881293181132500,8.562132568359376,-5.027320384979248,1.0639088153839111,-8.000402450561523
1701881293190723800,8.571723876953126,-5.152046203613281,1.0040881633758545,-7.981259822845459
1701881293200316200,8.581316162109376,-5.254937648773193,0.9323035478591919,-7.983652591705322
1701881293209909200,8.5909091796875,-5.350650310516357,0.8605188727378845,-8.019545555114746
1701881293219501600,8.60050146484375,-5.400899887084961,0.7983054518699646,-8.043473243713379
1701881293229093000,8.610093017578125,-5.403292655944824,0.7528418302536011,-8.067401885986328
1701881293238685400,8.619685546875,-5.3578290939331055,0.7241279482841492,-8.081758499145508
1701881293248278500,8.629278564453125,-5.274080276489258,0.7241279482841492,-8.100900650024414
1701881293257870800,8.638870849609376,-5.1783671379089355,0.748056173324585,-8.100900650024414
1701881293267462100,8.648462158203126,-5.094618320465088,0.781555712223053,-8.10807991027832
1701881293277054700,8.6580546875,-5.029713153839111,0.8078767657279968,-8.086544036865234
1701881293286647800,8.667647705078124,-4.993820667266846,0.8294121623039246,-8.084151268005371
1701881293296239900,8.677239990234375,-4.965106964111328,0.8629116415977478,-8.084151268005371
1701881293305831400,8.68683154296875,-4.955535888671875,0.8892326951026917,-8.103293418884277
1701881293315423700,8.696423828125,-4.969892501831055,0.9203394055366516,-8.117650985717773
1701881293325016800,8.706016845703125,-4.993820667266846,0.9251250624656677,-8.14397144317627
1701881293334609200,8.715609130859375,-5.032105922698975,0.9155537486076355,-8.208578109741211
1701881293344200700,8.72520068359375,-5.07517671585083,0.9011968374252319,-8.256434440612793
1701881293353793000,8.73479296875,-5.104189872741699,0.8772686123847961,-8.311469078063965
1701881293363386000,8.74438623046875,-5.118546962738037,0.8557332158088684,-8.359326362609863
1701881293372978200,8.753978271484375,-5.123332500457764,0.8437690734863281,-8.37846851348877
1701881293382569700,8.76356982421875,-5.111368179321289,0.8246265053749084,-8.395217895507812
1701881293392162000,8.773162109375,-5.089832782745361,0.8437690734863281,-8.380861282348633
1701881293401755100,8.782755126953125,-5.07517671585083,0.8485547304153442,-8.359326362609863
1701881293411347500,8.792347412109375,-5.058426856994629,0.8796614408493042,-8.33300495147705
1701881293420939000,8.80193896484375,-5.032105922698975,0.9131609201431274,-8.306683540344238
1701881293430531300,8.81153125,-5.01296329498291,0.9370891451835632,-8.289934158325195
1701881293440124400,8.82112451171875,-4.981856822967529,0.9658030271530151,-8.26839828491211
1701881293449716500,8.830716552734375,-4.989035129547119,0.9873384237289429,-8.25404167175293
1701881293459308000,8.84030810546875,-4.984249591827393,0.9897312521934509,-8.225327491760254
1701881293468900400,8.849900390625,-4.962714195251465,0.9849455952644348,-8.218149185180664
1701881293478493400,8.859493408203125,-4.989035129547119,0.9873384237289429,-8.213363647460938
1701881293488085800,8.869085693359375,-5.0703911781311035,1.1309077739715576,-8.328219413757324
1701881293497677300,8.87867724609375,-5.058426856994629,0.8605188727378845,-8.139185905456543
1701881293507269600,8.88826953125,-5.1065826416015625,0.8940183520317078,-8.24686336517334
1701881293516862700,8.89786279296875,-5.1544389724731445,0.9514461159706116,-8.199007034301758
1701881293526455000,8.907455078125,-5.147260665893555,0.8341978192329407,-8.175078392028809
1701881293536046300,8.91704638671875,-5.164010524749756,0.7911269664764404,-8.155936241149902
1701881293545638700,8.926638671875,-5.156831741333008,0.7911269664764404,-8.165507316589355
1701881293555231700,8.936231689453125,-5.1544389724731445,0.7719843983650208,-8.13679313659668
1701881293564824000,8.945823974609375,-5.1305108070373535,0.7600203156471252,-8.134400367736816
1701881293574415600,8.95541552734375,-5.104189872741699,0.7624131441116333,-8.127222061157227
1701881293584008000,8.965008056640626,-5.094618320465088,0.7648059129714966,-8.160721778869629
1701881293593601000,8.97460107421875,-5.065605640411377,0.7983054518699646,-8.175078392028809
1701881293603193300,8.984193359375,-5.072783946990967,0.8054839372634888,-8.2157564163208
1701881293612785000,8.993784912109374,-5.051248550415039,0.8246265053749084,-8.237292289733887
1701881293622377200,9.003377197265625,-5.06799840927124,0.8198408484458923,-8.23250675201416
1701881293631970300,9.01297021484375,-5.06799840927124,0.8246265053749084,-8.23011302947998
1701881293641562400,9.022562255859375,-5.082355499267578,0.8246265053749084,-8.251648902893066
1701881293651154000,9.03215380859375,-5.084748268127441,0.8150551915168762,-8.251648902893066
1701881293660746200,9.041746337890626,-5.097011566162109,0.8246265053749084,-8.256434440612793
1701881293670339300,9.05133935546875,-5.087141036987305,0.8246265053749084,-8.242077827453613
1701881293679931600,9.060931640625,-5.087141036987305,0.8222336769104004,-8.23250675201416
1701881293689523200,9.070523193359374,-5.07517671585083,0.8413762450218201,-8.244470596313477
1701881293699115500,9.080115478515625,-5.07517671585083,0.8413762450218201,-8.237292289733887
1701881293708708600,9.08970849609375,-5.063212871551514,0.8676972985267639,-8.220541954040527
1701881293718300700,9.09930078125,-5.053641319274902,0.8748757839202881,-8.23011302947998
1701881293727892200,9.108892333984375,-5.036891460418701,0.8748757839202881,-8.227720260620117
1701881293737484500,9.118484619140625,-5.044070243835449,0.8796614408493042,-8.213363647460938
1701881293747077600,9.12807763671875,-5.058426856994629,0.8796614408493042,-8.199007034301758
1701881293756670000,9.137669921875,-5.06799840927124,0.8772686123847961,-8.182256698608398
1701881293766261500,9.147261474609374,-5.063212871551514,0.8820542693138123,-8.182256698608398
1701881293775853800,9.156853759765625,-5.06799840927124,0.8748757839202881,-8.182256698608398
1701881293785447000,9.166447021484375,-5.084748268127441,0.8557332158088684,-8.182256698608398
1701881293795039000,9.1760390625,-5.079962253570557,0.8581260442733765,-8.191828727722168
1701881293804630500,9.185630615234375,-5.082355499267578,0.8653044700622559,-8.201399803161621
1701881293814222800,9.195222900390625,-5.092225551605225,0.87248295545578,-8.218149185180664
1701881293823816000,9.20481591796875,-5.065605640411377,0.905982494354248,-8.237292289733887
1701881293833408300,9.214408203125,-5.058426856994629,0.9179465770721436,-8.237292289733887
1701881293842999800,9.223999755859374,-5.044070243835449,0.9251250624656677,-8.249256134033203
1701881293852592000,9.233592041015624,-5.048855781555176,0.9299107193946838,-8.24686336517334
1701881293862185200,9.243185302734375,-5.058426856994629,0.9466604590415955,-8.26121997833252
1701881293871777500,9.252777587890625,-5.063212871551514,0.9562317728996277,-8.242077827453613
1701881293881368800,9.262368896484375,-5.072783946990967,0.9634101986885071,-8.242077827453613
1701881293890961400,9.27196142578125,-5.092225551605225,0.9514461159706116,-8.220541954040527
1701881293900554200,9.28155419921875,-5.097011566162109,0.9418748021125793,-8.210970878601074
1701881293910146600,9.291146484375,-5.113760948181152,0.9299107193946838,-8.187042236328125
1701881293919738000,9.300738037109374,-5.12811803817749,0.905982494354248,-8.175078392028809
1701881293929330400,9.310330322265624,-5.149653434753418,0.8820542693138123,-8.189435958862305
1701881293938923500,9.319923583984375,-5.152046203613281,0.87248295545578,-8.182256698608398
1701881293948515800,9.329515869140625,-5.1305108070373535,0.8581260442733765,-8.167900085449219
1701881293958107400,9.339107421875,-5.104189872741699,0.8557332158088684,-8.163114547729492
1701881293967699700,9.34869970703125,-5.097011566162109,0.8533403873443604,-8.165507316589355
1701881293977292800,9.358292724609376,-5.082355499267578,0.8413762450218201,-8.191828727722168
1701881293986884900,9.367884765625,-5.089832782745361,0.8485547304153442,-8.206185340881348
1701881293996476400,9.377476318359374,-5.072783946990967,0.8605188727378845,-8.2157564163208
1701881294006068700,9.38706884765625,-5.056034088134766,0.8653044700622559,-8.251648902893066
1701881294015661800,9.396661865234375,-5.039284706115723,0.8796614408493042,-8.25404167175293
1701881294025254100,9.406254150390625,-5.027320384979248,0.8820542693138123,-8.242077827453613
1701881294034845700,9.415845703125,-5.020142078399658,0.8772686123847961,-8.263612747192383
1701881294044438000,9.42543798828125,-5.017749309539795,0.8796614408493042,-8.256434440612793
1701881294054031000,9.435031005859376,-5.027320384979248,0.8820542693138123,-8.26839828491211
1701881294063623200,9.444623046875,-5.017749309539795,0.8605188727378845,-8.270791053771973
1701881294073214700,9.454214599609376,-5.010570526123047,0.87248295545578,-8.277970314025879
1701881294082807000,9.46380712890625,-5.00578498840332,0.870090126991272,-8.285148620605469
1701881294092400000,9.473400146484375,-5.008177757263184,0.8676972985267639,-8.292326927185059
1701881294101992400,9.482992431640625,-5.003392219543457,0.8844470977783203,-8.287541389465332
1701881294111584000,9.492583984375,-5.010570526123047,0.8772686123847961,-8.299505233764648
1701881294121176300,9.50217626953125,-5.027320384979248,0.8940183520317078,-8.26839828491211
1701881294130769400,9.511769287109376,-5.032105922698975,0.8940183520317078,-8.266005516052246
1701881294140361700,9.52136181640625,-5.034498691558838,0.8988040089607239,-8.25404167175293
1701881294149953300,9.530953369140626,-5.039284706115723,0.8940183520317078,-8.234899520874023
1701881294159545600,9.540545654296874,-5.0703911781311035,0.8748757839202881,-8.225327491760254
1701881294169138700,9.550138671875,-5.079962253570557,0.8605188727378845,-8.201399803161621
1701881294178730800,9.559730712890625,-5.084748268127441,0.8581260442733765,-8.206185340881348
1701881294188322300,9.569322265625,-5.097011566162109,0.8676972985267639,-8.213363647460938
1701881294197914600,9.57891455078125,-5.104189872741699,0.8629116415977478,-8.194221496582031
1701881294207507700,9.5885078125,-5.113760948181152,0.8820542693138123,-8.196614265441895
1701881294217100000,9.59810009765625,-5.108975410461426,0.8964111804962158,-8.196614265441895
1701881294226691600,9.607691650390626,-5.104189872741699,0.9011968374252319,-8.179863929748535
1701881294236284000,9.617283935546874,-5.113760948181152,0.9107680916786194,-8.163114547729492
1701881294245877000,9.626876953125,-5.104189872741699,0.9107680916786194,-8.153543472290039
1701881294255469000,9.636468994140625,-5.1065826416015625,0.9131609201431274,-8.155936241149902
1701881294265060600,9.646060546875,-5.113760948181152,0.8988040089607239,-8.148757934570312
1701881294274653000,9.65565283203125,-5.1305108070373535,0.8916255235671997,-8.167900085449219
1701881294284246000,9.66524609375,-5.118546962738037,0.8772686123847961,-8.155936241149902
1701881294293838300,9.67483837890625,-5.113760948181152,0.8868398666381836,-8.163114547729492
1701881294303430000,9.684429931640626,-5.1065826416015625,0.8748757839202881,-8.179863929748535
1701881294313022200,9.694022216796874,-5.101797103881836,0.870090126991272,-8.177471160888672
1701881294322615300,9.703615234375,-5.089832782745361,0.870090126991272,-8.182256698608398
1701881294332207400,9.713207275390625,-5.0703911781311035,0.8653044700622559,-8.208578109741211
1701881294341799000,9.722798828125,-5.056034088134766,0.838983416557312,-8.220541954040527
1701881294351391200,9.73239111328125,-5.044070243835449,0.8509475588798523,-8.237292289733887
1701881294360984300,9.741984375,-5.036891460418701,0.836590588092804,-8.244470596313477
1701881294370576600,9.75157666015625,-5.032105922698975,0.8246265053749084,-8.249256134033203
1701881294380168200,9.761168212890626,-5.017749309539795,0.8341978192329407,-8.244470596313477
1701881294389760500,9.770760498046876,-5.036891460418701,0.836590588092804,-8.258827209472656
1701881294399353600,9.780353515625,-5.0225348472595215,0.8413762450218201,-8.26121997833252
1701881294408946000,9.78994580078125,-5.034498691558838,0.8437690734863281,-8.26121997833252
1701881294418537200,9.799537109375,-5.058426856994629,0.8318049907684326,-8.273183822631836
1701881294428129800,9.8091298828125,-5.06082010269165,0.8270193338394165,-8.270791053771973
1701881294437722600,9.81872265625,-5.06799840927124,0.8102695941925049,-8.275577545166016
1701881294447315000,9.82831494140625,-5.079962253570557,0.836590588092804,-8.275577545166016
1701881294456906500,9.837906494140626,-5.07517671585083,0.838983416557312,-8.277970314025879
1701881294466498800,9.847498779296876,-5.099404335021973,0.8294121623039246,-8.273183822631836
1701881294476092000,9.857091796875,-5.087141036987305,0.8413762450218201,-8.26839828491211
1701881294485684200,9.866684326171875,-5.082355499267578,0.8509475588798523,-8.26121997833252
1701881294495275800,9.87627587890625,-5.087141036987305,0.8557332158088684,-8.244470596313477
1701881294504868000,9.8858681640625,-5.082355499267578,0.87248295545578,-8.234899520874023
1701881294514461200,9.895461181640625,-5.06082010269165,0.8772686123847961,-8.227720260620117
1701881294524053200,9.90505322265625,-5.07517671585083,0.8964111804962158,-8.208578109741211
1701881294533644800,9.914644775390625,-5.051248550415039,0.9227322340011597,-8.194221496582031
1701881294543237000,9.924237060546876,-5.063212871551514,0.9442676305770874,-8.196614265441895
1701881294552830200,9.933830322265624,-5.065605640411377,0.9490532875061035,-8.189435958862305
1701881294562422500,9.943422607421875,-5.087141036987305,0.9658030271530151,-8.182256698608398
1701881294572014000,9.95301416015625,-5.104189872741699,0.9490532875061035,-8.167900085449219
1701881294581606400,9.9626064453125,-5.118546962738037,0.9562317728996277,-8.158329010009766
1701881294591199500,9.972199462890625,-5.147260665893555,0.9370891451835632,-8.158329010009766
1701881294600791800,9.981791748046875,-5.152046203613281,0.9394819736480713,-8.151150703430176
1701881294610383000,9.991383056640625,-5.147260665893555,0.9155537486076355,-8.163114547729492
1701881294619975700,10.0009755859375,-5.142475128173828,0.8916255235671997,-8.167900085449219
1701881294629568500,10.010568603515624,-5.142475128173828,0.8868398666381836,-8.170292854309082
1701881294639160800,10.020160888671874,-5.125725269317627,0.8557332158088684,-8.191828727722168
1701881294648752400,10.02975244140625,-5.118546962738037,0.8413762450218201,-8.182256698608398
1701881294658344700,10.0393447265625,-5.104189872741699,0.8222336769104004,-8.191828727722168
1701881294667937800,10.048937744140625,-5.097011566162109,0.8078767657279968,-8.199007034301758
1701881294677530000,10.058530029296875,-5.097011566162109,0.7935197949409485,-8.199007034301758
1701881294687121700,10.06812158203125,-5.084748268127441,0.7911269664764404,-8.201399803161621
1701881294696714000,10.0777138671875,-5.079962253570557,0.781555712223053,-8.210970878601074
1701881294706307000,10.08730712890625,-5.079962253570557,0.7863413691520691,-8.220541954040527
1701881294715899100,10.096899169921874,-5.07517671585083,0.7719843983650208,-8.24686336517334
1701881294725490700,10.10649072265625,-5.063212871551514,0.7791628837585449,-8.280363082885742
1701881294735083000,10.1160830078125,-5.032105922698975,0.7767700552940369,-8.316255569458008
1701881294744676000,10.125676025390625,-4.986642360687256,0.7719843983650208,-8.325826644897461
1701881294754268400,10.135268310546875,-4.960321426391602,0.8318049907684326,-8.359326362609863
1701881294763860000,10.14485986328125,-4.960321426391602,0.9155537486076355,-8.342576026916504
1701881294773452300,10.154452392578126,-4.977071285247803,0.9658030271530151,-8.325826644897461
1701881294783045400,10.16404541015625,-5.051248550415039,1.0734800100326538,-8.359326362609863
1701881294792637400,10.173637451171874,-5.024927616119385,0.8820542693138123,-8.277970314025879
1701881294802229000,10.18322900390625,-5.0703911781311035,0.8892326951026917,-8.277970314025879
1701881294811821300,10.1928212890625,-5.097011566162109,0.9251250624656677,-8.26839828491211
1701881294821414400,10.202414306640625,-5.101797103881836,0.9346963167190552,-8.26839828491211
1701881294831006700,10.2120068359375,-5.079962253570557,0.9299107193946838,-8.256434440612793
1701881294840598300,10.221598388671875,-5.087141036987305,0.9394819736480713,-8.23250675201416
1701881294850190600,10.231190673828126,-5.077569484710693,0.9275178909301758,-8.167900085449219
1701881294859783700,10.24078369140625,-5.113760948181152,0.9083753228187561,-8.139185905456543
1701881294869375700,10.250375732421874,-4.962714195251465,0.5635097622871399,-7.777570724487305
1701881294878967300,10.25996728515625,-5.056034088134766,0.994516909122467,-8.270791053771973
1701881294888559600,10.2695595703125,-5.262115955352783,0.9897312521934509,-8.10807991027832
1701881294898152700,10.279152587890625,-5.19033145904541,0.9227322340011597,-8.079365730285645
1701881294907745000,10.2887451171875,-5.168796062469482,0.8820542693138123,-8.050651550292969
1701881294917336600,10.298336669921875,-5.18315315246582,0.90358966588974,-8.105687141418457
1701881294926929000,10.307928955078125,-5.221437931060791,0.8868398666381836,-8.050651550292969
1701881294936522000,10.31752197265625,-5.269294738769531,0.8509475588798523,-8.086544036865234
1701881294946114300,10.3271142578125,-5.2645087242126465,0.7911269664764404,-8.048258781433105
1701881294955705900,10.336705810546874,-5.2477593421936035,0.7648059129714966,-8.100900650024414
1701881294965298200,10.346298095703125,-5.293222904205322,0.7097710371017456,-8.014759063720703
1701881294974891300,10.355891357421875,-5.254937648773193,0.6954140663146973,-8.057829856872559
1701881294984483300,10.3654833984375,-5.226223945617676,0.748056173324585,-8.105687141418457
1701881294994075000,10.375074951171875,-5.18315315246582,0.7648059129714966,-8.153543472290039
1701881295003667200,10.384667236328125,-5.13529634475708,0.8126623630523682,-8.23250675201416
1701881295013260300,10.39426025390625,-5.084748268127441,0.8533403873443604,-8.297112464904785
1701881295022852600,10.4038525390625,-5.058426856994629,0.9011968374252319,-8.294719696044922
1701881295032444200,10.413444091796874,-5.024927616119385,0.905982494354248,-8.301898002624512
1701881295042036500,10.423036376953124,-5.010570526123047,0.8892326951026917,-8.287541389465332
1701881295051629600,10.432629638671875,-4.989035129547119,0.8581260442733765,-8.26839828491211
1701881295061221600,10.4422216796875,-4.960321426391602,0.8030911087989807,-8.251648902893066
1701881295070813200,10.451813232421875,-4.969892501831055,0.781555712223053,-8.242077827453613
1701881295080405500,10.461405517578125,-4.965106964111328,0.7600203156471252,-8.237292289733887
1701881295089998600,10.47099853515625,-4.955535888671875,0.7624131441116333,-8.244470596313477
1701881295099591000,10.4805908203125,-4.931607246398926,0.7576274871826172,-8.251648902893066
1701881295109182500,10.490182373046874,-4.900500774383545,0.7791628837585449,-8.26121997833252
1701881295118774800,10.49977490234375,-4.869394302368164,0.8006982803344727,-8.304290771484375
1701881295128367900,10.509367919921875,-4.831109046936035,0.8102695941925049,-8.337790489196777
1701881295137960200,10.518960205078125,-4.821537494659424,0.8270193338394165,-8.366504669189453
1701881295147551500,10.528551513671875,-4.8191447257995605,0.8198408484458923,-8.37846851348877
1701881295157144000,10.53814404296875,-4.823930263519287,0.8054839372634888,-8.397610664367676
1701881295166737000,10.54773681640625,-4.838287353515625,0.7624131441116333,-8.388039588928223
1701881295176329200,10.5573291015625,-4.859822750091553,0.7360920906066895,-8.37129020690918
1701881295185920800,10.566920654296876,-4.88853645324707,0.6954140663146973,-8.33300495147705
1701881295195513000,10.57651318359375,-4.910071849822998,0.656829833984375,-8.33300495147705
1701881295205106200,10.586106201171875,-4.945964336395264,0.5946164131164551,-8.335397720336914
1701881295214698500,10.595698486328125,-4.965106964111328,0.5204389095306396,-8.304290771484375
1701881295224290000,10.6052900390625,-5.010570526123047,0.47258245944976807,-8.299505233764648
1701881295233882400,10.61488232421875,-5.032105922698975,0.4366901218891144,-8.301898002624512
1701881295243475500,10.624475341796876,-5.07517671585083,0.4414757788181305,-8.33300495147705
1701881295253067500,10.634067626953126,-5.099404335021973,0.44386860728263855,-8.337790489196777
1701881295262659000,10.6436591796875,-5.097011566162109,0.4127618968486786,-8.33300495147705
1701881295272251400,10.65325146484375,-5.116153717041016,0.4342973232269287,-8.318648338317871
1701881295281844500,10.662844482421875,-5.1209397315979,0.4295116662979126,-8.301898002624512
1701881295291436800,10.672436767578125,-5.13529634475708,0.4462614357471466,-8.282755851745605
1701881295301028400,10.6820283203125,-5.149653434753418,0.48454657196998596,-8.26839828491211
1701881295310620700,10.69162060546875,-5.156831741333008,0.5108676552772522,-8.237292289733887
1701881295320213800,10.7012138671875,-5.161617755889893,0.5515456199645996,-8.23011302947998
1701881295329806000,10.71080615234375,-5.152046203613281,0.5946164131164551,-8.208578109741211
1701881295339397400,10.7203974609375,-5.149653434753418,0.5946164131164551,-8.196614265441895
1701881295348989700,10.72998974609375,-5.116153717041016,0.6041877269744873,-8.191828727722168
1701881295358582800,10.739582763671875,-5.101797103881836,0.6113662123680115,-8.179863929748535
1701881295368175000,10.749175048828125,-5.072783946990967,0.6352944374084473,-8.201399803161621
1701881295377766700,10.7587666015625,-5.0464630126953125,0.6735795736312866,-8.196614265441895
1701881295387359000,10.76835888671875,-5.039284706115723,0.6882356405258179,-8.213363647460938
1701881295396952000,10.7779521484375,-5.036891460418701,0.716949462890625,-8.203792572021484
1701881295406544400,10.78754443359375,-5.008177757263184,0.7408776879310608,-8.208578109741211
1701881295416136000,10.797135986328126,-4.979464054107666,0.7336992621421814,-8.203792572021484
1701881295425728300,10.806728271484374,-4.984249591827393,0.7265207767486572,-8.206185340881348
1701881295435321300,10.8163212890625,-4.974678039550781,0.6906284093856812,-8.196614265441895
1701881295444913400,10.825913330078125,-4.984249591827393,0.6735795736312866,-8.25404167175293
1701881295454505000,10.8355048828125,-5.008177757263184,0.6352944374084473,-8.24686336517334
1701881295464097300,10.84509716796875,-5.058426856994629,0.6137589812278748,-8.311469078063965
1701881295473690400,10.8546904296875,-5.051248550415039,0.623330295085907,-8.352147102355957
1701881295483282700,10.86428271484375,-5.125725269317627,0.5706881880760193,-8.38564682006836
1701881295492874200,10.873874267578126,-5.116153717041016,0.5515456199645996,-8.416753768920898
1701881295502466600,10.883466552734374,-5.092225551605225,0.5802595019340515,-8.433503150939941
1701881295512059600,10.8930595703125,-5.053641319274902,0.6329016089439392,-8.447860717773438
1701881295521652000,10.90265185546875,-5.0464630126953125,0.6664010882377625,-8.431110382080078
1701881295531243300,10.9122431640625,-5.041677474975586,0.6882356405258179,-8.440681457519531
1701881295540835600,10.921835693359375,-5.036891460418701,0.7001997232437134,-8.460124015808105
1701881295550428700,10.9314287109375,-5.008177757263184,0.6930212378501892,-8.431110382080078
1701881295560021000,10.94102099609375,-4.965106964111328,0.6640082597732544,-8.428717613220215
1701881295569612500,10.950612548828126,-4.979464054107666,0.5946164131164551,-8.37129020690918
1701881295579204900,10.960204833984376,-4.9986066818237305,0.5802595019340515,-8.361719131469727
1701881295588798000,10.9697978515625,-4.969892501831055,0.5587241053581238,-8.318648338317871
1701881295598390300,10.979390380859375,-4.9986066818237305,0.5443671345710754,-8.263612747192383
1701881295607981800,10.98898193359375,-5.029713153839111,0.5252245664596558,-8.237292289733887
1701881295617574100,10.99857421875,-5.051248550415039,0.5156532526016235,-8.227720260620117
1701881295627167200,11.008167236328125,-5.1065826416015625,0.50129634141922,-8.213363647460938
1701881295636759300,11.01775927734375,-5.111368179321289,0.5276173949241638,-8.206185340881348
1701881295646350800,11.027350830078126,-4.989035129547119,0.5587241053581238,-8.031509399414062
1701881295655943200,11.036943115234376,-4.357030868530273,0.6161518096923828,-7.732107162475586
1701881295665536300,11.046536376953124,-4.979464054107666,0.5539384484291077,-8.270791053771973
1701881295675128600,11.056128662109375,-5.372185707092285,0.3720839321613312,-8.069794654846191
1701881295684720000,11.06572021484375,-5.5157551765441895,0.26440688967704773,-8.09850788116455
1701881295694312400,11.0753125,-5.558825969696045,0.21415762603282928,-8.09850788116455
1701881295703905500,11.084905517578125,-5.6018967628479,0.23330020904541016,-8.103293418884277
1701881295713497900,11.094497802734375,-5.561218738555908,0.3314059376716614,-8.02193832397461
1701881295723089200,11.104089111328125,-5.5396833419799805,0.3577269911766052,-8.033902168273926
1701881295732681500,11.113681396484376,-5.484648704528809,0.28594231605529785,-8.057829856872559
1701881295742274600,11.123274658203124,-5.451148986816406,0.3170489966869354,-8.019545555114746
1701881295751867000,11.132866943359375,-5.458327770233154,0.6089733839035034,-7.856534004211426
1701881295761458400,11.14245849609375,-5.388935565948486,0.5730810165405273,-7.892725467681885
1701881295771050800,11.15205078125,-5.4056854248046875,0.7648059129714966,-7.791927814483643
1701881295780643800,11.161643798828125,-5.298008441925049,0.7241279482841492,-7.586144924163818
1701881295790236200,11.171236083984375,-5.345864772796631,0.8413762450218201,-8.067401885986328
1701881295799827500,11.180827392578125,-5.386542797088623,0.8748757839202881,-8.065009117126465
1701881295809420000,11.190419921875,-5.470291614532471,0.8868398666381836,-8.072187423706055
1701881295819013000,11.20001318359375,-5.566004753112793,0.905982494354248,-8.014759063720703
1701881295828605200,11.209605224609374,-5.650052547454834,0.836590588092804,-7.981259822845459
1701881295838196700,11.21919677734375,-5.561218738555908,0.6520441770553589,-7.947760581970215
1701881295847789000,11.2287890625,-5.599503993988037,0.8916255235671997,-8.244470596313477
1701881295857382100,11.238382080078125,-5.774479389190674,0.7025925517082214,-7.729714393615723
1701881295866974500,11.247974365234375,-5.793622016906738,0.5754738450050354,-7.674679756164551
1701881295876566000,11.25756591796875,-5.6931233406066895,0.7025925517082214,-7.760821342468262
1701881295886158300,11.267158447265626,-5.635396480560303,0.6783652305603027,-7.753642559051514
1701881295895751400,11.27675146484375,-5.577968597412109,0.6496513485908508,-7.753642559051514
1701881295905343700,11.28634375,-5.534897804260254,0.6664010882377625,-7.842176914215088
1701881295914935000,11.29593505859375,-5.544469356536865,0.7695915699005127,-7.88285493850708
1701881295924527400,11.30552734375,-5.573183059692383,0.5946164131164551,-7.772785186767578
1701881295934120400,11.315120361328125,-5.577968597412109,0.534795880317688,-7.796713352203369
1701881295943712800,11.324712646484375,-5.760122299194336,0.50129634141922,-7.976474285125732
1701881295953304300,11.33430419921875,-5.312365531921387,0.4989035129547119,-7.799106121063232
1701881295962896600,11.343896728515626,-5.31475830078125,0.43908295035362244,-7.899903774261475
1701881295972489700,11.35348974609375,-5.494219779968262,0.2069791555404663,-7.87567663192749
1701881295982082000,11.36308203125,-5.7409796714782715,0.020039889961481094,-7.803892135620117
1701881295991673300,11.37267333984375,-5.941977024078369,-0.030209386721253395,-7.756035327911377
1701881296001266000,11.382265869140625,-5.831906795501709,-0.054137613624334335,-7.799106121063232
1701881296010859000,11.39185888671875,-5.886941909790039,-0.12831512093544006,-7.842176914215088
1701881296020451000,11.401451171875,-5.836692810058594,-0.1737787425518036,-7.837391376495361
1701881296030042600,11.411042724609375,-5.673980712890625,0.024825535714626312,-7.9381890296936035
1701881296039635000,11.420635009765626,-5.544469356536865,0.08225327730178833,-8.009973526000977
1701881296049228000,11.43022802734375,-5.350650310516357,0.15912270545959473,-7.981259822845459
1701881296058820400,11.4398203125,-5.353043556213379,0.24047867953777313,-8.036294937133789
1701881296068412000,11.449411865234374,-5.24536657333374,0.33858439326286316,-8.043473243713379
1701881296078004200,11.459004150390625,-5.164010524749756,0.39601215720176697,-8.067401885986328
1701881296087597300,11.468597412109375,-5.288437366485596,0.3768695592880249,-8.096115112304688
1701881296097189600,11.478189697265625,-5.31475830078125,0.3002992272377014,-8.017151832580566
1701881296106781000,11.487781005859375,-5.290830135345459,0.22612173855304718,-8.017151832580566
1701881296116373200,11.497373291015625,-5.427220821380615,0.19262222945690155,-8.043473243713379
1701881296125966300,11.50696630859375,-5.5157551765441895,0.18065811693668365,-7.978867053985596
1701881296135558700,11.51655859375,-5.5947184562683105,0.24047867953777313,-8.026723861694336
1701881296145150200,11.526150146484374,-5.56361198425293,0.1950150430202484,-8.09850788116455
1701881296154742500,11.535742431640625,-5.448756217956543,0.16151553392410278,-8.141578674316406
1701881296164335600,11.545335693359375,-5.420042514801025,0.18544375896453857,-8.163114547729492
1701881296173928000,11.554927978515625,-5.412863731384277,0.1782652884721756,-8.124829292297363
1701881296183519200,11.564519287109375,-5.39132833480835,0.09900303930044174,-8.182256698608398
1701881296193111800,11.57411181640625,-5.434399127960205,0.3481557071208954,-8.160721778869629
1701881296202705000,11.583704833984376,-5.573183059692383,0.31465616822242737,-8.093722343444824
1701881296212297200,11.593297119140624,-5.309972763061523,0.25244277715682983,-8.175078392028809
1701881296221888500,11.602888427734374,-5.233402252197266,0.3074777126312256,-8.10807991027832
1701881296231480800,11.612480712890624,-5.338686466217041,0.2476571500301361,-8.163114547729492
1701881296241074000,11.622073974609375,-5.250152111053467,0.32662028074264526,-8.057829856872559
1701881296250666200,11.631666259765625,-5.4296135902404785,0.4630111753940582,-8.110472679138184
1701881296260257800,11.6412578125,-5.424828052520752,0.3122633695602417,-7.988438606262207
1701881296269850000,11.65085009765625,-5.410470962524414,0.45583271980285645,-8.017151832580566
1701881296279443200,11.660443115234376,-5.436792373657227,0.5204389095306396,-7.931010723114014
1701881296289035500,11.670035400390624,-5.288437366485596,0.4654040038585663,-7.921439170837402
1701881296298626800,11.679626708984374,-5.3578290939331055,0.381655216217041,-8.009973526000977
1701881296308219100,11.68921923828125,-5.307579517364502,0.6185446381568909,-8.172685623168945
1701881296317812200,11.698812255859375,-5.527719497680664,1.1213364601135254,-8.37129020690918
1701881296327404500,11.708404541015625,-5.374578952789307,0.5252245664596558,-8.038687705993652
1701881296336996000,11.71799609375,-5.587540149688721,0.08225327730178833,-8.189435958862305
1701881296346588400,11.72758837890625,-6.025725841522217,-0.19292132556438446,-8.033902168273926
1701881296356181500,11.737181396484376,-6.0400824546813965,-0.3005983531475067,-7.7823567390441895
1701881296365773800,11.74677392578125,-5.968297958374023,0.03439682722091675,-7.921439170837402
1701881296375365400,11.756365478515624,-6.22702169418335,0.09900303930044174,-7.7823567390441895
1701881296384957700,11.765957763671874,-6.495018005371094,-0.06849455088376999,-7.926225185394287
1701881296394550800,11.77555078125,-6.557231426239014,-0.37956148386001587,-7.870891094207764
1701881296404142800,11.785142822265625,-6.483053684234619,-0.5688936114311218,-7.926225185394287
1701881296413734400,11.794734375,-6.341877460479736,-0.4298107624053955,-7.923832416534424
1701881296423326700,11.80432666015625,-6.298806667327881,-0.29341986775398254,-7.87567663192749
1701881296432919800,11.813919921875,-6.09033203125,-0.2431706041097641,-7.969295978546143
1701881296442512100,11.82351220703125,-6.011368751525879,-0.16420745849609375,-7.99800968170166
1701881296452103700,11.833103759765624,-5.9922261238098145,-0.16899310052394867,-7.952546119689941
1701881296461696000,11.842696044921874,-5.970690727233887,-0.14745768904685974,-7.911868095397949
1701881296471289000,11.8522890625,-6.023332595825195,-0.06370890140533447,-7.9142608642578125
1701881296480881400,11.86188134765625,-6.142973899841309,-0.1378864049911499,-7.801498889923096
1701881296490472700,11.87147265625,-6.186044692993164,-0.20967108011245728,-7.667500972747803
1701881296500065300,11.881065185546875,-6.236593246459961,-0.18335004150867462,-7.523931503295898
1701881296509658400,11.890658447265626,-6.193222999572754,-0.0972084179520607,-7.485646724700928
1701881296519250400,11.90025048828125,-6.0879387855529785,-0.11395817995071411,-7.511967658996582
1701881296528842000,11.909842041015626,-5.863013744354248,-0.17617157101631165,-7.514360427856445
1701881296538434300,11.919434326171874,-5.8343000411987305,-0.125922292470932,-7.387540817260742
1701881296548027400,11.92902734375,-5.934798240661621,-0.1091725304722786,-7.138388156890869
1701881296557619700,11.93861962890625,-5.644967555999756,0.11575279384851456,-7.380362510681152
1701881296567211300,11.948211181640625,-5.642574787139893,0.3122633695602417,-7.488039493560791
1701881296576803600,11.957803466796875,-5.56361198425293,0.36251261830329895,-7.5071821212768555
1701881296586396700,11.967396728515626,-5.604289531707764,0.4701896607875824,-7.545466899871826
1701881296595988700,11.97698876953125,-5.6018967628479,0.6161518096923828,-7.65792989730835
1701881296605580300,11.986580322265626,-5.659623622894287,0.7456633448600769,-7.65792989730835
1701881296615172600,11.996172607421874,-5.733801364898682,0.8461619019508362,-7.784749507904053
1701881296624765700,12.005765625,-6.004190444946289,0.7025925517082214,-7.794320583343506
1701881296634358000,12.01535791015625,-5.805585861206055,0.19980068504810333,-7.698607921600342
1701881296643949600,12.024949462890625,-5.872584819793701,0.10378868132829666,-7.856534004211426
1701881296653542000,12.0345419921875,-6.131010055541992,0.20937198400497437,-7.933403491973877
1701881296663135000,12.044135009765625,-6.006583213806152,0.15672987699508667,-7.911868095397949
1701881296672727300,12.053727294921876,-5.994618892669678,-0.08045866340398788,-7.794320583343506
1701881296682318800,12.06331884765625,-6.023332595825195,-0.20009979605674744,-7.681858062744141
1701881296691911200,12.0729111328125,-6.332305908203125,-0.2312064915895462,-7.9621171951293945
1701881296701504300,12.082504150390625,-6.380162239074707,-0.3652045428752899,-7.535895824432373
1701881296711096300,12.092096435546875,-5.846263885498047,-0.4540380835533142,-7.6962151527404785
1701881296720687900,12.10168798828125,-5.4056854248046875,-0.7268198728561401,-7.923832416534424
1701881296730280200,12.1112802734375,-5.733801364898682,-0.6167500615119934,-8.067401885986328
1701881296739873300,12.120873291015625,-5.851049423217773,-0.6741777658462524,-7.981259822845459
1701881296749465600,12.130465576171876,-5.465506076812744,-0.9182456731796265,-8.1224365234375
1701881296759057200,12.14005712890625,-5.7409796714782715,-0.9924231767654419,-8.665905952453613
1701881296768649500,12.1496494140625,-6.542874336242676,-0.844068169593811,-8.467302322387695
1701881296778242600,12.15924267578125,-7.167700290679932,-0.7387840151786804,-7.784749507904053
1701881296787835000,12.1688349609375,-6.571588516235352,-0.6023930907249451,-7.274778842926025
1701881296797426200,12.17842626953125,-5.9300127029418945,-0.1905284970998764,-6.559025764465332
1701881296807018800,12.188018798828125,-6.645765781402588,0.16869398951530457,-5.936593055725098
1701881296816611600,12.197611572265625,-6.346662998199463,0.08225327730178833,-6.226423740386963
1701881296826204000,12.207203857421876,-6.030511379241943,-0.2551347017288208,-6.592525482177734
1701881296835795500,12.21679541015625,-7.091129779815674,-0.09002995491027832,-6.863213539123535
1701881296845387800,12.2263876953125,-7.613064289093018,1.2026925086975098,-7.2125654220581055
1701881296854980900,12.23598095703125,-7.77816915512085,0.8150551915168762,-7.418647289276123
1701881296864573200,12.2455732421875,-5.812764644622803,-1.0980064868927002,-6.049055576324463
1701881296874164700,12.255164794921875,-4.697110652923584,-0.6047859191894531,-7.2676005363464355
1701881296883757000,12.264757080078125,-7.33549690246582,-1.8783657550811768,-8.706583976745605
