time,seconds_elapsed,z,y,x
1701713583779421400,0.09942138671875,0,0,0
1701713583789015600,0.109015625,0.09040403366088867,0.22547340393066406,-0.6135270595550537
1701713583798609000,0.11860888671875,0.08359050750732422,0.6090550422668457,-1.220876693725586
1701713583808203300,0.128203369140625,-0.5205206871032715,1.42210054397583,-1.888413906097412
1701713583817798100,0.137798095703125,0.2954268455505371,1.9459996223449707,-2.539975643157959
1701713583827392300,0.147392333984375,1.0007457733154297,1.9099531173706055,-2.4386425018310547
1701713583836985900,0.15698583984375,0.9595961570739746,1.5731406211853027,-2.13993239402771
1701713583846580000,0.166580078125,0.9933500289916992,0.8862042427062988,-1.9502339363098145
1701713583856175000,0.176175048828125,1.3077678680419922,0.5478692054748535,-1.9154757261276245
1701713583865769200,0.185769287109375,1.2684030532836914,0.2646794319152832,-1.8344653844833374
1701713583875362600,0.195362548828125,1.3041510581970215,0.03644418716430664,-1.9201767444610596
1701713583884957000,0.20495703125,1.1409173011779785,0.14159250259399414,-2.039522171020508
1701713583894551800,0.2145517578125,0.5140972137451172,0.3270721435546875,-1.8141685724258423
1701713583904146200,0.224146240234375,-0.09844827651977539,0.4625530242919922,-1.4040075540542603
1701713583913739500,0.233739501953125,-0.47348499298095703,0.7222132682800293,-0.9375525712966919
1701713583923334000,0.243333984375,-0.1775507926940918,0.6903824806213379,-0.6527092456817627
1701713583932928800,0.2529287109375,0.21957015991210938,0.5856976509094238,-0.3806936740875244
1701713583942523000,0.26252294921875,-0.30681753158569336,-0.25809288024902344,0.8786961436271667
1701713583952116500,0.272116455078125,-0.047199249267578125,-1.6924858093261719,2.2813401222229004
1701713583961710600,0.281710693359375,-0.26946306228637695,-1.2677149772644043,2.5931639671325684
1701713583971305700,0.2913056640625,0.3515157699584961,-0.6256356239318848,2.177764415740967
1701713583980899800,0.30089990234375,0.3601813316345215,-0.4599013328552246,1.8886528015136719
1701713583990493200,0.3104931640625,-0.2410874366760254,-0.5128998756408691,1.8486711978912354
1701713584000087600,0.320087646484375,-0.45912790298461914,0.013416290283203125,1.2829161882400513
1701713584009682400,0.329682373046875,-0.1688098907470703,0.26108884811401367,1.4738692045211792
1701713584019276800,0.33927685546875,-0.12104082107543945,0.44362306594848633,0.9262624382972717
1701713584028870100,0.3488701171875,0.09484052658081055,0.6550617218017578,0.27567216753959656
1701713584038464300,0.35846435546875,0.32222843170166016,0.872769832611084,-0.584764838218689
1701713584048059400,0.368059326171875,0.4362068176269531,0.9122076034545898,-1.128869891166687
1701713584057653500,0.377653564453125,0.708899974822998,0.9043736457824707,-1.5643799304962158
1701713584067246800,0.387246826171875,0.9574551582336426,0.5214014053344727,-1.3654906749725342
1701713584076841200,0.39684130859375,0.7835798263549805,-0.14891576766967773,-0.6764431595802307
1701713584086436000,0.40643603515625,0.5544843673706055,-0.46495580673217773,-0.053335040807724
1701713584096030500,0.416030517578125,0.6528053283691406,-0.3265042304992676,0.26343655586242676
1701713584105623800,0.425623779296875,0.33866405487060547,-0.0781393051147461,0.5549436211585999
1701713584115218200,0.43521826171875,-0.11633920669555664,-0.08492708206176758,0.6593994498252869
1701713584124813000,0.44481298828125,-0.3968849182128906,-0.06937122344970703,0.6004191040992737
1701713584134407200,0.4544072265625,-0.4528465270996094,0.07610273361206055,0.37817907333374023
1701713584144000800,0.464000732421875,-0.5425286293029785,0.16231203079223633,0.22735309600830078
1701713584153595000,0.473594970703125,-0.7033700942993164,0.13341665267944336,0.16881990432739258
1701713584163190000,0.48318994140625,-0.6554031372070312,0.09898567199707031,0.13276292383670807
1701713584172784000,0.4927841796875,-0.354856014251709,0.08947086334228516,0.15370561182498932
1701713584182377500,0.50237744140625,0.005251884460449219,0.015476703643798828,0.2715912461280823
1701713584191971800,0.511971923828125,0.27749109268188477,0.045809268951416016,0.42308932542800903
1701713584201566700,0.521566650390625,0.30748510360717773,0.05622577667236328,0.57563316822052
1701713584211160800,0.531160888671875,0.19414710998535156,0.1573328971862793,0.5115731954574585
1701713584220754400,0.54075439453125,0.19303417205810547,0.17212581634521484,0.43197405338287354
1701713584230348500,0.5503486328125,0.19137048721313477,0.18475770950317383,0.31451672315597534
1701713584239943700,0.559943603515625,0.0853586196899414,0.16780710220336914,0.2911512553691864
1701713584249537800,0.569537841796875,0.0665135383605957,0.07783937454223633,0.2983866333961487
1701713584259131400,0.57913134765625,0.14523601531982422,-0.004481792449951172,0.2575475573539734
1701713584268725500,0.5887255859375,0.24709129333496094,0.07078170776367188,0.04374045133590698
1701713584278320400,0.5983203125,0.32019567489624023,0.004649162292480469,0.09151488542556763
1701713584287914800,0.607914794921875,0.4194927215576172,-0.031455039978027344,0.3542637228965759
1701713584297508000,0.617508056640625,0.34484434127807617,-0.049898624420166016,0.6195184588432312
1701713584307102500,0.6271025390625,0.14107465744018555,0.0061664581298828125,0.4939584732055664
1701713584316697300,0.636697265625,-0.12449884414672852,0.032845497131347656,0.21862296760082245
1701713584326291500,0.64629150390625,-0.4492816925048828,0.007912635803222656,-0.1328321248292923
1701713584335885000,0.655885009765625,-0.7035355567932129,0.012821674346923828,-0.5090465545654297
1701713584345479200,0.665479248046875,-0.7302312850952148,0.0393071174621582,-0.7726772427558899
1701713584355074300,0.67507421875,-0.8226137161254883,0.016174793243408203,-0.7766170501708984
1701713584364668400,0.68466845703125,-0.852818489074707,0.034039974212646484,-0.5812556743621826
1701713584374261800,0.69426171875,-0.8124251365661621,-0.034987449645996094,-0.32011786103248596
1701713584383856000,0.703856201171875,-0.7684826850891113,-0.08355426788330078,-0.1548381745815277
1701713584393451000,0.713450927734375,-0.711817741394043,-0.09053802490234375,0.03631296753883362
1701713584403045000,0.723045166015625,-0.8887028694152832,-0.11223363876342773,0.211835578083992
1701713584412638700,0.732638671875,-1.0350394248962402,-0.137908935546875,0.28936463594436646
1701713584422232800,0.74223291015625,-1.2162165641784668,-0.09558486938476562,0.2968371510505676
1701713584431828000,0.751827880859375,-1.3288397789001465,-0.07742547988891602,0.25926855206489563
1701713584441422000,0.761422119140625,-1.3883438110351562,-0.03565788269042969,0.23365168273448944
1701713584451015400,0.771015380859375,-1.3265233039855957,-0.05375385284423828,0.20723852515220642
1701713584460609800,0.78060986328125,-1.1416316032409668,-0.06582021713256836,0.1868695616722107
1701713584470205000,0.790204833984375,-0.7550845146179199,-0.15214776992797852,0.2958279848098755
1701713584479799000,0.799799072265625,-0.3652067184448242,-0.23887872695922852,0.47687530517578125
1701713584489392400,0.809392333984375,-0.09807348251342773,-0.31801748275756836,0.5637335181236267
1701713584498986800,0.81898681640625,0.21446609497070312,-0.43332767486572266,0.7362710237503052
1701713584508581600,0.82858154296875,0.3666834831237793,-0.44295501708984375,0.7599070072174072
1701713584518175700,0.83817578125,0.40512895584106445,-0.529761791229248,0.7896822690963745
1701713584527769300,0.847769287109375,0.32345008850097656,-0.4675002098083496,0.7214535474777222
1701713584537363500,0.857363525390625,0.18747663497924805,-0.4215998649597168,0.6951003074645996
1701713584546958600,0.86695849609375,-0.06341123580932617,-0.41568756103515625,0.5750985145568848
1701713584556552700,0.876552734375,-0.3254704475402832,-0.3814430236816406,0.3936530649662018
1701713584566146000,0.88614599609375,-0.47655153274536133,-0.4531550407409668,0.16817334294319153
1701713584575740200,0.895740234375,-0.5583772659301758,-0.4875154495239258,-0.05874428153038025
1701713584585335300,0.905335205078125,-0.3718605041503906,-0.5122461318969727,-0.08752423524856567
1701713584594929400,0.914929443359375,-0.19995975494384766,-0.5766310691833496,0.020865291357040405
1701713584604523000,0.92452294921875,-0.031439781188964844,-0.6533961296081543,0.004866212606430054
1701713584614117000,0.9341171875,0.027736663818359375,-0.6149792671203613,-0.12401895225048065
1701713584623712300,0.943712158203125,0.02156829833984375,-0.5834336280822754,-0.30954957008361816
1701713584633306400,0.953306396484375,-0.042235374450683594,-0.563194751739502,-0.5032303929328918
1701713584642899700,0.962899658203125,-0.15842485427856445,-0.5397262573242188,-0.7234749794006348
1701713584652494000,0.972494140625,-0.3747539520263672,-0.4812798500061035,-0.8696801662445068
1701713584662089000,0.9820888671875,-0.5868782997131348,-0.44653749465942383,-0.9358744621276855
1701713584671683000,0.99168310546875,-0.7311997413635254,-0.41605615615844727,-0.9958393573760986
1701713584681276700,1.001276611328125,-0.7798900604248047,-0.4041738510131836,-1.0133700370788574
1701713584690870800,1.010870849609375,-0.678865909576416,-0.37577009201049805,-0.945425271987915
1701713584700466000,1.0204658203125,-0.5453271865844727,-0.3030357360839844,-0.7891662120819092
1701713584710060000,1.03006005859375,-0.46779394149780273,-0.24046564102172852,-0.6242152452468872
1701713584719653600,1.039653564453125,-0.5201663970947266,-0.17522668838500977,-0.5408635139465332
1701713584729247700,1.049247802734375,-0.5674991607666016,-0.13446426391601562,-0.5394709706306458
1701713584738842600,1.058842529296875,-0.608576774597168,-0.01735687255859375,-0.6497849225997925
1701713584748437000,1.06843701171875,-0.7154326438903809,-0.04198169708251953,-0.6445214152336121
1701713584758030300,1.0780302734375,-0.7143173217773438,-0.04581022262573242,-0.6500948667526245
1701713584767624700,1.087624755859375,-0.5576801300048828,0.029224395751953125,-0.6799026727676392
1701713584777219600,1.097219482421875,-0.4451727867126465,-0.029514312744140625,-0.6874363422393799
1701713584786813700,1.106813720703125,-0.31338977813720703,-0.07018089294433594,-0.7260653972625732
1701713584796407300,1.1164072265625,-0.2298874855041504,-0.0657491683959961,-0.7849544882774353
1701713584806001400,1.12600146484375,-0.13662338256835938,-0.07413291931152344,-0.785039484500885
1701713584815596500,1.135596435546875,-0.047448158264160156,-0.022128582000732422,-0.6466556787490845
1701713584825190700,1.145190673828125,-0.05925750732421875,0.030057907104492188,-0.4886597990989685
1701713584834784000,1.154783935546875,-0.05532503128051758,0.059098243713378906,-0.3888312876224518
1701713584844378400,1.16437841796875,-0.21274995803833008,0.08313369750976562,-0.43330395221710205
1701713584853973200,1.17397314453125,-0.3487672805786133,0.09642171859741211,-0.6135534048080444
1701713584863567400,1.1835673828125,-0.41907548904418945,0.0854182243347168,-0.7794321775436401
1701713584873161000,1.193160888671875,-0.4361839294433594,0.05041694641113281,-0.8741392493247986
1701713584882755000,1.202755126953125,-0.38127803802490234,0.02934408187866211,-0.9131829142570496
1701713584892350200,1.21235009765625,-0.2040877342224121,0.0020933151245117188,-0.9127360582351685
1701713584901944300,1.2219443359375,-0.004073143005371094,-0.037278175354003906,-0.8625583052635193
1701713584911537700,1.23153759765625,0.16759777069091797,-0.07093238830566406,-0.8641489744186401
1701713584921132000,1.241132080078125,0.34038734436035156,-0.09256219863891602,-0.8714715242385864
1701713584930727000,1.250726806640625,0.417266845703125,-0.1263751983642578,-0.8902948498725891
1701713584940321300,1.2603212890625,0.44414281845092773,-0.14855670928955078,-0.8803228139877319
1701713584949914600,1.26991455078125,0.44002389907836914,-0.14693212509155273,-0.8123841881752014
1701713584959509000,1.279509033203125,0.3784904479980469,-0.22085905075073242,-0.6852081418037415
1701713584969104000,1.289103759765625,0.36664724349975586,-0.23886919021606445,-0.5466526746749878
1701713584978698000,1.298697998046875,0.3061552047729492,-0.21744918823242188,-0.3658980429172516
1701713584988291300,1.308291259765625,0.1867375373840332,-0.21513128280639648,-0.17723771929740906
1701713584997885700,1.3178857421875,-0.03524160385131836,-0.16394424438476562,-0.11241848766803741
1701713585007480600,1.32748046875,-0.2533583641052246,-0.13316583633422852,-0.15595653653144836
1701713585017075000,1.337074951171875,-0.3459930419921875,-0.06701040267944336,-0.24583888053894043
1701713585026668300,1.346668212890625,-0.6558804512023926,0.009660720825195312,-0.36034464836120605
1701713585036262700,1.3562626953125,-0.39080333709716797,0.05908393859863281,-0.33517923951148987
1701713585045857500,1.365857421875,-0.22495174407958984,0.028295040130615234,-0.2715521454811096
1701713585055451600,1.37545166015625,-0.06527328491210938,0.01320028305053711,-0.217588409781456
1701713585065045000,1.385044921875,0.12477588653564453,-0.051165103912353516,-0.21752896904945374
1701713585074639400,1.394639404296875,0.1567554473876953,-0.10553789138793945,-0.19571150839328766
1701713585084234500,1.404234375,0.2002100944519043,-0.07686281204223633,-0.1841655820608139
1701713585093828600,1.41382861328125,0.1531538963317871,-0.07189416885375977,-0.14326974749565125
1701713585103422000,1.423421875,0.016608715057373047,-0.07562017440795898,-0.11945424973964691
1701713585113016300,1.433016357421875,-0.1379566192626953,-0.044866085052490234,-0.04074772819876671
1701713585122611200,1.442611083984375,-0.28783273696899414,-0.04262876510620117,0.033404022455215454
1701713585132205300,1.452205322265625,-0.3748912811279297,-0.046593666076660156,0.06273049116134644
1701713585141799000,1.461798828125,-0.45213842391967773,-0.047075748443603516,-0.048867497593164444
1701713585151393000,1.47139306640625,-0.5149521827697754,-0.06540203094482422,-0.18165889382362366
1701713585160988200,1.48098828125,-0.49034833908081055,-0.16743707656860352,-0.2106836587190628
1701713585170582300,1.490582275390625,-0.43352174758911133,-0.21329879760742188,-0.15650604665279388
1701713585180175600,1.500175537109375,-0.31830263137817383,-0.18354320526123047,-0.13351541757583618
1701713585189770000,1.50977001953125,-0.23926210403442383,-0.1906414031982422,-0.16968530416488647
1701713585199364900,1.51936474609375,-0.2806282043457031,-0.20799922943115234,-0.2553420662879944
1701713585208959000,1.528958984375,-0.3398923873901367,-0.1640920639038086,-0.3608314096927643
1701713585218552600,1.538552490234375,-0.4551515579223633,-0.1086573600769043,-0.44481122493743896
1701713585228146700,1.548146728515625,-0.5270028114318848,-0.09563398361206055,-0.4014478325843811
1701713585237741800,1.557741943359375,-0.5683436393737793,-0.08153915405273438,-0.25518542528152466
1701713585247336000,1.5673359375,-0.6103658676147461,-0.07573127746582031,-0.1381998211145401
1701713585256929300,1.57692919921875,-0.5635156631469727,-0.10875988006591797,-0.05797560513019562
1701713585266523600,1.586523681640625,-0.47847557067871094,-0.15667963027954102,-0.012469969689846039
1701713585276118500,1.596118408203125,-0.37886953353881836,-0.2056732177734375,-0.024024512618780136
1701713585285712600,1.605712646484375,-0.2977414131164551,-0.19231700897216797,-0.07593642175197601
1701713585295306200,1.61530615234375,-0.24459552764892578,-0.16197824478149414,-0.13146421313285828
1701713585304900400,1.624900390625,-0.1506037712097168,-0.14797592163085938,-0.15172044932842255
1701713585314495500,1.63449560546875,-0.06296873092651367,-0.13646888732910156,-0.09678947180509567
1701713585324089600,1.644089599609375,-0.054238319396972656,-0.1253829002380371,-0.05226726084947586
1701713585333683000,1.653682861328125,-0.01974201202392578,-0.11683034896850586,0.011913925409317017
1701713585343277300,1.66327734375,-0.0470123291015625,-0.11548614501953125,0.12196572124958038
1701713585352872200,1.6728720703125,-0.062053680419921875,-0.1306452751159668,0.1370641589164734
1701713585362466300,1.68246630859375,-0.14318513870239258,-0.17339372634887695,0.012418963015079498
1701713585372060000,1.692059814453125,-0.15779829025268555,-0.19822025299072266,-0.08955547213554382
1701713585381654000,1.701654052734375,-0.10699272155761719,-0.21718835830688477,-0.17254793643951416
1701713585391249200,1.711249267578125,-0.08562707901000977,-0.24256324768066406,-0.22493769228458405
1701713585400843300,1.72084326171875,-0.02884197235107422,-0.18087053298950195,-0.19088712334632874
1701713585410436600,1.7304365234375,0.022778034210205078,-0.09948348999023438,-0.17733800411224365
1701713585420031000,1.740031005859375,0.01958942413330078,-0.0902252197265625,-0.1480451375246048
1701713585429625900,1.7496259765625,-0.02557373046875,-0.06259012222290039,-0.13826653361320496
1701713585439220200,1.75922021484375,-0.06030607223510742,-0.04505348205566406,-0.09987463057041168
1701713585448813600,1.7688134765625,-0.09671688079833984,-0.03964853286743164,0.01940178871154785
1701713585458408000,1.778407958984375,-0.1113286018371582,-0.08141279220581055,0.11841990053653717
1701713585468002800,1.7880029296875,-0.13756322860717773,-0.0800313949584961,0.22964341938495636
1701713585477597000,1.797596923828125,-0.16597366333007812,-0.03841686248779297,0.21397283673286438
1701713585487190300,1.807190185546875,-0.28904008865356445,0.0058193206787109375,0.14789675176143646
1701713585496784600,1.81678466796875,-0.4025402069091797,0.06303071975708008,0.04761882126331329
1701713585506379800,1.8263798828125,-0.45531272888183594,0.06522512435913086,-0.05144813656806946
1701713585515974000,1.835973876953125,-0.4553666114807129,0.07446765899658203,-0.14427372813224792
1701713585525567200,1.845567138671875,-0.365109920501709,0.03568315505981445,-0.07761657238006592
1701713585535161600,1.85516162109375,-0.23248004913330078,0.04084014892578125,-0.01901175081729889
1701713585544756500,1.864756591796875,-0.04747962951660156,0.054958343505859375,0.037848591804504395
1701713585554350600,1.8743505859375,0.13103580474853516,0.0016431808471679688,0.18526160717010498
1701713585563944200,1.883944091796875,0.26179933547973633,-0.010743141174316406,0.24554811418056488
1701713585573538300,1.893538330078125,0.3506903648376465,-0.013901233673095703,0.2767345905303955
1701713585583133200,1.90313330078125,0.35329389572143555,-0.009947776794433594,0.3047833740711212
1701713585592727600,1.9127275390625,0.27710533142089844,0.027957916259765625,0.23705001175403595
1701713585602321000,1.92232080078125,0.15775585174560547,0.09561491012573242,0.15656763315200806
1701713585611915300,1.931915283203125,0.03510761260986328,0.13929128646850586,0.094570592045784
1701713585621510100,1.94151025390625,-0.04655313491821289,0.14812088012695312,0.07033458352088928
1701713585631104300,1.951104248046875,0.027719497680664062,0.10348844528198242,0.24296200275421143
1701713585640697600,1.960697509765625,0.10545110702514648,0.09246063232421875,0.38315004110336304
1701713585650292000,1.9702919921875,0.13270330429077148,0.05763053894042969,0.5139200687408447
1701713585659887000,1.97988720703125,0.1031198501586914,0.08900928497314453,0.48411044478416443
1701713585669481200,1.989481201171875,0.11142158508300781,0.13419866561889648,0.42392271757125854
1701713585679074600,1.999074462890625,0.12191963195800781,0.17390727996826172,0.3517390191555023
1701713585688668700,2.008668701171875,0.11113595962524414,0.15871667861938477,0.2458460032939911
1701713585698263800,2.018263916015625,0.1383228302001953,0.15781784057617188,0.17157775163650513
1701713585707858000,2.02785791015625,0.10156488418579102,0.15222930908203125,0.08529582619667053
1701713585717451500,2.037451416015625,0.07962322235107422,0.12083625793457031,0.05067160725593567
1701713585727045600,2.047045654296875,0.04428672790527344,0.08727073669433594,0.06050604581832886
1701713585736640800,2.056640869140625,0.07602739334106445,0.0748605728149414,0.09815508127212524
1701713585746235000,2.06623486328125,0.13201522827148438,-0.00932168960571289,0.16420769691467285
1701713585755828200,2.075828125,0.16076040267944336,-0.016580581665039062,0.183962881565094
1701713585765422600,2.085422607421875,0.20741939544677734,0.047208309173583984,0.054946839809417725
1701713585775017500,2.095017578125,0.0704202651977539,0.09276247024536133,-0.10970908403396606
1701713585784611600,2.104611572265625,-0.10986518859863281,0.11744070053100586,-0.21653908491134644
1701713585794205200,2.114205078125,-0.3059854507446289,0.1184844970703125,-0.3033846616744995
1701713585803799300,2.12379931640625,-0.36724233627319336,0.06112194061279297,-0.1774309277534485
1701713585813394400,2.13339453125,-0.31185388565063477,0.046935081481933594,-0.0004711747169494629
1701713585822988500,2.142988525390625,-0.16730690002441406,0.06307363510131836,0.10157546401023865
1701713585832582000,2.152581787109375,-0.06438684463500977,0.005269527435302734,0.13228049874305725
1701713585842176300,2.16217626953125,-0.07957601547241211,-0.04812908172607422,0.13588005304336548
1701713585851771100,2.171771240234375,0.0015869140625,-0.04370927810668945,0.10342791676521301
1701713585861365200,2.181365234375,0.08155155181884766,-0.04424715042114258,0.20214101672172546
1701713585870958800,2.190958740234375,0.14648675918579102,-0.026393413543701172,0.3092145323753357
1701713585880553000,2.200552978515625,0.1189723014831543,-0.05401420593261719,0.31099849939346313
1701713585890148000,2.210148193359375,0.11116838455200195,-0.10280275344848633,0.2990582287311554
1701713585899742200,2.2197421875,0.11109590530395508,-0.11843109130859375,0.3284442722797394
1701713585909335600,2.22933544921875,0.08551692962646484,-0.13424015045166016,0.32297036051750183
1701713585918930000,2.238929931640625,0.07240533828735352,-0.1594705581665039,0.32232576608657837
1701713585928524800,2.24852490234375,0.08569574356079102,-0.146881103515625,0.31187763810157776
1701713585938119000,2.258118896484375,0.12978124618530273,-0.17495107650756836,0.4027976989746094
1701713585947712500,2.26771240234375,0.11932611465454102,-0.15116024017333984,0.3518374264240265
1701713585957306600,2.277306640625,0.10918378829956055,-0.18211126327514648,0.3196013271808624
1701713585966901800,2.28690185546875,0.16550827026367188,-0.15884065628051758,0.25570881366729736
1701713585976495900,2.296495849609375,0.23090219497680664,-0.12245464324951172,0.2512965798377991
1701713585986089200,2.306089111328125,0.3032207489013672,-0.08765935897827148,0.25713199377059937
1701713585995683600,2.31568359375,0.4184589385986328,-0.09303426742553711,0.2851545512676239
1701713586005278500,2.325278564453125,0.5018081665039062,-0.05230379104614258,0.34556761384010315
1701713586014872600,2.33487255859375,0.8211445808410645,-0.16546297073364258,0.6038351058959961
1701713586024466200,2.344466064453125,0.9968996047973633,-0.25940704345703125,0.5386103391647339
1701713586034060300,2.354060302734375,0.7761521339416504,-0.18973541259765625,0.06336933374404907
1701713586043655400,2.363655517578125,0.29402685165405273,-0.18357419967651367,-0.1814640313386917
1701713586053249500,2.37324951171875,-0.22714996337890625,-0.035614967346191406,-0.6649291515350342
1701713586062843000,2.3828427734375,-0.3335704803466797,0.20871400833129883,-0.8669513463973999
1701713586072437000,2.39243701171875,-0.3778972625732422,-0.4743175506591797,0.32613998651504517
1701713586082032000,2.4020322265625,-0.24581575393676758,-0.08997106552124023,0.3606959581375122
1701713586091626200,2.411626220703125,-0.6026082038879395,0.05240678787231445,0.4014272093772888
1701713586101219800,2.4212197265625,-0.9604659080505371,0.030978679656982422,0.2957684099674225
1701713586110814000,2.43081396484375,-1.2713608741760254,0.04081010818481445,0.26329609751701355
1701713586120409000,2.4404091796875,-1.104015827178955,-0.023715972900390625,0.45349663496017456
1701713586130003200,2.450003173828125,-0.6261162757873535,-0.16199922561645508,0.6318155527114868
1701713586139596500,2.459596435546875,0.01685810089111328,-0.3336763381958008,0.5372722744941711
1701713586149191000,2.46919091796875,0.7316555976867676,-0.475740909576416,0.23223453760147095
1701713586158785800,2.478785888671875,1.2894835472106934,-0.7164626121520996,0.01378399133682251
1701713586168380000,2.4883798828125,1.4654970169067383,-0.9439153671264648,-0.11968320608139038
1701713586177973500,2.497973388671875,1.347501277923584,-0.5109848976135254,-1.4946513175964355
1701713586187567600,2.507567626953125,0.24371767044067383,0.000047206878662109375,-1.610460877418518
1701713586197162800,2.517162841796875,-0.8378090858459473,-1.3601646423339844,0.246648907661438
1701713586206756900,2.5267568359375,-0.9980669021606445,-1.790475845336914,1.0542665719985962
1701713586216350200,2.53635009765625,-0.8465108871459961,-1.3877239227294922,0.610491156578064
1701713586225944600,2.545944580078125,-0.2436203956604004,-1.6267204284667969,0.30748677253723145
1701713586235539500,2.55553955078125,0.1026153564453125,-1.9074811935424805,-0.6277288198471069
1701713586245133600,2.565133544921875,0.1039586067199707,-2.099612236022949,-1.437432050704956
1701713586254727200,2.57472705078125,-0.0915980339050293,-2.2441582679748535,-1.6650564670562744
1701713586264321300,2.5843212890625,-0.024607181549072266,-2.414175510406494,-1.6495089530944824
1701713586273916400,2.59391650390625,0.3279266357421875,-2.539987087249756,-1.545831561088562
1701713586283510500,2.603510498046875,0.7965092658996582,-2.5912933349609375,-1.4943513870239258
1701713586293103900,2.613103759765625,1.1757721900939941,-2.6916136741638184,-1.736055850982666
1701713586302698200,2.6226982421875,1.1913108825683594,-2.821485996246338,-1.9669164419174194
1701713586312293000,2.632293212890625,1.3619275093078613,-3.0945708751678467,-2.4593429565429688
1701713586321887200,2.64188720703125,1.2193970680236816,-3.5157079696655273,-2.5256400108337402
1701713586331480600,2.65148046875,0.4139747619628906,-3.801138162612915,-2.3813834190368652
1701713586341075000,2.661074951171875,-0.42395877838134766,-3.8499436378479004,-2.3355965614318848
1701713586350670000,2.670670166015625,-1.0356316566467285,-3.800990343093872,-2.531863212585449
1701713586360264200,2.68026416015625,-1.5661194324493408,-3.6342408657073975,-2.9101805686950684
1701713586369857500,2.689857421875,-1.6496846675872803,-3.6256215572357178,-3.5295157432556152
1701713586379452000,2.699451904296875,-1.034867286682129,-3.854689836502075,-4.20206880569458
1701713586389046800,2.709046875,-0.2461256980895996,-4.334195137023926,-4.348299980163574
1701713586398641000,2.718640869140625,0.5730962753295898,-4.695652484893799,-4.100618362426758
1701713586408234200,2.728234130859375,1.353126049041748,-4.896471977233887,-2.9143929481506348
1701713586417828600,2.73782861328125,1.5394234657287598,-4.714742183685303,-1.9951972961425781
1701713586427423500,2.747423583984375,1.6120939254760742,-4.574630260467529,-1.8813962936401367
1701713586437017900,2.757017822265625,1.679542064666748,-4.624030590057373,-2.184762954711914
1701713586446611200,2.766611083984375,1.6204314231872559,-4.6717000007629395,-2.648852825164795
1701713586456205300,2.776205322265625,1.5996716022491455,-4.896333694458008,-2.760887622833252
1701713586465800400,2.785800537109375,1.4760522842407227,-5.053810119628906,-1.7728047370910645
1701713586475394600,2.79539453125,0.8460955619812012,-4.74604606628418,-0.0845499038696289
1701713586484988000,2.80498779296875,0.2505161762237549,-4.222375392913818,1.83355712890625
1701713586494582300,2.814582275390625,-0.46823060512542725,-3.714350461959839,3.197678565979004
1701713586504177200,2.82417724609375,-1.2098904848098755,-3.161017894744873,3.369927406311035
1701713586513771300,2.833771240234375,-1.8977046012878418,-2.6113035678863525,2.930959701538086
1701713586523364900,2.84336474609375,-2.259291172027588,-2.4016804695129395,2.810826301574707
1701713586532959000,2.852958984375,-2.378009557723999,-2.2226178646087646,2.662930488586426
1701713586542554000,2.86255419921875,-2.5155153274536133,-1.391658902168274,3.7762603759765625
1701713586552148200,2.872148193359375,-2.8818085193634033,-0.4969945251941681,5.045559883117676
1701713586561741600,2.881741455078125,-3.2124545574188232,0.24233663082122803,5.391846656799316
1701713586571335700,2.891335693359375,-3.7599539756774902,1.2747719287872314,4.654041290283203
1701713586580930800,2.900930908203125,-4.29892635345459,2.079496145248413,3.6249160766601562
1701713586590525000,2.91052490234375,-4.728504180908203,2.305391788482666,2.210780143737793
1701713586600118300,2.9201181640625,-4.61113166809082,2.5371968746185303,0.9350757598876953
1701713586609712600,2.929712646484375,-3.8627023696899414,2.5284600257873535,0.25084686279296875
1701713586619307500,2.9393076171875,-4.951961040496826,2.132859706878662,-0.19136810302734375
1701713586628901600,2.948901611328125,-12.235540390014648,2.405414581298828,0.39290618896484375
1701713586638495200,2.9584951171875,-18.851469039916992,3.394460678100586,-0.20310306549072266
1701713586648089300,2.96808935546875,-13.042820930480957,1.8912992477416992,9.007428169250488
1701713586657684500,2.9776845703125,-4.281622886657715,2.755995988845825,25.121185302734375
1701713586667278600,2.987278564453125,0.16183829307556152,3.7996768951416016,16.166927337646484
1701713586676872000,2.996871826171875,0.4236938953399658,3.790623188018799,3.062392234802246
1701713586686466300,3.00646630859375,-1.5001177787780762,2.8556532859802246,-0.13907241821289062
1701713586696061200,3.016061279296875,0.14070755243301392,1.1665692329406738,-0.7626476287841797
1701713586705655300,3.0256552734375,2.926819324493408,2.2164759635925293,-3.5125279426574707
1701713586715249000,3.035248779296875,3.6433517932891846,2.0336623191833496,-7.286529541015625
1701713586724843000,3.044843017578125,2.2767598628997803,0.6868593692779541,-6.65933895111084
1701713586734438100,3.054438232421875,-1.5177693367004395,-0.9217584133148193,-4.08699893951416
1701713586744032300,3.0640322265625,4.901845455169678,-14.491868019104004,8.489516258239746
1701713586753625600,3.07362548828125,1.6125860214233398,1.501969575881958,-3.7745847702026367
1701713586763219700,3.0832197265625,4.142052173614502,5.310004234313965,-8.208576202392578
1701713586772814800,3.09281494140625,-2.7159295082092285,-4.377500057220459,9.032333374023438
1701713586782409000,3.102408935546875,-6.073845863342285,1.568650722503662,4.275507926940918
1701713586792002600,3.11200244140625,-0.6378304958343506,-1.4582500457763672,0.9863357543945312
1701713586801596700,3.1215966796875,2.332881450653076,3.512410879135132,-5.231143474578857
1701713586811191600,3.131191650390625,-4.333488941192627,0.24709558486938477,4.7099761962890625
1701713586820786000,3.140785888671875,-0.34552931785583496,-1.876746654510498,0.07562971115112305
1701713586830379300,3.150379150390625,-0.27316927909851074,-1.5434041023254395,-1.450986385345459
1701713586839973400,3.159973388671875,-0.8192362785339355,-3.1119303703308105,0.13788366317749023
1701713586849568500,3.169568603515625,-0.5622293949127197,-1.2350497245788574,0.5204300880432129
1701713586859162600,3.17916259765625,-1.0489124059677124,-0.841094970703125,1.722559928894043
1701713586868756000,3.188755859375,-0.9478317499160767,-1.1978936195373535,2.4756574630737305
1701713586878350300,3.198350341796875,-0.2514077425003052,-2.230231761932373,1.7602453231811523
1701713586887945200,3.2079453125,-0.6986074447631836,-3.6359987258911133,2.886275291442871
1701713586897539300,3.217539306640625,-0.8549646139144897,-4.7798566818237305,3.108325958251953
1701713586907133000,3.2271328125,0.22602343559265137,-5.676594257354736,1.8457250595092773
1701713586916727000,3.23672705078125,-0.6265521049499512,-3.71774959564209,0.19846725463867188
1701713586926322200,3.246322265625,-1.7701740264892578,-4.3409295082092285,-0.9682927131652832
1701713586935916300,3.255916259765625,0.13008534908294678,-1.510979175567627,-1.0863523483276367
1701713586945509600,3.265509521484375,-0.6634392738342285,3.037416934967041,-1.7936415672302246
1701713586955104000,3.27510400390625,-0.08462667465209961,1.7199640274047852,-0.564826488494873
1701713586964699000,3.284698974609375,0.3740670084953308,1.7236790657043457,-0.21348142623901367
1701713586974293000,3.29429296875,0.8010005950927734,2.176723003387451,-1.0391654968261719
1701713586983886600,3.303886474609375,0.052533745765686035,1.9009490013122559,-1.1840639114379883
1701713586993480700,3.313480712890625,-0.05221760272979736,1.2697782516479492,-1.2369375228881836
1701713587003075800,3.323075927734375,0.2600216269493103,0.4098625183105469,-1.050079345703125
1701713587012670000,3.332669921875,0.5363037586212158,0.11237382888793945,-1.3378934860229492
1701713587022263300,3.34226318359375,0.3923429846763611,-0.07641267776489258,-2.2195541858673096
1701713587031857400,3.351857421875,0.8694058656692505,0.4169940948486328,-2.1660842895507812
1701713587041452500,3.36145263671875,0.9938299655914307,1.1483407020568848,-1.5772042274475098
1701713587051046700,3.371046630859375,-0.04816246032714844,-0.29218482971191406,-0.13852739334106445
1701713587060640300,3.38064013671875,-1.3980482816696167,-3.1328115463256836,-0.2646660804748535
1701713587070234400,3.390234375,-0.21081864833831787,-9.865948677062988,1.1544156074523926
1701713587079829200,3.399829345703125,-0.14728200435638428,-4.577139854431152,6.314211368560791
1701713587089423600,3.409423583984375,-1.6908016204833984,2.359523296356201,3.7887024879455566
1701713587099017000,3.419016845703125,-0.5771898031234741,0.45852088928222656,-0.6724731922149658
1701713587108611000,3.428611083984375,0.31246304512023926,0.024768829345703125,-0.30153608322143555
1701713587118206200,3.438206298828125,0.0862879753112793,1.0453286170959473,-0.5351741313934326
1701713587127800300,3.44780029296875,-0.3790990114212036,1.6173782348632812,-0.1835801601409912
1701713587137393700,3.4573935546875,0.05946505069732666,2.231236457824707,-0.10144805908203125
1701713587146988000,3.466988037109375,0.5775899887084961,1.3433113098144531,0.07052373886108398
1701713587156583000,3.4765830078125,0.956135094165802,4.608086585998535,-0.33264756202697754
1701713587166177300,3.48617724609375,-0.6672838926315308,16.12761116027832,-4.243672847747803
1701713587175770600,3.4957705078125,1.2418022155761719,8.624234199523926,-1.2099714279174805
1701713587185364700,3.50536474609375,1.3952192068099976,4.678990364074707,-0.6599574089050293
1701713587194960000,3.5149599609375,1.513920545578003,5.377370357513428,-2.0783298015594482
1701713587204554000,3.524553955078125,1.6174136400222778,5.798229217529297,-2.7210254669189453
1701713587214147300,3.534147216796875,-0.26910269260406494,5.560806751251221,-5.037822723388672
1701713587223741700,3.54374169921875,-1.5090453624725342,2.4474730491638184,-7.118298530578613
1701713587233336600,3.553336669921875,-1.8500734567642212,1.0723953247070312,-7.005956172943115
1701713587242930700,3.5629306640625,-1.9933879375457764,0.7761068344116211,-5.64315128326416
1701713587252524300,3.572524169921875,-1.5442308187484741,0.4107990264892578,-2.7126946449279785
1701713587262118400,3.582118408203125,-1.5445855855941772,-0.4370403289794922,-0.05158853530883789
1701713587271713500,3.591713623046875,0.24281489849090576,-1.49664306640625,1.1694605350494385
1701713587281307600,3.6013076171875,-0.18847334384918213,-8.468670845031738,3.213824987411499
1701713587290901000,3.61090087890625,-1.1357073783874512,-19.00882339477539,4.8900251388549805
1701713587300495000,3.6204951171875,2.0423924922943115,-26.22870635986328,12.474422454833984
1701713587310090200,3.63009033203125,1.5161499977111816,-14.45164680480957,4.458176612854004
1701713587319684400,3.639684326171875,1.272113561630249,-3.411105155944824,-0.22293198108673096
1701713587329277700,3.649277587890625,0.4689660668373108,-1.2605018615722656,-0.3521440029144287
1701713587338872000,3.6588720703125,0.2866870164871216,0.07764434814453125,-0.7479137182235718
1701713587348467200,3.66846728515625,0.00014543533325195312,0.39983081817626953,-0.9853962659835815
1701713587358061300,3.678061279296875,-0.5493085384368896,0.5295085906982422,-0.7363479137420654
1701713587367654700,3.687654541015625,-0.1826186180114746,0.08792591094970703,-0.481081485748291
1701713587377249000,3.6972490234375,-0.254225492477417,-0.1615610122680664,0.00757598876953125
1701713587386844000,3.706843994140625,0.06415581703186035,-0.24786376953125,0.1633918285369873
1701713587396438000,3.71643798828125,-0.0715951919555664,-0.29830360412597656,0.10490202903747559
1701713587406031400,3.72603125,-0.14499318599700928,-0.3587379455566406,0.06688416004180908
1701713587415625700,3.735625732421875,-0.11954009532928467,-0.42653560638427734,-0.11785483360290527
1701713587425220600,3.745220703125,-0.01116943359375,-0.5300960540771484,-0.2958974838256836
1701713587434814700,3.754814697265625,0.1453021764755249,-0.7861347198486328,-0.5435214042663574
1701713587444408300,3.764408203125,0.16340911388397217,-1.1276731491088867,-0.6208115816116333
1701713587454002400,3.77400244140625,0.15511083602905273,-1.3184881210327148,-0.5878826379776001
1701713587463597600,3.78359765625,0.10612797737121582,-1.33099365234375,-0.5653200149536133
1701713587473191700,3.793191650390625,0.27041661739349365,-1.3259553909301758,-0.6686009168624878
1701713587482785000,3.802784912109375,-0.13702189922332764,-0.7768888473510742,-1.0899518728256226
1701713587492379400,3.81237939453125,0.667654275894165,0.08376121520996094,-1.1999846696853638
1701713587501974300,3.821974365234375,1.1012482643127441,-0.013117790222167969,-1.7460962533950806
1701713587511568400,3.831568359375,-0.33610999584198,0.7415809631347656,-0.3873196840286255
1701713587521162000,3.841161865234375,-1.1661245822906494,1.709385871887207,0.08980202674865723
1701713587530756000,3.850756103515625,-0.7344499826431274,0.24051380157470703,1.5789637565612793
1701713587540351200,3.860351318359375,0.09950649738311768,0.12683963775634766,-0.2781156301498413
1701713587549945300,3.8699453125,-0.021263480186462402,-0.09416961669921875,-0.0638742446899414
1701713587559538700,3.87953857421875,0.14889204502105713,-0.1546163558959961,-0.28364038467407227
1701713587569133000,3.889133056640625,0.24983572959899902,-0.2889089584350586,-0.32085180282592773
1701713587578728000,3.89872802734375,0.20202434062957764,-0.377532958984375,-0.3034743070602417
1701713587588322000,3.908322021484375,0.05305027961730957,-0.3776063919067383,-0.2677878141403198
1701713587597915600,3.91791552734375,-0.04186737537384033,-0.3132610321044922,-0.22848749160766602
1701713587607509800,3.927509765625,-0.1379481554031372,-0.16069316864013672,-0.21397638320922852
1701713587617105000,3.93710498046875,-0.14169573783874512,-0.10631847381591797,-0.2236182689666748
1701713587626699000,3.946698974609375,-0.12497508525848389,-0.0757455825805664,-0.1971215009689331
1701713587636292400,3.956292236328125,-0.10673224925994873,-0.047458648681640625,-0.16088879108428955
1701713587645886700,3.96588671875,-0.039051175117492676,-0.0787515640258789,-0.1481919288635254
1701713587655481600,3.975481689453125,-0.02929699420928955,-0.021468162536621094,-0.1566934585571289
1701713587665075700,3.98507568359375,-0.03402829170227051,-0.011980056762695312,-0.12893033027648926
1701713587674669000,3.9946689453125,-0.038980722427368164,-0.052570343017578125,-0.11289322376251221
1701713587684263400,4.004263427734375,-0.034537553787231445,-0.05238056182861328,-0.11336183547973633
1701713587693858300,4.0138583984375,-0.0375981330871582,-0.0640115737915039,-0.11588811874389648
1701713587703452700,4.02345263671875,-0.02419888973236084,-0.032570838928222656,-0.13982784748077393
1701713587713046000,4.0330458984375,-0.011161088943481445,-0.11588573455810547,-0.09012508392333984
1701713587722640400,4.042640380859375,-0.06747865676879883,-0.05809497833251953,-0.16478168964385986
1701713587732235300,4.0522353515625,-0.047293782234191895,-0.11277389526367188,-0.06772148609161377
1701713587741829400,4.061829345703125,-0.053281545639038086,-0.14601421356201172,-0.038562774658203125
1701713587751422700,4.071422607421875,-0.04969155788421631,-0.19353294372558594,-0.031110525131225586
1701713587761017000,4.08101708984375,-0.09859991073608398,-0.16210269927978516,-0.011593818664550781
1701713587770612000,4.090612060546875,-0.07585859298706055,-0.1976642608642578,-0.006749629974365234
1701713587780206000,4.1002060546875,-0.06492757797241211,-0.26660823822021484,0.03863382339477539
1701713587789799700,4.109799560546875,-0.10888361930847168,-0.11554527282714844,-0.06351149082183838
1701713587799393800,4.119393798828125,-0.0666804313659668,-0.20135211944580078,0.025378704071044922
1701713587808989000,4.128989013671875,-0.10591006278991699,-0.0887136459350586,-0.04357123374938965
1701713587818583000,4.1385830078125,-0.1501091718673706,-0.06945514678955078,-0.031189441680908203
1701713587828176400,4.14817626953125,-0.1801365613937378,-0.028690338134765625,-0.05217909812927246
1701713587837770800,4.157770751953125,-0.20093894004821777,-0.026207923889160156,-0.030277013778686523
1701713587847365600,4.16736572265625,-0.2173163890838623,-0.028451919555664062,-0.04189777374267578
1701713587856959700,4.176959716796875,-0.23446261882781982,-0.047326087951660156,-0.027416706085205078
1701713587866553300,4.18655322265625,-0.2595881223678589,-0.054080963134765625,-0.04641294479370117
1701713587876147500,4.1961474609375,-0.26640427112579346,-0.05352306365966797,-0.058203935623168945
1701713587885742600,4.20574267578125,-0.3099710941314697,-0.05998516082763672,-0.08428323268890381
1701713587895336700,4.215336669921875,-0.29442453384399414,-0.04002666473388672,-0.12209820747375488
1701713587904930000,4.224929931640625,-0.28238606452941895,-0.05331611633300781,-0.13322091102600098
1701713587914524400,4.2345244140625,-0.2714834213256836,-0.09502315521240234,-0.14411544799804688
1701713587924119300,4.244119384765625,-0.2831599712371826,-0.09818267822265625,-0.16418933868408203
1701713587933713400,4.25371337890625,-0.3131653070449829,-0.10434913635253906,-0.19309377670288086
1701713587943306800,4.263306640625,-0.32302188873291016,-0.06540679931640625,-0.21423077583312988
1701713587952901000,4.272901123046875,-0.3225545883178711,-0.06441688537597656,-0.21792173385620117
1701713587962496300,4.282496337890625,-0.30256664752960205,-0.04895973205566406,-0.21625864505767822
1701713587972090400,4.29209033203125,-0.3055368661880493,-0.014604568481445312,-0.1999119520187378
1701713587981683700,4.30168359375,-0.34238922595977783,0.01947498321533203,-0.18772149085998535
1701713587991278000,4.311278076171875,-0.3586111068725586,0.055687904357910156,-0.18184340000152588
1701713588000873000,4.320873046875,-0.3119901418685913,0.05868816375732422,-0.12551188468933105
1701713588010467000,4.330467041015625,-0.29282915592193604,0.05483245849609375,-0.055147647857666016
1701713588020060400,4.340060302734375,-0.22524702548980713,0.020685195922851562,-0.001526474952697754
1701713588029654800,4.34965478515625,-0.19496417045593262,0.015616416931152344,0.06385135650634766
1701713588039249700,4.359249755859375,-0.1143418550491333,-0.029152870178222656,0.15007615089416504
1701713588048844000,4.368843994140625,-0.0547335147857666,-0.07532978057861328,0.19790542125701904
1701713588058437400,4.378437255859375,-0.04369211196899414,-0.05469226837158203,0.17491793632507324
1701713588068031500,4.388031494140625,0.0019828081130981445,-0.08847999572753906,0.220924973487854
1701713588077626600,4.397626708984375,-0.0027794837951660156,-0.065185546875,0.19111597537994385
1701713588087220700,4.407220703125,-0.002881288528442383,-0.07054424285888672,0.1690692901611328
1701713588096814000,4.41681396484375,-0.04271376132965088,-0.09709835052490234,0.13568902015686035
1701713588106408400,4.426408447265625,-0.09517192840576172,-0.06686782836914062,0.10763919353485107
1701713588116003300,4.43600341796875,-0.10114824771881104,-0.10800552368164062,0.11501145362854004
1701713588125597400,4.445597412109375,-0.10810136795043945,-0.14408588409423828,0.0792241096496582
1701713588135191000,4.45519091796875,-0.10220301151275635,-0.18930530548095703,0.031432151794433594
1701713588144785200,4.46478515625,-0.09990882873535156,-0.19644641876220703,-0.014030814170837402
1701713588154380300,4.47438037109375,-0.10606586933135986,-0.18495845794677734,-0.06432151794433594
1701713588163974400,4.483974365234375,-0.06893467903137207,-0.22815513610839844,-0.0701974630355835
1701713588173567700,4.493567626953125,-0.027014970779418945,-0.2403554916381836,-0.12657105922698975
1701713588183162000,4.503162109375,-0.029976487159729004,-0.16075992584228516,-0.2250659465789795
1701713588192757000,4.512757080078125,-0.010838031768798828,-0.10628318786621094,-0.3108454942703247
1701713588202351000,4.52235107421875,0.025040924549102783,-0.10706329345703125,-0.3911076784133911
1701713588211944700,4.53194482421875,0.0414547324180603,-0.09619331359863281,-0.4612140655517578
1701713588221538800,4.541538818359375,0.06187260150909424,-0.10214614868164062,-0.5005111694335938
1701713588231134000,4.551134033203125,0.07859039306640625,-0.10350322723388672,-0.5265598297119141
1701713588240728000,4.56072802734375,0.07257932424545288,-0.15919876098632812,-0.5985660552978516
1701713588250321400,4.5703212890625,0.057827532291412354,-0.21894073486328125,-0.6291927099227905
1701713588259915800,4.579915771484375,0.0667465329170227,-0.28736019134521484,-0.6240699291229248
1701713588269510700,4.5895107421875,0.08915847539901733,-0.29828643798828125,-0.6280339956283569
1701713588279104800,4.599104736328125,0.12908095121383667,-0.19116878509521484,-0.7806234359741211
1701713588288698000,4.608697998046875,0.15811389684677124,-0.06196880340576172,-0.9157300591468811
1701713588298292500,4.61829248046875,0.09204137325286865,0.0985269546508789,-0.9853158593177795
1701713588307887400,4.627887451171875,0.015292108058929443,0.21686744689941406,-1.025158405303955
1701713588317481700,4.637481689453125,-0.06656205654144287,0.31963539123535156,-0.9789072871208191
1701713588327075000,4.647074951171875,0.12613362073898315,0.39526844024658203,-0.9048632383346558
1701713588336669400,4.65666943359375,0.44426438212394714,0.3759584426879883,-0.8646722435951233
1701713588346264300,4.666264404296875,0.5747747421264648,0.3338155746459961,-0.8885261416435242
1701713588355858400,4.6758583984375,0.6056455969810486,0.3136720657348633,-0.8693956732749939
1701713588365451800,4.68545166015625,0.5372713208198547,0.33224964141845703,-0.893964946269989
1701713588375046100,4.695046142578125,0.5750337243080139,0.3058319091796875,-0.868990421295166
1701713588384641000,4.70464111328125,0.6750028133392334,0.3516702651977539,-0.9393371939659119
1701713588394235100,4.714235107421875,0.5982505083084106,0.440887451171875,-0.8847696781158447
1701713588403828700,4.723828857421875,0.5509531497955322,0.4777660369873047,-0.7318043112754822
1701713588413422800,4.7334228515625,0.5601685047149658,0.5053529739379883,-0.7216203808784485
1701713588423018000,4.74301806640625,0.6262339353561401,0.4684925079345703,-0.40361452102661133
1701713588432612000,4.752612060546875,0.6221562623977661,0.41489410400390625,-0.09959173202514648
1701713588442205400,4.762205322265625,0.640596330165863,0.3325672149658203,0.05653512477874756
1701713588451799800,4.7717998046875,0.6719316840171814,0.19279098510742188,0.16740131378173828
1701713588461394700,4.781394775390625,0.9436861872673035,0.24873733520507812,0.3974989652633667
1701713588470988800,4.79098876953125,0.8212529420852661,0.2610187530517578,0.4689671993255615
1701713588480582400,4.80058251953125,0.7675666809082031,0.3204984664916992,0.5206841230392456
1701713588490176500,4.810176513671875,0.9281952381134033,0.3267488479614258,0.6266629099845886
1701713588499771600,4.819771728515625,0.8872750401496887,0.38255882263183594,0.6908203959465027
1701713588509365800,4.82936572265625,0.8626854419708252,0.49011707305908203,0.8508248925209045
1701713588518959000,4.838958984375,0.7678082585334778,0.6730690002441406,0.9308660626411438
1701713588528553500,4.848553466796875,0.5733935236930847,0.8021469116210938,0.9868732690811157
1701713588538148400,4.8581484375,-0.15934514999389648,0.8015813827514648,0.7245651483535767
1701713588547742500,4.867742431640625,0.029816627502441406,0.6407766342163086,0.6729167699813843
1701713588557336000,4.877336181640625,1.0047407150268555,0.1757974624633789,1.3023805618286133
1701713588566930200,4.88693017578125,1.035344123840332,-0.28227710723876953,1.118251085281372
1701713588576525300,4.896525390625,0.29220908880233765,-0.8448820114135742,0.5251483917236328
1701713588586119400,4.906119384765625,-0.014376223087310791,-1.5235671997070312,0.7340641021728516
1701713588595712800,4.915712646484375,-0.21585261821746826,-2.026754379272461,0.9903055429458618
1701713588605307100,4.92530712890625,-0.6146907210350037,-2.290271759033203,1.1435376405715942
1701713588614902000,4.934902099609375,-0.6840943694114685,-2.410067558288574,1.1092603206634521
1701713588624496000,4.94449609375,-0.28508317470550537,-2.3793506622314453,0.9254140853881836
1701713588634089500,4.95408935546875,0.3081483840942383,-2.0862865447998047,0.7463825941085815
1701713588643683800,4.963683837890625,-0.12334859371185303,-1.7148609161376953,0.4927995502948761
1701713588653279000,4.973279052734375,-0.33595705032348633,-1.4820823669433594,0.46089816093444824
1701713588662873000,4.982873046875,-0.3217400908470154,-1.365865707397461,0.2421179711818695
1701713588672466400,4.992466552734375,-0.07904362678527832,-1.3396472930908203,-0.020490944385528564
1701713588682060800,5.002060791015625,0.278369665145874,-1.4248285293579102,-0.25394555926322937
1701713588691655700,5.01165576171875,0.40387964248657227,-1.3465032577514648,-0.6138826012611389
1701713588701249800,5.021249755859375,0.1670525074005127,-1.4274587631225586,-0.6204320192337036
1701713588710843100,5.030843017578125,0.471807599067688,-1.5099382400512695,-0.9070822596549988
1701713588720437500,5.0404375,0.5314127206802368,-1.4222230911254883,-1.235710859298706
1701713588730032400,5.050032470703125,0.5068056583404541,-1.3465213775634766,-1.33224356174469
1701713588739626500,5.05962646484375,0.5481839179992676,-1.1396102905273438,-1.4466291666030884
1701713588749220000,5.06922021484375,0.28700709342956543,-1.4729623794555664,-1.7129724025726318
1701713588758814200,5.078814208984375,0.8749427795410156,-1.3831958770751953,-1.2028039693832397
1701713588768409300,5.088409423828125,0.7903196811676025,-0.9860544204711914,-1.1099047660827637
1701713588778003500,5.09800341796875,1.0579726696014404,-0.5021429061889648,-0.9103927612304688
1701713588787596800,5.1075966796875,1.3711588382720947,0.2257223129272461,-0.784743070602417
1701713588797191200,5.117191162109375,1.4752838611602783,1.0466279983520508,-0.545412540435791
1701713588806786000,5.1267861328125,1.255502462387085,1.5068111419677734,-0.45635807514190674
1701713588816380200,5.136380126953125,1.403008222579956,2.1063852310180664,-0.4003775119781494
1701713588825973800,5.145973876953125,1.3709839582443237,2.5276598930358887,-0.6164430975914001
1701713588835567900,5.15556787109375,1.3171876668930054,2.9407873153686523,-0.9372236132621765
1701713588845163000,5.1651630859375,1.6202452182769775,2.975532054901123,-1.094163179397583
1701713588854757000,5.174757080078125,1.8154364824295044,2.7831501960754395,-1.203414797782898
1701713588864350500,5.1843505859375,1.8576048612594604,2.4093828201293945,-1.180073857307434
1701713588873944600,5.193944580078125,1.8452848196029663,2.289158344268799,-1.0449262857437134
1701713588883539700,5.203539794921875,1.188003420829773,2.357455253601074,-0.8955522775650024
1701713588893133800,5.2131337890625,1.4501755237579346,2.114396572113037,-0.852807343006134
1701713588902727400,5.2227275390625,1.1449120044708252,1.9643092155456543,-0.4297370910644531
1701713588912321500,5.232321533203125,0.006991386413574219,1.9148430824279785,-0.27963098883628845
1701713588921916700,5.241916748046875,-0.7867811322212219,1.9973950386047363,0.17201881110668182
1701713588931510800,5.2515107421875,-1.592195749282837,1.9613714218139648,0.20156270265579224
1701713588941104000,5.261104248046875,-1.2536672353744507,1.7540278434753418,0.6653720140457153
1701713588950698200,5.2706982421875,-0.9406512975692749,1.2057199478149414,1.2123154401779175
1701713588960293400,5.28029345703125,-1.5694881677627563,0.53302001953125,0.9924267530441284
1701713588969887500,5.289887451171875,-1.901562213897705,0.7500171661376953,0.22395867109298706
1701713588979480800,5.299480712890625,-2.017329692840576,1.7160167694091797,-0.5206708908081055
1701713588989075200,5.3090751953125,-0.7848535180091858,3.515998363494873,-0.5137364864349365
1701713588998670300,5.31867041015625,-0.5299540162086487,2.649651527404785,-0.6502627730369568
1701713589008264400,5.328264404296875,0.4334617853164673,3.2854552268981934,-1.4620161056518555
1701713589017857800,5.33785791015625,1.7115092277526855,3.5175442695617676,-1.4728810787200928
1701713589027452000,5.347451904296875,1.1567991971969604,1.6517000198364258,-1.2073023319244385
1701713589037047000,5.357047119140625,1.2100346088409424,-0.9032878875732422,-0.33569860458374023
1701713589046641200,5.36664111328125,1.3281527757644653,-1.7746858596801758,0.2643512487411499
1701713589056234500,5.376234375,0.32410234212875366,-2.0907773971557617,-0.15716016292572021
1701713589065828900,5.385828857421875,1.1270356178283691,-1.112595558166504,-0.059835195541381836
1701713589075423700,5.395423828125,0.41822630167007446,-0.9539165496826172,-0.6034557819366455
1701713589085018000,5.40501806640625,0.35813623666763306,-0.506439208984375,-0.4671170711517334
1701713589094611500,5.414611572265625,-0.17883634567260742,0.2009134292602539,-0.4359976053237915
1701713589104205600,5.42420556640625,-0.9390932321548462,-0.019680023193359375,-0.47297239303588867
1701713589113800700,5.43380078125,-1.4134457111358643,-0.672393798828125,-0.2156328558921814
1701713589123394800,5.443394775390625,-2.0197150707244873,-0.9090614318847656,0.08035838603973389
1701713589132988200,5.45298828125,-2.0441784858703613,-1.6584234237670898,0.6344319581985474
1701713589142582500,5.46258251953125,-1.9780925512313843,-1.1387662887573242,1.112728238105774
1701713589152177400,5.472177490234375,-1.4343335628509521,-0.7129230499267578,1.4650964736938477
1701713589161771500,5.481771484375,-1.2690908908843994,-0.3331642150878906,1.51947021484375
1701713589171365000,5.491365234375,-1.4060755968093872,-0.3674745559692383,1.7029824256896973
1701713589180959200,5.500959228515625,-1.6278493404388428,-0.9421157836914062,1.9422348737716675
1701713589190554400,5.510554443359375,-1.7323102951049805,-1.6169013977050781,2.3261258602142334
1701713589200148500,5.5201484375,-1.8367983102798462,-2.205765724182129,2.525330066680908
1701713589209741800,5.529741943359375,-1.468774676322937,-2.3327598571777344,2.2264437675476074
1701713589219336200,5.539336181640625,-0.7134954929351807,-2.7568607330322266,2.2230992317199707
1701713589228931000,5.54893115234375,-0.14962995052337646,-3.1151294708251953,2.050924301147461
1701713589238525200,5.558525146484375,0.14016222953796387,-3.089174270629883,1.760047197341919
1701713589248118800,5.568118896484375,-0.006031394004821777,-2.8401384353637695,1.6305158138275146
1701713589257713000,5.577712890625,-0.3310103416442871,-2.6034889221191406,1.623204231262207
1701713589267308000,5.58730810546875,-0.4961278438568115,-2.4253082275390625,1.632810354232788
1701713589276902100,5.596902099609375,-0.5120096206665039,-2.3491897583007812,1.5837647914886475
1701713589286495500,5.60649560546875,-0.4279906749725342,-2.3419437408447266,1.4828553199768066
1701713589296089900,5.61608984375,-0.29500675201416016,-2.3271074295043945,1.3870742321014404
1701713589305684700,5.625684814453125,-0.1215052604675293,-2.1847572326660156,1.1707582473754883
1701713589315278800,5.63527880859375,-0.029150009155273438,-1.8670196533203125,1.1775462627410889
1701713589324872400,5.64487255859375,0.06733870506286621,-1.391855239868164,0.9711306095123291
1701713589334466600,5.654466552734375,0.16577959060668945,-0.9588174819946289,0.6725783348083496
1701713589344061400,5.6640615234375,0.05301380157470703,-0.6181316375732422,0.6260960102081299
1701713589353655800,5.67365576171875,-0.17141294479370117,-0.15230464935302734,0.5374219417572021
1701713589363249200,5.683249267578125,-0.32142019271850586,0.2402334213256836,0.3817126750946045
1701713589372843500,5.692843505859375,-0.5006752014160156,0.4642791748046875,0.5137960910797119
1701713589382438400,5.7024384765625,-0.18479418754577637,0.64630126953125,0.2859663963317871
1701713589392032500,5.712032470703125,-0.11188745498657227,0.7329654693603516,0.31394433975219727
1701713589401626000,5.721626220703125,0.08981013298034668,0.8431644439697266,0.10623550415039062
1701713589411220200,5.73122021484375,-0.3457937240600586,0.6789569854736328,0.5835494995117188
1701713589420815000,5.740815185546875,-0.3620278835296631,0.820624828338623,0.37789297103881836
1701713589430409500,5.750409423828125,-0.40380239486694336,0.899599552154541,0.25969457626342773
1701713589440002800,5.7600029296875,-0.41501426696777344,0.9564180374145508,0.17400836944580078
1701713589449597200,5.76959716796875,-0.20008611679077148,0.9848003387451172,-0.16003799438476562
1701713589459192000,5.779192138671875,-0.7237124443054199,0.7773747444152832,0.3148975372314453
1701713589468786200,5.7887861328125,-0.6157522201538086,0.8598146438598633,0.2038712501525879
1701713589478379500,5.798379638671875,-0.5581197738647461,0.8016147613525391,0.12976884841918945
1701713589487974000,5.807973876953125,-0.38034534454345703,0.8424553871154785,0.07027673721313477
1701713589497568800,5.81756884765625,-0.3110976219177246,0.8828248977661133,0.0063762664794921875
1701713589507163100,5.8271630859375,-0.26738548278808594,0.9804530143737793,0.15497922897338867
1701713589516756500,5.836756591796875,-0.3014402389526367,1.0735931396484375,0.25365734100341797
1701713589526350800,5.846350830078125,-0.27020978927612305,1.011713981628418,0.3899822235107422
1701713589535945700,5.85594580078125,-0.2141561508178711,0.856813907623291,0.4365105628967285
1701713589545539800,5.865539794921875,-0.21441936492919922,0.6677131652832031,0.5563621520996094
1701713589555133200,5.87513330078125,-0.22835588455200195,0.470034122467041,0.5111584663391113
1701713589564727600,5.8847275390625,-0.1149740219116211,0.2958030700683594,0.4269442558288574
1701713589574322400,5.894322509765625,0.01649332046508789,0.08807373046875,0.28856945037841797
1701713589583916500,5.90391650390625,-0.25441598892211914,0.0867767333984375,0.3661494255065918
1701713589593510100,5.91351025390625,-0.5608525276184082,0.0397491455078125,0.4863004684448242
1701713589603104300,5.923104248046875,-0.6926398277282715,0.16816234588623047,0.5207743644714355
1701713589612699400,5.932699462890625,-0.781829833984375,0.31258106231689453,0.49730634689331055
1701713589622293500,5.94229345703125,-0.639714241027832,0.12474298477172852,0.34144067764282227
1701713589631886800,5.951886962890625,-0.7009835243225098,0.24559402465820312,0.4170393943786621
1701713589641481200,5.961481201171875,-0.5697751045227051,0.27679443359375,0.22736597061157227
1701713589651076000,5.971076171875,-0.6765942573547363,0.03827810287475586,0.4374117851257324
1701713589660670200,5.980670166015625,-0.6496372222900391,-0.006008148193359375,0.18021678924560547
1701713589670263800,5.990263916015625,-0.5863003730773926,-0.06642484664916992,0.18405961990356445
1701713589679858000,5.99985791015625,-0.5812816619873047,-0.024247169494628906,0.07319211959838867
1701713589689453000,6.009453125,-0.552405834197998,0.06717967987060547,0.04135274887084961
1701713589699047200,6.019047119140625,-0.3353276252746582,0.19881010055541992,-0.1763162612915039
1701713589708640500,6.028640625,-0.15531349182128906,0.28759098052978516,-0.3161907196044922
1701713589718235000,6.03823486328125,0.2903413772583008,0.34439802169799805,-0.7596879005432129
1701713589727829800,6.047829833984375,-0.07872343063354492,0.2752399444580078,-0.35732460021972656
1701713589737424000,6.057423828125,0.1604595184326172,0.24318599700927734,-0.4886960983276367
1701713589747017500,6.067017578125,0.1808457374572754,0.19267797470092773,-0.4718313217163086
1701713589756611600,6.076611572265625,0.019896507263183594,0.11723661422729492,-0.2868218421936035
1701713589766206700,6.086206787109375,0.024027347564697266,0.06711292266845703,-0.1850738525390625
1701713589775800800,6.09580078125,0.05351829528808594,0.11215066909790039,-0.2403273582458496
1701713589785394200,6.105394287109375,0.055292606353759766,0.07060050964355469,-0.19474029541015625
1701713589794988300,6.11498828125,0.08105134963989258,0.024038314819335938,-0.10654211044311523
1701713589804583400,6.12458349609375,0.1087045669555664,0.015581607818603516,-0.08606386184692383
1701713589814177500,6.134177490234375,0.10400533676147461,-0.003917217254638672,-0.08954191207885742
1701713589823771100,6.143771240234375,0.32054853439331055,-0.055858612060546875,-0.27648210525512695
1701713589833365200,6.153365234375,-0.000713348388671875,-0.11355876922607422,-0.08693647384643555
1701713589842960400,6.16296044921875,0.0802617073059082,-0.11210203170776367,-0.13965415954589844
1701713589852554500,6.172554443359375,0.12520599365234375,-0.034122467041015625,-0.2517523765563965
1701713589862147800,6.18214794921875,0.11595964431762695,0.0032486915588378906,-0.19313669204711914
1701713589871742200,6.1917421875,0.10904788970947266,0.06159782409667969,-0.15628385543823242
1701713589881337000,6.201337158203125,0.10938072204589844,0.10550642013549805,-0.1473522186279297
1701713589890931200,6.21093115234375,0.07872772216796875,0.13787412643432617,-0.14945602416992188
1701713589900524500,6.220524658203125,0.031607627868652344,0.16378211975097656,-0.09168863296508789
1701713589910119000,6.230118896484375,-0.024409770965576172,0.17355775833129883,0.06238746643066406
1701713589919713800,6.2397138671875,-0.026415348052978516,0.1322765350341797,0.12688732147216797
1701713589929308200,6.24930810546875,-0.013125896453857422,0.07870197296142578,0.12463235855102539
1701713589938901500,6.258901611328125,0.04045295715332031,0.0511322021484375,0.14841985702514648
1701713589948495600,6.26849560546875,0.1708240509033203,0.0429234504699707,0.012386798858642578
1701713589958090800,6.2780908203125,0.22877073287963867,0.040955543518066406,0.11850261688232422
1701713589967684900,6.287684814453125,0.21291589736938477,0.055863380432128906,0.2752408981323242
1701713589977278200,6.2972783203125,0.3228178024291992,0.09460878372192383,0.14826536178588867
1701713589986872600,6.30687255859375,0.21788787841796875,0.12328910827636719,0.20121145248413086
1701713589996467500,6.316467529296875,0.28368043899536133,0.11182880401611328,0.08605527877807617
1701713590006061800,6.326061767578125,0.31281137466430664,0.10116100311279297,0.027465343475341797
1701713590015655200,6.3356552734375,0.2759099006652832,0.10509490966796875,0.04828214645385742
1701713590025249300,6.345249267578125,0.20496273040771484,0.06875848770141602,0.09506988525390625
1701713590034844400,6.354844482421875,0.13129186630249023,0.03254222869873047,0.11066913604736328
1701713590044438500,6.3644384765625,0.07596349716186523,0.029342174530029297,0.12360906600952148
1701713590054032000,6.374031982421875,0.03875923156738281,0.053781986236572266,0.12681198120117188
1701713590063626200,6.383626220703125,0.005191802978515625,0.07256412506103516,0.09463357925415039
1701713590073221000,6.39322119140625,-0.0013470649719238281,0.10250473022460938,0.06083345413208008
1701713590082815500,6.4028154296875,-0.007415294647216797,0.08232975006103516,0.008899688720703125
1701713590092408800,6.412408935546875,0.0056476593017578125,0.07426214218139648,-0.027848243713378906
1701713590102003000,6.4220029296875,0.0186767578125,0.04526376724243164,-0.056591033935546875
1701713590111598000,6.43159814453125,0.03642845153808594,0.04047346115112305,-0.08440351486206055
1701713590121192200,6.441192138671875,0.03992938995361328,0.021636486053466797,-0.13277530670166016
1701713590130785500,6.45078564453125,-0.012871265411376953,-0.0017771720886230469,-0.17089319229125977
1701713590140380000,6.4603798828125,-0.017572879791259766,-0.02739858627319336,-0.1944131851196289
1701713590149974800,6.469974853515625,-0.010241031646728516,-0.03394317626953125,-0.22700119018554688
1701713590159569000,6.47956884765625,-0.0032105445861816406,-0.037966251373291016,-0.24266958236694336
1701713590169162500,6.48916259765625,0.02254199981689453,-0.0369725227355957,-0.23187971115112305
1701713590178756600,6.498756591796875,0.02615213394165039,-0.03798866271972656,-0.20957183837890625
1701713590188351700,6.508351806640625,0.010854721069335938,-0.04357337951660156,-0.1710209846496582
1701713590197945900,6.51794580078125,-0.049040794372558594,-0.0538334846496582,-0.13330698013305664
1701713590207539200,6.527539306640625,-0.07445716857910156,-0.055048465728759766,-0.10578680038452148
1701713590217133300,6.53713330078125,-0.08031797409057617,-0.04718923568725586,-0.07181024551391602
1701713590226728400,6.546728515625,-0.025325775146484375,-0.027631282806396484,-0.027002811431884766
1701713590236322600,6.556322509765625,0.012012481689453125,0.010311126708984375,0.004882335662841797
1701713590245916200,6.565916259765625,0.03674745559692383,0.056975364685058594,0.012412071228027344
1701713590255510300,6.57551025390625,0.039144039154052734,0.08656072616577148,0.03578662872314453
1701713590265105400,6.58510546875,0.03389549255371094,0.12512636184692383,0.0559539794921875
1701713590274699500,6.594699462890625,0.019047260284423828,0.11837625503540039,0.08265447616577148
1701713590284292900,6.60429296875,-0.0030164718627929688,0.12549638748168945,0.11513519287109375
1701713590293887000,6.613886962890625,-0.15695476531982422,0.3001070022583008,0.3327193260192871
1701713590303482000,6.623482177734375,0.10495615005493164,0.046425819396972656,-0.10561084747314453
1701713590313076200,6.633076171875,-0.00693511962890625,0.004938602447509766,0.13309144973754883
1701713590322669800,6.642669921875,-0.02024221420288086,0.037489891052246094,0.12126779556274414
1701713590332264000,6.652263916015625,-0.00024509429931640625,0.053078651428222656,0.10277414321899414
1701713590341859000,6.661859130859375,0.009952068328857422,0.032970428466796875,0.09852027893066406
1701713590351453200,6.671453125,0.01058816909790039,0.01989126205444336,0.0750889778137207
1701713590361046500,6.681046630859375,0.04619312286376953,-0.0026378631591796875,0.039653778076171875
1701713590370640600,6.690640625,0.06256866455078125,-0.004099369049072266,-0.0050029754638671875
1701713590380235800,6.70023583984375,0.05316972732543945,-0.029758453369140625,-0.04933786392211914
1701713590389830000,6.709829833984375,0.07948780059814453,-0.06490373611450195,-0.11446714401245117
1701713590399423500,6.719423583984375,0.08225822448730469,-0.0998983383178711,-0.17389249801635742
1701713590409017600,6.729017578125,0.060272216796875,-0.15189695358276367,-0.18775558471679688
1701713590418612500,6.738612548828125,0.027420997619628906,-0.2380218505859375,-0.17266845703125
1701713590428206800,6.748206787109375,-0.21576356887817383,-0.05009031295776367,0.12422513961791992
1701713590437800200,6.75780029296875,0.12342548370361328,-0.33306455612182617,-0.30457639694213867
1701713590447394600,6.76739453125,0.019964218139648438,-0.3984699249267578,-0.1972489356994629
1701713590456989400,6.776989501953125,-0.019365310668945312,-0.3771858215332031,-0.24997568130493164
1701713590466583600,6.78658349609375,0.011185646057128906,-0.24513912200927734,-0.19707632064819336
1701713590476177200,6.79617724609375,-0.027162551879882812,-0.10442543029785156,-0.20026159286499023
1701713590485771300,6.805771240234375,0.26287174224853516,-0.09383201599121094,-0.7705168724060059
1701713590495366100,6.8153662109375,-0.06549072265625,-0.05666637420654297,-0.03725290298461914
1701713590504960500,6.82496044921875,-0.1073904037475586,0.14863109588623047,0.15149402618408203
1701713590514553900,6.834553955078125,-0.09125804901123047,0.052748680114746094,-0.11517858505249023
1701713590524148200,6.844148193359375,-0.020139694213867188,-0.023984432220458984,-0.18894290924072266
1701713590533743000,6.8537431640625,0.0852060317993164,-0.09989118576049805,-0.08487367630004883
1701713590543337200,6.863337158203125,-0.05449485778808594,0.009808063507080078,0.15179729461669922
1701713590552930600,6.8729306640625,-0.023151397705078125,0.0006165504455566406,0.11153697967529297
1701713590562525000,6.88252490234375,0.05151557922363281,-0.00217437744140625,0.06350040435791016
1701713590572119800,6.892119873046875,0.15201091766357422,0.061211585998535156,-0.18441438674926758
1701713590581714200,6.901714111328125,0.1268448829650879,0.12700939178466797,0.24958324432373047
1701713590591307500,6.9113076171875,0.1780848503112793,0.22589921951293945,0.20762872695922852
1701713590600902000,6.92090185546875,0.15405893325805664,0.27003955841064453,0.22504520416259766
1701713590610496800,6.930496826171875,0.12430620193481445,0.24164485931396484,0.1950550079345703
1701713590620091000,6.9400908203125,0.0846719741821289,0.20359563827514648,0.15233230590820312
1701713590629684200,6.949684326171875,0.04710865020751953,0.1327834129333496,0.07148075103759766
1701713590639278600,6.959278564453125,0.04992198944091797,0.05718088150024414,0.04705238342285156
1701713590648873500,6.96887353515625,0.030766010284423828,0.004856109619140625,0.004395008087158203
1701713590658467600,6.978467529296875,0.07213830947875977,-0.041123390197753906,-0.09418725967407227
1701713590668061200,6.988061279296875,0.06963968276977539,-0.04809856414794922,-0.1512618064880371
1701713590677655300,6.9976552734375,0.07625484466552734,-0.061513423919677734,-0.22129297256469727
1701713590687250400,7.00725048828125,0.059065818786621094,-0.041173458099365234,-0.26614999771118164
1701713590696844500,7.016844482421875,0.037839412689208984,-0.030006885528564453,-0.2716083526611328
1701713590706438000,7.02643798828125,-0.02737903594970703,-0.011121749877929688,-0.26630258560180664
1701713590716032300,7.0360322265625,-0.07679510116577148,0.005750179290771484,-0.20568370819091797
1701713590725627100,7.045627197265625,-0.12694120407104492,0.06505775451660156,-0.1496601104736328
1701713590735221200,7.05522119140625,-0.13334035873413086,0.08604669570922852,-0.10076618194580078
1701713590744814800,7.06481494140625,-0.10162687301635742,0.11153507232666016,-0.012192726135253906
1701713590754409000,7.074408935546875,-0.0635075569152832,0.1345081329345703,0.05622577667236328
1701713590764004000,7.084004150390625,-0.017003536224365234,0.14323043823242188,0.09985542297363281
1701713590773598200,7.09359814453125,0.009630203247070312,0.1518721580505371,0.1355133056640625
1701713590783191600,7.103191650390625,0.07530403137207031,0.1582655906677246,0.16797256469726562
1701713590792786000,7.112785888671875,0.1278371810913086,0.14832401275634766,0.1575150489807129
1701713590802380800,7.122380859375,0.15573596954345703,0.15540313720703125,0.1380023956298828
1701713590811975200,7.13197509765625,0.15738582611083984,0.13919734954833984,0.12166833877563477
1701713590821568500,7.141568603515625,0.12636327743530273,0.12586545944213867,0.11793804168701172
1701713590831162600,7.15116259765625,0.058583736419677734,0.08921432495117188,0.1287689208984375
1701713590840757800,7.1607578125,-0.01022195816040039,0.05533599853515625,0.11115694046020508
1701713590850351900,7.170351806640625,-0.04727029800415039,0.05237102508544922,0.11476469039916992
1701713590859945200,7.1799453125,-0.081207275390625,0.039721012115478516,0.11575937271118164
1701713590869539600,7.18953955078125,-0.08181381225585938,0.012898445129394531,0.11628293991088867
1701713590879134500,7.199134521484375,-0.07991647720336914,0.012166023254394531,0.10018777847290039
1701713590888728600,7.208728515625,-0.03372049331665039,0.009281635284423828,0.08417892456054688
1701713590898322200,7.218322265625,0.004440784454345703,0.0325322151184082,0.04725503921508789
1701713590907916300,7.227916259765625,0.03685283660888672,0.06296968460083008,0.006386756896972656
1701713590917511400,7.237511474609375,0.06367826461791992,0.06980419158935547,-0.026595115661621094
1701713590927105500,7.24710546875,0.06644821166992188,0.06488370895385742,-0.014222145080566406
1701713590936699000,7.256698974609375,0.0617823600769043,0.03421592712402344,-0.02584075927734375
1701713590946293200,7.266293212890625,0.047916412353515625,0.0015826225280761719,-0.0466761589050293
1701713590955888000,7.27588818359375,0.03421926498413086,-0.030568599700927734,-0.04609966278076172
1701713590965482200,7.285482177734375,0.03030109405517578,-0.059891700744628906,-0.05253267288208008
1701713590975075800,7.295075927734375,0.029198646545410156,-0.0652470588684082,-0.03971290588378906
1701713590984670000,7.304669921875,0.014317512512207031,-0.0588078498840332,-0.036280155181884766
1701713590994265000,7.31426513671875,0.0025091171264648438,-0.05507850646972656,-0.028009414672851562
1701713591003859200,7.323859130859375,0.0005173683166503906,-0.05631065368652344,-0.0363621711730957
1701713591013452500,7.33345263671875,0.02001476287841797,-0.03881263732910156,-0.0350341796875
1701713591023047000,7.343046875,0.02525472640991211,-0.038089752197265625,-0.042964935302734375
1701713591032641800,7.352641845703125,0.03066730499267578,-0.02803182601928711,-0.022338390350341797
1701713591042236000,7.36223583984375,0.03578376770019531,-0.025278091430664062,-0.0023293495178222656
1701713591051829500,7.37182958984375,0.03381538391113281,-0.020416259765625,0.017197132110595703
1701713591061423600,7.381423583984375,0.03423023223876953,-0.020477771759033203,0.02448415756225586
1701713591071018800,7.391018798828125,0.02522134780883789,-0.011317729949951172,0.007902145385742188
1701713591080612900,7.40061279296875,0.02066659927368164,-0.0020618438720703125,-0.013236045837402344
1701713591090206200,7.410206298828125,0.01598834991455078,0.009391307830810547,-0.013027191162109375
1701713591099800600,7.419800537109375,0.02255868911743164,0.0019378662109375,-0.02504110336303711
1701713591109395500,7.4293955078125,0.014563560485839844,-0.01716470718383789,-0.05129718780517578
1701713591118989600,7.438989501953125,0.006506443023681641,-0.050074100494384766,-0.07259416580200195
1701713591128583200,7.448583251953125,0.0033631324768066406,-0.06379175186157227,-0.08424949645996094
1701713591138177300,7.45817724609375,-0.025548934936523438,-0.08453035354614258,-0.08406400680541992
1701713591147772400,7.4677724609375,-0.030229568481445312,-0.08385324478149414,-0.0979318618774414
1701713591157366500,7.477366455078125,-0.04128456115722656,-0.0670781135559082,-0.09254264831542969
1701713591166959900,7.4869599609375,-0.02336597442626953,-0.0556025505065918,-0.05645132064819336
1701713591176554200,7.49655419921875,-0.002521038055419922,-0.030628681182861328,-0.037067413330078125
1701713591186149000,7.506149169921875,-0.01175689697265625,-0.02756500244140625,0.0036907196044921875
1701713591195743200,7.5157431640625,0.0037064552307128906,-0.027405738830566406,0.05597686767578125
1701713591205336800,7.5253369140625,-0.0038318634033203125,0.0031723976135253906,0.06794357299804688
1701713591214931000,7.534930908203125,0.01967906951904297,0.038397789001464844,0.07813501358032227
1701713591224526000,7.544526123046875,0.08085060119628906,0.07087039947509766,0.09343528747558594
1701713591234120200,7.5541201171875,0.042322635650634766,0.09090089797973633,0.11324548721313477
1701713591243713500,7.563713623046875,0.08904027938842773,0.11090803146362305,0.10466432571411133
1701713591253308000,7.573307861328125,0.11560440063476562,0.1286005973815918,0.10551881790161133
1701713591262902800,7.58290283203125,0.1224222183227539,0.12035131454467773,0.10146379470825195
1701713591272497000,7.592496826171875,0.08151054382324219,0.11000776290893555,0.12299108505249023
1701713591282090500,7.602090576171875,0.062273502349853516,0.0830984115600586,0.11780881881713867
1701713591291684600,7.6116845703125,0.024261951446533203,0.011579036712646484,0.10976839065551758
1701713591301279700,7.62127978515625,0.017689228057861328,-0.045075416564941406,0.09216833114624023
1701713591310873900,7.630873779296875,0.030455589294433594,-0.009359359741210938,0.09132146835327148
1701713591320467200,7.64046728515625,0.0289459228515625,-0.042644500732421875,0.038619041442871094
1701713591330061600,7.6500615234375,0.0507969856262207,-0.011628150939941406,-0.010854244232177734
1701713591339656400,7.659656494140625,0.05331134796142578,0.023702144622802734,-0.045382022857666016
1701713591349250600,7.66925048828125,0.053354740142822266,0.04221820831298828,-0.06972312927246094
1701713591358844200,7.67884423828125,0.060184478759765625,0.060871124267578125,-0.08874988555908203
1701713591368438300,7.688438232421875,0.07369375228881836,0.07024574279785156,-0.07193803787231445
1701713591378033400,7.698033447265625,0.07709598541259766,0.08004426956176758,-0.07408332824707031
1701713591387627500,7.70762744140625,0.05428028106689453,0.09706640243530273,-0.03844404220581055
1701713591397220900,7.717220947265625,0.02955770492553711,0.10465049743652344,0.04166984558105469
1701713591406815200,7.726815185546875,0.012309074401855469,0.10059738159179688,0.07128095626831055
1701713591416410000,7.73641015625,0.009136676788330078,0.05697298049926758,0.10047197341918945
1701713591426004200,7.746004150390625,-0.0036725997924804688,0.030934810638427734,0.11753559112548828
1701713591435597800,7.755597900390625,-0.04727935791015625,-0.0038385391235351562,0.14830541610717773
1701713591445192000,7.76519189453125,-0.055179595947265625,0.013623714447021484,0.14984798431396484
1701713591454787000,7.774787109375,-0.03738212585449219,0.004634857177734375,0.14135313034057617
1701713591464381200,7.784381103515625,-0.031978607177734375,0.0025968551635742188,0.07826709747314453
1701713591473974500,7.793974609375,-0.02928018569946289,0.014587879180908203,-0.007696628570556641
1701713591483569000,7.80356884765625,-0.07848119735717773,0.031025409698486328,-0.04997825622558594
1701713591493163800,7.813163818359375,-0.08919572830200195,0.061443328857421875,-0.11260795593261719
1701713591502758000,7.8227578125,-0.11130189895629883,0.08455705642700195,-0.16666173934936523
1701713591512351500,7.8323515625,-0.13506555557250977,0.07229995727539062,-0.20032262802124023
1701713591521945600,7.841945556640625,-0.1626110076904297,0.07457494735717773,-0.20209074020385742
1701713591531540700,7.851540771484375,-0.18203210830688477,0.013000011444091797,-0.15406131744384766
1701713591541134800,7.861134765625,-0.1826190948486328,-0.007721424102783203,-0.13324260711669922
1701713591550728200,7.870728271484375,-0.17881250381469727,-0.02371501922607422,-0.11578035354614258
1701713591560322600,7.880322509765625,-0.1473407745361328,-0.061020851135253906,-0.0877542495727539
1701713591569917400,7.88991748046875,-0.11449909210205078,-0.03433990478515625,-0.1102895736694336
1701713591579511600,7.899511474609375,-0.07782602310180664,0.0012459754943847656,-0.15638494491577148
1701713591589105200,7.909105224609375,-0.060927391052246094,0.0553288459777832,-0.18293285369873047
1701713591598699300,7.91869921875,-0.07753372192382812,0.0805807113647461,-0.21131658554077148
1701713591608294400,7.92829443359375,-0.08444356918334961,0.07029485702514648,-0.23195743560791016
1701713591617888500,7.937888427734375,-0.07725000381469727,0.04650402069091797,-0.1954188346862793
1701713591627481900,7.94748193359375,-0.08175945281982422,0.04239320755004883,-0.17060518264770508
1701713591637076000,7.957075927734375,-0.07193899154663086,0.024611949920654297,-0.12448358535766602
1701713591646671000,7.966671142578125,-0.1330280303955078,-0.030537128448486328,-0.029806137084960938
1701713591656265200,7.97626513671875,-0.1463179588317871,-0.07586002349853516,0.041272640228271484
1701713591665858800,7.98585888671875,-0.12463665008544922,-0.15179920196533203,0.0650787353515625
1701713591675453000,7.995452880859375,-0.07530355453491211,-0.22049999237060547,0.0541539192199707
1701713591685048000,8.005048095703126,-0.008078575134277344,-0.30804967880249023,0.05620622634887695
1701713591694642200,8.01464208984375,0.04201555252075195,-0.35324573516845703,0.052426815032958984
1701713591704235500,8.024235595703125,0.129852294921875,-0.32770872116088867,-0.028759002685546875
1701713591713830000,8.033829833984376,0.32593822479248047,-0.24374675750732422,-0.17077016830444336
1701713591723424800,8.0434248046875,0.25953197479248047,-0.10748291015625,-0.12992000579833984
1701713591733019100,8.05301904296875,0.33702993392944336,0.013159751892089844,-0.21691179275512695
1701713591742612500,8.062612548828126,0.2940030097961426,0.1493058204650879,-0.16872262954711914
1701713591752206600,8.07220654296875,0.24690008163452148,0.2538013458251953,-0.11307144165039062
1701713591761801700,8.0818017578125,0.19284677505493164,0.3153343200683594,-0.020124435424804688
1701713591771395800,8.091395751953126,0.11287212371826172,0.31298112869262695,0.08993864059448242
1701713591780989200,8.1009892578125,0.04514741897583008,0.24532508850097656,0.16262245178222656
1701713591790583600,8.11058349609375,-0.0050830841064453125,0.1458439826965332,0.19632244110107422
1701713591800178400,8.120178466796874,-0.03333282470703125,0.12297630310058594,0.18900012969970703
1701713591809772500,8.1297724609375,-0.03971529006958008,0.05937528610229492,0.1808629035949707
1701713591819366100,8.1393662109375,-0.020040035247802734,-0.08614778518676758,0.15582561492919922
1701713591828960300,8.148960205078126,0.03197622299194336,-0.1918497085571289,0.14947032928466797
1701713591838555400,8.158555419921875,0.06856918334960938,-0.22053813934326172,0.2109847068786621
1701713591848149500,8.1681494140625,0.005251407623291016,-0.11483478546142578,0.23074674606323242
1701713591857742800,8.177742919921876,-0.016674041748046875,-0.0046787261962890625,0.216644287109375
1701713591867337200,8.187337158203125,-0.021621227264404297,0.02733135223388672,0.18070602416992188
1701713591876932000,8.19693212890625,-0.03608512878417969,0.00846099853515625,0.165435791015625
1701713591886526500,8.2065263671875,-0.04663372039794922,-0.009776115417480469,0.07912015914916992
1701713591896119800,8.216119873046875,0.0036377906799316406,-0.07223749160766602,0.01979970932006836
1701713591905714000,8.2257138671875,-0.0813441276550293,-0.013903141021728516,0.06216239929199219
1701713591915309000,8.23530908203125,-0.061636924743652344,0.06549787521362305,-0.020370960235595703
1701713591924903200,8.244903076171875,-0.038204193115234375,0.17822504043579102,-0.13572978973388672
1701713591934496500,8.25449658203125,0.022167682647705078,0.35706520080566406,-0.22851943969726562
1701713591944091000,8.2640908203125,0.05495738983154297,0.4671058654785156,-0.2543315887451172
1701713591953685800,8.273685791015625,-0.0006480216979980469,0.44572973251342773,-0.2639884948730469
1701713591963280000,8.28327978515625,-0.09118890762329102,0.32088708877563477,-0.17059707641601562
1701713591972873500,8.29287353515625,-0.14231395721435547,0.19005107879638672,-0.034749507904052734
1701713591982467600,8.302467529296875,-0.18697309494018555,0.12514781951904297,0.08816242218017578
1701713591992062700,8.312062744140626,-0.2224435806274414,0.1262826919555664,0.18114852905273438
1701713592001656800,8.32165673828125,-0.2089090347290039,0.11415481567382812,0.18761730194091797
1701713592011250200,8.331250244140625,-0.1547083854675293,0.07479238510131836,0.17204999923706055
1701713592020844500,8.340844482421875,-0.0562129020690918,0.0019054412841796875,0.14180707931518555
1701713592030439400,8.350439453125,0.030887603759765625,-0.03936004638671875,0.11624383926391602
1701713592040033800,8.36003369140625,0.05020904541015625,-0.04882526397705078,0.12184619903564453
1701713592049627100,8.369627197265626,0.010408878326416016,-0.045848846435546875,0.13737010955810547
1701713592059221200,8.37922119140625,-0.08272600173950195,-0.17265748977661133,0.18312740325927734
1701713592068816400,8.38881640625,-0.21380996704101562,-0.28259754180908203,0.17739248275756836
1701713592078410500,8.398410400390626,-0.2808241844177246,-0.40567922592163086,0.14551067352294922
1701713592088003800,8.40800390625,-0.19134807586669922,-0.5537862777709961,0.12691307067871094
1701713592097598200,8.41759814453125,-0.0007581710815429688,-0.6194205284118652,-0.0008025169372558594
1701713592107193000,8.427193115234376,0.18803739547729492,-0.5951004028320312,-0.18212652206420898
1701713592116787500,8.436787353515625,0.28402280807495117,-0.5141205787658691,-0.33884763717651367
1701713592126380800,8.446380859375,0.310732364654541,-0.39815521240234375,-0.4559822082519531
1701713592135975200,8.45597509765625,0.3002142906188965,-0.2713198661804199,-0.48680925369262695
1701713592145570000,8.465570068359375,0.2999305725097656,-0.10553932189941406,-0.47773218154907227
1701713592155164200,8.4751640625,0.29030275344848633,0.07028675079345703,-0.39937448501586914
1701713592164757500,8.484757568359376,0.22380781173706055,0.2869749069213867,-0.28838682174682617
1701713592174352000,8.494351806640625,0.20079851150512695,0.39291858673095703,-0.2298126220703125
1701713592183946800,8.50394677734375,-0.004970073699951172,0.4171872138977051,-0.060944557189941406
1701713592193541000,8.513541015625,-0.07285833358764648,0.31202077865600586,-0.03069591522216797
1701713592203134500,8.523134521484375,-0.14211750030517578,0.16909551620483398,0.034758567810058594
1701713592212728600,8.532728515625,-0.16414880752563477,0.05966663360595703,0.08688592910766602
1701713592222323700,8.54232373046875,-0.1543254852294922,-0.03578615188598633,0.14885377883911133
1701713592231917800,8.551917724609375,-0.12291765213012695,-0.02110147476196289,0.16118669509887695
1701713592241511400,8.561511474609375,-0.10774850845336914,0.014394760131835938,0.15040206909179688
1701713592251105500,8.57110546875,-0.08683347702026367,0.023203372955322266,0.16207408905029297
1701713592260700400,8.580700439453125,-0.09949016571044922,0.024604320526123047,0.09304046630859375
1701713592270294800,8.590294677734375,-0.06891489028930664,0.0545496940612793,0.0520329475402832
1701713592279888100,8.59988818359375,0.00017690658569335938,0.17180490493774414,0.02322244644165039
1701713592289482500,8.609482421875,-0.2269120216369629,0.2514796257019043,0.17271137237548828
1701713592299077400,8.619077392578125,-0.27510738372802734,0.3081998825073242,0.2094874382019043
1701713592308671500,8.62867138671875,-0.3253769874572754,0.2641429901123047,0.25824689865112305
1701713592318264800,8.638264892578125,-0.2350144386291504,0.02871847152709961,0.3315105438232422
1701713592327859200,8.647859130859375,-0.12683773040771484,-0.11729001998901367,0.36234426498413086
1701713592337454300,8.657454345703124,0.05067873001098633,-0.18906259536743164,0.23660993576049805
1701713592347048400,8.66704833984375,0.20647907257080078,-0.2395033836364746,0.0602259635925293
1701713592356641800,8.676641845703125,0.4598388671875,-0.8459811210632324,0.27753782272338867
1701713592366236000,8.68623583984375,0.3726673126220703,0.12427330017089844,-0.592681884765625
1701713592375831000,8.6958310546875,0.095794677734375,0.2511405944824219,-0.43508243560791016
1701713592385425200,8.705425048828126,0.17889070510864258,0.03670978546142578,-0.29680395126342773
1701713592395018800,8.715018798828124,-0.19341325759887695,0.06035137176513672,-0.14261960983276367
1701713592404612900,8.72461279296875,-0.4082045555114746,-0.08006906509399414,0.0529170036315918
1701713592414207700,8.734207763671876,0.2778921127319336,-0.0044155120849609375,-0.2799983024597168
1701713592423802000,8.743802001953124,0.18262958526611328,0.0902872085571289,-0.14214658737182617
1701713592433395500,8.7533955078125,0.2636423110961914,0.13760852813720703,-0.1576685905456543
1701713592442989800,8.76298974609375,0.15158557891845703,0.10314607620239258,-0.05698251724243164
1701713592452584700,8.772584716796874,0.08751583099365234,0.06726646423339844,0.02277374267578125
1701713592462178800,8.7821787109375,0.19186782836914062,0.2068023681640625,-0.23675918579101562
1701713592471772400,8.7917724609375,-0.15795183181762695,-0.05895853042602539,0.1758589744567871
1701713592481366500,8.801366455078124,-0.1554117202758789,-0.11757850646972656,0.13729000091552734
1701713592490961700,8.810961669921875,-0.11811542510986328,-0.03148031234741211,0.061186790466308594
1701713592500555800,8.8205556640625,-0.12404823303222656,0.022479534149169922,0.09173727035522461
1701713592510149000,8.830149169921874,-0.09084653854370117,0.08135986328125,0.14293479919433594
1701713592519743200,8.8397431640625,-0.10120296478271484,0.06362342834472656,0.18758010864257812
1701713592529338400,8.84933837890625,-0.12517929077148438,0.06534433364868164,0.2203812599182129
1701713592538932500,8.858932373046875,-0.17955446243286133,0.10993003845214844,0.23415565490722656
1701713592548526000,8.868526123046875,-0.2284250259399414,0.13704442977905273,0.2449812889099121
1701713592558120200,8.8781201171875,-0.32960939407348633,-0.07373523712158203,0.3673520088195801
1701713592567715300,8.88771533203125,-0.1436777114868164,-0.32244110107421875,0.3053555488586426
1701713592577309400,8.897309326171875,0.1001286506652832,-0.08359813690185547,0.1742849349975586
1701713592586902800,8.90690283203125,0.1770915985107422,-0.0915532112121582,-0.016469478607177734
1701713592596497200,8.9164970703125,0.25395917892456055,-0.034544944763183594,-0.1567702293395996
1701713592606092000,8.926092041015625,0.33036327362060547,0.05740976333618164,-0.3661642074584961
1701713592615686100,8.93568603515625,0.1769733428955078,0.07556438446044922,-0.43717050552368164
1701713592625279700,8.94527978515625,-0.0032792091369628906,0.08114337921142578,-0.4756126403808594
1701713592634873900,8.954873779296875,-0.14580202102661133,0.05367612838745117,-0.4575161933898926
1701713592644469000,8.964468994140624,-0.14893436431884766,0.01235818862915039,-0.47006654739379883
1701713592654063000,8.97406298828125,-0.1736617088317871,-0.014408588409423828,-0.26183271408081055
1701713592663656400,8.983656494140625,-0.10501575469970703,0.012142181396484375,-0.2736983299255371
1701713592673250800,8.993250732421876,0.026803970336914062,-0.08135128021240234,-0.18511343002319336
1701713592682845700,9.002845703125,-0.0505223274230957,-0.1163797378540039,-0.17963123321533203
1701713592692439800,9.012439697265625,-0.2064194679260254,-0.04482316970825195,-0.1316056251525879
1701713592702033400,9.022033447265626,-0.2831888198852539,0.016232013702392578,-0.02904510498046875
1701713592711627500,9.03162744140625,-0.1516876220703125,-0.05813169479370117,-0.018179893493652344
1701713592721222700,9.04122265625,-0.04331207275390625,-0.1163797378540039,0.035794734954833984
1701713592730816800,9.050816650390624,0.012330055236816406,-0.0842595100402832,0.07553577423095703
1701713592740410000,9.06041015625,-0.005097389221191406,-0.05438709259033203,0.10671138763427734
1701713592750004500,9.07000439453125,-0.03219413757324219,-0.06445789337158203,0.11389350891113281
1701713592759599400,9.079599365234374,0.06861495971679688,-0.07678079605102539,-0.024738311767578125
1701713592769193500,9.089193359375,-0.18163347244262695,0.07828998565673828,0.0026993751525878906
1701713592778787000,9.098787109375,-0.06658506393432617,0.3006143569946289,-0.2479863166809082
1701713592788381200,9.108381103515624,0.2608494758605957,0.1435084342956543,0.07394886016845703
1701713592797976300,9.117976318359375,0.3136920928955078,0.08768177032470703,0.2224593162536621
1701713592807570400,9.1275703125,0.32029294967651367,-0.10543012619018555,0.3027615547180176
1701713592817163800,9.137163818359374,0.223236083984375,-0.14198923110961914,0.18219757080078125
1701713592826758100,9.146758056640625,0.059145450592041016,0.06335210800170898,-0.09312009811401367
1701713592836353000,9.15635302734375,-0.05878448486328125,0.15555477142333984,-0.20656108856201172
1701713592845947100,9.165947021484374,-0.11690282821655273,0.1826176643371582,-0.18755626678466797
1701713592855540700,9.175540771484375,-0.10785245895385742,0.3119029998779297,-0.1886439323425293
1701713592865134800,9.185134765625,-0.06975746154785156,0.22138452529907227,-0.0394134521484375
1701713592874730000,9.19472998046875,-0.09924793243408203,0.27163124084472656,0.2031092643737793
1701713592884324000,9.204323974609375,-0.006136894226074219,0.18806934356689453,0.1953291893005371
1701713592893917400,9.21391748046875,0.044887542724609375,0.2251901626586914,0.1323080062866211
1701713592903511600,9.223511474609374,0.16903114318847656,-0.009756088256835938,0.18840885162353516
1701713592913106700,9.233106689453125,0.28696298599243164,-0.2584266662597656,0.2642664909362793
1701713592922700800,9.24270068359375,0.29156494140625,-0.5145778656005859,0.41126251220703125
1701713592932294400,9.25229443359375,0.21963930130004883,-0.8153929710388184,0.4233131408691406
1701713592941888500,9.261888427734375,0.030155181884765625,-0.8183765411376953,0.2114715576171875
1701713592951483600,9.271483642578126,-0.278231143951416,-0.07219171524047852,-0.15578508377075195
1701713592961077800,9.281077880859375,-0.32464075088500977,0.16354942321777344,-0.40019941329956055
1701713592970671000,9.290671142578125,-0.33566999435424805,0.16576719284057617,-0.3484320640563965
1701713592980265500,9.300265380859376,-0.24931669235229492,0.18392181396484375,-0.33054542541503906
1701713592989860400,9.3098603515625,-0.14595842361450195,0.2761664390563965,-0.29082822799682617
1701713592999454500,9.319454345703125,-0.02656412124633789,0.1499018669128418,-0.1802511215209961
1701713593009048000,9.329048095703126,0.14489316940307617,0.3563418388366699,-0.09404850006103516
1701713593018642200,9.33864208984375,0.010702133178710938,0.3493194580078125,-0.16178131103515625
1701713593028237300,9.3482373046875,-0.12578344345092773,0.35853147506713867,-0.14370155334472656
1701713593037831400,9.35783154296875,-0.17429876327514648,0.2868080139160156,-0.1115269660949707
1701713593047424800,9.3674248046875,-0.1477060317993164,0.20331859588623047,0.002628326416015625
1701713593057019100,9.37701904296875,-0.008055686950683594,0.006184101104736328,0.05445241928100586
1701713593066614000,9.386614013671876,0.10872888565063477,-0.031227588653564453,-0.03653573989868164
1701713593076208000,9.3962080078125,0.044617652893066406,0.010796546936035156,-0.10846853256225586
1701713593085801700,9.4058017578125,0.16112279891967773,-0.2735323905944824,-0.023983001708984375
1701713593095395800,9.415395751953126,0.07970571517944336,-0.23485755920410156,-0.03751564025878906
1701713593104991000,9.424990966796875,0.07093000411987305,-0.4773530960083008,0.08834457397460938
1701713593114585000,9.434585205078125,-0.08073139190673828,-0.6675677299499512,0.38324880599975586
1701713593124178400,9.444178466796876,-0.2051992416381836,-0.5471601486206055,0.32961463928222656
1701713593133772800,9.453772705078125,-0.12880516052246094,-0.46668148040771484,0.27762699127197266
1701713593143367700,9.46336767578125,-0.044507503509521484,-0.33341121673583984,0.16506528854370117
1701713593152961800,9.4729619140625,-0.0010862350463867188,-0.19755315780639648,0.12571382522583008
1701713593162555100,9.48255517578125,0.085601806640625,-0.04477357864379883,0.05846548080444336
1701713593172149500,9.4921494140625,0.12694978713989258,0.21227455139160156,-0.12121295928955078
1701713593181744600,9.50174462890625,0.25206613540649414,0.25246572494506836,-0.2917346954345703
1701713593191338800,9.5113388671875,0.21251296997070312,0.2908511161804199,-0.26054954528808594
1701713593200932000,9.52093212890625,-0.026008129119873047,0.3025174140930176,-0.09780597686767578
1701713593210526500,9.5305263671875,-0.0870828628540039,0.32323598861694336,-0.0281829833984375
1701713593220121300,9.540121337890625,-0.12779474258422852,0.24978876113891602,0.029372215270996094
1701713593229715500,9.549715576171875,-0.2515687942504883,0.29148006439208984,0.012623786926269531
1701713593239309000,9.55930908203125,-0.2119312286376953,0.3377060890197754,-0.15739202499389648
1701713593248903200,9.568903076171875,-0.21584272384643555,0.2272024154663086,-0.09968328475952148
1701713593258498300,9.578498291015626,-0.05072832107543945,0.07583141326904297,-0.1473989486694336
1701713593268092400,9.588092529296874,-0.030024051666259766,0.12936878204345703,-0.26541566848754883
1701713593277685800,9.597685791015625,0.026997089385986328,0.1779956817626953,-0.2545924186706543
1701713593287279900,9.60727978515625,0.07787418365478516,0.13717269897460938,-0.16822147369384766
1701713593296875000,9.616875,0.06929874420166016,0.20837879180908203,-0.15998601913452148
1701713593306469000,9.62646923828125,0.015040874481201172,0.13028764724731445,0.007295131683349609
1701713593316062700,9.636062744140625,-0.08110332489013672,0.19720077514648438,0.011345386505126953
1701713593325656800,9.64565673828125,-0.05735206604003906,0.11173439025878906,0.10467100143432617
1701713593335251700,9.655251708984375,-0.08455657958984375,0.1442246437072754,0.08570289611816406
1701713593344846000,9.66484619140625,-0.030892372131347656,0.29791259765625,-0.03222179412841797
1701713593354439400,9.674439453125,0.07296419143676758,0.2654132843017578,-0.021772384643554688
1701713593364033500,9.684033447265625,0.13315963745117188,-0.02513885498046875,0.045853614807128906
1701713593373628700,9.693628662109376,0.14546918869018555,-0.18895769119262695,0.15910673141479492
1701713593383222800,9.703222900390625,0.10051202774047852,-0.25443077087402344,0.25720882415771484
1701713593392816000,9.712816162109375,0.10904264450073242,-0.317171573638916,0.2879767417907715
1701713593402410500,9.722410400390626,0.13234329223632812,-0.27103137969970703,0.2620549201965332
1701713593412005400,9.73200537109375,0.1774444580078125,-0.30794191360473633,0.20239019393920898
1701713593421599700,9.741599853515625,0.14260005950927734,-0.30588245391845703,0.1311931610107422
1701713593431193000,9.751193115234376,0.15912437438964844,-0.17349863052368164,-0.037749290466308594
1701713593440787500,9.760787353515624,0.08793163299560547,-0.10670661926269531,-0.043927669525146484
1701713593450382300,9.77038232421875,0.0011954307556152344,-0.0951848030090332,-0.06673812866210938
1701713593459976400,9.7799765625,-0.023317813873291016,0.059105873107910156,-0.02436685562133789
1701713593469569800,9.78956982421875,-0.014514446258544922,-0.03903770446777344,-0.013695716857910156
1701713593479164200,9.7991640625,0.02105426788330078,-0.09876346588134766,0.06041765213012695
1701713593488759000,9.808759033203126,0.01323843002319336,-0.1282186508178711,0.07964515686035156
1701713593498353400,9.818353515625,-0.006163120269775391,-0.17988824844360352,0.08047819137573242
1701713593507946800,9.82794677734375,-0.06088733673095703,-0.2911992073059082,0.16864442825317383
1701713593517540900,9.837540771484376,-0.1140589714050293,-0.2606782913208008,0.14632606506347656
1701713593527136000,9.847135986328125,-0.26129961013793945,-0.4079399108886719,0.308840274810791
1701713593536730000,9.856730224609375,-0.2721405029296875,-0.5982608795166016,0.4440622329711914
1701713593546323500,9.866323486328126,-0.3391990661621094,-0.7962713241577148,0.41792869567871094
1701713593555917800,9.875917724609375,-0.27381181716918945,-0.06327152252197266,-0.15187692642211914
1701713593565512700,9.8855126953125,-0.10821533203125,0.8236575126647949,-0.6494760513305664
1701713593575106800,9.89510693359375,0.016311168670654297,0.6192073822021484,-0.3702430725097656
1701713593584700400,9.904700439453125,0.03918313980102539,0.45223236083984375,-0.1964406967163086
1701713593594294500,9.91429443359375,0.04941558837890625,0.44408178329467773,-0.20897293090820312
1701713593603889700,9.9238896484375,0.15752553939819336,0.43195009231567383,-0.24976873397827148
1701713593613483800,9.93348388671875,0.21433210372924805,0.3195648193359375,-0.18083524703979492
1701713593623077000,9.9430771484375,0.12200260162353516,0.2800636291503906,-0.11016559600830078
1701713593632671500,9.95267138671875,0.17027997970581055,0.194580078125,-0.10360050201416016
1701713593642266400,9.962266357421875,0.0954732894897461,0.22561979293823242,-0.02664804458618164
1701713593651860500,9.971860595703125,0.10910940170288086,0.17049551010131836,0.02698516845703125
1701713593661454000,9.9814541015625,-0.00030040740966796875,0.1309795379638672,0.12924623489379883
1701713593671048200,9.991048095703125,0.033031463623046875,0.1439652442932129,0.08110666275024414
1701713593680643300,10.000643310546875,0.0809469223022461,0.14055442810058594,0.0985860824584961
1701713593690237400,10.010237548828124,0.10869026184082031,0.21429920196533203,0.041708946228027344
1701713593699830800,10.019830810546875,0.1212000846862793,0.32326650619506836,-0.0889286994934082
1701713593709425000,10.0294248046875,0.1195058822631836,0.1777496337890625,-0.008361339569091797
1701713593719020000,10.03902001953125,-0.05026865005493164,0.11323404312133789,0.1815333366394043
1701713593728614100,10.0486142578125,-0.07697677612304688,0.008132457733154297,0.20084333419799805
1701713593738207700,10.058207763671875,-0.18073797225952148,0.06953907012939453,0.16108179092407227
1701713593747801900,10.0678017578125,-0.1852550506591797,-0.009448528289794922,0.12946748733520508
1701713593757397000,10.07739697265625,-0.13474559783935547,-0.012258052825927734,0.11273670196533203
1701713593766991000,10.0869912109375,-0.06950092315673828,-0.020273685455322266,0.08067035675048828
1701713593776584400,10.09658447265625,-0.024628162384033203,-0.035698890686035156,0.0929555892944336
1701713593786178600,10.106178466796875,0.023882389068603516,-0.12660551071166992,0.06665992736816406
1701713593795773700,10.115773681640626,0.16745805740356445,-0.19488811492919922,-0.023532390594482422
1701713593805367800,10.125367919921874,0.1864933967590332,-0.2447504997253418,-0.16536426544189453
1701713593814961200,10.134961181640625,0.0769047737121582,-0.25936079025268555,-0.15624523162841797
1701713593824555500,10.144555419921875,-0.06461000442504883,-0.2773933410644531,-0.11402368545532227
1701713593834150400,10.154150390625,-0.16611480712890625,-0.34182024002075195,-0.048511505126953125
1701713593843744800,10.163744873046875,-0.12338733673095703,-0.4238705635070801,-0.03908061981201172
1701713593853338000,10.173338134765626,-0.15882492065429688,-0.47674083709716797,0.09250640869140625
1701713593862932200,10.18293212890625,-0.11099720001220703,-0.45802783966064453,-0.02010965347290039
1701713593872527400,10.19252734375,-0.09836149215698242,-0.3308143615722656,-0.08454418182373047
1701713593882121500,10.20212158203125,-0.09776926040649414,-0.268373966217041,-0.156341552734375
1701713593891714800,10.21171484375,-0.11684942245483398,-0.2674703598022461,-0.2057795524597168
1701713593901309200,10.22130908203125,-0.1694631576538086,-0.3102741241455078,-0.17646408081054688
1701713593910904000,10.230904052734376,-0.1323704719543457,-0.3538851737976074,-0.10732030868530273
1701713593920498200,10.240498291015625,-0.1216888427734375,-0.2238759994506836,-0.1723155975341797
1701713593930091800,10.250091796875,-0.13219594955444336,-0.14698266983032227,-0.14805126190185547
1701713593939686000,10.259685791015626,-0.1568751335144043,-0.04933643341064453,-0.12820672988891602
1701713593949281000,10.269281005859375,-0.11693096160888672,0.016277790069580078,-0.17139339447021484
1701713593958875100,10.278875244140625,-0.08379030227661133,0.1750478744506836,-0.23641014099121094
1701713593968468500,10.288468505859376,-0.04394197463989258,0.3036012649536133,-0.2735452651977539
1701713593978062800,10.298062744140625,-0.019286632537841797,0.39565467834472656,-0.2505927085876465
1701713593987657700,10.30765771484375,0.0328068733215332,0.45195865631103516,-0.18253278732299805
1701713593997251800,10.317251953125,0.05154275894165039,0.4329686164855957,-0.1541757583618164
1701713594006845400,10.326845458984375,-0.010623931884765625,0.2806062698364258,0.02657938003540039
1701713594016439600,10.336439453125,0.06139993667602539,0.03306770324707031,0.12884855270385742
1701713594026034700,10.34603466796875,-0.008646011352539062,-0.3039412498474121,0.2631258964538574
1701713594035628800,10.35562890625,-0.003414154052734375,-0.12519025802612305,0.2283482551574707
1701713594045222100,10.36522216796875,0.041344642639160156,-0.15404415130615234,0.21280908584594727
1701713594054816500,10.37481640625,0.016675472259521484,-0.23404741287231445,0.24440860748291016
1701713594064411400,10.384411376953125,0.053078651428222656,-0.13339900970458984,0.20947647094726562
1701713594074005500,10.394005615234375,0.03182840347290039,-0.06494331359863281,0.13000106811523438
1701713594083599000,10.40359912109375,-0.006160259246826172,-0.07306528091430664,0.119476318359375
1701713594093193200,10.413193115234375,0.06981515884399414,-0.08602619171142578,0.08562994003295898
1701713594102788400,10.422788330078125,-0.06412649154663086,-0.2884235382080078,0.13187265396118164
1701713594112382500,10.432382568359374,-0.01065969467163086,-0.36362457275390625,0.036550045013427734
1701713594121975800,10.441975830078125,-0.15852832794189453,-0.6141276359558105,-0.015324592590332031
1701713594131570000,10.45156982421875,0.4670729637145996,-0.5780754089355469,0.3489551544189453
1701713594141165000,10.4611650390625,0.2043747901916504,-0.4944019317626953,0.3012380599975586
1701713594150759200,10.47075927734375,0.18703746795654297,-0.34046125411987305,0.2608160972595215
1701713594160352500,10.4803525390625,0.34935569763183594,-0.3735637664794922,0.33361387252807617
1701713594169947000,10.48994677734375,0.0036101341247558594,-0.3172001838684082,0.08307552337646484
1701713594179541800,10.499541748046875,0.20521020889282227,0.019475460052490234,0.3913898468017578
1701713594189136000,10.509135986328126,0.36476707458496094,-0.4323577880859375,0.061707496643066406
1701713594198729500,10.5187294921875,0.13760805130004883,-0.3959488868713379,0.3927135467529297
1701713594208323600,10.528323486328125,0.21407222747802734,-0.3291196823120117,0.25885915756225586
1701713594217918700,10.537918701171876,0.08066940307617188,-0.2882542610168457,0.22634267807006836
1701713594227512800,10.547512939453124,-0.13823890686035156,-0.18525314331054688,0.2642240524291992
1701713594237106200,10.557106201171875,-0.07143545150756836,-0.39571380615234375,0.08178997039794922
1701713594246700500,10.566700439453125,-0.3549327850341797,-1.1128993034362793,-0.643775463104248
1701713594256295400,10.57629541015625,0.04599475860595703,-1.0712127685546875,-0.1993546485900879
1701713594265889500,10.5858896484375,-0.1181941032409668,-0.9465279579162598,-0.3119673728942871
1701713594275483100,10.595483154296875,-0.09863567352294922,-0.6039376258850098,-0.11228609085083008
1701713594285077200,10.6050771484375,-0.2351212501525879,0.1988067626953125,-0.23259353637695312
1701713594294672400,10.61467236328125,-0.6528501510620117,0.7919445037841797,-0.5372085571289062
1701713594304266500,10.6242666015625,-0.7240095138549805,0.9863576889038086,-0.28872108459472656
1701713594313859800,10.63385986328125,-0.156158447265625,0.7276906967163086,-0.1516284942626953
1701713594323454000,10.643453857421875,-0.24285602569580078,0.5038399696350098,-0.1905975341796875
1701713594333049000,10.653049072265626,-0.2701587677001953,0.3964982032775879,-0.20557403564453125
1701713594342643200,10.662643310546875,-0.1079564094543457,0.21225929260253906,-0.1728992462158203
1701713594352236500,10.672236572265625,-0.05214881896972656,0.3351101875305176,-0.20236587524414062
1701713594361831000,10.681830810546876,0.051756858825683594,0.5599813461303711,-0.3876209259033203
1701713594371426000,10.691426025390625,-0.03754758834838867,0.7739677429199219,-0.16837692260742188
1701713594381020200,10.701020263671875,-0.024236202239990234,0.5462565422058105,0.009349346160888672
1701713594390613500,10.710613525390626,-0.1064615249633789,0.535181999206543,-0.04882240295410156
1701713594400208000,10.720207763671874,0.03501558303833008,0.2662167549133301,-0.261777400970459
1701713594409802800,10.729802734375,-0.10969305038452148,-0.05172109603881836,-0.1606602668762207
1701713594419396900,10.73939697265625,0.021570682525634766,-0.16920232772827148,0.020581722259521484
1701713594428990200,10.748990234375,0.0700225830078125,-0.40532779693603516,0.23188066482543945
1701713594438584600,10.75858447265625,0.14459848403930664,-0.5223746299743652,0.13578510284423828
1701713594448179500,10.768179443359376,-0.1442737579345703,-0.5023283958435059,-0.001041412353515625
1701713594457773800,10.77777392578125,-0.26796770095825195,-0.5401945114135742,-0.0004115104675292969
1701713594467367200,10.7873671875,-0.4478874206542969,-1.0693411827087402,0.054351806640625
1701713594476961300,10.796961181640626,-0.3805575370788574,-2.1382694244384766,0.41191625595092773
1701713594486556400,10.806556396484375,-0.31642818450927734,-2.6033849716186523,0.9922170639038086
1701713594496150500,10.816150634765625,1.1952860355377197,-2.4234485626220703,0.9593291282653809
1701713594505744000,10.825743896484376,1.3057403564453125,-1.8883013725280762,0.07935285568237305
1701713594515338200,10.835338134765625,0.5866587162017822,-1.7343378067016602,-0.5580716133117676
1701713594524933000,10.84493310546875,-0.4535043239593506,-1.8399600982666016,-0.12345314025878906
1701713594534527200,10.85452734375,0.2987375259399414,-1.5296831130981445,-0.2044978141784668
1701713594544120800,10.864120849609375,-1.7991225719451904,-1.182985782623291,0.31003904342651367
1701713594553715000,10.87371484375,-0.2075026035308838,-1.4569792747497559,-0.052514076232910156
1701713594563309800,10.883309814453124,-3.158905029296875,-0.5803589820861816,0.4979057312011719
1701713594572904200,10.892904296875,-2.81730318069458,0.6443252563476562,0.461392879486084
1701713594582497500,10.90249755859375,-2.81472110748291,0.7746591567993164,0.3257298469543457
1701713594592091600,10.912091552734376,-2.5880002975463867,-0.025645732879638672,0.5337333679199219
1701713594601686800,10.921686767578125,-0.3641672134399414,-1.2576489448547363,1.0445585250854492
1701713594611281000,10.931281005859375,-0.6370019912719727,-1.726210117340088,2.037379264831543
1701713594620874500,10.94087451171875,-0.8839646577835083,-0.32778120040893555,1.860438346862793
1701713594630468600,10.950468505859375,-0.7646327018737793,0.19922876358032227,1.3123555183410645
1701713594640063500,10.9600634765625,-2.087707996368408,-0.4678926467895508,0.011205196380615234
1701713594649657900,10.969657958984374,-5.4411234855651855,0.2371044158935547,-2.580247402191162
1701713594659251200,10.979251220703125,-0.6329695582389832,2.3042445182800293,-3.690215587615967
1701713594668845300,10.98884521484375,-0.4724939167499542,1.7872395515441895,-3.588221788406372
1701713594678440400,10.9984404296875,-4.651415824890137,1.0432920455932617,-1.1625127792358398
1701713594688034600,11.00803466796875,-8.716621398925781,-1.2185754776000977,1.7961387634277344
1701713594697628000,11.0176279296875,-14.398193359375,-4.351809024810791,11.206632614135742
1701713594707222300,11.02722216796875,-2.4004569053649902,-1.9474186897277832,16.20258331298828
1701713594716817200,11.036817138671875,5.224020957946777,-0.3094959259033203,13.28194808959961
1701713594726411300,11.046411376953126,3.924065589904785,-0.9467625617980957,12.996036529541016
1701713594736004900,11.0560048828125,4.817140102386475,-1.1681461334228516,11.335224151611328
1701713594745599000,11.065598876953125,4.463610649108887,-1.747817039489746,8.498921394348145
1701713594755194000,11.075194091796876,1.5123379230499268,-2.3217477798461914,5.485762596130371
1701713594764788200,11.084788330078124,-1.593497395515442,-2.3033037185668945,3.261852264404297
1701713594774381600,11.094381591796875,-3.7138326168060303,-1.724783182144165,1.5947446823120117
1701713594783976000,11.103975830078125,-4.841107368469238,-0.7619354724884033,0.27853965759277344
1701713594793570800,11.11357080078125,-5.388190269470215,0.023189067840576172,-0.6448802947998047
1701713594803165000,11.1231650390625,-4.741733074188232,1.0014535188674927,-1.3599739074707031
1701713594812758300,11.13275830078125,-3.8652570247650146,1.7786295413970947,-2.1651244163513184
1701713594822352600,11.1423525390625,-3.4309134483337402,1.494991421699524,-2.752793788909912
1701713594831947500,11.151947509765625,-2.7738611698150635,1.1065593957901,-3.128690242767334
1701713594841542000,11.1615419921875,-1.943481683731079,0.9271303415298462,-3.808197498321533
1701713594851135200,11.17113525390625,-1.5965089797973633,0.6299127340316772,-4.202447891235352
1701713594860729300,11.180729248046875,-1.5861902236938477,0.2694685459136963,-4.458156585693359
1701713594870324500,11.190324462890626,-1.545531988143921,0.061889514327049255,-4.997082710266113
1701713594879918600,11.199918701171875,-1.483642816543579,-0.053566157817840576,-5.8441572189331055
1701713594889512000,11.209511962890625,-1.5776667594909668,0.4412122368812561,-6.527472972869873
1701713594899106300,11.219106201171876,-3.3170583248138428,0.15913540124893188,-7.533524990081787
1701713594908701200,11.228701171875,-5.349862098693848,-1.5533686876296997,-8.349268913269043
1701713594918295300,11.23829541015625,-3.6654672622680664,-1.7827861309051514,-9.280515670776367
1701713594927889000,11.247888916015626,-1.1787209510803223,-1.094090461730957,-9.775485038757324
1701713594937483000,11.25748291015625,1.6357860565185547,-0.029688477516174316,-9.978965759277344
1701713594947078100,11.267078125,3.9646759033203125,0.6258779764175415,-9.768901824951172
1701713594956672300,11.27667236328125,3.313656806945801,0.2769327163696289,-8.324912071228027
1701713594966265600,11.286265625,1.3453431129455566,-0.6057915687561035,-6.015204429626465
1701713594975859700,11.295859619140625,1.411064624786377,-0.8007267713546753,-4.431330680847168
1701713594985454800,11.305454833984374,3.1634249687194824,-0.4257166385650635,-3.7606403827667236
1701713594995049000,11.315049072265625,3.7203893661499023,-0.4396519660949707,-2.946789503097534
1701713595004642300,11.324642333984375,2.8236570358276367,-0.8925373554229736,-1.83941650390625
1701713595014236700,11.334236572265626,1.5626749992370605,-1.1633200645446777,-0.8981928825378418
1701713595023831600,11.34383154296875,1.4381322860717773,-0.7397854328155518,-0.2828860282897949
1701713595033425700,11.35342578125,6.019373893737793,-0.5278829336166382,0.020747661590576172
1701713595043019300,11.363019287109376,2.618680000305176,-1.0609909296035767,3.2027335166931152
1701713595052613400,11.37261328125,-0.5368895530700684,-0.5598480701446533,3.40423583984375
1701713595062208500,11.38220849609375,-1.1615486145019531,0.2384779453277588,2.042508602142334
1701713595071802600,11.391802734375,-0.8946633338928223,0.9073500633239746,1.4798669815063477
1701713595081396000,11.40139599609375,1.2517404556274414,0.7378156185150146,0.6426467895507812
1701713595090990300,11.410990234375,3.188490867614746,0.22917747497558594,0.36264944076538086
1701713595100585200,11.420585205078124,3.3104724884033203,-0.29488062858581543,0.07164812088012695
1701713595110179300,11.430179443359375,2.70888614654541,-0.638714075088501,-0.11692380905151367
1701713595119773000,11.43977294921875,2.34200382232666,-1.0566291809082031,0.6536469459533691
1701713595129367000,11.449366943359376,2.2221479415893555,-1.2069525718688965,1.4663877487182617
1701713595138962200,11.458962158203125,1.4949378967285156,-1.1129755973815918,1.8748927116394043
1701713595148556300,11.468556396484376,0.8690299987792969,-1.0848193168640137,2.021585464477539
1701713595158149600,11.478149658203124,0.8169593811035156,-1.4229164123535156,1.7389287948608398
1701713595167744000,11.487743896484375,1.1384820938110352,-1.3757867813110352,1.1272377967834473
1701713595177339000,11.4973388671875,1.152538776397705,-1.100632667541504,0.6896014213562012
1701713595186933000,11.50693310546875,0.6569886207580566,-0.991844892501831,0.4256629943847656
1701713595196526300,11.5165263671875,0.08156824111938477,-1.107285499572754,0.8467342853546143
1701713595206120700,11.52612060546875,-0.3787856101989746,-1.4162681102752686,1.4275238513946533
1701713595215715600,11.535715576171874,-0.7787060737609863,-1.6538937091827393,1.5824673175811768
1701713595225309700,11.545309814453125,-1.0879430770874023,-1.6586861610412598,0.9176948070526123
1701713595234903300,11.5549033203125,-0.22752141952514648,-1.7691974639892578,0.35809898376464844
1701713595244497400,11.564497314453124,1.1211600303649902,-1.9560766220092773,0.2807605266571045
1701713595254092500,11.574092529296875,2.2771387100219727,-2.2745895385742188,0.31326866149902344
1701713595263686700,11.583686767578126,2.9569478034973145,-2.231882095336914,0.6868991851806641
1701713595273280000,11.593280029296874,2.9033918380737305,-2.077709197998047,1.7892062664031982
1701713595282874000,11.6028740234375,2.648069381713867,-3.0188732147216797,2.7008347511291504
1701713595292469200,11.61246923828125,1.378544807434082,-3.4193129539489746,3.2288787364959717
1701713595302063400,11.6220634765625,-0.6975588798522949,-3.0267200469970703,2.9207286834716797
1701713595311656700,11.63165673828125,-3.096506357192993,-2.868891716003418,2.239997625350952
1701713595321251000,11.6412509765625,-4.2855939865112305,-1.7263402938842773,1.0894598960876465
1701713595330846200,11.65084619140625,-4.130279541015625,-0.15006065368652344,0.03332209587097168
1701713595340440300,11.6604404296875,-3.081230878829956,1.2921652793884277,-0.3145747184753418
1701713595350033700,11.67003369140625,-1.522810935974121,1.1065855026245117,0.8521103858947754
1701713595359627800,11.679627685546874,-0.3958306312561035,-0.4030122756958008,2.5263500213623047
1701713595369223000,11.689222900390625,-0.014300823211669922,-1.0492439270019531,2.7692151069641113
1701713595378817000,11.698817138671876,-0.261505126953125,-0.754549503326416,2.128979206085205
1701713595388410400,11.708410400390624,-0.8547682762145996,-0.5917720794677734,1.4238234758377075
1701713595398004700,11.718004638671875,-1.819676399230957,-1.0037875175476074,1.3550351858139038
1701713595407599600,11.727599609375,-2.560737133026123,-1.4697937965393066,1.9107966423034668
1701713595417193700,11.73719384765625,-2.3044896125793457,-1.4620914459228516,2.381831169128418
1701713595426787300,11.746787353515625,-1.8416295051574707,-1.1866836547851562,1.4527947902679443
1701713595436381400,11.75638134765625,-0.6499505043029785,-1.3831138610839844,0.9526325464248657
1701713595445976600,11.7659765625,0.6057186126708984,-0.6146373748779297,-0.4335075914859772
1701713595455570700,11.77557080078125,0.4492335319519043,0.6910490989685059,-2.113286018371582
1701713595465164000,11.7851640625,0.20997381210327148,0.030213356018066406,-2.269233226776123
1701713595474758100,11.794758056640624,0.4573841094970703,-2.3895812034606934,-0.793589174747467
1701713595484353300,11.804353271484375,2.8700718879699707,-3.0959055423736572,0.12922872602939606
1701713595493947400,11.813947509765624,6.064162731170654,-2.004030704498291,0.7816383838653564
1701713595503540700,11.823540771484375,7.383604526519775,-1.6487302780151367,1.7020783424377441
1701713595513135000,11.833135009765625,7.280771255493164,-1.7316455841064453,2.5450875759124756
1701713595522730000,11.84272998046875,5.370728015899658,-1.5579719543457031,2.656675100326538
1701713595532324000,11.852323974609375,1.5326671600341797,-1.111119270324707,1.5629336833953857
1701713595541917700,11.861917724609375,-2.495969772338867,-0.42982006072998047,0.4270372986793518
1701713595551511800,11.87151171875,-5.050131797790527,0.11398696899414062,-0.6282628178596497
1701713595561107000,11.88110693359375,-5.687717914581299,0.22131967544555664,-0.17645658552646637
1701713595570701000,11.890701171875,-4.769145965576172,0.5920686721801758,0.2522851228713989
1701713595580294400,11.90029443359375,-3.523704767227173,0.3639693260192871,-0.028820961713790894
1701713595589888800,11.909888671875,-2.456697463989258,0.8390588760375977,1.2274706363677979
