time,seconds_elapsed,z,y,x
1701713583836985900,0.15698583984375,-0.9211576581001282,0.1632489264011383,-0.47355934977531433
1701713583846580000,0.166580078125,-0.7989882230758667,-0.30343836545944214,-0.49799323081970215
1701713583856175000,0.176175048828125,-0.6365028619766235,-0.846023440361023,-0.41858309507369995
1701713583865769200,0.185769287109375,-0.47646087408065796,-1.3334795236587524,-0.30374380946159363
1701713583875362600,0.195362548828125,-0.3286358118057251,-1.7708462476730347,-0.18768282234668732
1701713583884957000,0.20495703125,-0.16737215220928192,-2.0322887897491455,-0.08261708915233612
1701713583894551800,0.2145517578125,-0.007330167107284069,-2.013963460922241,0.0004581354442052543
1701713583904146200,0.224146240234375,0.12216944992542267,-1.7500773668289185,0.052990999072790146
1701713583913739500,0.233739501953125,0.21379654109477997,-1.3579134941101074,0.08231166750192642
1701713583923334000,0.243333984375,0.25411245226860046,-1.1331216096878052,0.07864658534526825
1701713583932928800,0.2529287109375,0.27976804971694946,-1.0805888175964355,0.05543438717722893
1701713583942523000,0.26252294921875,0.2773246467113495,-1.0793671607971191,0.005344913341104984
1701713583952116500,0.272116455078125,0.15271180868148804,-1.183211088180542,-0.04718795046210289
1701713583961710600,0.281710693359375,-0.046424392610788345,-1.2113101482391357,-0.04963133856654167
1701713583971305700,0.2913056640625,-0.20524467527866364,-1.387234091758728,-0.054518118500709534
1701713583980899800,0.30089990234375,-0.284654825925827,-1.6132476329803467,-0.11682453751564026
1701713583990493200,0.3104931640625,-0.3640649616718292,-1.5888136625289917,-0.18523943424224854
1701713584000087600,0.320087646484375,-0.4434750974178314,-1.3139324188232422,-0.22189027070999146
1701713584009682400,0.329682373046875,-0.4813476502895355,-1.0121738910675049,-0.2573194205760956
1701713584019276800,0.33927685546875,-0.5351021885871887,-0.6615476012229919,-0.284196674823761
1701713584028870100,0.3488701171875,-0.5558710098266602,-0.3608580231666565,-0.2927485406398773
1701713584038464300,0.35846435546875,-0.49356457591056824,-0.12262758612632751,-0.27808821201324463
1701713584048059400,0.368059326171875,-0.3640649616718292,0.056961506605148315,-0.2304421216249466
1701713584057653500,0.377653564453125,-0.2101314514875412,0.14003673195838928,-0.15347537398338318
1701713584067246800,0.387246826171875,-0.061084724962711334,0.056961506605148315,-0.07528692483901978
1701713584076841200,0.39684130859375,0.026877280324697495,-0.10185877978801727,-0.004428642801940441
1701713584086436000,0.40643603515625,0.03665083646774292,-0.2533488869667053,0.06032116711139679
1701713584096030500,0.416030517578125,0.012216945178806782,-0.39506545662879944,0.12995775043964386
1701713584105623800,0.425623779296875,-0.025655584409832954,-0.4587462842464447,0.1898207813501358
1701713584115218200,0.43521826171875,-0.07574506103992462,-0.4709632396697998,0.20936790108680725
1701713584124813000,0.44481298828125,-0.12339114397764206,-0.45385950803756714,0.19226416945457458
1701713584134407200,0.4544072265625,-0.1453816443681717,-0.40728241205215454,0.1629435122013092
1701713584144000800,0.464000732421875,-0.14049486815929413,-0.34008920192718506,0.12629267573356628
1701713584153595000,0.473594970703125,-0.11972606182098389,-0.2655658423900604,0.07742489129304886
1701713584163190000,0.48318994140625,-0.09773556143045425,-0.18615570664405823,0.037108972668647766
1701713584172784000,0.4927841796875,-0.07574506103992462,-0.10552386194467545,0.028557108715176582
1701713584182377500,0.50237744140625,-0.06841489672660828,-0.04810422286391258,0.050547610968351364
1701713584191971800,0.511971923828125,-0.08674030750989914,-0.04932591691613197,0.0859767496585846
1701713584201566700,0.521566650390625,-0.12827792763710022,-0.09086353331804276,0.1238492801785469
1701713584211160800,0.531160888671875,-0.16737215220928192,-0.12995775043964386,0.16050012409687042
1701713584220754400,0.54075439453125,-0.1954711228609085,-0.164165198802948,0.1898207813501358
1701713584230348500,0.5503486328125,-0.2113531529903412,-0.1763821393251419,0.2154763638973236
1701713584239943700,0.559943603515625,-0.21623992919921875,-0.14828316867351532,0.23258009552955627
1701713584249537800,0.569537841796875,-0.21623992919921875,-0.09208522737026215,0.2423536479473114
1701713584259131400,0.57913134765625,-0.20402298867702484,-0.0016798300202935934,0.25945737957954407
1701713584268725500,0.5887255859375,-0.1698155403137207,0.08994726091623306,0.2790044844150543
1701713584278320400,0.5983203125,-0.1453816443681717,0.1632489264011383,0.29977330565452576
1701713584287914800,0.607914794921875,-0.16004198789596558,0.20967331528663635,0.3242071866989136
1701713584297508000,0.617508056640625,-0.21257483959197998,0.2292204350233078,0.3486410677433014
1701713584307102500,0.6271025390625,-0.26755109429359436,0.20356485247612,0.3633013963699341
1701713584316697300,0.636697265625,-0.3042019307613373,0.14858859777450562,0.36696648597717285
1701713584326291500,0.64629150390625,-0.31031039357185364,0.09727742522954941,0.3608580231666565
1701713584335885000,0.655885009765625,-0.28098973631858826,0.056961506605148315,0.3474193811416626
1701713584345479200,0.665479248046875,-0.22479179501533508,0.016645587980747223,0.34375429153442383
1701713584355074300,0.67507421875,-0.16004198789596558,-0.03833066672086716,0.34253260493278503
1701713584364668400,0.68466845703125,-0.1172826737165451,-0.10918894410133362,0.3364241421222687
1701713584374261800,0.69426171875,-0.10017894953489304,-0.18371231853961945,0.33031564950942993
1701713584383856000,0.703856201171875,-0.10017894953489304,-0.24846212565898895,0.3242071866989136
1701713584393451000,0.713450927734375,-0.11483928561210632,-0.2948864996433258,0.31443363428115845
1701713584403045000,0.723045166015625,-0.13927318155765533,-0.29977330565452576,0.2912214398384094
1701713584412638700,0.732638671875,-0.16615045070648193,-0.27533939480781555,0.25212720036506653
1701713584422232800,0.74223291015625,-0.1832541823387146,-0.23380178213119507,0.19592925906181335
1701713584431828000,0.751827880859375,-0.18814095854759216,-0.20814619958400726,0.12751436233520508
1701713584441422000,0.761422119140625,-0.1844758689403534,-0.21181128919124603,0.05543438717722893
1701713584451015400,0.771015380859375,-0.17958909273147583,-0.25945737957954407,-0.009315420873463154
1701713584460609800,0.78060986328125,-0.1710372269153595,-0.34131091833114624,-0.0594048947095871
1701713584470205000,0.790204833984375,-0.16370706260204315,-0.4158342778682709,-0.07650861889123917
1701713584479799000,0.799799072265625,-0.1575985997915268,-0.44042086601257324,-0.054518118500709534
1701713584489392400,0.809392333984375,-0.15515519678592682,-0.4343124032020569,-0.01175880990922451
1701713584498986800,0.81898681640625,-0.16859383881092072,-0.42331716418266296,0.04688252881169319
1701713584508581600,0.82858154296875,-0.19180603325366974,-0.4158342778682709,0.1104106456041336
1701713584518175700,0.83817578125,-0.22723518311977386,-0.4282039403915405,0.16660858690738678
1701713584527769300,0.847769287109375,-0.26877278089523315,-0.4477510452270508,0.21181128919124603
1701713584537363500,0.857363525390625,-0.3164188861846924,-0.4856235682964325,0.2289150059223175
1701713584546958600,0.86695849609375,-0.36162158846855164,-0.5247178077697754,0.21425467729568481
1701713584556552700,0.876552734375,-0.393385648727417,-0.5454866290092468,0.1763821393251419
1701713584566146000,0.88614599609375,-0.41171106696128845,-0.550373375415802,0.12629267573356628
1701713584575740200,0.895740234375,-0.41293275356292725,-0.5442649126052856,0.07498150318861008
1701713584585335300,0.905335205078125,-0.416597843170166,-0.527161180973053,0.04199574887752533
1701713584594929400,0.914929443359375,-0.42881476879119873,-0.47585001587867737,0.03588727489113808
1701713584604523000,0.92452294921875,-0.4434750974178314,-0.42194274067878723,0.052990999072790146
1701713584614117000,0.9341171875,-0.45202696323394775,-0.3877353072166443,0.07620319724082947
1701713584623712300,0.943712158203125,-0.45447036623954773,-0.3742966651916504,0.10063708573579788
1701713584633306400,0.953306396484375,-0.4471401870250702,-0.37796175479888916,0.12262758612632751
1701713584642899700,0.962899658203125,-0.4312581717967987,-0.4011739492416382,0.14217470586299896
1701713584652494000,0.972494140625,-0.41293275356292725,-0.444085955619812,0.14706148207187653
1701713584662089000,0.9820888671875,-0.3958290219306946,-0.49295374751091003,0.1385096162557602
1701713584671683000,0.99168310546875,-0.3787252902984619,-0.5344913601875305,0.12629267573356628
1701713584681276700,1.001276611328125,-0.36162158846855164,-0.5650337338447571,0.11651911586523056
1701713584690870800,1.010870849609375,-0.3555130958557129,-0.5943543910980225,0.11529742181301117
1701713584700466000,1.0204658203125,-0.3640649616718292,-0.6187883019447327,0.12018419802188873
1701713584710060000,1.03006005859375,-0.3836120665073395,-0.6273401379585266,0.11774080991744995
1701713584719653600,1.039653564453125,-0.4080459773540497,-0.6077930331230164,0.10185877978801727
1701713584729247700,1.049247802734375,-0.42637139558792114,-0.5638120174407959,0.06642963737249374
1701713584738842600,1.058842529296875,-0.4324798583984375,-0.5027272701263428,0.016340164467692375
1701713584748437000,1.06843701171875,-0.43614494800567627,-0.42331716418266296,-0.04474456235766411
1701713584758030300,1.0780302734375,-0.43981003761291504,-0.33764582872390747,-0.10460758954286575
1701713584767624700,1.087624755859375,-0.43981003761291504,-0.27289602160453796,-0.14858859777450562
1701713584777219600,1.097219482421875,-0.43858832120895386,-0.22402822971343994,-0.17913095653057098
1701713584786813700,1.106813720703125,-0.4337015450000763,-0.18615570664405823,-0.1913478970527649
1701713584796407300,1.1164072265625,-0.4202629029750824,-0.15927842259407043,-0.18401773273944855
1701713584806001400,1.12600146484375,-0.4080459773540497,-0.16050012409687042,-0.16813570261001587
1701713584815596500,1.135596435546875,-0.41048935055732727,-0.18371231853961945,-0.14614520967006683
1701713584825190700,1.145190673828125,-0.42392799258232117,-0.2032594233751297,-0.11926792562007904
1701713584834784000,1.154783935546875,-0.4422534108161926,-0.21791976690292358,-0.0984991192817688
1701713584844378400,1.16437841796875,-0.448361873626709,-0.2032594233751297,-0.09727742522954941
1701713584853973200,1.17397314453125,-0.43614494800567627,-0.16783028841018677,-0.11560284346342087
1701713584863567400,1.1835673828125,-0.4031592011451721,-0.11896250396966934,-0.14248012006282806
1701713584873161000,1.193160888671875,-0.36284327507019043,-0.06276455521583557,-0.17057909071445465
1701713584882755000,1.202755126953125,-0.32252734899520874,-0.016340164467692375,-0.19501298666000366
1701713584892350200,1.21235009765625,-0.2883199155330658,0.001985253533348441,-0.2047865390777588
1701713584901944300,1.2219443359375,-0.258999228477478,-0.004123218823224306,-0.19623468816280365
1701713584911537700,1.23153759765625,-0.22967857122421265,-0.031000498682260513,-0.16935740411281586
1701713584921132000,1.241132080078125,-0.1979145109653473,-0.08353336155414581,-0.13148486614227295
1701713584930727000,1.250726806640625,-0.16248537600040436,-0.14828316867351532,-0.08872556686401367
1701713584940321300,1.2603212890625,-0.12339114397764206,-0.21181128919124603,-0.0459662564098835
1701713584949914600,1.26991455078125,-0.08796200156211853,-0.2655658423900604,-0.009315420873463154
1701713584959509000,1.279509033203125,-0.05864133685827255,-0.29977330565452576,0.018783552572131157
1701713584969104000,1.289103759765625,-0.03787253051996231,-0.3058817684650421,0.04321744292974472
1701713584978698000,1.298697998046875,-0.030542362481355667,-0.28999972343444824,0.0590994730591774
1701713584988291300,1.308291259765625,-0.04031591862440109,-0.2667875289916992,0.05787777900695801
1701713584997885700,1.3178857421875,-0.0525328628718853,-0.22647161781787872,0.037108972668647766
1701713585007480600,1.32748046875,-0.0525328628718853,-0.1910424828529358,-0.0007635590736754239
1701713585017075000,1.337074951171875,-0.05008947476744652,-0.15316994488239288,-0.04474456235766411
1701713585026668300,1.346668212890625,-0.0390942245721817,-0.07498150318861008,-0.07773031294345856
1701713585036262700,1.3562626953125,-0.023212196305394173,-0.07620319724082947,-0.1119377613067627
1701713585045857500,1.365857421875,-0.01710372418165207,-0.08719844371080399,-0.12171131372451782
1701713585055451600,1.37545166015625,-0.010995250195264816,-0.06887302547693253,-0.10216420143842697
1701713585065045000,1.385044921875,-0.0036650835536420345,-0.04443913698196411,-0.06551336497068405
1701713585074639400,1.394639404296875,0.0012216945178806782,-0.031000498682260513,-0.022754060104489326
1701713585084234500,1.404234375,0,-0.03955236077308655,0.016340164467692375
1701713585093828600,1.41382861328125,-0.0024433890357613564,-0.05787777900695801,0.04688252881169319
1701713585103422000,1.423421875,-0.006108472589403391,-0.06032116711139679,0.07009471952915192
1701713585113016300,1.433016357421875,-0.010995250195264816,-0.04810422286391258,0.08353336155414581
1701713585122611200,1.442611083984375,-0.023212196305394173,-0.03833066672086716,0.07986827939748764
1701713585132205300,1.452205322265625,-0.03665083646774292,-0.034665580838918686,0.06642963737249374
1701713585141799000,1.461798828125,-0.03787253051996231,-0.02367033064365387,0.050547610968351364
1701713585151393000,1.47139306640625,-0.025655584409832954,-0.004123218823224306,0.03588727489113808
1701713585160988200,1.48098828125,-0.01710372418165207,0.009315420873463154,0.02489202655851841
1701713585170582300,1.490582275390625,-0.014660334214568138,0.016645587980747223,0.020005248486995697
1701713585180175600,1.500175537109375,-0.012216945178806782,0.023975754156708717,0.02733541466295719
1701713585189770000,1.50977001953125,-0.008551862090826035,0.02886253222823143,0.04321744292974472
1701713585199364900,1.51936474609375,0.0024433890357613564,0.03008422814309597,0.05787777900695801
1701713585208959000,1.528958984375,0.021990500390529633,0.012980503961443901,0.06154286116361618
1701713585218552600,1.538552490234375,0.043981000781059265,-0.02244863659143448,0.05421269312500954
1701713585228146700,1.548146728515625,0.05741964280605316,-0.06276455521583557,0.04077405482530594
1701713585237741800,1.557741943359375,0.05864133685827255,-0.09697200357913971,0.021226942539215088
1701713585247336000,1.5673359375,0.05375456064939499,-0.11651911586523056,0.0004581354442052543
1701713585256929300,1.57692919921875,0.045202698558568954,-0.11774080991744995,-0.019088976085186005
1701713585266523600,1.586523681640625,0.03787253051996231,-0.09575030952692032,-0.03497100621461868
1701713585276118500,1.596118408203125,0.04031591862440109,-0.05421269312500954,-0.04230117425322533
1701713585285712600,1.605712646484375,0.05008947476744652,-0.016340164467692375,-0.04718795046210289
1701713585295306200,1.61530615234375,0.0647498071193695,0.001985253533348441,-0.058183200657367706
1701713585304900400,1.624900390625,0.08063183724880219,0.0032069480512291193,-0.06795676052570343
1701713585314495500,1.63449560546875,0.09407047927379608,0.009315420873463154,-0.06917845457792282
1701713585324089600,1.644089599609375,0.09895725548267365,0.012980503961443901,-0.06551336497068405
1701713585333683000,1.653682861328125,0.09529217332601547,-0.0029015245381742716,-0.06551336497068405
1701713585343277300,1.66327734375,0.0794101431965828,-0.021226942539215088,-0.06551336497068405
1701713585352872200,1.6728720703125,0.0659715011715889,-0.018783552572131157,-0.06551336497068405
1701713585362466300,1.68246630859375,0.06719319522380829,0.009315420873463154,-0.0716218426823616
1701713585372060000,1.692059814453125,0.07452336698770523,0.04352286830544472,-0.08261708915233612
1701713585381654000,1.701654052734375,0.08918370306491852,0.07040014863014221,-0.09361234307289124
1701713585391249200,1.711249267578125,0.10628741979598999,0.10216420143842697,-0.0984991192817688
1701713585400843300,1.72084326171875,0.12583453953266144,0.13392825424671173,-0.09116895496845245
1701713585410436600,1.7304365234375,0.14171656966209412,0.13270656764507294,-0.08383878320455551
1701713585420031000,1.740031005859375,0.15149012207984924,0.0984991192817688,-0.08139539510011673
1701713585429625900,1.7496259765625,0.16126367449760437,0.06917845457792282,-0.07650861889123917
1701713585439220200,1.75922021484375,0.16859383881092072,0.04840964451432228,-0.072843536734581
1701713585448813600,1.7688134765625,0.16615045070648193,0.0325276181101799,-0.0716218426823616
1701713585458408000,1.778407958984375,0.15393351018428802,0.02886253222823143,-0.0716218426823616
1701713585468002800,1.7880029296875,0.13560809195041656,0.04230117425322533,-0.072843536734581
1701713585477597000,1.797596923828125,0.11972606182098389,0.058183200657367706,-0.07650861889123917
1701713585487190300,1.807190185546875,0.10995250940322876,0.06551336497068405,-0.09116895496845245
1701713585496784600,1.81678466796875,0.11117420345544815,0.06673506647348404,-0.12048961967229843
1701713585506379800,1.8263798828125,0.12216944992542267,0.07040014863014221,-0.15714046359062195
1701713585515974000,1.835973876953125,0.1441599577665329,0.08994726091623306,-0.19256959855556488
1701713585525567200,1.845567138671875,0.1588202863931656,0.10705098509788513,-0.2157817929983139
1701713585535161600,1.85516162109375,0.16492876410484314,0.11438114941120148,-0.2292204350233078
1701713585544756500,1.864756591796875,0.16737215220928192,0.10460758954286575,-0.22311195731163025
1701713585554350600,1.8743505859375,0.15515519678592682,0.08750387281179428,-0.20356485247612
1701713585563944200,1.883944091796875,0.14171656966209412,0.07528692483901978,-0.16813570261001587
1701713585573538300,1.893538330078125,0.129499614238739,0.06551336497068405,-0.12659808993339539
1701713585583133200,1.90313330078125,0.11606097966432571,0.04840964451432228,-0.09116895496845245
1701713585592727600,1.9127275390625,0.10995250940322876,0.025197450071573257,-0.0716218426823616
1701713585602321000,1.92232080078125,0.11239589750766754,-0.004123218823224306,-0.06795676052570343
1701713585611915300,1.931915283203125,0.11972606182098389,-0.02244863659143448,-0.07773031294345856
1701713585621510100,1.94151025390625,0.1319430023431778,-0.02489202655851841,-0.09483403712511063
1701713585631104300,1.951104248046875,0.129499614238739,-0.011453386396169662,-0.10705098509788513
1701713585640697600,1.960697509765625,0.11483928561210632,0.025197450071573257,-0.10582929104566574
1701713585650292000,1.9702919921875,0.09407047927379608,0.07528692483901978,-0.09972081333398819
1701713585659887000,1.97988720703125,0.07330167293548584,0.11560284346342087,-0.09605573117733002
1701713585669481200,1.989481201171875,0.05619794875383377,0.13026317954063416,-0.09972081333398819
1701713585679074600,1.999074462890625,0.046424392610788345,0.1375933438539505,-0.09972081333398819
1701713585688668700,2.008668701171875,0.04031591862440109,0.1375933438539505,-0.0984991192817688
1701713585698263800,2.018263916015625,0.03665083646774292,0.12293300777673721,-0.09727742522954941
1701713585707858000,2.02785791015625,0.03542914241552353,0.09972081333398819,-0.09727742522954941
1701713585717451500,2.037451416015625,0.03298575058579445,0.07406523078680038,-0.09727742522954941
1701713585727045600,2.047045654296875,0.026877280324697495,0.055739812552928925,-0.09239064902067184
1701713585736640800,2.056640869140625,0.02076880633831024,0.0459662564098835,-0.08383878320455551
1701713585746235000,2.06623486328125,0.009773556143045425,0.04718795046210289,-0.06429167091846466
1701713585755828200,2.075828125,0.004886778071522713,0.07040014863014221,-0.0325276181101799
1701713585765422600,2.085422607421875,0.012216945178806782,0.07528692483901978,-0.001985253533348441
1701713585775017500,2.095017578125,0.03176405653357506,0.056961506605148315,0.009009997360408306
1701713585784611600,2.104611572265625,0.05864133685827255,0.02641914412379265,-0.005650337319821119
1701713585794205200,2.114205078125,0.09407047927379608,0.015423892997205257,-0.04352286830544472
1701713585803799300,2.12379931640625,0.12216944992542267,0.03374931216239929,-0.08383878320455551
1701713585813394400,2.13339453125,0.13438639044761658,0.06429167091846466,-0.11560284346342087
1701713585822988500,2.142988525390625,0.13560809195041656,0.08017370104789734,-0.14248012006282806
1701713585832582000,2.152581787109375,0.129499614238739,0.08872556686401367,-0.16691401600837708
1701713585842176300,2.16217626953125,0.12339114397764206,0.10705098509788513,-0.18279604613780975
1701713585851771100,2.171771240234375,0.11972606182098389,0.12781979143619537,-0.1889045089483261
1701713585861365200,2.181365234375,0.10995250940322876,0.13514995574951172,-0.18646112084388733
1701713585870958800,2.190958740234375,0.0916270911693573,0.12659808993339539,-0.18035265803337097
1701713585880553000,2.200552978515625,0.07330167293548584,0.1107160672545433,-0.17424418032169342
1701713585890148000,2.210148193359375,0.05864133685827255,0.10338589549064636,-0.16813570261001587
1701713585899742200,2.2197421875,0.045202698558568954,0.10705098509788513,-0.15958385169506073
1701713585909335600,2.22933544921875,0.03298575058579445,0.10949437320232391,-0.15347537398338318
1701713585918930000,2.238929931640625,0.023212196305394173,0.10094250738620758,-0.1498102843761444
1701713585928524800,2.24852490234375,0.013438640162348747,0.08628217875957489,-0.14614520967006683
1701713585938119000,2.258118896484375,0.007330167107284069,0.08017370104789734,-0.14003673195838928
1701713585947712500,2.26771240234375,0.010995250195264816,0.09605573117733002,-0.13392825424671173
1701713585957306600,2.277306640625,0.024433890357613564,0.12781979143619537,-0.13026317954063416
1701713585966901800,2.28690185546875,0.042759306728839874,0.15469707548618317,-0.12293300777673721
1701713585976495900,2.296495849609375,0.05864133685827255,0.1620272397994995,-0.11315945535898209
1701713585986089200,2.306089111328125,0.06841489672660828,0.14736689627170563,-0.0984991192817688
1701713585995683600,2.31568359375,0.0781884491443634,0.1375933438539505,-0.07040014863014221
1701713586005278500,2.325278564453125,0.07452336698770523,0.13270656764507294,-0.021532366052269936
1701713586014872600,2.33487255859375,0.04031591862440109,0.0850604772567749,0.04688252881169319
1701713586024466200,2.344466064453125,0.025655584409832954,0.08628217875957489,0.13484452664852142
1701713586034060300,2.354060302734375,0.06963659077882767,0.17057909071445465,0.20936790108680725
1701713586043655400,2.363655517578125,0.1453816443681717,0.2536543309688568,0.2289150059223175
1701713586053249500,2.37324951171875,0.22967857122421265,0.2573194205760956,0.1898207813501358
1701713586062843000,2.3828427734375,0.3029802441596985,0.15836215019226074,0.12629267573356628
1701713586072437000,2.39243701171875,0.2980934679508209,-0.007788302376866341,0.06520794332027435
1701713586082032000,2.4020322265625,0.25533416867256165,-0.10185877978801727,0.0456608310341835
1701713586091626200,2.411626220703125,0.23090025782585144,-0.16172181069850922,0.013896775431931019
1701713586101219800,2.4212197265625,0.21379654109477997,-0.2411319613456726,-0.06795676052570343
1701713586110814000,2.43081396484375,0.2089097648859024,-0.30221667885780334,-0.17302247881889343
1701713586120409000,2.4404091796875,0.19302773475646973,-0.33886751532554626,-0.2573194205760956
1701713586130003200,2.450003173828125,0.17225892841815948,-0.38162681460380554,-0.29885703325271606
1701713586139596500,2.459596435546875,0.17592400312423706,-0.46851983666419983,-0.2915268540382385
1701713586149191000,2.46919091796875,0.21746163070201874,-0.6041279435157776,-0.2304421216249466
1701713586158785800,2.478785888671875,0.284654825925827,-0.7605048418045044,-0.12293300777673721
1701713586168380000,2.4883798828125,0.40071579813957214,-0.9559759497642517,-0.0068720318377017975
1701713586177973500,2.497973388671875,0.7733326554298401,-1.373795509338379,-0.0068720318377017975
1701713586187567600,2.507567626953125,1.0066763162612915,-1.6902143955230713,-0.039857782423496246
1701713586197162800,2.517162841796875,0.8942803740501404,-1.7525207996368408,-0.039857782423496246
1701713586206756900,2.5267568359375,0.7110261917114258,-1.6816625595092773,-0.010537114925682545
1701713586216350200,2.53635009765625,0.6096255779266357,-1.5875920057296753,0.029778804630041122
1701713586225944600,2.545944580078125,0.5741963982582092,-1.6156909465789795,0.08353336155414581
1701713586235539500,2.55553955078125,0.6597150564193726,-1.7085397243499756,0.1495048701763153
1701713586245133600,2.565133544921875,0.8441908955574036,-1.69387948513031,0.2276933193206787
1701713586254727200,2.57472705078125,1.060430884361267,-1.5607147216796875,0.32787227630615234
1701713586264321300,2.5843212890625,1.2705622911453247,-1.4031161069869995,0.45737189054489136
1701713586273916400,2.59391650390625,1.4489296674728394,-1.294385313987732,0.6175665855407715
1701713586283510500,2.603510498046875,1.5979764461517334,-1.3078240156173706,0.8240329623222351
1701713586293103900,2.613103759765625,1.7580183744430542,-1.3896775245666504,1.0769237279891968
1701713586302698200,2.6226982421875,1.9143953323364258,-1.4776395559310913,1.3481398820877075
1701713586312293000,2.632293212890625,2.0695505142211914,-1.6547852754592896,1.6364598274230957
1701713586321887200,2.64188720703125,2.195384979248047,-1.8759119510650635,1.9162278175354004
1701713586331480600,2.65148046875,2.282125473022461,-1.9443268775939941,2.141019582748413
1701713586341075000,2.661074951171875,2.363978862762451,-1.8319308757781982,2.2876229286193848
1701713586350670000,2.670670166015625,2.4898133277893066,-1.5985872745513916,2.3499293327331543
1701713586360264200,2.68026416015625,2.6852846145629883,-1.2846118211746216,2.3206088542938232
1701713586369857500,2.689857421875,2.9760477542877197,-1.0280559062957764,2.2204298973083496
1701713586379452000,2.699451904296875,3.343777894973755,-0.9926267862319946,2.0958168506622314
1701713586389046800,2.709046875,3.7127296924591064,-1.1868761777877808,1.9956380128860474
1701713586398641000,2.718640869140625,4.0340352058410645,-1.5875920057296753,1.9455485343933105
1701713586408234200,2.728234130859375,4.268753528594971,-2.0848217010498047,1.9638739824295044
1701713586417828600,2.73782861328125,4.433681964874268,-2.4403347969055176,2.0555009841918945
1701713586427423500,2.747423583984375,4.594945907592773,-2.606485366821289,2.2167646884918213
1701713586437017900,2.757017822265625,4.811185836791992,-2.6858954429626465,2.4110140800476074
1701713586446611200,2.766611083984375,5.086067199707031,-2.7897393703460693,2.6015985012054443
1701713586456205300,2.776205322265625,5.38416051864624,-2.9461164474487305,2.788517713546753
1701713586465800400,2.785800537109375,5.604065418243408,-3.065842390060425,2.955889940261841
1701713586475394600,2.79539453125,5.665150165557861,-3.040186882019043,3.08050274848938
1701713586484988000,2.80498779296875,5.549089431762695,-2.938786268234253,3.170908212661743
1701713586494582300,2.814582275390625,5.337736129760742,-2.826390266418457,3.2124457359313965
1701713586504177200,2.82417724609375,5.1361565589904785,-2.7201027870178223,3.2014505863189697
1701713586513771300,2.833771240234375,4.9797797203063965,-2.589381456375122,3.1513609886169434
1701713586523364900,2.84336474609375,4.882043838500977,-2.346264362335205,3.08050274848938
1701713586532959000,2.852958984375,4.7977471351623535,-1.9687607288360596,2.999870777130127
1701713586542554000,2.86255419921875,4.6157145500183105,-1.5399459600448608,2.896026849746704
1701713586552148200,2.872148193359375,4.318842887878418,-1.1355650424957275,2.7665271759033203
1701713586561741600,2.881741455078125,3.9766156673431396,-0.8655705451965332,2.604041814804077
1701713586571336000,2.8913359375,3.6724138259887695,-0.7421793937683105,2.4000189304351807
1701713586580930800,2.900930908203125,3.4378483295440674,-0.70797199010849,2.1703402996063232
1701713586590525000,2.91052490234375,3.305905342102051,-0.6884248852729797,1.9162278175354004
1701713586600118300,2.9201181640625,3.2680327892303467,-0.6676560640335083,1.6731106042861938
1701713586609712600,2.929712646484375,3.2826931476593018,-0.6383354067802429,1.4764177799224854
1701713586619307500,2.9393076171875,3.3169007301330566,-0.8435800671577454,1.1257915496826172
1701713586628901600,2.948901611328125,3.3169007301330566,-1.0708152055740356,0.17882554233074188
1701713586638495200,2.9584951171875,3.4121928215026855,-0.5002838969230652,-1.0392038822174072
1701713586648089300,2.96808935546875,2.7414824962615967,0.8021951913833618,-1.4484715461730957
1701713586657684500,2.9776845703125,1.2656755447387695,1.861404299736023,-1.3544011116027832
1701713586667278600,2.987278564453125,0.8209787011146545,2.0556538105010986,-1.468018651008606
1701713586676872000,2.996871826171875,1.0958600044250488,2.0556538105010986,-1.6305040121078491
1701713586686466300,3.00646630859375,1.2302464246749878,1.9933472871780396,-1.5669759511947632
1701713586696061200,3.016061279296875,1.2888877391815186,1.3360756635665894,-1.255443811416626
1701713586705655300,3.0256552734375,1.6004197597503662,0.30130040645599365,-0.7887565493583679
1701713586715249000,3.035248779296875,2.28579044342041,-0.6407787799835205,-0.4540122151374817
1701713586724843000,3.044843017578125,2.968717575073242,-1.2369656562805176,-0.4503471553325653
1701713586734438100,3.054438232421875,3.195952892303467,-1.2491827011108398,-0.617719292640686
1701713586744032300,3.0640322265625,2.6999449729919434,-1.4312151670455933,-0.5883986353874207
1701713586753625600,3.07362548828125,3.3144571781158447,-2.2375335693359375,-0.6213843822479248
1701713586763219700,3.0832197265625,4.030370235443115,-2.6602396965026855,-0.16691401600837708
1701713586772814800,3.09281494140625,3.4989330768585205,-2.2900664806365967,-0.019088976085186005
1701713586782409000,3.102408935546875,3.1495285034179688,-1.9492136240005493,-0.32573428750038147
1701713586792002600,3.11200244140625,3.1947312355041504,-1.7867282629013062,-0.16813570261001587
1701713586801596700,3.1215966796875,3.4378483295440674,-1.5973656177520752,0.17882554233074188
1701713586811191600,3.131191650390625,2.8050105571746826,-1.1147962808609009,0.16783028841018677
1701713586820786000,3.140785888671875,2.418955087661743,-1.0048437118530273,0.22402822971343994
1701713586830379300,3.150379150390625,2.254026412963867,-0.8643488883972168,0.2435753494501114
1701713586839973400,3.159973388671875,1.997470498085022,-0.5858024954795837,0.2924431264400482
1701713586849568500,3.169568603515625,1.7262543439865112,-0.32909396290779114,0.3461976945400238
1701713586859162600,3.17916259765625,1.3634110689163208,-0.10063708573579788,0.36452311277389526
1701713586868756000,3.188755859375,0.9553651213645935,0.10582929104566574,0.34131091833114624
1701713586878350300,3.198350341796875,0.6340594291687012,0.27197974920272827,0.2924431264400482
1701713586887945200,3.2079453125,0.30664533376693726,0.4014793634414673,0.2032594233751297
1701713586897539300,3.217539306640625,0.007330167107284069,0.462564080953598,0.09086353331804276
1701713586907133000,3.2271328125,-0.15149012207984924,0.3843756318092346,0.013896775431931019
1701713586916727000,3.23672705078125,-0.17225892841815948,0.6067240238189697,-0.0068720318377017975
1701713586926322200,3.246322265625,-0.10750912129878998,0.904817521572113,-0.022754060104489326
1701713586935916300,3.255916259765625,0.1710372269153595,0.6788040399551392,-0.0032069480512291193
1701713586945509600,3.265509521484375,0.4679090082645416,0.7191199064254761,0.037108972668647766
1701713586955104000,3.27510400390625,0.730573296546936,0.7398887276649475,0.021226942539215088
1701713586964699000,3.284698974609375,1.0274450778961182,0.6384881138801575,-0.03130592033267021
1701713586974293000,3.29429296875,1.5295615196228027,0.4283566474914551,-0.07773031294345856
1701713586983886600,3.303886474609375,2.1746163368225098,0.15347537398338318,-0.1644706279039383
1701713586993480700,3.313480712890625,2.840439796447754,-0.24479703605175018,-0.20234315097332
1701713587003075800,3.323075927734375,3.4158577919006348,-0.6933116316795349,-0.1107160672545433
1701713587012670000,3.332669921875,3.919196128845215,-1.0805888175964355,0.13117945194244385
1701713587022263300,3.34226318359375,4.386035919189453,-1.3273711204528809,0.44393324851989746
1701713587031857400,3.351857421875,4.720780372619629,-1.3799039125442505,0.8057075142860413
1701713587041452500,3.36145263671875,4.82828950881958,-0.8362498879432678,1.1477819681167603
1701713587051046700,3.371046630859375,4.65480899810791,-0.32787227630615234,1.2015365362167358
1701713587060640300,3.38064013671875,3.8691065311431885,-0.18004722893238068,0.9828532338142395
1701713587070234400,3.390234375,2.1049797534942627,-0.40361732244491577,0.7458444833755493
1701713587079829200,3.399829345703125,0.5118899941444397,-0.49417543411254883,0.3633013963699341
1701713587089423600,3.409423583984375,-0.1698155403137207,-0.10063708573579788,-0.07773031294345856
1701713587099017000,3.419016845703125,-0.33352261781692505,0.14370182156562805,-0.35505497455596924
1701713587108611000,3.428611083984375,-0.4752391576766968,0.17302247881889343,-0.439351886510849
1701713587118206200,3.438206298828125,-0.6377245187759399,0.1754658818244934,-0.5725166201591492
1701713587127800300,3.44780029296875,-0.836860716342926,0.19501298666000366,-0.8241856694221497
1701713587137393700,3.4573935546875,-1.0030112266540527,0.13148486614227295,-0.9451334476470947
1701713587146988000,3.466988037109375,-1.0848647356033325,0.05207473039627075,-0.8254073858261108
1701713587156583000,3.4765830078125,-0.7855495810508728,-0.05665608495473862,-0.6678087711334229
1701713587166177300,3.48617724609375,0.2345653474330902,-0.3083251416683197,-0.7728744745254517
1701713587175770600,3.4957705078125,0.7085828185081482,-0.12018419802188873,-0.34405970573425293
1701713587185364700,3.50536474609375,0.9675820469856262,0.012980503961443901,0.2289150059223175
1701713587194960000,3.5149599609375,1.3621894121170044,-0.19226416945457458,0.648108959197998
1701713587204554000,3.524553955078125,1.7225892543792725,-0.42698222398757935,0.9791881442070007
1701713587214147300,3.534147216796875,2.1514041423797607,-0.5210527181625366,0.9584193229675293
1701713587223741700,3.54374169921875,2.429950475692749,-0.4844018816947937,0.6261184215545654
1701713587233336600,3.553336669921875,2.4812614917755127,-0.3852919042110443,0.26434415578842163
1701713587242930700,3.5629306640625,2.5899922847747803,-0.42576053738594055,-0.04963133856654167
1701713587252524300,3.572524169921875,2.542346239089966,-0.46241137385368347,-0.2683146595954895
1701713587262118400,3.582118408203125,2.3004508018493652,-0.2435753494501114,-0.3990359604358673
1701713587271713500,3.591713623046875,1.9461593627929688,-0.16050012409687042,-0.30985227227211
1701713587281307600,3.6013076171875,1.5943113565444946,0.19256959855556488,-0.17302247881889343
1701713587290901000,3.61090087890625,1.336533784866333,0.4674508571624756,-0.08139539510011673
1701713587300495000,3.6204951171875,0.6071822047233582,0.19989976286888123,-0.09361234307289124
1701713587310090200,3.63009033203125,0.10750912129878998,0.1375933438539505,-0.03008422814309597
1701713587319684400,3.639684326171875,-0.02076880633831024,0.02764083817601204,0.13484452664852142
1701713587329277700,3.649277587890625,-0.05619794875383377,-0.06276455521583557,0.21791976690292358
1701713587338872000,3.6588720703125,-0.062306419014930725,-0.14583978056907654,0.2582356929779053
1701713587348467200,3.66846728515625,-0.04886778071522713,-0.21058958768844604,0.2423536479473114
1701713587358061300,3.678061279296875,-0.03298575058579445,-0.19348587095737457,0.17149536311626434
1701713587367654700,3.687654541015625,-0.006108472589403391,-0.16783028841018677,0.111632339656353
1701713587377249000,3.6972490234375,0.026877280324697495,-0.1250709742307663,0.05421269312500954
1701713587386844000,3.706843994140625,0.05619794875383377,-0.12995775043964386,0.02244863659143448
1701713587396438000,3.71643798828125,0.07207997888326645,-0.09452861547470093,-0.015423892997205257
1701713587406031400,3.72603125,0.0659715011715889,-0.0456608310341835,-0.05085303261876106
1701713587415625700,3.735625732421875,0.05741964280605316,-0.01511846948415041,-0.06551336497068405
1701713587425220600,3.745220703125,0.04886778071522713,-0.0016798300202935934,-0.06184828653931618
1701713587434814700,3.754814697265625,0.0390942245721817,-0.009009997360408306,-0.04107947647571564
1701713587444408300,3.764408203125,0.013438640162348747,-0.017561858519911766,-0.019088976085186005
1701713587454002400,3.77400244140625,-0.03665083646774292,-0.016340164467692375,0.007788302376866341
1701713587463597600,3.78359765625,-0.12339114397764206,-0.020005248486995697,0.03588727489113808
1701713587473191700,3.793191650390625,-0.2235700935125351,-0.050547610968351364,0.06154286116361618
1701713587482785000,3.802784912109375,-0.33474430441856384,-0.04077405482530594,0.013896775431931019
1701713587492379400,3.81237939453125,-0.4178195297718048,-0.24479703605175018,-0.025197450071573257
1701713587501974300,3.821974365234375,-0.4434750974178314,-0.4734066128730774,0.012675080448389053
1701713587511568400,3.831568359375,-0.2870981991291046,-0.31199023127555847,0.05787777900695801
1701713587521162000,3.841161865234375,0.007330167107284069,0.0594048947095871,-0.017867282032966614
1701713587530756000,3.850756103515625,0.01832541823387146,0.26342788338661194,-0.10094250738620758
1701713587540351200,3.860351318359375,0.024433890357613564,0.24754585325717926,-0.12171131372451782
1701713587549945300,3.8699453125,0.03420744836330414,0.24021568894386292,-0.14858859777450562
1701713587559538700,3.87953857421875,0.043981000781059265,0.21822518110275269,-0.1620272397994995
1701713587569133000,3.889133056640625,0.046424392610788345,0.19501298666000366,-0.1620272397994995
1701713587578728000,3.89872802734375,0.04031591862440109,0.18401773273944855,-0.15469707548618317
1701713587588322000,3.908322021484375,0.03298575058579445,0.1889045089483261,-0.14492350816726685
1701713587597915600,3.91791552734375,0.023212196305394173,0.2011214643716812,-0.13392825424671173
1701713587607509800,3.927509765625,0.01832541823387146,0.22677704691886902,-0.1241547018289566
1701713587617105000,3.93710498046875,0.01954711228609085,0.25121092796325684,-0.11804623156785965
1701713587626699000,3.946698974609375,0.025655584409832954,0.2695363461971283,-0.1107160672545433
1701713587636292400,3.956292236328125,0.030542362481355667,0.2829749882221222,-0.10460758954286575
1701713587645886700,3.96588671875,0.03542914241552353,0.2829749882221222,-0.09727742522954941
1701713587655481600,3.975481689453125,0.0390942245721817,0.2829749882221222,-0.09239064902067184
1701713587665075700,3.98507568359375,0.043981000781059265,0.284196674823761,-0.09116895496845245
1701713587674669000,3.9946689453125,0.046424392610788345,0.2793098986148834,-0.08750387281179428
1701713587684263400,4.004263427734375,0.04886778071522713,0.27686652541160583,-0.0850604772567749
1701713587693858300,4.0138583984375,0.0525328628718853,0.27686652541160583,-0.08139539510011673
1701713587703452700,4.02345263671875,0.05375456064939499,0.2793098986148834,-0.07895200699567795
1701713587713046000,4.0330458984375,0.04886778071522713,0.2793098986148834,-0.07528692483901978
1701713587722640400,4.042640380859375,0.04886778071522713,0.2829749882221222,-0.07528692483901978
1701713587732235300,4.0522353515625,0.043981000781059265,0.2805316150188446,-0.07406523078680038
1701713587741829400,4.061829345703125,0.03420744836330414,0.27320143580436707,-0.07406523078680038
1701713587751422700,4.071422607421875,0.03176405653357506,0.2670929729938507,-0.072843536734581
1701713587761017000,4.08101708984375,0.03298575058579445,0.26464956998825073,-0.072843536734581
1701713587770612000,4.090612060546875,0.028098974376916885,0.2536543309688568,-0.06917845457792282
1701713587780206000,4.1002060546875,0.024433890357613564,0.23288552463054657,-0.06673506647348404
1701713587789799700,4.109799560546875,0.029320668429136276,0.21822518110275269,-0.06429167091846466
1701713587799393800,4.119393798828125,0.023212196305394173,0.19745637476444244,-0.06062658876180649
1701713587808989000,4.128989013671875,0.02076880633831024,0.18157434463500977,-0.055739812552928925
1701713587818583000,4.1385830078125,0.01832541823387146,0.16813570261001587,-0.04963133856654167
1701713587828176400,4.14817626953125,0.01710372418165207,0.15347537398338318,-0.04352286830544472
1701713587837770800,4.157770751953125,0.013438640162348747,0.14003673195838928,-0.036192700266838074
1701713587847365600,4.16736572265625,0.010995250195264816,0.12659808993339539,-0.02886253222823143
1701713587856959700,4.176959716796875,0.007330167107284069,0.11682453751564026,-0.017867282032966614
1701713587866553300,4.18655322265625,0.006108472589403391,0.10949437320232391,-0.0068720318377017975
1701713587876147500,4.1961474609375,0.004886778071522713,0.10216420143842697,0.004123218823224306
1701713587885742600,4.20574267578125,0.0036650835536420345,0.09361234307289124,0.016340164467692375
1701713587895336700,4.215336669921875,0.0036650835536420345,0.08383878320455551,0.0261137206107378
1701713587904930000,4.224929931640625,0.006108472589403391,0.07650861889123917,0.03955236077308655
1701713587914524400,4.2345244140625,0.007330167107284069,0.07040014863014221,0.052990999072790146
1701713587924119300,4.244119384765625,0.009773556143045425,0.06184828653931618,0.06642963737249374
1701713587933713400,4.25371337890625,0.012216945178806782,0.058183200657367706,0.08231166750192642
1701713587943306800,4.263306640625,0.014660334214568138,0.058183200657367706,0.09941539168357849
1701713587952901000,4.272901123046875,0.021990500390529633,0.06184828653931618,0.11651911586523056
1701713587962496300,4.282496337890625,0.029320668429136276,0.06795676052570343,0.13362284004688263
1701713587972090400,4.29209033203125,0.03665083646774292,0.07406523078680038,0.14828316867351532
1701713587981683700,4.30168359375,0.046424392610788345,0.07895200699567795,0.15805672109127045
1701713587991278000,4.311278076171875,0.05741964280605316,0.08261708915233612,0.17027367651462555
1701713588000873000,4.320873046875,0.06963659077882767,0.08261708915233612,0.18126893043518066
1701713588010467000,4.330467041015625,0.0781884491443634,0.07773031294345856,0.1910424828529358
1701713588020060400,4.340060302734375,0.08674030750989914,0.06795676052570343,0.20081603527069092
1701713588029654800,4.34965478515625,0.09529217332601547,0.06062658876180649,0.21181128919124603
1701713588039249700,4.359249755859375,0.10140064358711243,0.0459662564098835,0.22524993121623993
1701713588048844000,4.368843994140625,0.10628741979598999,0.025197450071573257,0.23868857324123383
1701713588058437400,4.378437255859375,0.10995250940322876,0.0032069480512291193,0.24846212565898895
1701713588068031500,4.388031494140625,0.10995250940322876,-0.02489202655851841,0.25945737957954407
1701713588077626600,4.397626708984375,0.10995250940322876,-0.04932591691613197,0.2667875289916992
1701713588087220700,4.407220703125,0.10995250940322876,-0.06765133142471313,0.2716743052005768
1701713588096814000,4.41681396484375,0.10873081535100937,-0.0847550556063652,0.2716743052005768
1701713588106408400,4.426408447265625,0.10750912129878998,-0.10185877978801727,0.2655658423900604
1701713588116003300,4.43600341796875,0.10140064358711243,-0.12140589207410812,0.25945737957954407
1701713588125597400,4.445597412109375,0.0916270911693573,-0.14461809396743774,0.24968381226062775
1701713588135191000,4.45519091796875,0.08063183724880219,-0.1629435122013092,0.2423536479473114
1701713588144785200,4.46478515625,0.06963659077882767,-0.18249061703681946,0.23258009552955627
1701713588154380300,4.47438037109375,0.05864133685827255,-0.19715094566345215,0.22402822971343994
1701713588163974400,4.483974365234375,0.045202698558568954,-0.20692451298236847,0.2166980654001236
1701713588173567700,4.493567626953125,0.03176405653357506,-0.2166980654001236,0.21058958768844604
1701713588183162000,4.503162109375,0.024433890357613564,-0.21791976690292358,0.2044811248779297
1701713588192757000,4.512757080078125,0.01710372418165207,-0.21791976690292358,0.19470755755901337
1701713588202351000,4.52235107421875,0.010995250195264816,-0.21425467729568481,0.18737739324569702
1701713588211944700,4.53194482421875,0.006108472589403391,-0.20081603527069092,0.18493400514125824
1701713588221538800,4.541538818359375,-0.0024433890357613564,-0.18371231853961945,0.18615570664405823
1701713588231134000,4.551134033203125,-0.01710372418165207,-0.16538690030574799,0.19348587095737457
1701713588240728000,4.56072802734375,-0.03298575058579445,-0.14461809396743774,0.2032594233751297
1701713588250321400,4.5703212890625,-0.05497625470161438,-0.12629267573356628,0.21914145350456238
1701713588259915800,4.579915771484375,-0.0794101431965828,-0.10674555599689484,0.2423536479473114
1701713588269510700,4.5895107421875,-0.09895725548267365,-0.09208522737026215,0.270452618598938
1701713588279104800,4.599104736328125,-0.10140064358711243,-0.07620319724082947,0.30343836545944214
1701713588288698000,4.608697998046875,-0.0916270911693573,-0.06887302547693253,0.3364241421222687
1701713588298292500,4.61829248046875,-0.06841489672660828,-0.06276455521583557,0.36574479937553406
1701713588307887400,4.627887451171875,-0.03787253051996231,-0.04932591691613197,0.3889569938182831
1701713588317481700,4.637481689453125,-0.0036650835536420345,-0.03588727489113808,0.40483900904655457
1701713588327075000,4.647074951171875,0.025655584409832954,-0.034665580838918686,0.42927291989326477
1701713588336669400,4.65666943359375,0.05497625470161438,-0.03833066672086716,0.4647020399570465
1701713588346264300,4.666264404296875,0.08307522535324097,-0.03588727489113808,0.5013529062271118
1701713588355858400,4.6758583984375,0.1172826737165451,-0.04199574887752533,0.5296045541763306
1701713588365451800,4.68545166015625,0.16126367449760437,-0.050547610968351364,0.5442649126052856
1701713588375046100,4.695046142578125,0.20524467527866364,-0.0590994730591774,0.5613686442375183
1701713588384641000,4.70464111328125,0.258999228477478,-0.07620319724082947,0.5870242118835449
1701713588394235100,4.714235107421875,0.3164188861846924,-0.08108997344970703,0.610236406326294
1701713588403828700,4.723828857421875,0.37506023049354553,-0.06398624926805496,0.6261184215545654
1701713588413422800,4.7334228515625,0.43614494800567627,-0.051769305020570755,0.633448600769043
1701713588423018000,4.74301806640625,0.4850127100944519,-0.04932591691613197,0.6371136903762817
1701713588432612000,4.752612060546875,0.522885262966156,-0.04199574887752533,0.6432221531867981
1701713588442205400,4.762205322265625,0.5583143830299377,-0.018783552572131157,0.6542174220085144
1701713588451799800,4.7717998046875,0.5888567566871643,-0.0029015245381742716,0.6664343476295471
1701713588461394700,4.781394775390625,0.6157340407371521,-0.0456608310341835,0.6786513328552246
1701713588470988800,4.79098876953125,0.6377245187759399,-0.09941539168357849,0.6786513328552246
1701713588480582400,4.80058251953125,0.660936713218689,-0.18249061703681946,0.6700994372367859
1701713588490176500,4.810176513671875,0.6853706240653992,-0.2948864996433258,0.6627692580223083
1701713588499771600,4.819771728515625,0.7061394453048706,-0.39384377002716064,0.6505523324012756
1701713588509365800,4.82936572265625,0.7171346545219421,-0.4721849262714386,0.6346703171730042
1701713588518959000,4.838958984375,0.7146912813186646,-0.5283828973770142,0.6224533319473267
1701713588528553500,4.848553466796875,0.6939224600791931,-0.550373375415802,0.6151232123374939
1701713588538148400,4.8581484375,0.6902574300765991,-0.5393781065940857,0.550373375415802
1701713588547742500,4.867742431640625,0.6731536984443665,-0.648108959197998,0.47081053256988525
1701713588557336000,4.877336181640625,0.5424323678016663,-0.8619054555892944,0.474475622177124
1701713588566930200,4.88693017578125,0.4080459773540497,-1.0610417127609253,0.5184566378593445
1701713588576525300,4.896525390625,0.35795649886131287,-1.1502254009246826,0.5196782946586609
1701713588586119400,4.906119384765625,0.31886225938796997,-1.1636639833450317,0.5172349214553833
1701713588595712800,4.915712646484375,0.2724378705024719,-1.1465603113174438,0.5222744345664978
1701713588605307100,4.92530712890625,0.2235700935125351,-1.0793671607971191,0.5135698318481445
1701713588614902000,4.934902099609375,0.18569757044315338,-0.9999569654464722,0.49524441361427307
1701713588624496000,4.94449609375,0.16492876410484314,-0.9229902029037476,0.4891359508037567
1701713588634089500,4.95408935546875,0.1563768982887268,-0.8484668135643005,0.4915793240070343
1701713588643683800,4.963683837890625,0.16126367449760437,-0.7238540053367615,0.44637662172317505
1701713588653279000,4.973279052734375,0.16370706260204315,-0.5980194807052612,0.3584146201610565
1701713588662873000,4.982873046875,0.1698155403137207,-0.4819584786891937,0.2570139765739441
1701713588672466400,4.992466552734375,0.17225892841815948,-0.40606072545051575,0.15927842259407043
1701713588682060800,5.002060791015625,0.16737215220928192,-0.376740038394928,0.07375980913639069
1701713588691655700,5.01165576171875,0.1563768982887268,-0.32909396290779114,-0.01175880990922451
1701713588701249800,5.021249755859375,0.13560809195041656,-0.2423536479473114,-0.10216420143842697
1701713588710843100,5.030843017578125,0.11972606182098389,-0.1751604527235031,-0.16935740411281586
1701713588720437500,5.0404375,0.1172826737165451,-0.13117945194244385,-0.21333840489387512
1701713588730032400,5.050032470703125,0.10750912129878998,-0.08353336155414581,-0.23532891273498535
1701713588739626500,5.05962646484375,0.08674030750989914,-0.031000498682260513,-0.252432644367218
1701713588749220000,5.06922021484375,0.05619794875383377,0.072843536734581,-0.26464956998825073
1701713588758814200,5.078814208984375,0.0024433890357613564,0.07406523078680038,-0.24632415175437927
1701713588768409300,5.088409423828125,-0.05741964280605316,0.11682453751564026,-0.22189027070999146
1701713588778003500,5.09800341796875,-0.12094775587320328,0.18035265803337097,-0.18401773273944855
1701713588787596800,5.1075966796875,-0.16737215220928192,0.21089501678943634,-0.11804623156785965
1701713588797191200,5.117191162109375,-0.1979145109653473,0.19745637476444244,-0.06184828653931618
1701713588806786000,5.1267861328125,-0.21257483959197998,0.17302247881889343,-0.022754060104489326
1701713588816380200,5.136380126953125,-0.1979145109653473,0.08872556686401367,0.016340164467692375
1701713588825973800,5.145973876953125,-0.13438639044761658,-0.0029015245381742716,0.0456608310341835
1701713588835567900,5.15556787109375,-0.028098974376916885,-0.06887302547693253,0.07742489129304886
1701713588845163000,5.1651630859375,0.08429691940546036,-0.10674555599689484,0.12018419802188873
1701713588854757000,5.174757080078125,0.1832541823387146,-0.12629267573356628,0.16783028841018677
1701713588864350500,5.1843505859375,0.24556060135364532,-0.13240113854408264,0.2154763638973236
1701713588873944600,5.193944580078125,0.26877278089523315,-0.14339639246463776,0.26067906618118286
1701713588883539700,5.203539794921875,0.2651077210903168,-0.0847550556063652,0.28633466362953186
1701713588893133800,5.2131337890625,0.23334364593029022,-0.13240113854408264,0.33031564950942993
1701713588902727400,5.2227275390625,0.14660334587097168,-0.18737739324569702,0.36574479937553406
1701713588912321500,5.232321533203125,0.042759306728839874,-0.1385096162557602,0.33886751532554626
1701713588921916700,5.241916748046875,-0.08185353130102158,-0.07498150318861008,0.26312246918678284
1701713588931510800,5.2515107421875,-0.20035789906978607,-0.005344913341104984,0.1519482582807541
1701713588941104000,5.261104248046875,-0.3555130958557129,-0.017561858519911766,0.0713164210319519
1701713588950698200,5.2706982421875,-0.569309651851654,-0.0859767496585846,0.005344913341104984
1701713588960293400,5.28029345703125,-0.758672297000885,-0.11407572776079178,-0.14492350816726685
1701713588969887500,5.289887451171875,-0.8356390595436096,-0.10552386194467545,-0.39048412442207336
1701713588979480800,5.299480712890625,-0.8148702383041382,-0.034665580838918686,-0.6299362182617188
1701713588989075200,5.3090751953125,-0.7660024762153625,-0.032222192734479904,-0.7435538172721863
1701713588998670300,5.31867041015625,-0.6646018028259277,-0.04321744292974472,-0.8693883419036865
1701713589008264400,5.328264404296875,-0.47646087408065796,-0.10796725004911423,-0.8632798790931702
1701713589017857800,5.33785791015625,-0.3017585575580597,-0.2020377367734909,-0.695907711982727
1701713589027452000,5.347451904296875,-0.18569757044315338,-0.1507265567779541,-0.5688515305519104
1701713589037047000,5.357047119140625,-0.19180603325366974,-0.0713164210319519,-0.44668206572532654
1701713589046641200,5.36664111328125,-0.27121618390083313,0.022754060104489326,-0.3318427801132202
1701713589056234500,5.376234375,-0.33596599102020264,0.15347537398338318,-0.2976353168487549
1701713589065828900,5.385828857421875,-0.393385648727417,0.18035265803337097,-0.26464956998825073
1701713589075423700,5.395423828125,-0.42637139558792114,0.18646112084388733,-0.28664007782936096
1701713589085018000,5.40501806640625,-0.44103172421455383,0.09361234307289124,-0.37826716899871826
1701713589094611500,5.414611572265625,-0.4312581717967987,-0.018783552572131157,-0.5273138880729675
1701713589104205600,5.42420556640625,-0.43858832120895386,-0.10552386194467545,-0.695907711982727
1701713589113800700,5.43380078125,-0.4837910234928131,-0.1372879147529602,-0.8437327742576599
1701713589123394800,5.443394775390625,-0.5534276366233826,-0.06154286116361618,-0.9866710305213928
1701713589132988200,5.45298828125,-0.675597071647644,0.03497100621461868,-1.1259442567825317
1701713589142582500,5.46258251953125,-0.8344173431396484,0.11315945535898209,-1.261552333831787
1701713589152177400,5.472177490234375,-0.9932376146316528,0.10216420143842697,-1.3922736644744873
1701713589161771500,5.481771484375,-1.1068552732467651,0.05329642444849014,-1.5181081295013428
1701713589171365000,5.491365234375,-1.1827529668807983,0.021532366052269936,-1.6610463857650757
1701713589180959200,5.500959228515625,-1.2475028038024902,0.04840964451432228,-1.8076497316360474
1701713589190554400,5.510554443359375,-1.3024790287017822,0.11560284346342087,-1.9261541366577148
1701713589200148500,5.5201484375,-1.3513468503952026,0.16080553829669952,-2.0177812576293945
1701713589209741800,5.529741943359375,-1.33912992477417,0.1375933438539505,-2.04221510887146
1701713589219336200,5.539336181640625,-1.2878187894821167,0.055739812552928925,-1.995790719985962
1701713589228931000,5.54893115234375,-1.2157387733459473,-0.017561858519911766,-1.899276852607727
1701713589238525200,5.558525146484375,-1.1459494829177856,-0.06032116711139679,-1.7868809700012207
1701713589248118800,5.568118896484375,-1.0946383476257324,-0.0725381150841713,-1.705027461051941
1701713589257713000,5.577712890625,-1.0726478099822998,-0.06887302547693253,-1.6598247289657593
1701713589267308000,5.58730810546875,-1.0763128995895386,-0.06398624926805496,-1.631725788116455
1701713589276902100,5.596902099609375,-1.0995250940322876,-0.06887302547693253,-1.6207305192947388
1701713589286495500,5.60649560546875,-1.133732557296753,-0.09086353331804276,-1.6182870864868164
1701713589296089900,5.61608984375,-1.1766445636749268,-0.12018419802188873,-1.6072918176651
1701713589305684700,5.625684814453125,-1.210852026939392,-0.1495048701763153,-1.5828579664230347
1701713589315278800,5.63527880859375,-1.2499462366104126,-0.16660858690738678,-1.537655234336853
1701713589324872400,5.64487255859375,-1.2694933414459229,-0.164165198802948,-1.4606884717941284
1701713589334466600,5.654466552734375,-1.2719366550445557,-0.1495048701763153,-1.3617312908172607
1701713589344061400,5.6640615234375,-1.2756017446517944,-0.14217470586299896,-1.2798776626586914
1701713589353655800,5.67365576171875,-1.2719366550445557,-0.11774080991744995,-1.2175712585449219
1701713589363249200,5.683249267578125,-1.2536113262176514,-0.0981936976313591,-1.1760337352752686
1701713589372843500,5.692843505859375,-1.2267340421676636,-0.09697200357913971,-1.145491361618042
1701713589382438400,5.7024384765625,-1.1778662204742432,-0.12140589207410812,-1.089293360710144
1701713589392032500,5.712032470703125,-1.1117420196533203,-0.1385096162557602,-1.0184351205825806
1701713589401626000,5.721626220703125,-1.0262234210968018,-0.14583978056907654,-0.9329164624214172
1701713589411220200,5.73122021484375,-0.9639169573783875,-0.16172181069850922,-0.881605327129364
1701713589420815000,5.740815185546875,-0.9040539264678955,-0.1776038408279419,-0.853506326675415
1701713589430409500,5.750409423828125,-0.8454126119613647,-0.1910424828529358,-0.830294132232666
1701713589440002800,5.7600029296875,-0.7879929542541504,-0.21425467729568481,-0.8156337738037109
1701713589449597200,5.76959716796875,-0.7171346545219421,-0.23868857324123383,-0.7973083853721619
1701713589459192000,5.779192138671875,-0.6633801460266113,-0.2667875289916992,-0.8168554902076721
1701713589468786200,5.7887861328125,-0.6193991303443909,-0.2973299026489258,-0.8339592218399048
1701713589478379500,5.798379638671875,-0.5913001298904419,-0.3107685446739197,-0.8327375054359436
1701713589487974000,5.807973876953125,-0.569309651851654,-0.3180987238883972,-0.8131904006004333
1701713589497568800,5.81756884765625,-0.5522059202194214,-0.33764582872390747,-0.7655443549156189
1701713589507163100,5.8271630859375,-0.5485408306121826,-0.3706315755844116,-0.6971294283866882
1701713589516756500,5.836756591796875,-0.5509842038154602,-0.376740038394928,-0.6140542030334473
1701713589526350800,5.846350830078125,-0.5583143830299377,-0.3706315755844116,-0.5309789776802063
1701713589535945700,5.85594580078125,-0.5632011890411377,-0.34375429153442383,-0.4637857675552368
1701713589545539800,5.865539794921875,-0.577861487865448,-0.2912214398384094,-0.4136963188648224
1701713589555133200,5.87513330078125,-0.5900784730911255,-0.24968381226062775,-0.3831539452075958
1701713589564727600,5.8847275390625,-0.5888567566871643,-0.22036315500736237,-0.3452814221382141
1701713589574322400,5.894322509765625,-0.582748293876648,-0.2166980654001236,-0.30374380946159363
1701713589583916500,5.90391650390625,-0.5803049206733704,-0.22158484160900116,-0.28908345103263855
1701713589593510100,5.91351025390625,-0.5876350402832031,-0.22158484160900116,-0.284196674823761
1701713589603104300,5.923104248046875,-0.6047387719154358,-0.2020377367734909,-0.2915268540382385
1701713589612699400,5.932699462890625,-0.6145123243331909,-0.19837264716625214,-0.284196674823761
1701713589622293500,5.94229345703125,-0.605960488319397,-0.20692451298236847,-0.23532891273498535
1701713589631886800,5.951886962890625,-0.6047387719154358,-0.18737739324569702,-0.1779092699289322
1701713589641481200,5.961481201171875,-0.5900784730911255,-0.16172181069850922,-0.10827267915010452
1701713589651076000,5.971076171875,-0.577861487865448,-0.1495048701763153,-0.06184828653931618
1701713589660670200,5.980670166015625,-0.5522059202194214,-0.1385096162557602,-0.03008422814309597
1701713589670263800,5.990263916015625,-0.5143333673477173,-0.13484452664852142,-0.005650337319821119
1701713589679858000,5.99985791015625,-0.4703523814678192,-0.12018419802188873,-0.0032069480512291193
1701713589689453000,6.009453125,-0.42392799258232117,-0.10308047384023666,-0.015423892997205257
1701713589699047200,6.019047119140625,-0.3689517378807068,-0.08353336155414581,-0.023975754156708717
1701713589708640500,6.028640625,-0.3054236173629761,-0.06276455521583557,-0.02886253222823143
1701713589718235000,6.03823486328125,-0.23334364593029022,-0.04932591691613197,-0.017867282032966614
1701713589727829800,6.047829833984375,-0.19424942135810852,-0.032222192734479904,-0.04230117425322533
1701713589737424000,6.057423828125,-0.15515519678592682,-0.02489202655851841,-0.0594048947095871
1701713589747017500,6.067017578125,-0.12461283802986145,-0.029778804630041122,-0.07895200699567795
1701713589756611600,6.076611572265625,-0.1172826737165451,-0.04077405482530594,-0.1107160672545433
1701713589766206700,6.086206787109375,-0.1172826737165451,-0.05665608495473862,-0.13392825424671173
1701713589775800800,6.09580078125,-0.11606097966432571,-0.0725381150841713,-0.14492350816726685
1701713589785394200,6.105394287109375,-0.12216944992542267,-0.08842013776302338,-0.14858859777450562
1701713589794988300,6.11498828125,-0.13682979345321655,-0.10185877978801727,-0.14003673195838928
1701713589804583400,6.12458349609375,-0.15271180868148804,-0.10918894410133362,-0.12781979143619537
1701713589814177500,6.134177490234375,-0.1563768982887268,-0.11285403370857239,-0.10582929104566574
1701713589823771100,6.143771240234375,-0.1588202863931656,-0.1238492801785469,-0.08383878320455551
1701713589833365200,6.153365234375,-0.17592400312423706,-0.11896250396966934,-0.08872556686401367
1701713589842960400,6.16296044921875,-0.18569757044315338,-0.11896250396966934,-0.09239064902067184
1701713589852554500,6.172554443359375,-0.1832541823387146,-0.11896250396966934,-0.09239064902067184
1701713589862147800,6.18214794921875,-0.17714570462703705,-0.12018419802188873,-0.09361234307289124
1701713589871742200,6.1917421875,-0.16737215220928192,-0.11529742181301117,-0.09483403712511063
1701713589881337000,6.201337158203125,-0.15271180868148804,-0.11529742181301117,-0.09605573117733002
1701713589890931200,6.21093115234375,-0.13316470384597778,-0.10796725004911423,-0.09605573117733002
1701713589900524500,6.220524658203125,-0.11483928561210632,-0.10430216789245605,-0.09116895496845245
1701713589910119000,6.230118896484375,-0.10017894953489304,-0.10063708573579788,-0.08994726091623306
1701713589919713800,6.2397138671875,-0.08429691940546036,-0.08231166750192642,-0.08750387281179428
1701713589929308200,6.24930810546875,-0.0659715011715889,-0.06398624926805496,-0.08261708915233612
1701713589938901500,6.258901611328125,-0.047646086663007736,-0.04321744292974472,-0.06917845457792282
1701713589948495600,6.26849560546875,-0.023212196305394173,-0.0261137206107378,-0.04474456235766411
1701713589958090800,6.2780908203125,-0.013438640162348747,-0.009009997360408306,-0.02641914412379265
1701713589967684900,6.287684814453125,-0.01832541823387146,0.020310672000050545,-0.014202198944985867
1701713589977278200,6.2972783203125,-0.021990500390529633,0.03497100621461868,0.0004581354442052543
1701713589986872600,6.30687255859375,-0.029320668429136276,0.04840964451432228,0.007788302376866341
1701713589996467500,6.316467529296875,-0.030542362481355667,0.04840964451432228,0.016340164467692375
1701713590006061800,6.326061767578125,-0.029320668429136276,0.039857782423496246,0.02733541466295719
1701713590015655200,6.3356552734375,-0.028098974376916885,0.02641914412379265,0.032222192734479904
1701713590025249300,6.345249267578125,-0.028098974376916885,0.017867282032966614,0.028557108715176582
1701713590034844400,6.354844482421875,-0.03176405653357506,0.009315420873463154,0.02244863659143448
1701713590044438500,6.3644384765625,-0.03542914241552353,0.005650337319821119,0.01511846948415041
1701713590054032000,6.374031982421875,-0.0390942245721817,0.0032069480512291193,0.005344913341104984
1701713590063626200,6.383626220703125,-0.04031591862440109,0.001985253533348441,-0.004428642801940441
1701713590073221000,6.39322119140625,-0.0390942245721817,-0.0004581354442052543,-0.01175880990922451
1701713590082815500,6.4028154296875,-0.03787253051996231,-0.0016798300202935934,-0.016645587980747223
1701713590092408800,6.412408935546875,-0.03665083646774292,-0.004123218823224306,-0.017867282032966614
1701713590102003000,6.4220029296875,-0.03420744836330414,-0.007788302376866341,-0.017867282032966614
1701713590111598000,6.43159814453125,-0.03176405653357506,-0.013896775431931019,-0.016645587980747223
1701713590121192200,6.441192138671875,-0.03298575058579445,-0.018783552572131157,-0.015423892997205257
1701713590130785500,6.45078564453125,-0.03542914241552353,-0.02244863659143448,-0.016645587980747223
1701713590140380000,6.4603798828125,-0.0390942245721817,-0.02367033064365387,-0.017867282032966614
1701713590149974800,6.469974853515625,-0.042759306728839874,-0.02733541466295719,-0.017867282032966614
1701713590159569000,6.47956884765625,-0.046424392610788345,-0.029778804630041122,-0.012980503961443901
1701713590169162500,6.48916259765625,-0.046424392610788345,-0.03588727489113808,-0.008093725889921188
1701713590178756600,6.498756591796875,-0.047646086663007736,-0.03588727489113808,0.0004581354442052543
1701713590188351700,6.508351806640625,-0.046424392610788345,-0.037108972668647766,0.0016798300202935934
1701713590197945900,6.51794580078125,-0.047646086663007736,-0.034665580838918686,0.0016798300202935934
1701713590207539200,6.527539306640625,-0.05008947476744652,-0.034665580838918686,-0.0068720318377017975
1701713590217133300,6.53713330078125,-0.0525328628718853,-0.034665580838918686,-0.01175880990922451
1701713590226728400,6.546728515625,-0.05375456064939499,-0.028557108715176582,-0.009315420873463154
1701713590236322600,6.556322509765625,-0.05741964280605316,-0.02489202655851841,-0.008093725889921188
1701713590245916200,6.565916259765625,-0.061084724962711334,-0.02367033064365387,-0.005650337319821119
1701713590255510300,6.57551025390625,-0.06352811306715012,-0.016340164467692375,0.0004581354442052543
1701713590265105400,6.58510546875,-0.06719319522380829,-0.011453386396169662,0.005344913341104984
1701713590274699500,6.594699462890625,-0.06841489672660828,-0.009009997360408306,0.007788302376866341
1701713590284292900,6.60429296875,-0.07330167293548584,0.001985253533348441,0.005344913341104984
1701713590293887000,6.613886962890625,-0.09773556143045425,0.02641914412379265,-0.008093725889921188
1701713590303482000,6.623482177734375,-0.08185353130102158,0.001985253533348441,-0.009315420873463154
1701713590313076200,6.633076171875,-0.06719319522380829,-0.0029015245381742716,-0.008093725889921188
1701713590322669800,6.642669921875,-0.05864133685827255,-0.005344913341104984,-0.009315420873463154
1701713590332264000,6.652263916015625,-0.05741964280605316,-0.007788302376866341,-0.009315420873463154
1701713590341859000,6.661859130859375,-0.05864133685827255,-0.005344913341104984,-0.010537114925682545
1701713590351453200,6.671453125,-0.06352811306715012,-0.0029015245381742716,-0.012980503961443901
1701713590361046500,6.681046630859375,-0.07085828483104706,0.0007635590736754239,-0.010537114925682545
1701713590370640600,6.690640625,-0.0794101431965828,-0.0016798300202935934,-0.01175880990922451
1701713590380235800,6.70023583984375,-0.09040539711713791,-0.0065666078589856625,-0.014202198944985867
1701713590389830000,6.709829833984375,-0.10017894953489304,-0.011453386396169662,-0.014202198944985867
1701713590399423500,6.719423583984375,-0.10873081535100937,-0.020005248486995697,-0.014202198944985867
1701713590409017600,6.729017578125,-0.12339114397764206,-0.034665580838918686,-0.021532366052269936
1701713590418612500,6.738612548828125,-0.15271180868148804,-0.032222192734479904,-0.0325276181101799
1701713590428206800,6.748206787109375,-0.2223484069108963,-0.012675080448389053,-0.06551336497068405
1701713590437800200,6.75780029296875,-0.2480039894580841,-0.03588727489113808,-0.0716218426823616
1701713590447394600,6.76739453125,-0.26632940769195557,-0.04321744292974472,-0.08017370104789734
1701713590456989400,6.776989501953125,-0.27976804971694946,-0.04810422286391258,-0.09605573117733002
1701713590466583600,6.78658349609375,-0.2993151545524597,-0.04688252881169319,-0.11315945535898209
1701713590476177200,6.79617724609375,-0.30664533376693726,-0.033443886786699295,-0.12293300777673721
1701713590485771300,6.805771240234375,-0.2773246467113495,-0.04932591691613197,-0.11804623156785965
1701713590495366100,6.8153662109375,-0.29565006494522095,-0.05421269312500954,-0.12904147803783417
1701713590504960500,6.82496044921875,-0.33352261781692505,-0.0456608310341835,-0.1510319858789444
1701713590514553900,6.834553955078125,-0.3396310806274414,-0.0456608310341835,-0.1656923145055771
1701713590524148200,6.844148193359375,-0.3176405727863312,-0.06765133142471313,-0.1656923145055771
1701713590533743000,6.8537431640625,-0.2895416021347046,-0.08108997344970703,-0.15591876208782196
1701713590543337200,6.863337158203125,-0.27854636311531067,-0.07009471952915192,-0.1522536724805832
1701713590552930600,6.8729306640625,-0.2651077210903168,-0.05543438717722893,-0.1522536724805832
1701713590562525000,6.88252490234375,-0.24067382514476776,-0.0456608310341835,-0.14614520967006683
1701713590572119800,6.892119873046875,-0.20402298867702484,-0.03833066672086716,-0.13270656764507294
1701713590581714200,6.901714111328125,-0.1966928243637085,-0.02489202655851841,-0.11804623156785965
1701713590591307500,6.9113076171875,-0.18936264514923096,-0.011453386396169662,-0.10094250738620758
1701713590600902000,6.92090185546875,-0.1832541823387146,-0.0004581354442052543,-0.08628217875957489
1701713590610496800,6.930496826171875,-0.17225892841815948,0.012980503961443901,-0.07406523078680038
1701713590620091000,6.9400908203125,-0.15149012207984924,0.019088976085186005,-0.06306997686624527
1701713590629684200,6.949684326171875,-0.12216944992542267,0.02886253222823143,-0.055739812552928925
1701713590639278600,6.959278564453125,-0.10262233763933182,0.0325276181101799,-0.054518118500709534
1701713590648873500,6.96887353515625,-0.09040539711713791,0.04230117425322533,-0.05085303261876106
1701713590658467600,6.978467529296875,-0.08185353130102158,0.054518118500709534,-0.04474456235766411
1701713590668061200,6.988061279296875,-0.07696675509214401,0.06306997686624527,-0.038636088371276855
1701713590677655300,6.9976552734375,-0.07207997888326645,0.06429167091846466,-0.03374931216239929
1701713590687250400,7.00725048828125,-0.06719319522380829,0.06062658876180649,-0.02764083817601204
1701713590696844500,7.016844482421875,-0.05864133685827255,0.05085303261876106,-0.025197450071573257
1701713590706438000,7.02643798828125,-0.045202698558568954,0.04107947647571564,-0.022754060104489326
1701713590716032300,7.0360322265625,-0.03176405653357506,0.03130592033267021,-0.023975754156708717
1701713590725627100,7.045627197265625,-0.01954711228609085,0.022754060104489326,-0.03008422814309597
1701713590735221200,7.05522119140625,-0.008551862090826035,0.017867282032966614,-0.03497100621461868
1701713590744814800,7.06481494140625,-0.0012216945178806782,0.016645587980747223,-0.039857782423496246
1701713590754409000,7.074408935546875,0.004886778071522713,0.020310672000050545,-0.04107947647571564
1701713590764004000,7.084004150390625,0.008551862090826035,0.02641914412379265,-0.039857782423496246
1701713590773598200,7.09359814453125,0.009773556143045425,0.03130592033267021,-0.039857782423496246
1701713590783191600,7.103191650390625,0.009773556143045425,0.036192700266838074,-0.03497100621461868
1701713590792786000,7.112785888671875,0.009773556143045425,0.036192700266838074,-0.03008422814309597
1701713590802380800,7.122380859375,0.009773556143045425,0.0325276181101799,-0.022754060104489326
1701713590811975200,7.13197509765625,0.009773556143045425,0.022754060104489326,-0.015423892997205257
1701713590821568500,7.141568603515625,0.009773556143045425,0.01175880990922451,-0.010537114925682545
1701713590831162600,7.15116259765625,0.009773556143045425,0.004428642801940441,-0.010537114925682545
1701713590840757800,7.1607578125,0.007330167107284069,0.001985253533348441,-0.01175880990922451
1701713590850351900,7.170351806640625,0.004886778071522713,0.004428642801940441,-0.014202198944985867
1701713590859945200,7.1799453125,0.0024433890357613564,0.005650337319821119,-0.017867282032966614
1701713590869539600,7.18953955078125,-0.0012216945178806782,0.010537114925682545,-0.019088976085186005
1701713590879134500,7.199134521484375,-0.0024433890357613564,0.01175880990922451,-0.022754060104489326
1701713590888728600,7.208728515625,-0.0012216945178806782,0.016645587980747223,-0.020310672000050545
1701713590898322200,7.218322265625,0,0.017867282032966614,-0.017867282032966614
1701713590907916300,7.227916259765625,0.004886778071522713,0.020310672000050545,-0.012980503961443901
1701713590917511400,7.237511474609375,0.008551862090826035,0.021532366052269936,-0.008093725889921188
1701713590927105500,7.24710546875,0.010995250195264816,0.022754060104489326,-0.008093725889921188
1701713590936699000,7.256698974609375,0.012216945178806782,0.02886253222823143,-0.008093725889921188
1701713590946293200,7.266293212890625,0.013438640162348747,0.03008422814309597,-0.01175880990922451
1701713590955888000,7.27588818359375,0.013438640162348747,0.0325276181101799,-0.012980503961443901
1701713590965482200,7.285482177734375,0.013438640162348747,0.03130592033267021,-0.014202198944985867
1701713590975075800,7.295075927734375,0.013438640162348747,0.025197450071573257,-0.015423892997205257
1701713590984670000,7.304669921875,0.012216945178806782,0.019088976085186005,-0.015423892997205257
1701713590994265000,7.31426513671875,0.012216945178806782,0.015423892997205257,-0.020310672000050545
1701713591003859200,7.323859130859375,0.010995250195264816,0.014202198944985867,-0.022754060104489326
1701713591013452500,7.33345263671875,0.010995250195264816,0.01175880990922451,-0.025197450071573257
1701713591023047000,7.343046875,0.009773556143045425,0.0068720318377017975,-0.023975754156708717
1701713591032641800,7.352641845703125,0.007330167107284069,0.0007635590736754239,-0.022754060104489326
1701713591042236000,7.36223583984375,0.0024433890357613564,0.0007635590736754239,-0.019088976085186005
1701713591051829500,7.37182958984375,-0.0024433890357613564,-0.0016798300202935934,-0.017867282032966614
1701713591061423600,7.381423583984375,-0.006108472589403391,-0.0029015245381742716,-0.016645587980747223
1701713591071018800,7.391018798828125,-0.009773556143045425,-0.0029015245381742716,-0.016645587980747223
1701713591080612900,7.40061279296875,-0.009773556143045425,-0.0004581354442052543,-0.01175880990922451
1701713591090206200,7.410206298828125,-0.010995250195264816,0.001985253533348441,-0.010537114925682545
1701713591099800600,7.419800537109375,-0.013438640162348747,0.008093725889921188,-0.005650337319821119
1701713591109395500,7.4293955078125,-0.014660334214568138,0.012980503961443901,-0.004428642801940441
1701713591118989600,7.438989501953125,-0.014660334214568138,0.016645587980747223,-0.004428642801940441
1701713591128583200,7.448583251953125,-0.01588202826678753,0.017867282032966614,-0.0068720318377017975
1701713591138177300,7.45817724609375,-0.01588202826678753,0.020310672000050545,-0.010537114925682545
1701713591147772400,7.4677724609375,-0.013438640162348747,0.021532366052269936,-0.015423892997205257
1701713591157366500,7.477366455078125,-0.012216945178806782,0.019088976085186005,-0.023975754156708717
1701713591166959900,7.4869599609375,-0.012216945178806782,0.015423892997205257,-0.03008422814309597
1701713591176554200,7.49655419921875,-0.012216945178806782,0.008093725889921188,-0.038636088371276855
1701713591186149000,7.506149169921875,-0.009773556143045425,0.0007635590736754239,-0.04718795046210289
1701713591195743200,7.5157431640625,-0.009773556143045425,-0.007788302376866341,-0.056961506605148315
1701713591205336800,7.5253369140625,-0.007330167107284069,-0.016340164467692375,-0.06306997686624527
1701713591214931000,7.534930908203125,-0.0012216945178806782,-0.02489202655851841,-0.06062658876180649
1701713591224526000,7.544526123046875,0,-0.034665580838918686,-0.058183200657367706
1701713591234120200,7.5541201171875,-0.0012216945178806782,-0.037108972668647766,-0.0594048947095871
1701713591243713500,7.563713623046875,-0.0012216945178806782,-0.04077405482530594,-0.05329642444849014
1701713591253308000,7.573307861328125,-0.0012216945178806782,-0.03833066672086716,-0.0459662564098835
1701713591262902800,7.58290283203125,-0.0012216945178806782,-0.034665580838918686,-0.04107947647571564
1701713591272497000,7.592496826171875,-0.0024433890357613564,-0.028557108715176582,-0.037414394319057465
1701713591282090500,7.602090576171875,-0.006108472589403391,-0.02367033064365387,-0.038636088371276855
1701713591291684600,7.6116845703125,-0.012216945178806782,-0.018783552572131157,-0.038636088371276855
1701713591301279700,7.62127978515625,-0.01832541823387146,-0.020005248486995697,-0.04107947647571564
1701713591310873900,7.630873779296875,-0.023212196305394173,-0.02489202655851841,-0.04352286830544472
1701713591320467200,7.64046728515625,-0.026877280324697495,-0.02733541466295719,-0.04230117425322533
1701713591330061600,7.6500615234375,-0.028098974376916885,-0.028557108715176582,-0.037414394319057465
1701713591339656400,7.659656494140625,-0.029320668429136276,-0.029778804630041122,-0.03374931216239929
1701713591349250600,7.66925048828125,-0.028098974376916885,-0.032222192734479904,-0.03008422814309597
1701713591358844200,7.67884423828125,-0.025655584409832954,-0.033443886786699295,-0.023975754156708717
1701713591368438300,7.688438232421875,-0.02076880633831024,-0.032222192734479904,-0.020310672000050545
1701713591378033400,7.698033447265625,-0.013438640162348747,-0.02733541466295719,-0.016645587980747223
1701713591387627500,7.70762744140625,-0.008551862090826035,-0.02367033064365387,-0.015423892997205257
1701713591397220900,7.717220947265625,-0.0024433890357613564,-0.02367033064365387,-0.016645587980747223
1701713591406815200,7.726815185546875,0.0024433890357613564,-0.02367033064365387,-0.016645587980747223
1701713591416410000,7.73641015625,0.004886778071522713,-0.02244863659143448,-0.01175880990922451
1701713591426004200,7.746004150390625,0.006108472589403391,-0.02367033064365387,-0.005650337319821119
1701713591435597800,7.755597900390625,0.0036650835536420345,-0.02367033064365387,0.0016798300202935934
1701713591445192000,7.76519189453125,-0.0024433890357613564,-0.021226942539215088,0.005344913341104984
1701713591454787000,7.774787109375,-0.009773556143045425,-0.017561858519911766,0.007788302376866341
1701713591464381200,7.784381103515625,-0.014660334214568138,-0.011453386396169662,0.007788302376866341
1701713591473974500,7.793974609375,-0.01710372418165207,-0.0065666078589856625,0.007788302376866341
1701713591483569000,7.80356884765625,-0.01710372418165207,-0.004123218823224306,0.0065666078589856625
1701713591493163800,7.813163818359375,-0.014660334214568138,-0.004123218823224306,0.0065666078589856625
1701713591502758000,7.8227578125,-0.007330167107284069,-0.005344913341104984,0.004123218823224306
1701713591512351500,7.8323515625,0,-0.010231691412627697,0.0029015245381742716
1701713591521945600,7.841945556640625,0.008551862090826035,-0.01511846948415041,-0.001985253533348441
1701713591531540700,7.851540771484375,0.012216945178806782,-0.017561858519911766,-0.010537114925682545
1701713591541134800,7.861134765625,0.009773556143045425,-0.010231691412627697,-0.01175880990922451
1701713591550728200,7.870728271484375,0.0036650835536420345,-0.004123218823224306,-0.01175880990922451
1701713591560322600,7.880322509765625,-0.004886778071522713,0.004428642801940441,-0.010537114925682545
1701713591569917400,7.88991748046875,-0.010995250195264816,0.010537114925682545,-0.008093725889921188
1701713591579511600,7.899511474609375,-0.014660334214568138,0.014202198944985867,-0.005650337319821119
1701713591589105200,7.909105224609375,-0.012216945178806782,0.017867282032966614,-0.0032069480512291193
1701713591598699300,7.91869921875,-0.008551862090826035,0.020310672000050545,-0.0007635590736754239
1701713591608294400,7.92829443359375,-0.0036650835536420345,0.021532366052269936,-0.001985253533348441
1701713591617888500,7.937888427734375,0.0012216945178806782,0.020310672000050545,0.0016798300202935934
1701713591627481900,7.94748193359375,0.007330167107284069,0.014202198944985867,0.004123218823224306
1701713591637076000,7.957075927734375,0.014660334214568138,0.01175880990922451,0.004123218823224306
1701713591646671000,7.966671142578125,0.01832541823387146,0.017867282032966614,0.0004581354442052543
1701713591656265200,7.97626513671875,0.01588202826678753,0.03130592033267021,-0.0068720318377017975
1701713591665858800,7.98585888671875,0.008551862090826035,0.04963133856654167,-0.014202198944985867
1701713591675453000,7.995452880859375,-0.0036650835536420345,0.06306997686624527,-0.022754060104489326
1701713591685048000,8.005048095703126,-0.02076880633831024,0.07040014863014221,-0.02764083817601204
1701713591694642200,8.01464208984375,-0.04153761267662048,0.06917845457792282,-0.03497100621461868
1701713591704235500,8.024235595703125,-0.05131116881966591,0.054518118500709534,-0.037414394319057465
1701713591713830000,8.033829833984376,-0.05375456064939499,0.025197450071573257,-0.03497100621461868
1701713591723424800,8.0434248046875,-0.05619794875383377,-0.007788302376866341,-0.04107947647571564
1701713591733019100,8.05301904296875,-0.045202698558568954,-0.04077405482530594,-0.037414394319057465
1701713591742612500,8.062612548828126,-0.029320668429136276,-0.06032116711139679,-0.03374931216239929
1701713591752206600,8.07220654296875,-0.012216945178806782,-0.06520794332027435,-0.02764083817601204
1701713591761801700,8.0818017578125,0.0012216945178806782,-0.06154286116361618,-0.019088976085186005
1701713591771395800,8.091395751953126,0.007330167107284069,-0.051769305020570755,-0.01175880990922451
1701713591780989200,8.1009892578125,0.013438640162348747,-0.04077405482530594,-0.0068720318377017975
1701713591790583600,8.11058349609375,0.01954711228609085,-0.032222192734479904,-0.012980503961443901
1701713591800178400,8.120178466796874,0.02076880633831024,-0.02244863659143448,-0.021532366052269936
1701713591809772500,8.1297724609375,0.006108472589403391,-0.020005248486995697,-0.02764083817601204
1701713591819366100,8.1393662109375,-0.008551862090826035,-0.02489202655851841,-0.023975754156708717
1701713591828960300,8.148960205078126,-0.026877280324697495,-0.033443886786699295,-0.010537114925682545
1701713591838555400,8.158555419921875,-0.046424392610788345,-0.04443913698196411,0.007788302376866341
1701713591848149500,8.1681494140625,-0.06719319522380829,-0.052990999072790146,0.02367033064365387
1701713591857742800,8.177742919921876,-0.08796200156211853,-0.06398624926805496,0.028557108715176582
1701713591867337200,8.187337158203125,-0.10628741979598999,-0.06642963737249374,0.028557108715176582
1701713591876932000,8.19693212890625,-0.11972606182098389,-0.0590994730591774,0.02489202655851841
1701713591886526500,8.2065263671875,-0.11361759155988693,-0.03955236077308655,0.02489202655851841
1701713591896119800,8.216119873046875,-0.10140064358711243,-0.020005248486995697,0.016340164467692375
1701713591905714000,8.2257138671875,-0.09040539711713791,0.001985253533348441,-0.0007635590736754239
1701713591915309000,8.23530908203125,-0.06719319522380829,0.015423892997205257,-0.008093725889921188
1701713591924903200,8.244903076171875,-0.03665083646774292,0.02641914412379265,-0.0068720318377017975
1701713591934496500,8.25449658203125,-0.004886778071522713,0.025197450071573257,0.0004581354442052543
1701713591944091000,8.2640908203125,0.024433890357613564,0.020310672000050545,0.017561858519911766
1701713591953685800,8.273685791015625,0.05008947476744652,0.016645587980747223,0.034665580838918686
1701713591963280000,8.28327978515625,0.07330167293548584,0.009315420873463154,0.051769305020570755
1701713591972873500,8.29287353515625,0.08918370306491852,-0.005344913341104984,0.06154286116361618
1701713591982467600,8.302467529296875,0.09407047927379608,-0.021226942539215088,0.06032116711139679
1701713591992062700,8.312062744140626,0.08918370306491852,-0.033443886786699295,0.04688252881169319
1701713592001656800,8.32165673828125,0.0794101431965828,-0.03955236077308655,0.028557108715176582
1701713592011250200,8.331250244140625,0.0647498071193695,-0.04077405482530594,0.013896775431931019
1701713592020844500,8.340844482421875,0.04886778071522713,-0.04199574887752533,0.0065666078589856625
1701713592030439400,8.350439453125,0.04031591862440109,-0.04077405482530594,0.011453386396169662
1701713592040033800,8.36003369140625,0.04153761267662048,-0.04199574887752533,0.020005248486995697
1701713592049627100,8.369627197265626,0.04886778071522713,-0.0456608310341835,0.02244863659143448
1701713592059221200,8.37922119140625,0.0525328628718853,-0.03955236077308655,0.013896775431931019
1701713592068816400,8.38881640625,0.045202698558568954,-0.02244863659143448,-0.01175880990922451
1701713592078410500,8.398410400390626,0.01832541823387146,0.0007635590736754239,-0.0459662564098835
1701713592088003800,8.40800390625,-0.028098974376916885,0.022754060104489326,-0.06673506647348404
1701713592097598200,8.41759814453125,-0.0781884491443634,0.036192700266838074,-0.06184828653931618
1701713592107193000,8.427193115234376,-0.11361759155988693,0.02886253222823143,-0.037414394319057465
1701713592116787500,8.436787353515625,-0.129499614238739,0.004428642801940441,-0.010537114925682545
1701713592126380800,8.446380859375,-0.12827792763710022,-0.0261137206107378,0.007788302376866341
1701713592135975200,8.45597509765625,-0.11483928561210632,-0.04932591691613197,0.013896775431931019
1701713592145570000,8.465570068359375,-0.09529217332601547,-0.06154286116361618,0.013896775431931019
1701713592155164200,8.4751640625,-0.07330167293548584,-0.06032116711139679,0.011453386396169662
1701713592164757500,8.484757568359376,-0.04886778071522713,-0.052990999072790146,0.013896775431931019
1701713592174352000,8.494351806640625,-0.025655584409832954,-0.051769305020570755,0.012675080448389053
1701713592183946800,8.50394677734375,-0.010995250195264816,-0.04810422286391258,0.0004581354442052543
1701713592193541000,8.513541015625,0,-0.050547610968351364,-0.001985253533348441
1701713592203134500,8.523134521484375,0.0036650835536420345,-0.05421269312500954,0.004123218823224306
1701713592212728600,8.532728515625,-0.0024433890357613564,-0.051769305020570755,0.020005248486995697
1701713592222323700,8.54232373046875,-0.01588202826678753,-0.0456608310341835,0.04077405482530594
1701713592231917800,8.551917724609375,-0.03176405653357506,-0.033443886786699295,0.06154286116361618
1701713592241511400,8.561511474609375,-0.05131116881966591,-0.021226942539215088,0.07864658534526825
1701713592251105500,8.57110546875,-0.06719319522380829,-0.013896775431931019,0.09086353331804276
1701713592260700400,8.580700439453125,-0.07330167293548584,-0.011453386396169662,0.09330692142248154
1701713592270294800,8.590294677734375,-0.0659715011715889,-0.02244863659143448,0.09208522737026215
1701713592279888100,8.59988818359375,-0.04886778071522713,-0.04443913698196411,0.08842013776302338
1701713592289482500,8.609482421875,-0.03542914241552353,-0.05421269312500954,0.06887302547693253
1701713592299077400,8.619077392578125,-0.023212196305394173,-0.04932591691613197,0.04810422286391258
1701713592308671500,8.62867138671875,-0.023212196305394173,-0.020005248486995697,0.029778804630041122
1701713592318264800,8.638264892578125,-0.042759306728839874,0.015423892997205257,0.02244863659143448
1701713592327859200,8.647859130859375,-0.07207997888326645,0.05207473039627075,0.021226942539215088
1701713592337454300,8.657454345703124,-0.10262233763933182,0.07773031294345856,0.029778804630041122
1701713592347048400,8.66704833984375,-0.12216944992542267,0.12048961967229843,0.029778804630041122
1701713592356641800,8.676641845703125,-0.11972606182098389,0.1241547018289566,0.0029015245381742716
1701713592366236000,8.68623583984375,-0.1050657257437706,0.022754060104489326,0.009009997360408306
1701713592375831000,8.6958310546875,-0.1050657257437706,-0.04199574887752533,0.037108972668647766
1701713592385425200,8.705425048828126,-0.09284878522157669,-0.07009471952915192,0.06642963737249374
1701713592395018800,8.715018798828124,-0.07207997888326645,-0.03588727489113808,0.02733541466295719
1701713592404612900,8.72461279296875,-0.05008947476744652,0.0032069480512291193,-0.06429167091846466
1701713592414207700,8.734207763671876,-0.03542914241552353,-0.02244863659143448,-0.08872556686401367
1701713592423802000,8.743802001953124,-0.021990500390529633,-0.03588727489113808,-0.07406523078680038
1701713592433395500,8.7533955078125,-0.009773556143045425,-0.06032116711139679,-0.016645587980747223
1701713592442989800,8.76298974609375,-0.0024433890357613564,-0.06398624926805496,0.04810422286391258
1701713592452584700,8.772584716796874,-0.013438640162348747,-0.06765133142471313,0.111632339656353
1701713592462178800,8.7821787109375,-0.024433890357613564,-0.05421269312500954,0.18004722893238068
1701713592471772400,8.7917724609375,-0.028098974376916885,0.001985253533348441,0.1763821393251419
1701713592481366500,8.801366455078124,-0.03176405653357506,0.03130592033267021,0.13973131775856018
1701713592490961700,8.810961669921875,-0.03298575058579445,0.039857782423496246,0.0981936976313591
1701713592500555800,8.8205556640625,-0.024433890357613564,0.014202198944985867,0.04199574887752533
1701713592510149000,8.830149169921874,-0.010995250195264816,-0.016340164467692375,0.004123218823224306
1701713592519743200,8.8397431640625,-0.0012216945178806782,-0.032222192734479904,-0.01175880990922451
1701713592529338400,8.84933837890625,0.008551862090826035,-0.034665580838918686,-0.015423892997205257
1701713592538932500,8.858932373046875,0.01832541823387146,-0.031000498682260513,-0.015423892997205257
1701713592548526000,8.868526123046875,0.021990500390529633,-0.020005248486995697,-0.023975754156708717
1701713592558120200,8.8781201171875,0.01954711228609085,0.001985253533348441,-0.10582929104566574
1701713592567715300,8.88771533203125,0.008551862090826035,0.010537114925682545,-0.16691401600837708
1701713592577309400,8.897309326171875,-0.007330167107284069,0.02886253222823143,-0.18035265803337097
1701713592586902800,8.90690283203125,-0.013438640162348747,0.03497100621461868,-0.18035265803337097
1701713592596497200,8.9164970703125,-0.013438640162348747,0.03130592033267021,-0.15591876208782196
1701713592606092000,8.926092041015625,-0.007330167107284069,0.008093725889921188,-0.10582929104566574
1701713592615686100,8.93568603515625,-0.004886778071522713,-0.0029015245381742716,-0.04963133856654167
1701713592625279700,8.94527978515625,-0.0012216945178806782,-0.013896775431931019,-0.017867282032966614
1701713592634873900,8.954873779296875,0.008551862090826035,-0.037108972668647766,-0.02764083817601204
1701713592644469000,8.964468994140624,0.028098974376916885,-0.06642963737249374,-0.05085303261876106
1701713592654063000,8.97406298828125,0.0390942245721817,-0.0859767496585846,-0.06673506647348404
1701713592663656400,8.983656494140625,0.043981000781059265,-0.07986827939748764,-0.05085303261876106
1701713592673250800,8.993250732421876,0.03542914241552353,-0.07009471952915192,0.011453386396169662
1701713592682845700,9.002845703125,0.01832541823387146,-0.05787777900695801,0.08108997344970703
1701713592692439800,9.012439697265625,0.0024433890357613564,-0.034665580838918686,0.0981936976313591
1701713592702033400,9.022033447265626,-0.0012216945178806782,-0.016340164467692375,0.0590994730591774
1701713592711627500,9.03162744140625,-0.006108472589403391,-0.011453386396169662,0.01511846948415041
1701713592721222700,9.04122265625,-0.01588202826678753,0.005650337319821119,-0.005650337319821119
1701713592730816800,9.050816650390624,-0.023212196305394173,0.02764083817601204,0.0004581354442052543
1701713592740410000,9.06041015625,-0.025655584409832954,0.04107947647571564,0.01511846948415041
1701713592750004500,9.07000439453125,-0.024433890357613564,0.04107947647571564,0.02489202655851841
1701713592759599400,9.079599365234374,-0.006108472589403391,0.010537114925682545,0.005344913341104984
1701713592769193500,9.089193359375,0.021990500390529633,-0.029778804630041122,-0.06673506647348404
1701713592778787000,9.098787109375,0.05986303091049194,-0.037108972668647766,-0.11926792562007904
1701713592788381200,9.108381103515624,0.0659715011715889,-0.0065666078589856625,-0.10705098509788513
1701713592797976300,9.117976318359375,0.03420744836330414,0.06673506647348404,-0.03497100621461868
1701713592807570400,9.1275703125,-0.01832541823387146,0.14248012006282806,0.07498150318861008
1701713592817163800,9.137163818359374,-0.061084724962711334,0.1766875684261322,0.16905197501182556
1701713592826758100,9.146758056640625,-0.06719319522380829,0.1522536724805832,0.19837264716625214
1701713592836353000,9.15635302734375,-0.0525328628718853,0.08628217875957489,0.15683503448963165
1701713592845947100,9.165947021484374,-0.01588202826678753,0.014202198944985867,0.07375980913639069
1701713592855540700,9.175540771484375,0.028098974376916885,-0.05665608495473862,-0.03374931216239929
1701713592865134800,9.185134765625,0.06963659077882767,-0.09575030952692032,-0.14125843346118927
1701713592874730000,9.19472998046875,0.11239589750766754,-0.08108997344970703,-0.22189027070999146
1701713592884324000,9.204323974609375,0.1453816443681717,-0.06398624926805496,-0.27564483880996704
1701713592893917400,9.21391748046875,0.16126367449760437,-0.06887302547693253,-0.3049654960632324
1701713592903511600,9.223511474609374,0.15149012207984924,-0.0859767496585846,-0.30740886926651
1701713592913106700,9.233106689453125,0.11606097966432571,-0.06887302547693253,-0.24876753985881805
1701713592922700800,9.24270068359375,0.04886778071522713,0.005650337319821119,-0.13514995574951172
1701713592932294400,9.25229443359375,-0.0390942245721817,0.10460758954286575,0.005344913341104984
1701713592941888500,9.261888427734375,-0.11606097966432571,0.20356485247612,0.14339639246463776
1701713592951483600,9.271483642578126,-0.13805148005485535,0.24876753985881805,0.22036315500736237
1701713592961077800,9.281077880859375,-0.12705622613430023,0.1901262104511261,0.18615570664405823
1701713592970671000,9.290671142578125,-0.10262233763933182,0.07773031294345856,0.09330692142248154
1701713592980265500,9.300265380859376,-0.06963659077882767,-0.021226942539215088,0.005344913341104984
1701713592989860400,9.3098603515625,-0.021990500390529633,-0.07864658534526825,-0.06062658876180649
1701713592999454500,9.319454345703125,0.013438640162348747,-0.10308047384023666,-0.10338589549064636
1701713593009048000,9.329048095703126,0.028098974376916885,-0.10674555599689484,-0.0984991192817688
1701713593018642200,9.33864208984375,0.029320668429136276,-0.11529742181301117,-0.06429167091846466
1701713593028237300,9.3482373046875,0.024433890357613564,-0.11896250396966934,-0.021532366052269936
1701713593037831400,9.35783154296875,0.013438640162348747,-0.09086353331804276,0.020005248486995697
1701713593047424800,9.3674248046875,0.010995250195264816,-0.0065666078589856625,0.04443913698196411
1701713593057019100,9.37701904296875,0.01588202826678753,0.072843536734581,0.0456608310341835
1701713593066614000,9.386614013671876,0.01954711228609085,0.08994726091623306,0.017561858519911766
1701713593076208000,9.3962080078125,0.029320668429136276,0.08017370104789734,-0.015423892997205257
1701713593085801700,9.4058017578125,0.03176405653357506,0.04107947647571564,-0.0325276181101799
1701713593095395800,9.415395751953126,0.03542914241552353,0.001985253533348441,-0.02764083817601204
1701713593104991000,9.424990966796875,0.013438640162348747,-0.0261137206107378,-0.012980503961443901
1701713593114585000,9.434585205078125,-0.029320668429136276,-0.012675080448389053,0.0065666078589856625
1701713593124178400,9.444178466796876,-0.07207997888326645,0.03008422814309597,0.031000498682260513
1701713593133772800,9.453772705078125,-0.1050657257437706,0.07040014863014221,0.0590994730591774
1701713593143367700,9.46336767578125,-0.1319430023431778,0.09116895496845245,0.0859767496585846
1701713593152961800,9.4729619140625,-0.14782503247261047,0.10582929104566574,0.10430216789245605
1701713593162555100,9.48255517578125,-0.1453816443681717,0.11438114941120148,0.10918894410133362
1701713593172149500,9.4921494140625,-0.12461283802986145,0.10216420143842697,0.10552386194467545
1701713593181744600,9.50174462890625,-0.09529217332601547,0.06062658876180649,0.10796725004911423
1701713593191338800,9.5113388671875,-0.06963659077882767,0.021532366052269936,0.10552386194467545
1701713593200932000,9.52093212890625,-0.05375456064939499,-0.011453386396169662,0.0859767496585846
1701713593210526500,9.5305263671875,-0.03298575058579445,-0.016340164467692375,0.06154286116361618
1701713593220121300,9.540121337890625,-0.0036650835536420345,-0.0016798300202935934,0.03833066672086716
1701713593229715500,9.549715576171875,0.01954711228609085,0.03008422814309597,0.032222192734479904
1701713593239309000,9.55930908203125,0.03298575058579445,0.054518118500709534,0.028557108715176582
1701713593248903200,9.568903076171875,0.023212196305394173,0.06551336497068405,0.02733541466295719
1701713593258498300,9.578498291015626,0.007330167107284069,0.06551336497068405,0.037108972668647766
1701713593268092400,9.588092529296874,-0.0012216945178806782,0.06551336497068405,0.04443913698196411
1701713593277685800,9.597685791015625,-0.0024433890357613564,0.06917845457792282,0.0590994730591774
1701713593287279900,9.60727978515625,0,0.06429167091846466,0.0725381150841713
1701713593296875000,9.616875,0.010995250195264816,0.056961506605148315,0.07498150318861008
1701713593306469000,9.62646923828125,0.026877280324697495,0.0459662564098835,0.06276455521583557
1701713593316062700,9.636062744140625,0.05375456064939499,0.036192700266838074,0.037108972668647766
1701713593325656800,9.64565673828125,0.0781884491443634,0.019088976085186005,0.0004581354442052543
1701713593335251700,9.655251708984375,0.09284878522157669,-0.009009997360408306,-0.037414394319057465
1701713593344846000,9.66484619140625,0.10995250940322876,-0.028557108715176582,-0.06795676052570343
1701713593354439400,9.674439453125,0.12583453953266144,-0.04321744292974472,-0.08383878320455551
1701713593364033500,9.684033447265625,0.13316470384597778,-0.051769305020570755,-0.08383878320455551
1701713593373628700,9.693628662109376,0.12705622613430023,-0.051769305020570755,-0.08750387281179428
1701713593383222800,9.703222900390625,0.11483928561210632,-0.03588727489113808,-0.09239064902067184
1701713593392816000,9.712816162109375,0.10017894953489304,-0.010231691412627697,-0.09116895496845245
1701713593402410500,9.722410400390626,0.08063183724880219,0.008093725889921188,-0.08017370104789734
1701713593412005400,9.73200537109375,0.05986303091049194,0.009315420873463154,-0.056961506605148315
1701713593421599700,9.741599853515625,0.043981000781059265,0.0068720318377017975,-0.02764083817601204
1701713593431193000,9.751193115234376,0.029320668429136276,-0.007788302376866341,0.004123218823224306
1701713593440787500,9.760787353515624,0.010995250195264816,-0.02489202655851841,0.0261137206107378
1701713593450382300,9.77038232421875,-0.004886778071522713,-0.037108972668647766,0.04199574887752533
1701713593459976400,9.7799765625,-0.029320668429136276,-0.04199574887752533,0.05421269312500954
1701713593469569800,9.78956982421875,-0.03176405653357506,-0.037108972668647766,0.050547610968351364
1701713593479164200,9.7991640625,-0.03298575058579445,-0.03955236077308655,0.034665580838918686
1701713593488759000,9.808759033203126,-0.03542914241552353,-0.051769305020570755,0.011453386396169662
1701713593498353400,9.818353515625,-0.03542914241552353,-0.06642963737249374,-0.017867282032966614
1701713593507946800,9.82794677734375,-0.0390942245721817,-0.07498150318861008,-0.0459662564098835
1701713593517540900,9.837540771484376,-0.046424392610788345,-0.06887302547693253,-0.06306997686624527
1701713593527136000,9.847135986328125,-0.06352811306715012,-0.012675080448389053,-0.0594048947095871
1701713593536730000,9.856730224609375,-0.10262233763933182,0.055739812552928925,-0.03497100621461868
1701713593546323500,9.866323486328126,-0.1588202863931656,0.1119377613067627,-0.005650337319821119
1701713593555917800,9.875917724609375,-0.16492876410484314,0.1107160672545433,0.004123218823224306
1701713593565512700,9.8855126953125,-0.12583453953266144,0.07895200699567795,-0.009315420873463154
1701713593575106800,9.89510693359375,-0.08429691940546036,0.058183200657367706,-0.020310672000050545
1701713593584700400,9.904700439453125,-0.05008947476744652,0.04107947647571564,-0.03374931216239929
1701713593594294500,9.91429443359375,-0.01588202826678753,0.02886253222823143,-0.055739812552928925
1701713593603889700,9.9238896484375,0.012216945178806782,0.017867282032966614,-0.072843536734581
1701713593613483800,9.93348388671875,0.029320668429136276,0.021532366052269936,-0.07528692483901978
1701713593623077000,9.9430771484375,0.03665083646774292,0.019088976085186005,-0.07528692483901978
1701713593632671500,9.95267138671875,0.03787253051996231,0.008093725889921188,-0.06795676052570343
1701713593642266400,9.962266357421875,0.03787253051996231,0.010537114925682545,-0.072843536734581
1701713593651860500,9.971860595703125,0.03176405653357506,0.020310672000050545,-0.08383878320455551
1701713593661454000,9.9814541015625,0.01832541823387146,0.04963133856654167,-0.10460758954286575
1701713593671048200,9.991048095703125,-0.0012216945178806782,0.08139539510011673,-0.12904147803783417
1701713593680643300,10.000643310546875,-0.028098974376916885,0.11926792562007904,-0.14125843346118927
1701713593690237400,10.010237548828124,-0.0525328628718853,0.15958385169506073,-0.12781979143619537
1701713593699830800,10.019830810546875,-0.061084724962711334,0.18401773273944855,-0.09727742522954941
1701713593709425000,10.0294248046875,-0.06352811306715012,0.1913478970527649,-0.06429167091846466
1701713593719020000,10.03902001953125,-0.062306419014930725,0.19256959855556488,-0.04840964451432228
1701713593728614100,10.0486142578125,-0.047646086663007736,0.16813570261001587,-0.04963133856654167
1701713593738207700,10.058207763671875,-0.030542362481355667,0.1388150453567505,-0.06795676052570343
1701713593747801900,10.0678017578125,-0.009773556143045425,0.10705098509788513,-0.0984991192817688
1701713593757397000,10.07739697265625,0.012216945178806782,0.08017370104789734,-0.13026317954063416
1701713593766991000,10.0869912109375,0.030542362481355667,0.08261708915233612,-0.15958385169506073
1701713593776584400,10.09658447265625,0.05008947476744652,0.12048961967229843,-0.1889045089483261
1701713593786178600,10.106178466796875,0.07696675509214401,0.1620272397994995,-0.22433365881443024
1701713593795773700,10.115773681640626,0.10750912129878998,0.1632489264011383,-0.2573194205760956
1701713593805367800,10.125367919921874,0.13560809195041656,0.12781979143619537,-0.2707580327987671
1701713593814961200,10.134961181640625,0.14782503247261047,0.08994726091623306,-0.2548760175704956
1701713593824555500,10.144555419921875,0.13927318155765533,0.07528692483901978,-0.22555534541606903
1701713593834150400,10.154150390625,0.11483928561210632,0.08628217875957489,-0.19256959855556488
1701713593843744800,10.163744873046875,0.08185353130102158,0.11315945535898209,-0.15591876208782196
1701713593853338000,10.173338134765626,0.03787253051996231,0.15958385169506073,-0.11926792562007904
1701713593862932200,10.18293212890625,-0.004886778071522713,0.19623468816280365,-0.07406523078680038
1701713593872527400,10.19252734375,-0.043981000781059265,0.2157817929983139,-0.023975754156708717
1701713593882121500,10.20212158203125,-0.06963659077882767,0.2157817929983139,0.020005248486995697
1701713593891714800,10.21171484375,-0.09040539711713791,0.19501298666000366,0.05543438717722893
1701713593901309200,10.22130908203125,-0.10262233763933182,0.1779092699289322,0.08842013776302338
1701713593910904000,10.230904052734376,-0.11606097966432571,0.15836215019226074,0.11896250396966934
1701713593920498200,10.240498291015625,-0.11972606182098389,0.13148486614227295,0.14339639246463776
1701713593930091800,10.250091796875,-0.12339114397764206,0.10705098509788513,0.164165198802948
1701713593939686000,10.259685791015626,-0.12461283802986145,0.09239064902067184,0.18249061703681946
1701713593949281000,10.269281005859375,-0.130721315741539,0.06917845457792282,0.19348587095737457
1701713593958875100,10.278875244140625,-0.13438639044761658,0.0459662564098835,0.19959434866905212
1701713593968468500,10.288468505859376,-0.12827792763710022,0.03497100621461868,0.20692451298236847
1701713593978062800,10.298062744140625,-0.11483928561210632,0.037414394319057465,0.21181128919124603
1701713593987657700,10.30765771484375,-0.09651386737823486,0.04230117425322533,0.21425467729568481
1701713593997251800,10.317251953125,-0.07574506103992462,0.036192700266838074,0.21181128919124603
1701713594006845400,10.326845458984375,-0.0525328628718853,0.017867282032966614,0.19715094566345215
1701713594016439600,10.336439453125,-0.0390942245721817,-0.011453386396169662,0.15927842259407043
1701713594026034700,10.34603466796875,-0.03542914241552353,-0.02244863659143448,0.12018419802188873
1701713594035628800,10.35562890625,-0.029320668429136276,-0.02244863659143448,0.09941539168357849
1701713594045222100,10.36522216796875,-0.026877280324697495,-0.016340164467692375,0.10063708573579788
1701713594054816500,10.37481640625,-0.030542362481355667,-0.016340164467692375,0.10796725004911423
1701713594064411400,10.384411376953125,-0.03542914241552353,-0.020005248486995697,0.12140589207410812
1701713594074005500,10.394005615234375,-0.04031591862440109,-0.017561858519911766,0.12873606383800507
1701713594083599000,10.40359912109375,-0.046424392610788345,-0.011453386396169662,0.13362284004688263
1701713594093193200,10.413193115234375,-0.04886778071522713,-0.01511846948415041,0.13117945194244385
1701713594102788400,10.422788330078125,-0.05375456064939499,-0.010231691412627697,0.1104106456041336
1701713594112382500,10.432382568359374,-0.047646086663007736,-0.012675080448389053,0.0847550556063652
1701713594121975800,10.441975830078125,-0.045202698558568954,-0.04688252881169319,0.08231166750192642
1701713594131570000,10.45156982421875,-0.08063183724880219,-0.10552386194467545,0.11896250396966934
1701713594141165000,10.4611650390625,-0.13438639044761658,-0.14583978056907654,0.15439164638519287
1701713594150759200,10.47075927734375,-0.1844758689403534,-0.1910424828529358,0.18371231853961945
1701713594160352500,10.4803525390625,-0.237008735537529,-0.2411319613456726,0.22524993121623993
1701713594169947000,10.48994677734375,-0.2638860046863556,-0.23258009552955627,0.24479703605175018
1701713594179541800,10.499541748046875,-0.2993151545524597,-0.20692451298236847,0.25945737957954407
1701713594189136000,10.509135986328126,-0.30664533376693726,-0.1763821393251419,0.28999972343444824
1701713594198729500,10.5187294921875,-0.30908870697021484,-0.09941539168357849,0.30343836545944214
1701713594208323600,10.528323486328125,-0.32008397579193115,-0.011453386396169662,0.32665055990219116
1701713594217918700,10.537918701171876,-0.3408527672290802,0.055739812552928925,0.32665055990219116
1701713594227512800,10.547512939453124,-0.3823903799057007,0.12048961967229843,0.31443363428115845
1701713594237106200,10.557106201171875,-0.4349232614040375,0.17302247881889343,0.3107685446739197
1701713594246700500,10.566700439453125,-0.4715740978717804,0.18035265803337097,0.27411770820617676
1701713594256295400,10.57629541015625,-0.5204418897628784,0.13148486614227295,0.25090551376342773
1701713594265889500,10.5858896484375,-0.5607577562332153,0.15714046359062195,0.23258009552955627
1701713594275483100,10.595483154296875,-0.5864133834838867,0.23410721123218536,0.2411319613456726
1701713594285077200,10.6050771484375,-0.5473191738128662,0.3574983477592468,0.2435753494501114
1701713594294672400,10.61467236328125,-0.44958359003067017,0.48455458879470825,0.21058958768844604
1701713594304266500,10.6242666015625,-0.35917818546295166,0.6079457402229309,0.19348587095737457
1701713594313859800,10.63385986328125,-0.3005368411540985,0.6617003083229065,0.22036315500736237
1701713594323454000,10.643453857421875,-0.26755109429359436,0.6482616662979126,0.2313583940267563
1701713594333049000,10.653049072265626,-0.2761029601097107,0.649483323097229,0.2423536479473114
1701713594342643200,10.662643310546875,-0.29442837834358215,0.6274928450584412,0.24968381226062775
1701713594352236500,10.672236572265625,-0.28098973631858826,0.5541911721229553,0.2435753494501114
1701713594361831000,10.681830810546876,-0.22723518311977386,0.4869979918003082,0.23746687173843384
1701713594371426000,10.691426025390625,-0.18081079423427582,0.46867257356643677,0.2276933193206787
1701713594381020200,10.701020263671875,-0.1429382562637329,0.47111594676971436,0.22524993121623993
1701713594390613500,10.710613525390626,-0.08918370306491852,0.48577627539634705,0.2276933193206787
1701713594400208000,10.720207763671874,-0.010995250195264816,0.488219678401947,0.24724042415618896
1701713594409802800,10.729802734375,0.04031591862440109,0.5089884996414185,0.24601873755455017
1701713594419396900,10.73939697265625,0.05619794875383377,0.5493044257164001,0.27533939480781555
1701713594428990200,10.748990234375,0.01588202826678753,0.5798467397689819,0.35230615735054016
1701713594438584600,10.75858447265625,-0.01954711228609085,0.5688515305519104,0.44759833812713623
1701713594448179500,10.768179443359376,-0.04031591862440109,0.5578562617301941,0.5037962794303894
1701713594457773800,10.77777392578125,-0.06352811306715012,0.5688515305519104,0.5357130169868469
1701713594467367200,10.7873671875,-0.09407047927379608,0.6152759194374084,0.5491516590118408
1701713594476961300,10.796961181640626,-0.16615045070648193,0.7154548764228821,0.5833591222763062
1701713594486556400,10.806556396484375,-0.2724378705024719,0.7826480269432068,0.6371136903762817
1701713594496150500,10.816150634765625,-0.3762819170951843,0.6507050395011902,0.8154810667037964
1701713594505744000,10.825743896484376,-0.41171106696128845,0.39414918422698975,1.0317209959030151
1701713594515338200,10.835338134765625,-0.39827242493629456,0.1766875684261322,1.1648857593536377
1701713594524933000,10.84493310546875,-0.3970507085323334,0.09483403712511063,1.222305417060852
1701713594534527200,10.85452734375,-0.3665083646774292,0.038636088371276855,1.2638429403305054
1701713594544120800,10.864120849609375,-0.3640649616718292,0.3086305856704712,1.2613996267318726
1701713594553715000,10.87371484375,-0.24556060135364532,0.7337802648544312,1.387234091758728
1701713594563309800,10.883309814453124,-0.12705622613430023,0.9927794933319092,1.3053805828094482
1701713594572904200,10.892904296875,-0.0647498071193695,1.426481008529663,1.3628002405166626
1701713594582497500,10.90249755859375,-0.012216945178806782,1.7661120891571045,1.498408317565918
1701713594592091600,10.912091552734376,-0.03542914241552353,2.069092273712158,1.7293086051940918
1701713594601686800,10.921686767578125,-0.11972606182098389,2.1680495738983154,2.0029680728912354
1701713594611281000,10.931281005859375,-0.28098973631858826,2.04221510887146,2.164231777191162
1701713594620874500,10.94087451171875,-0.416597843170166,1.9921256303787231,2.4110140800476074
1701713594630468600,10.950468505859375,-0.517998456954956,2.0544321537017822,2.663904905319214
1701713594640063500,10.9600634765625,-0.4593571424484253,2.2584550380706787,2.710329294204712
1701713594649657900,10.969657958984374,-0.15515519678592682,2.632293462753296,2.502641201019287
1701713594659251200,10.979251220703125,0.34696123003959656,2.9523775577545166,2.65535306930542
1701713594668845300,10.98884521484375,0.8502993583679199,3.4288384914398193,2.7958478927612305
1701713594678440400,10.9984404296875,1.0799779891967773,3.6756205558776855,2.3987972736358643
1701713594688034600,11.00803466796875,0.8502993583679199,3.977379322052002,1.456870675086975
1701713594697628000,11.0176279296875,-0.20524467527866364,4.4941558837890625,0.17882554233074188
1701713594707222300,11.02722216796875,-1.510167121887207,4.177737236022949,-0.333064466714859
1701713594716817200,11.036817138671875,-2.5302820205688477,3.674398899078369,0.051769305020570755
1701713594726411300,11.046411376953126,-3.534514904022217,3.431281805038452,0.6737645268440247
1701713594736004900,11.0560048828125,-4.406805038452148,3.687837600708008,1.5411676168441772
1701713594745599000,11.065598876953125,-4.959010601043701,3.613314151763916,2.1862223148345947
1701713594755194000,11.075194091796876,-5.238778591156006,3.2565793991088867,2.346264362335205
1701713594764788200,11.084788330078124,-5.357283115386963,3.002466917037964,2.1104772090911865
1701713594774381600,11.094381591796875,-5.342622756958008,2.9523775577545166,1.6645587682724
1701713594783976000,11.103975830078125,-5.2143449783325195,3.0012452602386475,1.1551121473312378
1701713594793570800,11.11357080078125,-5.048194408416748,3.0794336795806885,0.6713211536407471
1701713594803165000,11.1231650390625,-4.8759355545043945,3.0036885738372803,0.2423536479473114
1701713594812758300,11.13275830078125,-4.723223686218262,2.7642364501953125,-0.10338589549064636
1701713594822352600,11.1423525390625,-4.632818222045898,2.511345863342285,-0.3501681983470917
1701713594831947500,11.151947509765625,-4.591280937194824,2.2266910076141357,-0.5150969624519348
1701713594841542000,11.1615419921875,-4.546078205108643,1.8162015676498413,-0.6274928450584412
1701713594851135200,11.17113525390625,-4.508205413818359,1.3263020515441895,-0.724006712436676
1701713594860729300,11.180729248046875,-4.478884696960449,0.8254073858261108,-0.8315158486366272
1701713594870324500,11.190324462890626,-4.414134979248047,0.333064466714859,-0.9622371196746826
1701713594879918600,11.199918701171875,-4.288300514221191,-0.11774080991744995,-1.1369394063949585
1701713594889512000,11.209511962890625,-4.09893798828125,-0.5198310017585754,-1.4154858589172363
1701713594899106300,11.219106201171876,-3.855820655822754,-0.34253260493278503,-1.6989189386367798
1701713594908701200,11.228701171875,-3.6200335025787354,0.7398887276649475,-1.7441216707229614
1701713594918295300,11.23829541015625,-3.2278695106506348,1.814979910850525,-1.6036267280578613
1701713594927889000,11.247888916015626,-2.6219091415405273,2.6310718059539795,-1.2652174234390259
1701713594937483000,11.25748291015625,-1.787491798400879,3.031787633895874,-0.7386670708656311
1701713594947078100,11.267078125,-0.8344173431396484,3.1075327396392822,-0.1119377613067627
1701713594956672300,11.27667236328125,-0.05619794875383377,3.2761266231536865,0.39140036702156067
1701713594966265600,11.286265625,0.3897205591201782,3.5974321365356445,0.70797199010849
1701713594975859700,11.295859619140625,0.6621584296226501,3.803898572921753,1.0146173238754272
1701713594985454800,11.305454833984374,0.9187142848968506,3.884530544281006,1.428771734237671
1701713594995049000,11.315049072265625,1.147171139717102,4.0775580406188965,1.8734685182571411
1701713595004642300,11.324642333984375,1.313321590423584,4.4880475997924805,2.2644107341766357
1701713595014236700,11.334236572265626,1.4049487113952637,5.080721855163574,2.5991551876068115
1701713595023831600,11.34383154296875,1.424495816230774,5.409358024597168,2.82883358001709
1701713595033425700,11.35342578125,1.1166287660598755,3.230923891067505,2.189887523651123
1701713595043019300,11.363019287109376,0.367730051279068,0.6238277554512024,1.152668833732605
1701713595052613400,11.37261328125,-0.3432961702346802,-0.36574479937553406,0.7140804529190063
1701713595062208500,11.38220849609375,-0.7623373866081238,-0.09941539168357849,0.7690566778182983
1701713595071802600,11.391802734375,-0.9333745837211609,0.6995728015899658,0.9865183234214783
1701713595081396000,11.40139599609375,-0.9529217481613159,1.1161706447601318,1.1465603113174438
1701713595090990300,11.410990234375,-0.8906152844429016,1.0697462558746338,1.2870551347732544
1701713595100585200,11.420585205078124,-0.7721109390258789,0.9732323884963989,1.48130464553833
1701713595110179300,11.430179443359375,-0.6572716236114502,1.0159916877746582,1.7048747539520264
1701713595119773000,11.43977294921875,-0.6474980711936951,1.019656777381897,1.8807986974716187
1701713595129367000,11.449366943359376,-0.7660024762153625,0.853506326675415,1.9919729232788086
1701713595138962200,11.458962158203125,-0.9810206890106201,0.6751389503479004,2.0432841777801514
1701713595148556300,11.468556396484376,-1.2340642213821411,0.5053234100341797,2.0408406257629395
1701713595158149600,11.478149658203124,-1.4441956281661987,0.2047865390777588,2.0322887897491455
1701713595167744000,11.487743896484375,-1.5578131675720215,-0.20081603527069092,2.035953998565674
1701713595177339000,11.4973388671875,-1.598129153251648,-0.47829338908195496,2.0603878498077393
1701713595186933000,11.50693310546875,-1.5993508100509644,-0.5833591222763062,2.0726046562194824
1701713595196526300,11.5165263671875,-1.6311148405075073,-0.6041279435157776,2.0200719833374023
1701713595206120700,11.52612060546875,-1.7190768718719482,-0.5393781065940857,1.9186712503433228
1701713595215715600,11.535715576171874,-1.8131474256515503,-0.3474193811416626,1.790393352508545
1701713595225309700,11.545309814453125,-1.848576545715332,-0.12262758612632751,1.6364598274230957
1701713595234903300,11.5549033203125,-1.8229209184646606,-0.034665580838918686,1.530172348022461
1701713595244497400,11.564497314453124,-1.7447324991226196,-0.10674555599689484,1.5436110496520996
1701713595254092500,11.574092529296875,-1.6225630044937134,-0.26067906618118286,1.6535634994506836
1701713595263686700,11.583686767578126,-1.5138322114944458,-0.39140036702156067,1.8197139501571655
1701713595273280000,11.593280029296874,-1.472294569015503,-0.5955760478973389,1.928444743156433
1701713595282874000,11.6028740234375,-1.5834687948226929,-1.0292776823043823,1.8624732494354248
1701713595292469200,11.61246923828125,-1.888892412185669,-1.3359229564666748,1.6608936786651611
1701713595302063400,11.6220634765625,-2.155221939086914,-1.2027583122253418,1.3921209573745728
1701713595311656700,11.63165673828125,-2.244405508041382,-0.5601469278335571,1.081810474395752
1701713595321251000,11.6412509765625,-2.121014356613159,0.4906630516052246,0.8276980519294739
1701713595330846200,11.65084619140625,-1.8070389032363892,1.608513593673706,0.6529957056045532
1701713595340440300,11.6604404296875,-1.4246485233306885,2.3451952934265137,0.4659237563610077
1701713595350033700,11.67003369140625,-1.2267340421676636,2.380624532699585,0.16660858690738678
1701713595359627800,11.679627685546874,-1.21818208694458,2.045880079269409,-0.11682453751564026
1701713595369223000,11.689222900390625,-1.2267340421676636,1.954253077507019,-0.23410721123218536
1701713595378817000,11.698817138671876,-1.2035218477249146,2.1338422298431396,-0.23899398744106293
1701713595388410400,11.708410400390624,-1.1593880653381348,2.3219830989837646,-0.2658712565898895
1701713595398004700,11.718004638671875,-1.1459494829177856,2.458812952041626,-0.39048412442207336
1701713595407599600,11.727599609375,-1.1888614892959595,2.485690116882324,-0.6519267559051514
1701713595417193700,11.73719384765625,-1.2340642213821411,2.3122096061706543,-1.0123265981674194
1701713595426787300,11.746787353515625,-1.1618314981460571,2.3036577701568604,-1.2114628553390503
1701713595436381400,11.75638134765625,-0.9773555994033813,2.204700469970703,-1.2798776626586914
1701713595445976600,11.7659765625,-0.6646018028259277,2.0837526321411133,-1.2530004978179932
1701713595455570700,11.77557080078125,-0.22967857122421265,2.256011724472046,-1.135717749595642
1701713595465164000,11.7851640625,0.24433889985084534,2.2376861572265625,-1.0831849575042725
1701713595474758100,11.794758056640624,0.5595360994338989,2.056875467300415,-1.075854778289795
1701713595484353300,11.804353271484375,0.7831062078475952,1.6903671026229858,-0.8754968047142029
1701713595493947400,11.813947509765624,0.8600729703903198,1.0550858974456787,-0.37704548239707947
1701713595503540700,11.823540771484375,0.7525638341903687,0.2426590770483017,0.24846212565898895
1701713595513135000,11.833135009765625,0.5607577562332153,-0.550373375415802,0.8423583507537842
1701713595522730000,11.84272998046875,0.35795649886131287,-1.0524898767471313,1.2565127611160278
1701713595532324000,11.852323974609375,0.2492256760597229,-1.2137534618377686,1.323706030845642
