time,seconds_elapsed,z,y,x
1701713583803419000,0.1234189453125,5.779563903808594,6.766603469848633,-0.9257232546806335
1701713583813013200,0.13301318359375,6.686742782592773,7.772187232971191,-2.3048863410949707
1701713583822608100,0.142608154296875,7.613363265991211,8.097909927368164,-2.7762725353240967
1701713583832202200,0.1522021484375,7.7593255043029785,7.990232944488525,-2.8986055850982666
1701713583841795800,0.1617958984375,7.967800140380859,7.3914289474487305,-3.0158538818359375
1701713583851390000,0.171389892578125,8.48016357421875,7.087540626525879,-3.202493906021118
1701713583860985000,0.180985107421875,8.616554260253906,6.807281494140625,-3.262314558029175
1701713583870579200,0.1905791015625,8.817551612854004,6.565606117248535,-3.434896945953369
1701713583880172500,0.200172607421875,8.791230201721191,6.675675868988037,-3.6023945808410645
1701713583889767000,0.209766845703125,8.235795974731445,6.888936519622803,-3.3795628547668457
1701713583899361800,0.21936181640625,7.63729190826416,7.066005229949951,-2.939283609390259
1701713583908956200,0.2289560546875,7.2421770095825195,7.386643409729004,-2.424527645111084
1701713583918549500,0.238549560546875,7.536793231964111,7.410571575164795,-2.082054853439331
1701713583928144000,0.248143798828125,7.958229064941406,7.350750923156738,-1.735095500946045
1701713583937738800,0.25773876953125,7.426723480224609,6.496214389801025,-0.3248256742954254
1701713583947332900,0.267332763671875,7.699504852294922,4.96630334854126,1.303191065788269
1701713583956926500,0.276926513671875,7.476972579956055,5.320740222930908,1.8394824266433716
1701713583966520600,0.2865205078125,8.128119468688965,5.9264235496521,1.6238292455673218
1701713583976115700,0.29611572265625,8.168797492980957,6.060421466827393,1.5281163454055786
1701713583985709800,0.305709716796875,7.572685241699219,5.969494342803955,1.669592022895813
1701713583995303200,0.31530322265625,7.350152969360352,6.479464530944824,1.231406331062317
1701713584004897500,0.3248974609375,7.649255752563477,6.718746662139893,1.5305092334747314
1701713584014492400,0.334492431640625,7.709076404571533,6.898507595062256,1.0372886657714844
1701713584024086800,0.344086669921875,7.946264743804932,7.113861560821533,0.39092740416526794
1701713584033680100,0.35368017578125,8.20229721069336,7.343572616577148,-0.511465847492218
1701713584043274200,0.363274169921875,8.345866203308105,7.3986077308654785,-1.1219347715377808
1701713584052869400,0.372869384765625,8.652446746826172,7.410571575164795,-1.6342978477478027
1701713584062463500,0.38246337890625,8.937192916870117,7.039684295654297,-1.4883357286453247
1701713584072056800,0.392056884765625,8.788837432861328,6.364609241485596,-0.8108677864074707
1701713584081651200,0.401651123046875,8.57348346710205,6.038886070251465,-0.16689938306808472
1701713584091246300,0.411246337890625,8.683553695678711,6.177670001983643,0.1899302899837494
1701713584100840400,0.42084033203125,8.367402076721191,6.438786506652832,0.5324030518531799
1701713584110433800,0.430433837890625,7.896015644073486,6.44596529006958,0.6879364848136902
1701713584120028200,0.440028076171875,7.591827869415283,6.474678993225098,0.6735795736312866
1701713584129623000,0.449623046875,7.51286506652832,6.634998321533203,0.48424747586250305
1701713584139217200,0.459217041015625,7.400402069091797,6.735496520996094,0.3574278950691223
1701713584148810800,0.468810791015625,7.215855598449707,6.716353893280029,0.3167499005794525
1701713584158404900,0.47840478515625,7.244569778442383,6.687640190124512,0.2928216755390167
1701713584168000000,0.488,7.534400463104248,6.682854652404785,0.32153555750846863
1701713584177594000,0.497593994140625,7.89123010635376,6.613462448120117,0.4459623098373413
1701713584187187500,0.5071875,8.16401195526123,6.651747703552246,0.6065805554389954
1701713584196781800,0.51678173828125,8.19272518157959,6.673283100128174,0.7716853022575378
1701713584206376700,0.526376708984375,8.073084831237793,6.790531635284424,0.7190431952476501
1701713584215971000,0.53597119140625,8.063512802124023,6.824030876159668,0.6496513485908508
1701713584225564400,0.545564453125,8.051548957824707,6.857829570770264,0.5395814776420593
1701713584235158800,0.55515869140625,7.931908130645752,6.86261510848999,0.5201398134231567
1701713584244753700,0.564753662109375,7.89840841293335,6.792924404144287,0.5276173949241638
1701713584254347800,0.57434765625,7.963014602661133,6.730710983276367,0.4794618487358093
1701713584263941400,0.58394140625,8.051548957824707,6.828816890716553,0.24975086748600006
1701713584273535500,0.593535400390625,8.111370086669922,6.785746097564697,0.27846473455429077
1701713584283130400,0.60313037109375,8.197511672973633,6.773781776428223,0.5225326418876648
1701713584292724700,0.612724853515625,8.106583595275879,6.7809600830078125,0.7692924737930298
1701713584302318000,0.622318115234375,7.881658554077148,6.865008354187012,0.6209374666213989
1701713584311912400,0.631912353515625,7.58943510055542,6.920042991638184,0.31914272904396057
1701713584321507300,0.64150732421875,7.232605457305908,6.922435760498047,-0.06161518394947052
1701713584331101400,0.651101318359375,6.9430742263793945,6.953542709350586,-0.46839502453804016
1701713584340695000,0.660695068359375,6.880860805511475,7.0061845779418945,-0.7606185078620911
1701713584350289200,0.6702890625,6.751648426055908,7.008577346801758,-0.7845467329025269
1701713584359884300,0.67988427734375,6.68435001373291,7.051648139953613,-0.5979065299034119
1701713584369478400,0.689478515625,6.689135551452637,7.0061845779418945,-0.33439695835113525
1701713584379071700,0.69907177734375,6.699006080627441,6.97986364364624,-0.15972091257572174
1701713584388666000,0.708666015625,6.722934246063232,6.994220733642578,0.046360939741134644
1701713584398261000,0.718260986328125,6.512066841125488,6.991827964782715,0.23778675496578217
1701713584407855000,0.727855224609375,6.332605361938477,6.9822564125061035,0.3287140130996704
1701713584417448700,0.73744873046875,6.119344711303711,7.037291526794434,0.3454637825489044
1701713584427042800,0.747042724609375,5.978168487548828,7.063612461090088,0.31435707211494446
1701713584436638000,0.756637939453125,5.8944196701049805,7.109076023101807,0.2952145040035248
1701713584446232000,0.766232177734375,5.937490463256836,7.089933395385742,0.27846473455429077
1701713584455825700,0.77582568359375,6.109773635864258,7.073183536529541,0.27367907762527466
1701713584465419800,0.785419677734375,6.4905314445495605,6.97986364364624,0.4052843451499939
1701713584475015000,0.795014892578125,6.878467559814453,6.8865437507629395,0.6137589812278748
1701713584484609000,0.804609130859375,7.144071102142334,6.80249547958374,0.7286145091056824
1701713584494202400,0.814202392578125,7.455437183380127,6.685247421264648,0.9296116232872009
1701713584503796700,0.823796630859375,7.603792190551758,6.678069114685059,0.9798609018325806
1701713584513391600,0.8333916015625,7.634898662567139,6.596713066101074,1.0348957777023315
1701713584522985700,0.84298583984375,7.541578769683838,6.668497562408447,0.989432156085968
1701713584532579300,0.852579345703125,7.390830993652344,6.725925445556641,0.9846464991569519
1701713584542173400,0.86217333984375,7.122535705566406,6.742675304412842,0.8841479420661926
1701713584551768600,0.8717685546875,6.842575550079346,6.785746097564697,0.7190431952476501
1701713584561362700,0.88136279296875,6.674778938293457,6.718746662139893,0.5057829022407532
1701713584570956000,0.8909560546875,6.579065799713135,6.685247421264648,0.2880360186100006
1701713584580550400,0.90055029296875,6.756433963775635,6.658926486968994,0.2665006220340729
1701713584590145300,0.910145263671875,6.921538829803467,6.5919270515441895,0.37896329164505005
1701713584599739400,0.919739501953125,7.084250450134277,6.512964248657227,0.36221352219581604
1701713584609333000,0.9293330078125,7.136892795562744,6.5512495040893555,0.22821545600891113
1701713584618927000,0.938927001953125,7.122535705566406,6.5847487449646,0.03439682722091675
1701713584628522200,0.948522216796875,7.048357963562012,6.608676910400391,-0.16929219663143158
1701713584638116400,0.958116455078125,6.919145584106445,6.637391090393066,-0.39900317788124084
1701713584647709700,0.967709716796875,6.686742782592773,6.70199728012085,-0.5521438121795654
1701713584657304000,0.977303955078125,6.457031726837158,6.742675304412842,-0.6218347549438477
1701713584666899000,0.98689892578125,6.294320106506348,6.778567314147949,-0.6816553473472595
1701713584676493300,0.996493408203125,6.227321147918701,6.79531717300415,-0.6960122585296631
1701713584686086700,1.006086669921875,6.311069488525391,6.828816890716553,-0.6218347549438477
1701713584695681000,1.015680908203125,6.428318023681641,6.908079147338867,-0.45643091201782227
1701713584705276000,1.02527587890625,6.4905314445495605,6.977470874786377,-0.28175488114356995
1701713584714870000,1.0348701171875,6.423532485961914,7.04925537109375,-0.1908276081085205
1701713584724463600,1.044463623046875,6.363711833953857,7.094718933105469,-0.1860419660806656
1701713584734057700,1.0540576171875,6.313462734222412,7.214360237121582,-0.29850462079048157
1701713584743652600,1.063652587890625,6.200999736785889,7.188039302825928,-0.3008974492549896
1701713584753247000,1.0732470703125,6.200999736785889,7.178467750549316,-0.3200400173664093
1701713584762840300,1.08284033203125,6.361319065093994,7.245467185974121,-0.3678964674472809
1701713584772434700,1.0924345703125,6.480959892272949,7.176074981689453,-0.3966103494167328
1701713584782029600,1.102029541015625,6.62213659286499,7.1234331130981445,-0.4588237404823303
1701713584791623700,1.111623779296875,6.715755939483643,7.1162543296813965,-0.542572557926178
1701713584801217300,1.12121728515625,6.818647384643555,7.09711217880249,-0.5665007829666138
1701713584810811400,1.130811279296875,6.916752815246582,7.140182971954346,-0.4492524564266205
1701713584820406500,1.140406494140625,6.9119672775268555,7.1856465339660645,-0.31046873331069946
1701713584830000600,1.150000732421875,6.921538829803467,7.2095746994018555,-0.22911277413368225
1701713584839594000,1.159593994140625,6.768397808074951,7.22871732711792,-0.29371899366378784
1701713584849188400,1.169188232421875,6.636493682861328,7.23589563369751,-0.49710890650749207
1701713584858783200,1.178783203125,6.571887493133545,7.216753005981445,-0.6888338327407837
1701713584868377300,1.18837744140625,6.562315940856934,7.171289443969727,-0.8108677864074707
1701713584877971000,1.197970947265625,6.626922130584717,7.137789726257324,-0.877866804599762
1701713584887565000,1.20756494140625,6.816254615783691,7.09711217880249,-0.9041878581047058
1701713584897160200,1.21716015625,7.0292158126831055,7.044469833374023,-0.877866804599762
1701713584906754300,1.22675439453125,7.213462829589844,6.999006271362305,-0.8994022011756897
1701713584916347600,1.23634765625,7.398009300231934,6.967899322509766,-0.9209375977516174
1701713584925942000,1.24594189453125,7.4841508865356445,6.927221775054932,-0.9472586512565613
1701713584935537000,1.255536865234375,7.517650604248047,6.900900363922119,-0.9376873970031738
1701713584945131300,1.26513134765625,7.517650604248047,6.900900363922119,-0.8635098934173584
1701713584954724600,1.274724609375,7.45782995223999,6.8264241218566895,-0.724726140499115
1701713584964319000,1.284319091796875,7.445865631103516,6.809674263000488,-0.5712863802909851
1701713584973913900,1.293913818359375,7.383652687072754,6.833602428436279,-0.37507495284080505
1701713584983508000,1.303508056640625,7.261618614196777,6.838387966156006,-0.17168502509593964
1701713584993101300,1.313101318359375,7.036394119262695,6.891329288482666,-0.09511470049619675
1701713585002695700,1.32269580078125,6.81386137008667,6.920042991638184,-0.13100704550743103
1701713585012290800,1.332290771484375,6.718148708343506,6.9822564125061035,-0.21714866161346436
1701713585021885000,1.341885009765625,6.401997089385986,7.054041385650635,-0.33439695835113525
1701713585031478300,1.351478271484375,6.667600154876709,7.09711217880249,-0.31046873331069946
1701713585041072600,1.36107275390625,6.837790012359619,7.058826923370361,-0.24586252868175507
1701713585050667500,1.37066748046875,7.002894401550293,7.037291526794434,-0.1908276081085205
1701713585060261600,1.38026171875,7.199106216430664,6.967899322509766,-0.1908276081085205
1701713585069855200,1.389855224609375,7.2349982261657715,6.9104719161987305,-0.16929219663143158
1701713585079449300,1.399449462890625,7.280761241912842,6.939185619354248,-0.15732808411121368
1701713585089044500,1.40904443359375,7.232605457305908,6.946363925933838,-0.11425728350877762
1701713585098638600,1.418638671875,7.091429233551025,6.946363925933838,-0.08793623000383377
1701713585108232000,1.42823193359375,6.928717136383057,6.9822564125061035,-0.0062811593525111675
1701713585117826300,1.437826416015625,6.768397808074951,6.989434719085693,0.07028916478157043
1701713585127421200,1.447421142578125,6.669992923736572,6.989434719085693,0.1013958603143692
1701713585137015300,1.457015380859375,6.581458568572998,6.991827964782715,-0.011066804639995098
1701713585146609000,1.46660888671875,6.507281303405762,6.975078105926514,-0.14775680005550385
1701713585156203000,1.476203125,6.521637916564941,6.872186660766602,-0.18125630915164948
1701713585165798100,1.485798095703125,6.569494724273682,6.824030876159668,-0.13100704550743103
1701713585175392300,1.495392333984375,6.67717170715332,6.852745056152344,-0.11186445504426956
1701713585184985600,1.504985595703125,6.749255180358887,6.845566272735596,-0.15254244208335876
1701713585194580000,1.514580078125,6.699006080627441,6.828816890716553,-0.243469700217247
1701713585204174800,1.5241748046875,6.62931489944458,6.874579429626465,-0.3535395562648773
1701713585213769000,1.53376904296875,6.502495765686035,6.932007312774658,-0.43968117237091064
1701713585223362600,1.543362548828125,6.4187469482421875,6.946363925933838,-0.39421752095222473
1701713585232956700,1.552956787109375,6.366104602813721,6.960721015930176,-0.24107688665390015
1701713585242551800,1.5625517578125,6.313462734222412,6.965506553649902,-0.11425728350877762
1701713585252146000,1.57214599609375,6.351747512817383,6.929614543914795,-0.023030918091535568
1701713585261739300,1.5817392578125,6.430710792541504,6.876972198486328,0.03200400248169899
1701713585271333600,1.591333740234375,6.526423931121826,6.821638107299805,0.027218356728553772
1701713585280928500,1.600928466796875,6.605386734008789,6.828816890716553,-0.02063809521496296
1701713585290522600,1.610522705078125,6.658029079437256,6.852745056152344,-0.07357929646968842
1701713585300116200,1.6201162109375,6.7540411949157715,6.860222339630127,-0.09032905846834183
1701713585309710300,1.62971044921875,6.844968318939209,6.865008354187012,-0.030209386721253395
1701713585319305500,1.639305419921875,6.856932163238525,6.869793891906738,0.020039889961481094
1701713585328899600,1.648899658203125,6.895217418670654,6.872186660766602,0.09182456880807877
1701713585338493000,1.658492919921875,6.871289253234863,6.867401123046875,0.21146570146083832
1701713585348087300,1.66808740234375,6.859325408935547,6.845566272735596,0.2353939265012741
1701713585357682200,1.67768212890625,6.780362129211426,6.79531717300415,0.11575279384851456
1701713585367276500,1.687276611328125,6.768397808074951,6.761817455291748,0.015254244208335876
1701713585376870000,1.696869873046875,6.823432922363281,6.7331037521362305,-0.0687936544418335
1701713585386464300,1.70646435546875,6.8497538566589355,6.697211265563965,-0.12382857501506805
1701713585396059100,1.71605908203125,6.9119672775268555,6.749853610992432,-0.09272187948226929
1701713585405653200,1.7256533203125,6.969395160675049,6.824030876159668,-0.08075776696205139
1701713585415246600,1.73524658203125,6.971787929534912,6.8264241218566895,-0.049651071429252625
1701713585424841000,1.744841064453125,6.93110990524292,6.847959518432617,-0.03529413416981697
1701713585434435800,1.754435791015625,6.900003433227539,6.860222339630127,0.010468599386513233
1701713585444030200,1.7640302734375,6.866503715515137,6.860222339630127,0.13968102633953094
1701713585453623600,1.77362353515625,6.854539394378662,6.812067031860352,0.24975086748600006
1701713585463218000,1.783218017578125,6.830611228942871,6.807281494140625,0.3717848062515259
1701713585472812800,1.792812744140625,6.804290294647217,6.843173503875732,0.3646063506603241
1701713585482407000,1.802406982421875,6.681957244873047,6.881757736206055,0.3047857880592346
1701713585492000300,1.812000244140625,6.569494724273682,6.932007312774658,0.20907287299633026
1701713585501594600,1.8215947265625,6.519245147705078,6.92482852935791,0.1133599728345871
1701713585511189800,1.831189697265625,6.524031162261963,6.922435760498047,0.022432712838053703
1701713585520784000,1.840783935546875,6.62213659286499,6.869793891906738,0.09182456880807877
1701713585530377200,1.850377197265625,6.766005039215088,6.860222339630127,0.1540379524230957
1701713585539971600,1.8599716796875,6.964609622955322,6.860222339630127,0.21625134348869324
1701713585549566500,1.86956640625,7.158428192138672,6.792924404144287,0.3717848062515259
1701713585559160600,1.87916064453125,7.304689407348633,6.768996238708496,0.4411766827106476
1701713585568754200,1.888754150390625,7.407580852508545,6.7570319175720215,0.481854647397995
1701713585578348300,1.898348388671875,7.421937465667725,6.754639148712158,0.5201398134231567
1701713585587943400,1.907943359375,7.354938507080078,6.7881388664245605,0.4627120792865753
1701713585597537500,1.91753759765625,7.2421770095825195,6.852745056152344,0.393320232629776
1701713585607131000,1.927130859375,7.1249284744262695,6.893722057342529,0.34307095408439636
1701713585616725200,1.936725341796875,7.048357963562012,6.898507595062256,0.33110684156417847
1701713585626320100,1.946320068359375,7.129714012145996,6.847959518432617,0.5177469849586487
1701713585635914200,1.955914306640625,7.215855598449707,6.831209659576416,0.6711867451667786
1701713585645507800,1.9655078125,7.251748085021973,6.790531635284424,0.8123632669448853
1701713585655102000,1.97510205078125,7.230212688446045,6.816852569580078,0.7884350419044495
1701713585664697000,1.984697021484375,7.246962547302246,6.857829570770264,0.7310073375701904
1701713585674291200,1.994291259765625,7.266404151916504,6.893722057342529,0.6592226624488831
1701713585683884500,2.003884521484375,7.264011383056641,6.874579429626465,0.5515456199645996
1701713585693478700,2.013478759765625,7.299903869628906,6.869793891906738,0.4746761918067932
1701713585703073800,2.02307373046875,7.2711896896362305,6.860222339630127,0.38614174723625183
1701713585712668000,2.03266796875,7.256833076477051,6.824030876159668,0.35024940967559814
1701713585722261500,2.042261474609375,7.227819919586182,6.785746097564697,0.359820693731308
1701713585731855600,2.051855712890625,7.266404151916504,6.768996238708496,0.3981058597564697
1701713585741450800,2.06145068359375,7.328617572784424,6.680461883544922,0.4651049077510834
1701713585751044900,2.071044921875,7.362117290496826,6.6708903312683105,0.48424747586250305
1701713585760638200,2.08063818359375,7.4123663902282715,6.735496520996094,0.3526422381401062
1701713585770232600,2.090232666015625,7.275975227355957,6.783353328704834,0.18514464795589447
1701713585779827500,2.099827392578125,7.093822002410889,6.809674263000488,0.07746763527393341
1701713585789421600,2.109421630859375,6.895217418670654,6.809674263000488,-0.00867398176342249
1701713585799015200,2.11901513671875,6.833003997802734,6.747460842132568,0.12053844332695007
1701713585808609300,2.128609375,6.890431880950928,6.725925445556641,0.30239295959472656
1701713585818204400,2.138204345703125,7.041179656982422,6.7331037521362305,0.4100699722766876
1701713585827798500,2.147798583984375,7.153642177581787,6.663712024688721,0.4459623098373413
1701713585837392000,2.157391845703125,7.1488566398620605,6.596713066101074,0.4531407952308655
1701713585846986200,2.166986328125,7.2421770095825195,6.587141513824463,0.4220340847969055
1701713585856581000,2.1765810546875,7.335795879364014,6.572784900665283,0.5225326418876648
1701713585866175200,2.18617529296875,7.414759159088135,6.57757043838501,0.6329016089439392
1701713585875768800,2.195768798828125,7.400402069091797,6.536892414093018,0.6376872062683105
1701713585885363000,2.205363037109375,7.405188083648682,6.474678993225098,0.6281159520149231
1701713585894958000,2.2149580078125,7.417151927947998,6.44596529006958,0.6592226624488831
1701713585904552200,2.22455224609375,7.40279483795166,6.417251110076904,0.6544370055198669
1701713585914145500,2.2341455078125,7.400402069091797,6.378965854644775,0.6544370055198669
1701713585923740000,2.243739990234375,7.424330234527588,6.378965854644775,0.6448656916618347
1701713585933334800,2.253334716796875,7.479365348815918,6.338288307189941,0.7381857633590698
1701713585942929000,2.262928955078125,7.479365348815918,6.350252151489258,0.6879364848136902
1701713585952522500,2.2725224609375,7.479365348815918,6.307181358337402,0.6544370055198669
1701713585962116600,2.28211669921875,7.5463643074035645,6.319145679473877,0.5874379873275757
1701713585971711700,2.291711669921875,7.622934818267822,6.345466613769531,0.5802595019340515
1701713585981305900,2.301305908203125,7.70668363571167,6.3717875480651855,0.5850451588630676
1701713585990899200,2.310899169921875,7.833802223205566,6.359823703765869,0.6137589812278748
1701713586000493600,2.32049365234375,7.927122116088867,6.39810848236084,0.6759724020957947
1701713586010088400,2.33008837890625,8.257331848144531,6.285346984863281,0.9415757060050964
1701713586019682600,2.3396826171875,8.441878318786621,6.196812629699707,0.8817551732063293
1701713586029276200,2.349276123046875,8.221439361572266,6.278168201446533,0.4004986882209778
1701713586038870300,2.358870361328125,7.730611801147461,6.297610282897949,0.14446666836738586
1701713586048465400,2.36846533203125,7.194320201873779,6.4579291343688965,-0.3535395562648773
1701713586058059500,2.3780595703125,7.074679374694824,6.713961124420166,-0.5617151260375977
1701713586067652900,2.38765283203125,7.019644260406494,6.026922225952148,0.656829833984375
1701713586077247000,2.3972470703125,7.144071102142334,6.412465572357178,0.7214360237121582
1701713586086842000,2.406842041015625,6.775576591491699,6.556035041809082,0.7956135272979736
1701713586096436200,2.416436279296875,6.40438985824585,6.529714107513428,0.7262216806411743
1701713586106029800,2.42602978515625,6.081059455871582,6.527320861816406,0.7334001660346985
1701713586115624000,2.4356240234375,6.244070529937744,6.443572044372559,0.9678967595100403
1701713586125219000,2.445218994140625,6.727719783782959,6.280561447143555,1.1955139636993408
1701713586134813200,2.454813232421875,7.386045455932617,6.08195686340332,1.1548360586166382
1701713586144406500,2.464406494140625,8.123333930969238,5.914459228515625,0.9104689955711365
1701713586154001000,2.4740009765625,8.70508861541748,5.650949954986572,0.7645068168640137
1701713586163595800,2.483595703125,8.879764556884766,5.4164533615112305,0.7238288521766663
1701713586173190000,2.49318994140625,8.755337715148926,5.840281963348389,-0.511465847492218
1701713586182783500,2.502783447265625,7.63729190826416,6.338288307189941,-0.45164528489112854
1701713586192377600,2.512377685546875,6.533602237701416,4.95912504196167,1.5855441093444824
1701713586201972700,2.52197265625,6.346961975097656,4.5113677978515625,2.560021162033081
1701713586211566800,2.53156689453125,6.468996047973633,4.901697158813477,2.268096685409546
1701713586221160200,2.54116015625,7.038786888122559,4.652843475341797,2.114656925201416
1701713586230754600,2.550754638671875,7.345367431640625,4.363012790679932,1.3366905450820923
1701713586240349400,2.560349365234375,7.299903869628906,4.162015914916992,0.6903293132781982
1701713586249943600,2.569943603515625,7.050751209259033,4.008575916290283,0.6281159520149231
1701713586259537200,2.579537109375,7.057929515838623,3.8315072059631348,0.8099704384803772
1701713586269131300,2.58913134765625,7.342974662780762,3.7022948265075684,1.0827522277832031
1701713586278726400,2.598726318359375,7.730611801147461,3.6544384956359863,1.3127623796463013
1701713586288320500,2.608320556640625,8.010870933532715,3.565903902053833,1.2625130414962769
1701713586297913900,2.617913818359375,7.9055867195129395,3.4555349349975586,1.236191987991333
1701713586307508200,2.62750830078125,7.929515361785889,3.2090742588043213,0.9655039310455322
1701713586317103000,2.63710302734375,7.610970497131348,2.8187451362609863,1.1404790878295898
1701713586326697200,2.646697265625,6.605386734008789,2.56510591506958,1.5329020023345947
1701713586336290800,2.656290771484375,5.554339408874512,2.5435705184936523,1.82273268699646
1701713586345885000,2.665885009765625,4.728516578674316,2.6081767082214355,1.8610178232192993
1701713586355480000,2.67547998046875,3.9936211109161377,2.770888566970825,1.7078771591186523
1701713586365074200,2.68507421875,3.7205400466918945,2.746960401535034,1.3127623796463013
1701713586374667500,2.69466748046875,4.156332969665527,2.4502503871917725,0.8793623447418213
1701713586384262000,2.704261962890625,4.764409065246582,1.8661025762557983,0.9990034699440002
1701713586393856800,2.713856689453125,5.386841773986816,1.3657035827636719,1.5448660850524902
1701713586403451000,2.723450927734375,5.9422760009765625,0.9969097375869751,3.060420274734497
1701713586413044200,2.733044189453125,5.875277042388916,0.9873384237289429,4.324428558349609
1701713586422638600,2.742638671875,5.671886920928955,0.9131609201431274,4.784149646759033
1701713586432233700,2.752233642578125,5.44426965713501,0.6209374666213989,4.822434902191162
1701713586441827800,2.761827880859375,5.070989608764648,0.2955136001110077,4.695615291595459
1701713586451421200,2.771421142578125,4.7141594886779785,-0.24795624613761902,4.915754795074463
1701713586461015600,2.781015625,4.237689018249512,-0.7627122402191162,6.225526332855225
1701713586470610400,2.7906103515625,3.2512478828430176,-0.8392825126647949,8.2124662399292
1701713586480204500,2.80020458984375,2.305783748626709,-0.7124629616737366,10.398309707641602
1701713586489798000,2.8097978515625,1.2475578784942627,-0.6047859191894531,11.995220184326172
1701713586499392300,2.819392333984375,0.17976079881191254,-0.4540380835533142,12.364013671875
1701713586508987100,2.828987060546875,-0.8162516355514526,-0.31016963720321655,12.08614730834961
1701713586518581200,2.838581298828125,-1.4554343223571777,-0.5138586759567261,12.095718383789062
1701713586528174800,2.8481748046875,-1.807478427886963,-0.753140926361084,12.04786205291748
1701713586537769000,2.85776904296875,-2.1281166076660156,-0.3317050337791443,13.237692832946777
1701713586547364000,2.867364013671875,-2.630908489227295,0.17587246000766754,14.564213752746582
1701713586556958200,2.876958251953125,-3.0643084049224854,0.5563312768936157,14.949458122253418
1701713586566551600,2.886551513671875,-3.696312665939331,1.2580264806747437,14.233705520629883
1701713586576146000,2.89614599609375,-4.311567306518555,1.7533408403396606,13.211372375488281
1701713586585740800,2.90574072265625,-4.811966419219971,1.6815561056137085,11.789437294006348
1701713586595335000,2.9153349609375,-4.759324073791504,1.6193426847457886,10.491629600524902
1701713586604928300,2.92492822265625,-4.067499160766602,1.3154542446136475,9.773484230041504
1701713586614522600,2.934522705078125,-5.235795021057129,0.6209374666213989,9.285049438476562
1701713586624117500,2.944117431640625,-12.655040740966797,0.5994020700454712,9.814162254333496
1701713586633711600,2.953711669921875,-19.399211883544922,1.296311616897583,9.15105152130127
1701713586643305200,2.96330517578125,-13.59362506866455,-0.43968117237091064,18.33709716796875
1701713586652899300,2.9728994140625,-4.711467742919922,0.32662028074264526,34.51407241821289
1701713586662494500,2.982494384765625,-0.11724831163883209,1.3130614757537842,25.60080909729004
1701713586672088600,2.992088623046875,0.2922234535217285,1.2194422483444214,12.483654975891113
1701713586681682000,3.001681884765625,-1.49611234664917,0.18305093050003052,9.25154972076416
1701713586691276300,3.0112763671875,0.23240290582180023,-1.6199408769607544,8.590831756591797
1701713586700871200,3.02087109375,3.033500909805298,-0.7076773047447205,5.784947872161865
1701713586710465300,3.03046533203125,3.691826343536377,-1.088435173034668,1.9208383560180664
1701713586720059000,3.040058837890625,2.210070848464966,-2.6949164867401123,2.433201551437378
1701713586729653000,3.049653076171875,-1.7186448574066162,-4.5837507247924805,4.882255554199219
1701713586739248000,3.059248046875,4.572983264923096,-18.43131446838379,17.38445472717285
1701713586748842200,3.06884228515625,1.074975609779358,-2.7116663455963135,4.96839714050293
1701713586758435600,3.078435546875,3.3903305530548096,0.7791628837585449,0.32153555750846863
1701713586768029700,3.08802978515625,-3.662813186645508,-9.206684112548828,17.41556167602539
1701713586777624800,3.097624755859375,-7.210771083831787,-3.5039896965026855,12.50279712677002
1701713586787219000,3.107218994140625,-1.9247267246246338,-6.783951282501221,9.036195755004883
1701713586796812500,3.1168125,0.9409775137901306,-2.0673987865448,2.6006991863250732
1701713586806406700,3.12640673828125,-5.812764644622803,-5.54387092590332,12.38794231414795
1701713586816001800,3.136001708984375,-1.8864415884017944,-7.8541412353515625,7.601997375488281
1701713586825596000,3.145595947265625,-1.8625133037567139,-7.6911301612854,5.926124572753906
1701713586835189200,3.155189208984375,-2.434697151184082,-9.414859771728516,7.386643409729004
1701713586844783600,3.16478369140625,-2.1807587146759033,-7.667201995849609,7.659425258636475
1701713586854378500,3.17437841796875,-2.654836654663086,-7.375277519226074,8.779864311218262
1701713586863972600,3.18397265625,-2.528017044067383,-7.8062849044799805,9.481260299682617
1701713586873566000,3.19356591796875,-1.7955143451690674,-8.893224716186523,8.734400749206543
1701713586883160300,3.203160400390625,-2.2046868801116943,-10.334301948547363,9.854840278625488
1701713586892755200,3.212755126953125,-2.3270199298858643,-11.4954195022583,10.092028617858887
1701713586902349300,3.222349365234375,-1.2185449600219727,-12.400504112243652,8.84925651550293
1701713586911943000,3.23194287109375,-2.0324037075042725,-10.441978454589844,7.2212395668029785
1701713586921537000,3.241537109375,-3.1217362880706787,-11.071590423583984,6.069693565368652
1701713586931132200,3.251132080078125,-1.1754741668701172,-8.258528709411621,5.9452667236328125
1701713586940726300,3.260726318359375,-1.9199410676956177,-3.7337005138397217,5.210371494293213
1701713586950319600,3.270319580078125,-1.2903295755386353,-5.096114158630371,6.3978095054626465
1701713586959914000,3.2799140625,-0.7899305820465088,-5.155934810638428,6.687341213226318
1701713586969508900,3.2895087890625,-0.33738797903060913,-4.7967119216918945,5.761019706726074
1701713586979103000,3.29910302734375,-1.0866405963897705,-5.206183910369873,5.466403484344482
1701713586988696600,3.308696533203125,-1.220937728881836,-6.010471343994141,5.210371494293213
1701713586998290700,3.318290771484375,-0.9574281573295593,-7.075875759124756,5.143372058868408
1701713587007885800,3.3278857421875,-0.732502818107605,-7.602595806121826,4.552045822143555
1701713587017480000,3.33747998046875,-0.9143573641777039,-8.0383882522583,3.3164522647857666
1701713587027073300,3.3470732421875,-0.4426721930503845,-7.796713352203369,2.9790642261505127
1701713587036667400,3.35666748046875,-0.2632105052471161,-7.3058857917785645,3.1657042503356934
1701713587046262500,3.366262451171875,-1.220937728881836,-8.965008735656738,4.216751575469971
1701713587055856600,3.375856689453125,-2.4993033409118652,-11.981461524963379,3.7618162631988525
1701713587065450200,3.3854501953125,-1.2640085220336914,-18.830915451049805,4.9995036125183105
1701713587075044400,3.39504443359375,-1.1874382495880127,-13.578371047973633,10.127921104431152
1701713587084639500,3.404639404296875,-2.7457640171051025,-6.62841796875,7.625925540924072
1701713587094233600,3.414233642578125,-1.6588243246078491,-8.512466430664062,3.1920254230499268
1701713587103827000,3.423826904296875,-0.7995018362998962,-8.924330711364746,3.6038899421691895
1701713587113421000,3.433421142578125,-1.067497968673706,-7.870891094207764,3.4244282245635986
1701713587123016200,3.44301611328125,-1.5966109037399292,-7.253243446350098,3.8479578495025635
1701713587132610300,3.4526103515625,-1.2329018115997314,-6.58265495300293,4.015754699707031
1701713587142203600,3.46220361328125,-0.7803592681884766,-7.413562774658203,4.278964996337891
1701713587151798000,3.471798095703125,-0.4570291340351105,-4.095315933227539,3.9391841888427734
1701713587161393000,3.481392822265625,-2.1592233180999756,7.470691204071045,-0.00867398176342249
1701713587170987300,3.4909873046875,-0.2799602448940277,-0.032602209597826004,2.9599215984344482
1701713587180580600,3.50058056640625,-0.10289137065410614,-4.006781578063965,3.426821231842041
1701713587190174700,3.5101748046875,0.06729813665151596,-3.3556346893310547,1.8849459886550903
1701713587199769900,3.519769775390625,0.24197418987751007,-2.9964120388031006,1.0827522277832031
1701713587209364000,3.529364013671875,-1.5822539329528809,-3.3077781200408936,-1.4380863904953003
1701713587218957300,3.538957275390625,-2.788834810256958,-6.503692150115967,-3.7531423568725586
1701713587228551700,3.5485517578125,-3.124129056930542,-7.957032680511475,-3.8799619674682617
1701713587238146600,3.558146484375,-3.289233922958374,-8.325826644897461,-2.764308452606201
1701713587247740700,3.56774072265625,-2.880061149597168,-8.754141807556152,-0.07118647545576096
1701713587257334300,3.577334228515625,-2.9255247116088867,-9.654440879821777,2.3829522132873535
1701713587266928400,3.586928466796875,-1.1682956218719482,-10.75813102722168,3.4316067695617676
1701713587276523500,3.5965234375,-1.6109678745269775,-17.78465461730957,5.344369411468506
1701713587286117600,3.60611767578125,-2.5591237545013428,-28.40250587463379,6.91974401473999
1701713587295711000,3.6157109375,0.6203392744064331,-35.70450210571289,14.484951972961426
1701713587305305000,3.62530517578125,0.09840483218431473,-23.968605041503906,6.471987247467041
1701713587314900200,3.634900146484375,-0.12921242415905,-12.939188003540039,1.7916259765625
1701713587324494300,3.644494384765625,-0.9119645357131958,-10.794022560119629,1.6648063659667969
1701713587334088000,3.654087890625,-1.0722836256027222,-9.458230018615723,1.2696914672851562
1701713587343682000,3.66368212890625,-1.3405789136886597,-9.13729190826416,1.0301101207733154
1701713587353277200,3.673277099609375,-1.8792630434036255,-9.008079528808594,1.2768700122833252
1701713587362871300,3.682871337890625,-1.5056836605072021,-9.451051712036133,1.5281163454055786
1701713587372464600,3.692464599609375,-1.5750755071640015,-9.70229721069336,2.011765718460083
1701713587382059000,3.70205908203125,-1.256830096244812,-9.79083251953125,2.160120725631714
1701713587391654000,3.71165380859375,-1.3956137895584106,-9.843474388122559,2.0931215286254883
1701713587401248000,3.721248046875,-1.4745769500732422,-9.90568733215332,2.0476579666137695
1701713587410841300,3.73084130859375,-1.4554343223571777,-9.975079536437988,1.8562321662902832
1701713587420435700,3.740435791015625,-1.3525429964065552,-10.080662727355957,1.6719847917556763
1701713587430030600,3.750030517578125,-1.1994023323059082,-10.33908748626709,1.418046474456787
1701713587439625000,3.759625,-1.1826525926589966,-10.683953285217285,1.3366905450820923
1701713587449218300,3.76921826171875,-1.189831018447876,-10.877771377563477,1.3701900243759155
1701713587458812700,3.778812744140625,-1.2352946996688843,-10.892128944396973,1.4012967348098755
1701713587468407600,3.788407470703125,-1.0651051998138428,-10.887343406677246,1.3151551485061646
1701713587478001700,3.798001708984375,-1.472184181213379,-10.334301948547363,0.9200403094291687
1701713587487595000,3.807594970703125,-0.6726822853088379,-9.465408325195312,0.8410771489143372
1701713587497189400,3.817189453125,-0.24406790733337402,-9.553942680358887,0.3239283561706543
1701713587506784300,3.8267841796875,-1.6827524900436401,-8.792427062988281,1.7030915021896362
1701713587516378400,3.83637841796875,-2.5160529613494873,-7.82064151763916,2.179263114929199
1701713587525972000,3.845971923828125,-2.089831590652466,-9.288040161132812,3.6732819080352783
1701713587535566000,3.855566162109375,-1.2616157531738281,-9.400503158569336,1.815554141998291
1701713587545161200,3.8651611328125,-1.3908281326293945,-9.620942115783691,2.028515338897705
1701713587554755300,3.87475537109375,-1.2305090427398682,-9.68076229095459,1.8059829473495483
1701713587564348700,3.8843486328125,-1.1392827033996582,-9.814760208129883,1.7653049230575562
1701713587573943000,3.893943115234375,-1.197009563446045,-9.903294563293457,1.7796618938446045
1701713587583538000,3.903537841796875,-1.3549357652664185,-9.903294563293457,1.8131613731384277
1701713587593132000,3.913132080078125,-1.4578272104263306,-9.838688850402832,1.851446509361267
1701713587602725600,3.9227255859375,-1.5607185363769531,-9.685547828674316,1.8658034801483154
1701713587612319700,3.93231982421875,-1.5702898502349854,-9.630513191223145,1.8562321662902832
1701713587621915000,3.941914794921875,-1.5583257675170898,-9.599406242370605,1.882553219795227
1701713587631509000,3.951509033203125,-1.5439687967300415,-9.57069206237793,1.9184455871582031
1701713587641102300,3.961102294921875,-1.4793626070022583,-9.601799011230469,1.9304096698760986
1701713587650696700,3.97069677734375,-1.472184181213379,-9.544371604919434,1.9208383560180664
1701713587660291600,3.98029150390625,-1.4793626070022583,-9.534799575805664,1.9471594095230103
1701713587669885700,3.9898857421875,-1.4865410327911377,-9.575477600097656,1.9615163803100586
1701713587679479000,3.99947900390625,-1.4841482639312744,-9.575477600097656,1.9591234922409058
1701713587689073400,4.009073486328125,-1.4889339208602905,-9.587442398071289,1.9543378353118896
1701713587698668300,4.018668212890625,-1.4769697189331055,-9.55633544921875,1.9280169010162354
1701713587708262700,4.0282626953125,-1.46500563621521,-9.640084266662598,1.975873351097107
1701713587717856000,4.03785595703125,-1.5224334001541138,-9.582656860351562,1.8993029594421387
1701713587727450400,4.047450439453125,-1.5032907724380493,-9.637691497802734,1.9950158596038818
1701713587737045200,4.057045166015625,-1.5104693174362183,-9.671191215515137,2.0237298011779785
1701713587746639400,4.066639404296875,-1.5080764293670654,-9.719047546386719,2.0309081077575684
1701713587756232700,4.076232666015625,-1.5583257675170898,-9.68794059753418,2.050050735473633
1701713587765827000,4.0858271484375,-1.536790370941162,-9.723833084106445,2.0548365116119385
1701713587775422000,4.095421875,-1.5272190570831299,-9.793225288391113,2.1003000736236572
1701713587785016300,4.105016357421875,-1.5726827383041382,-9.642477035522461,1.9974087476730347
1701713587794609700,4.114609619140625,-1.532004714012146,-9.728618621826172,2.0859432220458984
1701713587804203800,4.124203857421875,-1.5726827383041382,-9.616155624389648,2.0165512561798096
1701713587813799000,4.133798828125,-1.618146300315857,-9.597013473510742,2.028515338897705
1701713587823393000,4.14339306640625,-1.649253010749817,-9.55633544921875,2.0069799423217773
1701713587832986400,4.152986328125,-1.6707884073257446,-9.553942680358887,2.028515338897705
1701713587842580700,4.162580810546875,-1.6875381469726562,-9.55633544921875,2.0165512561798096
1701713587852175600,4.172175537109375,-1.7042878866195679,-9.575477600097656,2.0309081077575684
1701713587861769700,4.181769775390625,-1.7285152673721313,-9.582656860351562,2.011765718460083
1701713587871363300,4.19136328125,-1.7333009243011475,-9.582656860351562,1.999801516532898
1701713587880957400,4.20095751953125,-1.77397882938385,-9.589835166931152,1.973480463027954
1701713587890552600,4.210552490234375,-1.7548363208770752,-9.57069206237793,1.9351953268051147
1701713587900146700,4.220146728515625,-1.7380865812301636,-9.585049629211426,1.9232312440872192
1701713587909740000,4.229739990234375,-1.721037745475769,-9.628120422363281,1.9112670421600342
1701713587919334400,4.23933447265625,-1.7261223793029785,-9.632905960083008,1.8897316455841064
1701713587928929300,4.24892919921875,-1.7524434328079224,-9.642477035522461,1.8562321662902832
1701713587938523400,4.2585234375,-1.7572290897369385,-9.606584548950195,1.8299111127853394
1701713587948117000,4.268116943359375,-1.750050663948059,-9.608977317810059,1.8203397989273071
1701713587957711000,4.277711181640625,-1.721037745475769,-9.597013473510742,1.815554141998291
1701713587967306200,4.28730615234375,-1.7138592004776,-9.565906524658203,1.8251254558563232
1701713587976900400,4.296900390625,-1.7404793500900269,-9.534799575805664,1.8299111127853394
1701713587986493700,4.30649365234375,-1.745265007019043,-9.501300811767578,1.827518343925476
1701713587996088000,4.316088134765625,-1.685145378112793,-9.501300811767578,1.8753747940063477
1701713588005683000,4.325682861328125,-1.6516457796096802,-9.508479118347168,1.937588095664978
1701713588015277000,4.335277099609375,-1.567897081375122,-9.546764373779297,1.9830517768859863
1701713588024870400,4.344870361328125,-1.5200406312942505,-9.55633544921875,2.0404794216156006
1701713588034464800,4.35446484375,-1.4195420742034912,-9.606584548950195,2.1194427013397217
1701713588044059600,4.3640595703125,-1.3381860256195068,-9.659226417541504,2.160120725631714
1701713588053654000,4.373654052734375,-1.3046865463256836,-9.644869804382324,2.129014015197754
1701713588063247400,4.383247314453125,-1.2352946996688843,-9.685547828674316,2.1672990322113037
1701713588072841500,4.392841552734375,-1.2161520719528198,-9.668798446655273,2.129014015197754
1701713588082436600,4.4024365234375,-1.1922239065170288,-9.68076229095459,2.097907304763794
1701713588092030700,4.41203076171875,-1.2089736461639404,-9.714262008666992,2.0548365116119385
1701713588101624000,4.4216240234375,-1.2400803565979004,-9.690333366394043,2.0165512561798096
1701713588111218400,4.431218505859375,-1.225723385810852,-9.738189697265625,2.0141584873199463
1701713588120813300,4.440813232421875,-1.2137593030929565,-9.78126049041748,1.968694806098938
1701713588130407400,4.450407470703125,-1.189831018447876,-9.833903312683105,1.9112670421600342
1701713588140001000,4.4600009765625,-1.170688509941101,-9.848259925842285,1.8562321662902832
1701713588149595100,4.46959521484375,-1.1611171960830688,-9.843474388122559,1.7964116334915161
1701713588159190300,4.479190185546875,-1.1081759929656982,-9.893723487854004,1.7820546627044678
1701713588168784400,4.488784423828125,-1.0507482290267944,-9.91286563873291,1.7174484729766846
1701713588178377700,4.498377685546875,-1.038784146308899,-9.838688850402832,1.6094722747802734
1701713588187972000,4.50797216796875,-1.0052846670150757,-9.78843879699707,1.5137593746185303
1701713588197567000,4.51756689453125,-0.9550353288650513,-9.793225288391113,1.4228321313858032
1701713588207161000,4.5271611328125,-0.9239286184310913,-9.786046028137207,1.3414762020111084
1701713588216754700,4.536754638671875,-0.88803631067276,-9.795618057250977,1.291226863861084
1701713588226348800,4.546348876953125,-0.854536771774292,-9.800403594970703,1.2553346157073975
1701713588235944000,4.55594384765625,-0.8425726890563965,-9.860223770141602,1.173978567123413
1701713588245538000,4.5655380859375,-0.8377870321273804,-9.924830436706543,1.1356934309005737
1701713588255131400,4.57513134765625,-0.8066803216934204,-9.999306678771973,1.1356934309005737
1701713588264725800,4.584725830078125,-0.7588238716125488,-10.016056060791016,1.1285150051116943
1701713588274320600,4.594320556640625,-0.6894320249557495,-9.91286563873291,0.9702895879745483
1701713588283914800,4.603914794921875,-0.6272186636924744,-9.786046028137207,0.8267202377319336
1701713588293508400,4.61350830078125,-0.6583253145217896,-9.625727653503418,0.745364248752594
1701713588303102500,4.6231025390625,-0.6990033388137817,-9.506086349487305,0.6903293132781982
1701713588312697300,4.632697265625,-0.7444669604301453,-9.400503158569336,0.7190431952476501
1701713588322291700,4.642291748046875,-0.5096712112426758,-9.321539878845215,0.7740781307220459
1701713588331885000,4.651885009765625,-0.14117653667926788,-9.338289260864258,0.7932206988334656
1701713588341479400,4.6614794921875,0.04576273262500763,-9.37896728515625,0.745364248752594
1701713588351074300,4.67107421875,0.12711870670318604,-9.4028959274292,0.7501499056816101
1701713588360668400,4.68066845703125,0.11036894470453262,-9.388538360595703,0.7070791125297546
1701713588370261800,4.69026171875,0.20129621028900146,-9.419944763183594,0.7094719409942627
1701713588379856100,4.699856201171875,0.3568296730518341,-9.37896728515625,0.6113662123680115
1701713588389451000,4.709450927734375,0.33768710494041443,-9.295218467712402,0.6329016089439392
1701713588399045400,4.71904541015625,0.3496512174606323,-9.264111518859863,0.747757077217102
1701713588408638700,4.728638671875,0.41904306411743164,-9.242576599121094,0.714257538318634
1701713588418232800,4.73823291015625,0.5461617708206177,-9.28564739227295,0.9846464991569519
1701713588427828000,4.747827880859375,0.6035895347595215,-9.345467567443848,1.2385848760604858
1701713588437422000,4.757422119140625,0.6849454641342163,-9.434301376342773,1.3414762020111084
1701713588447015400,4.767015380859375,0.7806583642959595,-9.5802640914917,1.3965110778808594
1701713588456609800,4.77660986328125,1.1183454990386963,-9.530014038085938,1.5687943696975708
1701713588466204700,4.78620458984375,1.0606186389923096,-9.522835731506348,1.5807584524154663
1701713588475798800,4.795798828125,1.0701899528503418,-9.467801094055176,1.571187138557434
1701713588485392400,4.805392333984375,1.293021559715271,-9.465408325195312,1.6142579317092896
1701713588494986500,4.814986572265625,1.312164068222046,-9.412467002868652,1.6142579317092896
1701713588504581600,4.82458154296875,1.3456636667251587,-9.307182312011719,1.7102699279785156
1701713588514175700,4.83417578125,1.3073785305023193,-9.125328063964844,1.7270197868347168
1701713588523769000,4.84376904296875,1.1685947179794312,-8.996115684509277,1.7222341299057007
1701713588533363500,4.853363525390625,0.48364928364753723,-8.996115684509277,1.3989039659500122
1701713588542958300,4.862958251953125,0.7136593461036682,-9.156435012817383,1.2888340950012207
1701713588552552400,4.872552490234375,1.7312071323394775,-9.620942115783691,1.8753747940063477
1701713588562146000,4.88214599609375,1.8077775239944458,-10.078269958496094,1.662413477897644
1701713588571740200,4.891740234375,1.108774185180664,-10.64088249206543,1.0444670915603638
1701713588581335300,4.901335205078125,0.8452646136283875,-11.3207426071167,1.2337992191314697
1701713588590929400,4.910929443359375,0.6873382925987244,-11.825927734375,1.475474238395691
1701713588600522800,4.920522705078125,0.33050861954689026,-12.091530799865723,1.6190435886383057
1701713588610117000,4.9301171875,0.30179476737976074,-12.2135648727417,1.578365683555603
1701713588619712000,4.9397119140625,0.7423732280731201,-12.184850692749023,1.38933265209198
1701713588629306000,4.94930615234375,1.379163146018982,-11.892927169799805,1.205085277557373
1701713588638899700,4.958899658203125,0.9864411354064941,-11.521739959716797,0.9439685344696045
1701713588648493800,4.968493896484375,0.8045865893363953,-11.289636611938477,0.9032905697822571
1701713588658089000,4.9780888671875,0.8404789566993713,-11.17478084564209,0.6735795736312866
1701713588667683000,4.98768310546875,1.0968101024627686,-11.15085220336914,0.3981058597564697
1701713588677276400,4.9972763671875,1.4605190753936768,-11.239387512207031,0.15164513885974884
1701713588686870800,5.006870849609375,1.5849459171295166,-11.165209770202637,-0.22193430364131927
1701713588696465700,5.016465576171875,1.3384851217269897,-11.251351356506348,-0.24107688665390015
1701713588706059800,5.026059814453125,1.628016710281372,-11.339885711669922,-0.5401797294616699
1701713588715653000,5.035653076171875,1.6689938306808472,-11.258529663085938,-0.8826524615287781
1701713588725247500,5.04524755859375,1.623231053352356,-11.18913745880127,-0.9927222728729248
1701713588734842400,5.05484228515625,1.6423736810684204,-10.987841606140137,-1.119541883468628
1701713588744436700,5.064436767578125,1.3576277494430542,-11.327921867370605,-1.397408366203308
1701713588754030000,5.074030029296875,1.9250258207321167,-11.244173049926758,-0.8922237157821655
1701713588763624400,5.08362451171875,1.8221344947814941,-10.85145092010498,-0.7989036440849304
1701713588773219300,5.09321923828125,2.0757737159729004,-10.370194435119629,-0.5928218364715576
1701713588782813400,5.1028134765625,2.3823540210723877,-9.642477035522461,-0.45643091201782227
1701713588792406800,5.11240673828125,2.4852454662323,-8.818747520446777,-0.2027917206287384
1701713588802001200,5.122001220703125,2.26749849319458,-8.35453987121582,-0.0975075215101242
1701713588811596000,5.131595947265625,2.4206392765045166,-7.748857021331787,-0.025423740968108177
1701713588821190100,5.141190185546875,2.3967108726501465,-7.320242881774902,-0.2315055876970291
1701713588830783700,5.15078369140625,2.353640079498291,-6.898806571960449,-0.5521438121795654
1701713588840377900,5.1603779296875,2.6718854904174805,-6.855735778808594,-0.7199404835700989
1701713588849973000,5.169972900390625,2.8875386714935303,-7.03998327255249,-0.8491529226303101
1701713588859567000,5.179567138671875,2.954537868499756,-7.406384468078613,-0.8515457510948181
1701713588869160400,5.189160400390625,2.971287488937378,-7.5188469886779785,-0.7438687682151794
1701713588878754800,5.1987548828125,2.344068765640259,-7.442276477813721,-0.6218347549438477
1701713588888349700,5.208349609375,2.6407787799835205,-7.6767730712890625,-0.602692186832428
1701713588897943800,5.21794384765625,2.3727827072143555,-7.818248748779297,-0.19322042167186737
1701713588907537400,5.227537353515625,1.2667005062103271,-7.858926773071289,-0.047258246690034866
1701713588917131500,5.237131591796875,0.4956133961677551,-7.767999649047852,0.4124628007411957
1701713588926726700,5.2467265625,-0.2991028428077698,-7.796713352203369,0.46031925082206726
1701713588936320800,5.25632080078125,0.04336991161108017,-7.997710704803467,0.9583254456520081
1701713588945914000,5.2659140625,0.35443684458732605,-8.541180610656738,1.5616158246994019
1701713588955508200,5.27550830078125,-0.2919243574142456,-9.211469650268555,1.4156537055969238
1701713588965103400,5.285103271484375,-0.6655037999153137,-8.993722915649414,0.7262216806411743
1701713588974697500,5.294697509765625,-0.8449655175209045,-8.026424407958984,0.05593222752213478
1701713588984290800,5.304290771484375,0.3161516785621643,-6.221338748931885,0.13250255584716797
1701713588993885200,5.31388525390625,0.48843491077423096,-7.085446834564209,0.05593222752213478
1701713589003480300,5.323480224609375,1.3719847202301025,-6.446264266967773,-0.7151548862457275
1701713589013074400,5.333074462890625,2.588136672973633,-6.209374904632568,-0.7007979154586792
1701713589022667800,5.342667724609375,1.9824535846710205,-8.074280738830566,-0.4205385744571686
1701713589032262100,5.35226220703125,1.9968105554580688,-10.63370418548584,0.46749773621559143
1701713589041857000,5.36185693359375,2.087737798690796,-11.50977611541748,1.0926226377487183
1701713589051451100,5.371451171875,1.0582258701324463,-11.830713272094727,0.6999006271362305
1701713589061044500,5.38104443359375,1.841277003288269,-10.853843688964844,0.8315058946609497
1701713589070638800,5.390638916015625,1.108774185180664,-10.695917129516602,0.3239283561706543
1701713589080233700,5.400233642578125,1.0151549577713013,-10.248160362243652,0.498604416847229
1701713589089828000,5.409828125,0.4286143481731415,-9.539586067199707,0.5682953596115112
1701713589099421400,5.41942138671875,-0.39960137009620667,-9.759725570678711,0.5706881880760193
1701713589109015600,5.429015625,-0.9574281573295593,-10.413265228271484,0.8721838593482971
1701713589118610700,5.438610595703125,-1.6612170934677124,-10.650453567504883,1.2194422483444214
1701713589128204800,5.448204833984375,-1.7955143451690674,-11.39970588684082,1.8370895385742188
1701713589137798100,5.457798095703125,-1.8505492210388184,-10.875378608703613,2.394916296005249
1701713589147392500,5.467392578125,-1.4386845827102661,-10.43958568572998,2.8426733016967773
1701713589156987400,5.4769873046875,-1.4171491861343384,-10.044770240783691,3.0029923915863037
1701713589166581500,5.48658154296875,-1.7114664316177368,-10.059126853942871,3.2997024059295654
1701713589176175000,5.496175048828125,-2.1041884422302246,-10.60977554321289,3.6589248180389404
1701713589185769200,5.505769287109375,-2.389233350753784,-11.256136894226074,4.168895244598389
1701713589195364400,5.5153642578125,-2.6811578273773193,-11.81157112121582,4.499403953552246
1701713589204958500,5.52495849609375,-2.5016961097717285,-11.900105476379395,4.329214572906494
1701713589214551800,5.5345517578125,-1.92951238155365,-12.283255577087402,4.448855400085449
1701713589224146200,5.544146240234375,-1.5391831398010254,-12.599108695983887,4.391427993774414
1701713589233741000,5.553740966796875,-1.4123635292053223,-12.529716491699219,4.207180500030518
1701713589243335200,5.563335205078125,-1.7138592004776,-12.23539924621582,4.178466320037842
1701713589252928800,5.5729287109375,-2.1903300285339355,-11.95035457611084,4.2693939208984375
1701713589262523000,5.58252294921875,-2.504088878631592,-11.720643043518066,4.377070903778076
1701713589272118000,5.592117919921875,-2.6668007373809814,-11.588739395141602,4.4273200035095215
1701713589281712000,5.601712158203125,-2.7290141582489014,-11.521739959716797,4.4273200035095215
1701713589291305500,5.611305419921875,-2.740978240966797,-11.442776679992676,4.4344987869262695
1701713589300899800,5.62089990234375,-2.709871530532837,-11.232208251953125,4.322035789489746
1701713589310494700,5.63049462890625,-2.7553353309631348,-10.841879844665527,4.4344987869262695
1701713589320088800,5.6400888671875,-2.788834810256958,-10.291231155395508,4.334000110626221
1701713589329682400,5.649682373046875,-2.8103702068328857,-9.78126049041748,4.140181541442871
1701713589339276500,5.659276611328125,-3.0355947017669678,-9.362217903137207,4.197608947753906
1701713589348871700,5.66887158203125,-3.3658041954040527,-8.816354751586914,4.211966037750244
1701713589358465800,5.6784658203125,-3.617349624633789,-8.342576026916504,4.156930923461914
1701713589368059100,5.68805908203125,-3.8949170112609863,-8.035995483398438,4.386641979217529
1701713589377653500,5.697653564453125,-3.67238450050354,-7.772785186767578,4.250251293182373
1701713589387248400,5.707248291015625,-3.686741590499878,-7.607381343841553,4.362713813781738
1701713589396842500,5.716842529296875,-3.5647075176239014,-7.423133850097656,4.231108665466309
1701713589406436000,5.72643603515625,-4.077070713043213,-7.516454219818115,4.779364109039307
1701713589416030200,5.7360302734375,-4.16799783706665,-7.3058857917785645,4.638187408447266
1701713589425625000,5.745625,-4.282853603363037,-7.1596245765686035,4.578367233276367
1701713589435219500,5.755219482421875,-4.366602420806885,-7.037590503692627,4.544867515563965
1701713589444812800,5.764812744140625,-4.2230329513549805,-6.9466633796691895,4.2550368309021
1701713589454407200,5.7744072265625,-4.821537494659424,-7.092625617980957,4.7697930335998535
1701713589464002000,5.784001953125,-4.790431022644043,-6.949056148529053,4.693222522735596
1701713589473596200,5.79359619140625,-4.809573650360107,-6.9466633796691895,4.65015172958374
1701713589483189800,5.803189697265625,-4.706682205200195,-6.846164703369141,4.619044780731201
1701713589492783900,5.812783935546875,-4.709074974060059,-6.748058795928955,4.5807600021362305
1701713589502378800,5.822378662109375,-4.73300313949585,-6.594619274139404,4.753043174743652
1701713589511973000,5.83197314453125,-4.828716278076172,-6.448657035827637,4.875077247619629
1701713589521566500,5.84156640625,-4.852644443511963,-6.460621356964111,5.0356950759887695
1701713589531160800,5.851160888671875,-4.845465660095215,-6.56829833984375,5.107480049133301
1701713589540755700,5.860755615234375,-4.88853645324707,-6.712166786193848,5.255835056304932
1701713589550349800,5.870349853515625,-4.941178798675537,-6.865307331085205,5.241477966308594
1701713589559943200,5.879943115234375,-4.862215518951416,-6.996912479400635,5.188836097717285
1701713589569537500,5.88953759765625,-4.761716842651367,-7.16441011428833,5.0811591148376465
1701713589579132400,5.89913232421875,-5.063212871551514,-7.126124858856201,5.188836097717285
1701713589588726800,5.908726806640625,-5.400899887084961,-7.133303165435791,5.339583873748779
1701713589598320000,5.918320068359375,-5.56361198425293,-6.963412761688232,5.406582832336426
1701713589607914200,5.927914306640625,-5.683551788330078,-6.776772975921631,5.416153907775879
1701713589617509400,5.93750927734375,-5.568397521972656,-6.925127983093262,5.291727066040039
1701713589627103500,5.947103515625,-5.652445316314697,-6.7672014236450195,5.399404525756836
1701713589636696800,5.95669677734375,-5.537290573120117,-6.702595233917236,5.241477966308594
1701713589646291200,5.966291259765625,-5.657230854034424,-6.910770893096924,5.483152866363525
1701713589655886000,5.975885986328125,-5.640182018280029,-6.927520751953125,5.255835056304932
1701713589665480200,5.985480224609375,-5.585147380828857,-6.963412761688232,5.2869415283203125
1701713589675073800,5.99507373046875,-5.587540149688721,-6.898806571960449,5.200799942016602
1701713589684668000,6.00466796875,-5.566004753112793,-6.786344051361084,5.191228866577148
1701713589694263000,6.014262939453125,-5.355436325073242,-6.63559627532959,4.992325305938721
1701713589703857200,6.023857177734375,-5.180759906768799,-6.530013084411621,4.867898464202881
1701713589713450500,6.033450439453125,-4.737788677215576,-6.460621356964111,4.4344987869262695
1701713589723044900,6.043044921875,-5.111368179321289,-6.5180487632751465,4.846363067626953
1701713589732639700,6.0526396484375,-4.876572608947754,-6.539584159851074,4.721936225891113
1701713589742233900,6.06223388671875,-4.862215518951416,-6.580262184143066,4.743471622467041
1701713589751827500,6.071827392578125,-5.032105922698975,-6.645167350769043,4.932504653930664
1701713589761421600,6.081421630859375,-5.039284706115723,-6.683452606201172,5.038087844848633
1701713589771016700,6.0910166015625,-5.0225348472595215,-6.626025199890137,4.985146999359131
1701713589780610800,6.10061083984375,-5.034498691558838,-6.654738903045654,5.033302307128906
1701713589790204200,6.1102041015625,-5.0225348472595215,-6.688238620758057,5.124229907989502
1701713589799798300,6.11979833984375,-5.008177757263184,-6.683452606201172,5.148158073425293
1701713589809393400,6.129393310546875,-5.024927616119385,-6.69063138961792,5.148158073425293
1701713589818987500,6.138987548828125,-4.8191447257995605,-6.731309413909912,4.963611602783203
1701713589828581000,6.1485810546875,-5.152046203613281,-6.776772975921631,5.157729148864746
1701713589838175200,6.15817529296875,-5.082355499267578,-6.762415885925293,5.109872817993164
1701713589847770400,6.167770263671875,-5.048855781555176,-6.6714887619018555,5.001896858215332
1701713589857364500,6.177364501953125,-5.06799840927124,-6.621239185333252,5.062016487121582
1701713589866957800,6.186957763671875,-5.084748268127441,-6.5491557121276855,5.100301265716553
1701713589876552200,6.19655224609375,-5.094618320465088,-6.491727828979492,5.109872817993164
1701713589886147000,6.20614697265625,-5.13529634475708,-6.446264266967773,5.107480049133301
1701713589895741200,6.2157412109375,-5.192724227905273,-6.4079790115356445,5.164907455444336
1701713589905334500,6.22533447265625,-5.25972318649292,-6.386443614959717,5.320441246032715
1701713589914929000,6.234928955078125,-5.2716875076293945,-6.417550563812256,5.387440204620361
1701713589924524000,6.24452392578125,-5.266901969909668,-6.463014125823975,5.387440204620361
1701713589934118100,6.2541181640625,-5.219045162200928,-6.484549522399902,5.413761138916016
1701713589943711500,6.26371142578125,-5.089832782745361,-6.489335060119629,5.277370452880859
1701713589953305900,6.273305908203125,-5.029713153839111,-6.489335060119629,5.385047435760498
1701713589962900700,6.282900634765625,-5.041677474975586,-6.472585201263428,5.547759532928467
1701713589972494800,6.292494873046875,-4.924428939819336,-6.4319071769714355,5.42572546005249
1701713589982088400,6.30208837890625,-5.0225348472595215,-6.400800704956055,5.485546112060547
1701713589991682600,6.3116826171875,-4.948357105255127,-6.410371780395508,5.375475883483887
1701713590001277400,6.32127734375,-4.910071849822998,-6.419943332672119,5.320441246032715
1701713590010871800,6.330871826171875,-4.938786029815674,-6.415157318115234,5.344369411468506
1701713590020465200,6.340465087890625,-5.003392219543457,-6.4510498046875,5.394618511199951
1701713590030059300,6.350059326171875,-5.072783946990967,-6.486942291259766,5.413761138916016
1701713590039654400,6.359654296875,-5.125725269317627,-6.489335060119629,5.430510997772217
1701713590049248500,6.36924853515625,-5.161617755889893,-6.463014125823975,5.437689304351807
1701713590058841900,6.378841796875,-5.195116996765137,-6.441478729248047,5.408975601196289
1701713590068436200,6.388436279296875,-5.202295303344727,-6.4079790115356445,5.377869129180908
1701713590078031000,6.398031005859375,-5.209474086761475,-6.424728870391846,5.327619552612305
1701713590087625500,6.40762548828125,-5.197509765625,-6.429514408111572,5.291727066040039
1701713590097218800,6.41721875,-5.185545921325684,-6.455835342407227,5.2630133628845215
1701713590106813000,6.42681298828125,-5.168796062469482,-6.45822811126709,5.234299659729004
1701713590116408000,6.436407958984375,-5.166403293609619,-6.474977970123291,5.1840500831604
1701713590126002200,6.446002197265625,-5.221437931060791,-6.496513366699219,5.143372058868408
1701713590135595500,6.455595458984375,-5.228616714477539,-6.52044153213501,5.117051124572754
1701713590145190000,6.46518994140625,-5.223830699920654,-6.5252275466918945,5.0811591148376465
1701713590154784800,6.47478466796875,-5.219045162200928,-6.527620315551758,5.062016487121582
1701713590164379100,6.484379150390625,-5.195116996765137,-6.5252275466918945,5.069194793701172
1701713590173972500,6.493972412109375,-5.192724227905273,-6.5252275466918945,5.088337421417236
1701713590183566600,6.503566650390625,-5.209474086761475,-6.530013084411621,5.124229907989502
1701713590193161700,6.51316162109375,-5.2716875076293945,-6.539584159851074,5.160121917724609
1701713590202755800,6.522755859375,-5.300401210784912,-6.539584159851074,5.186442852020264
1701713590212349200,6.53234912109375,-5.309972763061523,-6.530013084411621,5.219942569732666
1701713590221943600,6.541943603515625,-5.257330417633057,-6.508477687835693,5.265406131744385
1701713590231538400,6.551538330078125,-5.221437931060791,-6.467799663543701,5.298905849456787
1701713590241132500,6.561132568359375,-5.197509765625,-6.417550563812256,5.30847692489624
1701713590250726100,6.57072607421875,-5.195116996765137,-6.3840508460998535,5.3347978591918945
1701713590260320300,6.5803203125,-5.199902534484863,-6.340980052947998,5.358726501464844
1701713590269915400,6.589915283203125,-5.214259624481201,-6.343372821807861,5.389832973480225
1701713590279509500,6.599509521484375,-5.235795021057129,-6.331408500671387,5.4281182289123535
1701713590289102800,6.609102783203125,-5.39132833480835,-6.147161483764648,5.658128261566162
1701713590298697000,6.618697021484375,-5.12811803817749,-6.39601469039917,5.222335338592529
1701713590308292000,6.6282919921875,-5.2405805587768555,-6.434299945831299,5.466403484344482
1701713590317886200,6.63788623046875,-5.254937648773193,-6.398407936096191,5.459224700927734
1701713590327479800,6.647479736328125,-5.235795021057129,-6.379265308380127,5.444868087768555
1701713590337074000,6.657073974609375,-5.226223945617676,-6.39601469039917,5.444868087768555
1701713590346669000,6.6666689453125,-5.226223945617676,-6.405586242675781,5.42572546005249
1701713590356263200,6.67626318359375,-5.19033145904541,-6.424728870391846,5.394618511199951
1701713590365856500,6.6858564453125,-5.173581600189209,-6.422336101531982,5.353940486907959
1701713590375450600,6.69545068359375,-5.18315315246582,-6.44387149810791,5.313262462615967
1701713590385045800,6.705045654296875,-5.156831741333008,-6.474977970123291,5.251049518585205
1701713590394640000,6.714639892578125,-5.1544389724731445,-6.50608491897583,5.193621635437012
1701713590404233500,6.7242333984375,-5.1783671379089355,-6.553941249847412,5.181657314300537
1701713590413827600,6.73382763671875,-5.214259624481201,-6.63559627532959,5.200799942016602
1701713590423422700,6.743422607421875,-5.465506076812744,-6.434299945831299,5.511867046356201
1701713590433016800,6.753016845703125,-5.1305108070373535,-6.707380771636963,5.0907301902771
1701713590442610200,6.762610107421875,-5.2405805587768555,-6.762415885925293,5.207978248596191
1701713590452204500,6.77220458984375,-5.288437366485596,-6.728916168212891,5.164907455444336
1701713590461799400,6.78179931640625,-5.266901969909668,-6.580262184143066,5.229514122009277
1701713590471393500,6.7913935546875,-5.31475830078125,-6.419943332672119,5.2390851974487305
1701713590480987100,6.800987060546875,-5.029713153839111,-6.391229152679443,4.669294357299805
1701713590490581200,6.810581298828125,-5.369792938232422,-6.333801746368408,5.416153907775879
1701713590500176100,6.820176025390625,-5.424828052520752,-6.10169792175293,5.62462854385376
1701713590509770500,6.8297705078125,-5.422435283660889,-6.1710896492004395,5.373083114624023
1701713590519363800,6.83936376953125,-5.365007400512695,-6.223731517791748,5.3108696937561035
1701713590528958200,6.848958251953125,-5.2716875076293945,-6.278766632080078,5.42572546005249
1701713590538553000,6.858552978515625,-5.424828052520752,-6.147161483764648,5.677270889282227
1701713590548147200,6.868147216796875,-5.4056854248046875,-6.135197162628174,5.650949954986572
1701713590557740800,6.87774072265625,-5.341079235076904,-6.118447303771973,5.615057468414307
1701713590567335000,6.8873349609375,-5.2477593421936035,-6.036792278289795,5.373083114624023
1701713590576929800,6.8969296875,-5.278865814208984,-5.953043460845947,5.820840358734131
1701713590586524200,6.906524169921875,-5.231009483337402,-5.8357954025268555,5.792126178741455
1701713590596117500,6.916117431640625,-5.257330417633057,-5.7735819816589355,5.823233127593994
1701713590605712000,6.9257119140625,-5.288437366485596,-5.785545825958252,5.806483268737793
1701713590615306800,6.935306640625,-5.32911491394043,-5.809474468231201,5.775376319885254
1701713590624900900,6.94490087890625,-5.367400169372559,-5.8692946434021,5.703591823577881
1701713590634494200,6.954494140625,-5.365007400512695,-5.936294078826904,5.68684196472168
1701713590644088600,6.964088623046875,-5.38415002822876,-5.981757640838623,5.650949954986572
1701713590653683700,6.97368359375,-5.341079235076904,-6.022435665130615,5.55733060836792
1701713590663277800,6.98327783203125,-5.341079235076904,-6.0248284339904785,5.504688262939453
1701713590672871200,6.99287109375,-5.331508159637451,-6.034399509429932,5.437689304351807
1701713590682465500,7.002465576171875,-5.345864772796631,-6.010471343994141,5.394618511199951
1701713590692060400,7.012060302734375,-5.365007400512695,-5.996114253997803,5.389832973480225
1701713590701654500,7.021654541015625,-5.4296135902404785,-5.974578857421875,5.394618511199951
1701713590711248000,7.031247802734375,-5.479863166809082,-5.9554362297058105,5.454439163208008
1701713590720842200,7.04084228515625,-5.532505035400391,-5.893223285675049,5.509474277496338
1701713590730437000,7.05043701171875,-5.542076110839844,-5.8692946434021,5.55733060836792
1701713590740031200,7.06003125,-5.513362407684326,-5.840580940246582,5.6461639404296875
1701713590749624800,7.069624755859375,-5.4774699211120605,-5.814260005950928,5.7155561447143555
1701713590759219000,7.079218994140625,-5.432006359100342,-5.802295684814453,5.761019706726074
1701713590768814000,7.08881396484375,-5.4056854248046875,-5.790331840515137,5.799304962158203
1701713590778408200,7.098408203125,-5.338686466217041,-5.780760288238525,5.8351969718933105
1701713590788001500,7.10800146484375,-5.283651351928711,-5.787939071655273,5.828018665313721
1701713590797596000,7.117595947265625,-5.25254487991333,-5.778367519378662,5.8112688064575195
1701713590807190800,7.127190673828125,-5.2477593421936035,-5.792724609375,5.79691219329834
1701713590816785200,7.13678515625,-5.276473045349121,-5.804688453674316,5.794518947601318
1701713590826378500,7.14637841796875,-5.343472003936768,-5.840580940246582,5.806483268737793
1701713590835972600,7.15597265625,-5.412863731384277,-5.874080657958984,5.789733409881592
1701713590845567700,7.165567626953125,-5.451148986816406,-5.876473426818848,5.794518947601318
1701713590855161900,7.175161865234375,-5.487041473388672,-5.888437271118164,5.79691219329834
1701713590864755200,7.184755126953125,-5.489434242248535,-5.914758682250977,5.799304962158203
1701713590874349600,7.194349609375,-5.489434242248535,-5.914758682250977,5.784947872161865
1701713590883944400,7.2039443359375,-5.443970680236816,-5.91715145111084,5.770590782165527
1701713590893538800,7.213538818359375,-5.4056854248046875,-5.893223285675049,5.73469877243042
1701713590903132200,7.223132080078125,-5.372185707092285,-5.86211633682251,5.694020748138428
1701713590912726300,7.232726318359375,-5.343472003936768,-5.85493803024292,5.660521030426025
1701713590922321400,7.2423212890625,-5.338686466217041,-5.8597235679626465,5.6724853515625
1701713590931915500,7.25191552734375,-5.341079235076904,-5.890830039978027,5.660521030426025
1701713590941508900,7.2615087890625,-5.353043556213379,-5.92432975769043,5.638985633850098
1701713590951103200,7.271103271484375,-5.365007400512695,-5.957829475402832,5.638985633850098
1701713590960698000,7.280697998046875,-5.367400169372559,-5.988935947418213,5.631807327270508
1701713590970292200,7.290292236328125,-5.367400169372559,-5.996114253997803,5.643771171569824
1701713590979885800,7.2998857421875,-5.3817572593688965,-5.991328716278076,5.6461639404296875
1701713590989480000,7.30947998046875,-5.393721103668213,-5.988935947418213,5.6533427238464355
1701713590999075000,7.319074951171875,-5.396114349365234,-5.991328716278076,5.643771171569824
1701713591008669200,7.328669189453125,-5.37697172164917,-5.974578857421875,5.643771171569824
1701713591018262500,7.338262451171875,-5.372185707092285,-5.974578857421875,5.634200096130371
1701713591027857000,7.34785693359375,-5.367400169372559,-5.965007781982422,5.6533427238464355
1701713591037451800,7.35745166015625,-5.362614631652832,-5.962615013122559,5.6724853515625
1701713591047046000,7.3670458984375,-5.365007400512695,-5.957829475402832,5.6916279792785645
1701713591056639500,7.376639404296875,-5.365007400512695,-5.957829475402832,5.698806285858154
1701713591066233600,7.386233642578125,-5.374578952789307,-5.948257923126221,5.682056427001953
1701713591075828700,7.395828857421875,-5.379364490509033,-5.938686847686768,5.660521030426025
1701713591085422800,7.4054228515625,-5.38415002822876,-5.926722526550293,5.660521030426025
1701713591095016200,7.41501611328125,-5.37697172164917,-5.933900833129883,5.648557186126709
1701713591104610600,7.424610595703125,-5.38415002822876,-5.953043460845947,5.6222357749938965
1701713591114205400,7.434205322265625,-5.39132833480835,-5.98654317855835,5.600700378417969
1701713591123799600,7.443799560546875,-5.393721103668213,-6.0009002685546875,5.588736534118652
1701713591133393200,7.45339306640625,-5.422435283660889,-6.022435665130615,5.588736534118652
1701713591142987300,7.4629873046875,-5.427220821380615,-6.022435665130615,5.574080467224121
1701713591152582400,7.47258251953125,-5.43918514251709,-6.005685806274414,5.579164981842041
1701713591162176500,7.482176513671875,-5.422435283660889,-5.9937214851379395,5.615057468414307
1701713591171769900,7.491769775390625,-5.403292655944824,-5.967400550842285,5.634200096130371
1701713591181364200,7.5013642578125,-5.415256977081299,-5.962615013122559,5.674878120422363
1701713591190959000,7.510958984375,-5.403292655944824,-5.960222244262695,5.727519989013672
1701713591200553200,7.52055322265625,-5.415256977081299,-5.926722526550293,5.7394843101501465
1701713591210146800,7.530146728515625,-5.396114349365234,-5.888437271118164,5.7490553855896
1701713591219741000,7.539740966796875,-5.338686466217041,-5.852545261383057,5.7634124755859375
1701713591229336000,7.549336181640625,-5.3817572593688965,-5.828616619110107,5.782555103302002
1701713591238930200,7.55893017578125,-5.338686466217041,-5.804688453674316,5.772983551025391
1701713591248523500,7.5685234375,-5.31475830078125,-5.783153057098389,5.772983551025391
1701713591258118000,7.578117919921875,-5.309972763061523,-5.787939071655273,5.768198013305664
1701713591267712800,7.587712646484375,-5.353043556213379,-5.795117378234863,5.789733409881592
1701713591277307000,7.597306884765625,-5.374578952789307,-5.819045543670654,5.784947872161865
1701713591286900500,7.606900390625,-5.415256977081299,-5.888437271118164,5.777769565582275
1701713591296494600,7.61649462890625,-5.424828052520752,-5.943472385406494,5.761019706726074
1701713591306089700,7.62608984375,-5.415256977081299,-5.905187129974365,5.761019706726074
1701713591315683800,7.635683837890625,-5.420042514801025,-5.936294078826904,5.708377361297607
1701713591325277200,7.645277099609375,-5.400899887084961,-5.902794361114502,5.658128261566162
1701713591334871600,7.65487158203125,-5.400899887084961,-5.864509105682373,5.6222357749938965
1701713591344466400,7.664466552734375,-5.403292655944824,-5.842973709106445,5.595914840698242
1701713591354060500,7.674060546875,-5.398507118225098,-5.821438312530518,5.574080467224121
1701713591363654100,7.683654052734375,-5.386542797088623,-5.809474468231201,5.588736534118652
1701713591373248300,7.693248291015625,-5.38415002822876,-5.797510147094727,5.583950519561768
1701713591382843400,7.702843505859375,-5.408078193664551,-5.778367519378662,5.61745023727417
1701713591392437500,7.7124375,-5.434399127960205,-5.768796443939209,5.696413516998291
1701713591402030800,7.72203076171875,-5.4535417556762695,-5.771189212799072,5.725127220153809
1701713591411625200,7.731625244140625,-5.458327770233154,-5.814260005950928,5.753840923309326
1701713591421220000,7.74122021484375,-5.472684383392334,-5.840580940246582,5.770590782165527
1701713591430814200,7.750814208984375,-5.518147945404053,-5.876473426818848,5.801697731018066
1701713591440407800,7.76040771484375,-5.527719497680664,-5.8597235679626465,5.80409049987793
1701713591450002000,7.770001953125,-5.510969638824463,-5.8692946434021,5.79691219329834
1701713591459597000,7.77959716796875,-5.506184101104736,-5.871687889099121,5.73469877243042
1701713591469191200,7.789191162109375,-5.503791332244873,-5.8597235679626465,5.648557186126709
1701713591478784500,7.798784423828125,-5.554040431976318,-5.842973709106445,5.605485916137695
1701713591488379000,7.80837890625,-5.566004753112793,-5.8118672370910645,5.540580749511719
1701713591497973800,7.817973876953125,-5.589932918548584,-5.787939071655273,5.483152866363525
1701713591507567900,7.82756787109375,-5.616253852844238,-5.79990291595459,5.444868087768555
1701713591517161500,7.837161376953125,-5.647360324859619,-5.797510147094727,5.437689304351807
1701713591526755600,7.846755615234375,-5.671587944030762,-5.8597235679626465,5.480760097503662
1701713591536350700,7.856350830078125,-5.676373481750488,-5.881258964538574,5.497509956359863
1701713591545944800,7.86594482421875,-5.676373481750488,-5.898008823394775,5.511867046356201
1701713591555538200,7.8755380859375,-5.647360324859619,-5.936294078826904,5.5381879806518555
1701713591565132500,7.885132568359375,-5.616253852844238,-5.909972667694092,5.5142598152160645
1701713591574727400,7.8947275390625,-5.580361366271973,-5.874080657958984,5.466403484344482
1701713591584321800,7.90432177734375,-5.56361198425293,-5.819045543670654,5.437689304351807
1701713591593915100,7.9139150390625,-5.580361366271973,-5.792724609375,5.406582832336426
1701713591603509200,7.92350927734375,-5.587540149688721,-5.802295684814453,5.382654666900635
1701713591613104400,7.9331044921875,-5.580361366271973,-5.826223850250244,5.416153907775879
1701713591622698500,7.942698486328125,-5.585147380828857,-5.831009864807129,5.437689304351807
1701713591632291800,7.952291748046875,-5.575575828552246,-5.850152492523193,5.480760097503662
1701713591641886200,7.96188623046875,-5.637789249420166,-5.9075798988342285,5.574080467224121
1701713591651481000,7.971481201171875,-5.652445316314697,-5.9554362297058105,5.6461639404296875
1701713591661075200,7.9810751953125,-5.630610942840576,-6.034399509429932,5.6724853515625
1701713591670668800,7.990668701171875,-5.580361366271973,-6.106483459472656,5.665306568145752
1701713591680263000,8.000262939453124,-5.510969638824463,-6.197410583496094,5.6724853515625
1701713591689858000,8.009858154296875,-5.458327770233154,-6.245266914367676,5.674878120422363
1701713591699452200,8.0194521484375,-5.367400169372559,-6.221338748931885,5.5983076095581055
1701713591709045500,8.02904541015625,-5.166403293609619,-6.137589931488037,5.456831932067871
1701713591718639900,8.038639892578125,-5.231009483337402,-5.998507499694824,5.497509956359863
1701713591728234800,8.04823486328125,-5.152046203613281,-5.874080657958984,5.406582832336426
1701713591737829000,8.0578291015625,-5.195116996765137,-5.732903957366943,5.449653625488281
1701713591747422500,8.06742236328125,-5.242973327636719,-5.622834205627441,5.499902725219727
1701713591757016600,8.0770166015625,-5.298008441925049,-5.555835247039795,5.588736534118652
1701713591766611700,8.08661181640625,-5.379364490509033,-5.553442478179932,5.696413516998291
1701713591776205800,8.096205810546875,-5.448756217956543,-5.618048667907715,5.768198013305664
1701713591785799200,8.105799072265626,-5.50139856338501,-5.716154098510742,5.801697731018066
1701713591795393500,8.1153935546875,-5.532505035400391,-5.73768949508667,5.794518947601318
1701713591804988400,8.124988525390625,-5.542076110839844,-5.79990291595459,5.7873406410217285
1701713591814582800,8.134582763671874,-5.525326728820801,-5.945865154266357,5.7634124755859375
1701713591824176000,8.144176025390625,-5.475077152252197,-6.0538411140441895,5.758626937866211
1701713591833770200,8.153770263671875,-5.43918514251709,-6.0849480628967285,5.823233127593994
1701713591843365400,8.163365478515624,-5.503791332244873,-5.97936487197876,5.847161293029785
1701713591852959500,8.17295947265625,-5.527719497680664,-5.866901874542236,5.837589740753174
1701713591862552800,8.182552734375,-5.534897804260254,-5.831009864807129,5.806483268737793
1701713591872147200,8.192147216796876,-5.551647663116455,-5.845366477966309,5.79691219329834
1701713591881742000,8.2017421875,-5.56361198425293,-5.8597235679626465,5.7155561447143555
1701713591891336400,8.21133642578125,-5.513362407684326,-5.919544219970703,5.660521030426025
1701713591900929800,8.2209296875,-5.599503993988037,-5.857330799102783,5.708377361297607
1701713591910524000,8.23052392578125,-5.580361366271973,-5.7735819816589355,5.6294145584106445
1701713591920119000,8.240119140625,-5.556433200836182,-5.6563334465026855,5.5142598152160645
1701713591929713200,8.249713134765624,-5.494219779968262,-5.471786975860596,5.418546676635742
1701713591939306500,8.259306396484375,-5.458327770233154,-5.356931686401367,5.387440204620361
1701713591948900900,8.26890087890625,-5.510969638824463,-5.376074314117432,5.37069034576416
1701713591958495700,8.278495849609374,-5.599503993988037,-5.503192901611328,5.456831932067871
1701713591968090000,8.288090087890625,-5.650052547454834,-5.639584064483643,5.586343765258789
1701713591977683500,8.297683349609375,-5.695516109466553,-5.711368560791016,5.703591823577881
1701713591987277800,8.30727783203125,-5.733801364898682,-5.716154098510742,5.792126178741455
1701713591996872700,8.316872802734375,-5.72422981262207,-5.732903957366943,5.794518947601318
1701713592006466800,8.326466796875,-5.673980712890625,-5.775974750518799,5.775376319885254
1701713592016060200,8.33606005859375,-5.577968597412109,-5.852545261383057,5.74187707901001
1701713592025654500,8.345654541015625,-5.491827011108398,-5.898008823394775,5.713163375854492
1701713592035249400,8.35524951171875,-5.472684383392334,-5.912365436553955,5.7155561447143555
1701713592044843800,8.36484375,-5.513362407684326,-5.914758682250977,5.727519989013672
1701713592054437000,8.37443701171875,-5.609075546264648,-6.0487565994262695,5.770590782165527
1701713592064031200,8.38403125,-5.745765209197998,-6.166304111480713,5.7634124755859375
1701713592073626400,8.39362646484375,-5.819942951202393,-6.295516490936279,5.732305526733398
1701713592083220500,8.403220458984375,-5.736194133758545,-6.448657035827637,5.717948913574219
1701713592092814000,8.41281396484375,-5.5468621253967285,-6.5180487632751465,5.595914840698242
1701713592102408200,8.422408203125,-5.355436325073242,-6.496513366699219,5.418546676635742
1701713592112003000,8.432003173828125,-5.254937648773193,-6.417550563812256,5.2630133628845215
1701713592121597400,8.441597412109376,-5.223830699920654,-6.302694797515869,5.143372058868408
1701713592131190800,8.451190673828124,-5.231009483337402,-6.175875186920166,5.107480049133301
1701713592140785200,8.46078515625,-5.228616714477539,-6.008078575134277,5.109872817993164
1701713592150380000,8.470380126953126,-5.235795021057129,-5.828616619110107,5.181657314300537
1701713592159974100,8.47997412109375,-5.300401210784912,-5.60608434677124,5.2869415283203125
1701713592169567500,8.4895673828125,-5.32193660736084,-5.493621826171875,5.339583873748779
1701713592179161900,8.499161865234376,-5.530112266540527,-5.462215900421143,5.504688262939453
1701713592188757000,8.508757080078125,-5.6018967628479,-5.563013553619385,5.531009674072266
1701713592198351000,8.51835107421875,-5.676373481750488,-5.704190254211426,5.593522071838379
1701713592207944400,8.5279443359375,-5.702694416046143,-5.814260005950928,5.643771171569824
1701713592217538600,8.53753857421875,-5.695516109466553,-5.912365436553955,5.705984592437744
1701713592227133700,8.5471337890625,-5.664409637451172,-5.900401592254639,5.720341682434082
1701713592236727800,8.556727783203126,-5.647360324859619,-5.866901874542236,5.713163375854492
1701713592246321400,8.5663212890625,-5.623432159423828,-5.8597235679626465,5.729912757873535
1701713592255915500,8.57591552734375,-5.6330037117004395,-5.8597235679626465,5.665306568145752
1701713592265510400,8.585510498046874,-5.599503993988037,-5.831009864807129,5.627021312713623
1701713592275104800,8.595104736328125,-5.527719497680664,-5.713761329650879,5.5983076095581055
1701713592284698000,8.604697998046875,-5.757729530334473,-5.6324052810668945,5.7490553855896
1701713592294292500,8.61429248046875,-5.810371398925781,-5.572584629058838,5.7873406410217285
1701713592303887400,8.623887451171875,-5.865406513214111,-5.61326265335083,5.839982986450195
1701713592313481500,8.6334814453125,-5.776872158050537,-5.847759246826172,5.9213385581970215
1701713592323075000,8.643074951171876,-5.666802406311035,-5.9937214851379395,5.964409351348877
1701713592332669200,8.652669189453125,-5.482255935668945,-6.065805435180664,5.851946830749512
1701713592342264300,8.662264404296875,-5.31475830078125,-6.116054534912109,5.689234733581543
1701713592351858400,8.6718583984375,-5.0464630126953125,-6.731309413909912,5.923731327056885
1701713592361451800,8.68145166015625,-5.125725269317627,-5.754439353942871,5.050052165985107
1701713592371046000,8.6910458984375,-5.400899887084961,-5.620441436767578,5.203192710876465
1701713592380641000,8.70064111328125,-5.31475830078125,-5.833402633666992,5.337191104888916
1701713592390235100,8.710235107421875,-5.690730571746826,-5.80708122253418,5.490331649780273
1701713592399828700,8.719828857421875,-5.915655612945557,-5.943472385406494,5.689234733581543
1701713592409422800,8.7294228515625,-5.231009483337402,-5.86211633682251,5.351547718048096
1701713592419018000,8.73901806640625,-5.32911491394043,-5.761617660522461,5.485546112060547
1701713592428612000,8.748612060546876,-5.2477593421936035,-5.711368560791016,5.464010715484619
1701713592438205400,8.758205322265624,-5.3578290939331055,-5.747261047363281,5.559723377227783
1701713592447799800,8.7677998046875,-5.417649745941162,-5.787939071655273,5.636592864990234
1701713592457394700,8.777394775390626,-5.302793979644775,-5.653940677642822,5.37069034576416
1701713592466988800,8.78698876953125,-5.644967555999756,-5.929115295410156,5.7873406410217285
1701713592476582400,8.79658251953125,-5.635396480560303,-5.996114253997803,5.753840923309326
1701713592486176500,8.806176513671875,-5.592325687408447,-5.914758682250977,5.682056427001953
1701713592495771600,8.815771728515625,-5.597111225128174,-5.86211633682251,5.7155561447143555
1701713592505365800,8.82536572265625,-5.566004753112793,-5.802295684814453,5.768198013305664
1701713592514959000,8.834958984375,-5.580361366271973,-5.819045543670654,5.813661575317383
1701713592524553200,8.84455322265625,-5.609075546264648,-5.816652774810791,5.847161293029785
1701713592534148400,8.8541484375,-5.669195175170898,-5.771189212799072,5.861518383026123
1701713592543742500,8.863742431640626,-5.72422981262207,-5.7424750328063965,5.8734822273254395
1701713592553336000,8.873336181640624,-5.836692810058594,-5.950650691986084,6.000301837921143
1701713592562930200,8.88293017578125,-5.66201639175415,-6.197410583496094,5.942873954772949
1701713592572525300,8.892525390625,-5.424828052520752,-5.950650691986084,5.816054344177246
1701713592582119400,8.902119384765625,-5.353043556213379,-5.950650691986084,5.627021312713623
1701713592591712800,8.911712646484375,-5.278865814208984,-5.886044502258301,5.485546112060547
1701713592601307100,8.92130712890625,-5.202295303344727,-5.787939071655273,5.270191669464111
1701713592610902000,8.930902099609375,-5.355436325073242,-5.766403675079346,5.191228866577148
1701713592620496100,8.94049609375,-5.537290573120117,-5.759224891662598,5.143372058868408
1701713592630089700,8.95008984375,-5.6859450340271,-5.785545825958252,5.150550842285156
1701713592639683800,8.959683837890625,-5.697908878326416,-5.826223850250244,5.124229907989502
1701713592649279000,8.969279052734375,-5.733801364898682,-5.852545261383057,5.320441246032715
1701713592658873000,8.978873046875,-5.673980712890625,-5.826223850250244,5.296513080596924
1701713592668466400,8.988466552734375,-5.544469356536865,-5.92432975769043,5.375475883483887
1701713592678060800,8.998060791015625,-5.621039390563965,-5.967400550842285,5.373083114624023
1701713592687655700,9.00765576171875,-5.776872158050537,-5.902794361114502,5.416153907775879
1701713592697249800,9.017249755859375,-5.855835437774658,-5.845366477966309,5.516652584075928
1701713592706843400,9.026843505859375,-5.726622581481934,-5.921936988830566,5.526223659515381
1701713592716437500,9.0364375,-5.618646621704102,-5.981757640838623,5.581557750701904
1701713592726032600,9.04603271484375,-5.561218738555908,-5.950650691986084,5.62462854385376
1701713592735626800,9.055626708984375,-5.575575828552246,-5.921936988830566,5.660521030426025
1701713592745220000,9.06522021484375,-5.599503993988037,-5.933900833129883,5.6724853515625
1701713592754814500,9.074814453125,-5.496612548828125,-5.948257923126221,5.533402442932129
1701713592764409300,9.084409423828125,-5.755336761474609,-5.790331840515137,5.55733060836792
1701713592774003500,9.09400341796875,-5.650052547454834,-5.5606207847595215,5.296513080596924
1701713592783597000,9.10359716796875,-5.324329376220703,-5.713761329650879,5.615057468414307
1701713592793191200,9.113191162109375,-5.2645087242126465,-5.768796443939209,5.768198013305664
1701713592802786300,9.122786376953124,-5.2405805587768555,-5.967400550842285,5.861518383026123
1701713592812380400,9.13238037109375,-5.31475830078125,-6.012864112854004,5.756234169006348
1701713592821973800,9.141973876953125,-5.458327770233154,-5.814260005950928,5.490331649780273
1701713592831568100,9.151568115234374,-5.56361198425293,-5.7257256507873535,5.3802618980407715
1701713592841163000,9.1611630859375,-5.618646621704102,-5.699404239654541,5.3970112800598145
1701713592850757000,9.170757080078126,-5.616253852844238,-5.565406322479248,5.387440204620361
1701713592860350700,9.180350830078124,-5.592325687408447,-5.649155139923096,5.526223659515381
1701713592869944800,9.18994482421875,-5.640182018280029,-5.589334487915039,5.761019706726074
1701713592879540000,9.1995400390625,-5.566004753112793,-5.663512229919434,5.744269847869873
1701713592889134000,9.209134033203124,-5.534897804260254,-5.615655422210693,5.670092582702637
1701713592898727400,9.2187275390625,-5.4296135902404785,-5.842973709106445,5.7155561447143555
1701713592908321800,9.22832177734375,-5.324329376220703,-6.089733600616455,5.784947872161865
1701713592917916700,9.237916748046874,-5.32193660736084,-6.350551128387451,5.935695648193359
1701713592927510800,9.2475107421875,-5.38415002822876,-6.664309978485107,5.962016582489014
1701713592937104400,9.2571044921875,-5.554040431976318,-6.683452606201172,5.770590782165527
1701713592946698500,9.266698486328124,-5.84147834777832,-5.943472385406494,5.420939922332764
1701713592956293600,9.276293701171875,-5.872584819793701,-5.708975791931152,5.186442852020264
1701713592965887700,9.2858876953125,-5.879763603210449,-5.704190254211426,5.241477966308594
1701713592975481000,9.295481201171874,-5.798407554626465,-5.680262088775635,5.255835056304932
1701713592985075500,9.305075439453125,-5.705087184906006,-5.579763412475586,5.2869415283203125
1701713592994670300,9.31467041015625,-5.597111225128174,-5.699404239654541,5.387440204620361
1701713593004264400,9.324264404296875,-5.434399127960205,-5.48375129699707,5.464010715484619
1701713593013858000,9.333858154296875,-5.577968597412109,-5.48375129699707,5.385047435760498
1701713593023452200,9.3434521484375,-5.72422981262207,-5.469394207000732,5.392225742340088
1701713593033047300,9.35304736328125,-5.7792649269104,-5.539085388183594,5.416153907775879
1701713593042641400,9.362641357421875,-5.752943992614746,-5.622834205627441,5.528616905212402
1701713593052234800,9.37223486328125,-5.606682777404785,-5.823831081390381,5.583950519561768
1701713593061829000,9.3818291015625,-5.482255935668945,-5.864509105682373,5.4951171875
1701713593071424000,9.391424072265625,-5.542076110839844,-5.823831081390381,5.423332691192627
1701713593081018000,9.40101806640625,-5.422435283660889,-6.113661766052246,5.507081508636475
1701713593090611700,9.41061181640625,-5.503791332244873,-6.080162525177002,5.490331649780273
1701713593100205800,9.420205810546875,-5.513362407684326,-6.331408500671387,5.615057468414307
1701713593109801000,9.429801025390624,-5.666802406311035,-6.532405853271484,5.916553020477295
1701713593119395000,9.43939501953125,-5.791228771209717,-6.419943332672119,5.8734822273254395
1701713593128988400,9.448988525390625,-5.709873199462891,-6.345765590667725,5.8351969718933105
1701713593138582800,9.458582763671876,-5.616253852844238,-6.216553211212158,5.737091541290283
1701713593148177700,9.468177734375,-5.561218738555908,-6.082555294036865,5.713163375854492
1701713593157771800,9.477771728515625,-5.460720539093018,-5.929115295410156,5.660521030426025
1701713593167365400,9.487365478515626,-5.4056854248046875,-5.66829776763916,5.490331649780273
1701713593176959500,9.49695947265625,-5.266901969909668,-5.625226974487305,5.322834014892578
1701713593186554600,9.5065546875,-5.2956156730651855,-5.5845489501953125,5.353940486907959
1701713593196148700,9.516148681640624,-5.530112266540527,-5.570191860198975,5.516652584075928
1701713593205742000,9.5257421875,-5.589932918548584,-5.546263694763184,5.586343765258789
1701713593215336400,9.53533642578125,-5.630610942840576,-5.618048667907715,5.643771171569824
1701713593224931300,9.544931396484374,-5.755336761474609,-5.574977874755859,5.627021312713623
1701713593234525400,9.554525390625,-5.714658737182617,-5.527121067047119,5.454439163208008
1701713593244119000,9.564119140625,-5.7170515060424805,-5.637190818786621,5.511867046356201
1701713593253713200,9.573713134765624,-5.5468621253967285,-5.790331840515137,5.464010715484619
1701713593263308300,9.583308349609375,-5.520540714263916,-5.73768949508667,5.344369411468506
1701713593272902400,9.59290234375,-5.455934524536133,-5.689833164215088,5.353940486907959
1701713593282495700,9.602495849609374,-5.396114349365234,-5.732903957366943,5.44008207321167
1701713593292089900,9.61208984375,-5.396114349365234,-5.663512229919434,5.447260856628418
1701713593301685000,9.62168505859375,-5.443970680236816,-5.744868278503418,5.615057468414307
1701713593311279000,9.631279052734374,-5.537290573120117,-5.680262088775635,5.61745023727417
1701713593320872700,9.640872802734375,-5.513362407684326,-5.768796443939209,5.708377361297607
1701713593330466800,9.650466796875,-5.544469356536865,-5.73768949508667,5.684449195861816
1701713593340061700,9.660061767578124,-5.496612548828125,-5.582156181335449,5.55733060836792
1701713593349656000,9.669656005859375,-5.398507118225098,-5.61326265335083,5.55733060836792
1701713593359249400,9.67924951171875,-5.343472003936768,-5.9075798988342285,5.615057468414307
1701713593368843500,9.688843505859374,-5.336293697357178,-6.0777692794799805,5.720341682434082
1701713593378438700,9.698438720703125,-5.386542797088623,-6.149554252624512,5.813661575317383
1701713593388032800,9.70803271484375,-5.3817572593688965,-6.2189459800720215,5.842375755310059
1701713593397626400,9.71762646484375,-5.360221862792969,-6.178267955780029,5.816054344177246
1701713593407220500,9.727220458984375,-5.31475830078125,-6.221338748931885,5.756234169006348
1701713593416815400,9.7368154296875,-5.348257541656494,-6.226124286651611,5.684449195861816
1701713593426409700,9.74640966796875,-5.32911491394043,-6.099305152893066,5.511867046356201
1701713593436003000,9.756003173828125,-5.398507118225098,-6.036792278289795,5.50229549407959
1701713593445597400,9.765597412109376,-5.484648704528809,-6.029613971710205,5.4759745597839355
1701713593455192300,9.7751923828125,-5.5085768699646,-5.876473426818848,5.516652584075928
1701713593464786400,9.784786376953125,-5.499005317687988,-5.976971626281738,5.526223659515381
1701713593474379800,9.7943798828125,-5.463113307952881,-6.039185047149658,5.600700378417969
1701713593483974100,9.80397412109375,-5.472684383392334,-6.070590972900391,5.619843006134033
1701713593493569000,9.813569091796875,-5.496612548828125,-6.123233318328857,5.619843006134033
1701713593503163400,9.823163330078126,-5.558825969696045,-6.235695838928223,5.708377361297607
1701713593512756700,9.8327568359375,-5.621039390563965,-6.204588890075684,5.68684196472168
1701713593522350800,9.842350830078125,-5.776872158050537,-6.3529438972473145,5.856732368469238
1701713593531946000,9.851946044921876,-5.791228771209717,-6.546762943267822,6.007480144500732
1701713593541540000,9.8615400390625,-5.8582282066345215,-6.750451564788818,6.002694606781006
1701713593551133400,9.871133544921875,-5.791228771209717,-6.010471343994141,5.444868087768555
1701713593560727800,9.880727783203126,-5.623432159423828,-5.103292465209961,4.946861743927002
1701713593570322700,9.89032275390625,-5.496612548828125,-5.292325496673584,5.227120876312256
1701713593579916800,9.899916748046875,-5.472684383392334,-5.447858810424805,5.401797294616699
1701713593589510400,9.909510498046876,-5.463113307952881,-5.445466041564941,5.387440204620361
1701713593599104500,9.9191044921875,-5.355436325073242,-5.447858810424805,5.341976642608643
1701713593608699600,9.92869970703125,-5.298008441925049,-5.553442478179932,5.406582832336426
1701713593618293800,9.938293701171874,-5.39132833480835,-5.586941719055176,5.473581790924072
1701713593627887000,9.94788720703125,-5.343472003936768,-5.66829776763916,5.4759745597839355
1701713593637481500,9.9574814453125,-5.420042514801025,-5.6324052810668945,5.55015230178833
1701713593647076400,9.967076416015624,-5.408078193664551,-5.682654857635498,5.603093147277832
1701713593656670500,9.97667041015625,-5.520540714263916,-5.716154098510742,5.708377361297607
1701713593666264000,9.98626416015625,-5.489434242248535,-5.6946187019348145,5.665306568145752
1701713593675858200,9.995858154296876,-5.441577911376953,-5.687440395355225,5.6916279792785645
1701713593685453300,10.005453369140625,-5.410470962524414,-5.601298809051514,5.6461639404296875
1701713593695047400,10.01504736328125,-5.39132833480835,-5.478965759277344,5.526223659515381
1701713593704640800,10.024640869140624,-5.38415002822876,-5.615655422210693,5.619843006134033
1701713593714235000,10.03423486328125,-5.5468621253967285,-5.673083305358887,5.825625896453857
1701713593723830000,10.043830078125,-5.568397521972656,-5.7735819816589355,5.859125137329102
1701713593733424000,10.053424072265624,-5.671587944030762,-5.706583023071289,5.830411434173584
1701713593743017700,10.063017822265625,-5.678766250610352,-5.780760288238525,5.806483268737793
1701713593752611800,10.07261181640625,-5.6330037117004395,-5.778367519378662,5.794518947601318
1701713593762207000,10.08220703125,-5.573183059692383,-5.780760288238525,5.765805244445801
1701713593771801000,10.091801025390625,-5.532505035400391,-5.790331840515137,5.782555103302002
1701713593781394400,10.10139453125,-5.487041473388672,-5.876473426818848,5.761019706726074
1701713593790988500,10.110988525390624,-5.345864772796631,-5.941079616546631,5.6724853515625
1701713593800583700,10.120583740234375,-5.331508159637451,-5.988935947418213,5.526223659515381
1701713593810177800,10.130177734375,-5.448756217956543,-6.003293037414551,5.528616905212402
1701713593819771100,10.139771240234374,-5.599503993988037,-6.022435665130615,5.56450891494751
1701713593829365500,10.149365478515625,-5.709873199462891,-6.089733600616455,5.627021312713623
1701713593838960600,10.158960693359376,-5.671587944030762,-6.175875186920166,5.636592864990234
1701713593848554800,10.1685546875,-5.707480430603027,-6.233303070068359,5.775376319885254
1701713593858148000,10.178148193359375,-5.6548380851745605,-6.2189459800720215,5.6724853515625
1701713593867742500,10.187742431640626,-5.6330037117004395,-6.094519138336182,5.619843006134033
1701713593877337300,10.19733740234375,-5.621039390563965,-6.034399509429932,5.559723377227783
1701713593886931500,10.206931396484375,-5.628218173980713,-6.036792278289795,5.521438121795654
1701713593896524800,10.21652490234375,-5.669195175170898,-6.0849480628967285,5.5621161460876465
1701713593906119200,10.226119140625,-5.618646621704102,-6.135197162628174,5.643771171569824
1701713593915714000,10.235714111328125,-5.5947184562683105,-6.010471343994141,5.588736534118652
1701713593925308200,10.24530810546875,-5.592325687408447,-5.938686847686768,5.6222357749938965
1701713593934901800,10.25490185546875,-5.604289531707764,-5.845366477966309,5.650949954986572
1701713593944495900,10.264495849609375,-5.551647663116455,-5.783153057098389,5.615057468414307
1701713593954091000,10.274091064453126,-5.506184101104736,-5.625226974487305,5.554937839508057
1701713593963685000,10.28368505859375,-5.4535417556762695,-5.496014595031738,5.521438121795654
1701713593973278500,10.293278564453125,-5.415256977081299,-5.402395248413086,5.547759532928467
1701713593982872800,10.302872802734376,-5.348257541656494,-5.344967365264893,5.619843006134033
1701713593992467700,10.3124677734375,-5.31475830078125,-5.364109992980957,5.650949954986572
1701713594002061800,10.322061767578125,-5.365007400512695,-5.519942760467529,5.8351969718933105
1701713594011655400,10.331655517578126,-5.283651351928711,-5.7735819816589355,5.940481185913086
1701713594021249500,10.34124951171875,-5.348257541656494,-6.120840549468994,6.079265117645264
1701713594030844700,10.3508447265625,-5.338686466217041,-5.948257923126221,6.048158168792725
1701713594040438800,10.360438720703126,-5.288437366485596,-5.984150409698486,6.036194324493408
1701713594050032000,10.3700322265625,-5.307579517364502,-6.072983741760254,6.072086334228516
1701713594059626500,10.37962646484375,-5.2645087242126465,-5.97936487197876,6.040979862213135
1701713594069221400,10.389221435546874,-5.278865814208984,-5.91715145111084,5.964409351348877
1701713594078815500,10.3988154296875,-5.309972763061523,-5.9315080642700195,5.957231044769287
1701713594088409000,10.4084091796875,-5.226223945617676,-5.950650691986084,5.926124572753906
1701713594098003200,10.418003173828126,-5.355436325073242,-6.161518096923828,5.976373672485352
1701713594107598300,10.427598388671875,-5.298008441925049,-6.245266914367676,5.883053779602051
1701713594117192400,10.4371923828125,-5.44636344909668,-6.508477687835693,5.830411434173584
1701713594126785800,10.446785888671876,-4.811966419219971,-6.484549522399902,6.19920539855957
1701713594136380000,10.4563798828125,-5.0703911781311035,-6.410371780395508,6.156134605407715
1701713594145975000,10.46597509765625,-5.084748268127441,-6.262016773223877,6.119943141937256
1701713594155569200,10.475569091796874,-4.917250633239746,-6.300302028656006,6.19920539855957
1701713594165162500,10.48516259765625,-5.262115955352783,-6.247660160064697,5.9524455070495605
1701713594174756900,10.4947568359375,-5.053641319274902,-5.9075798988342285,6.273382663726807
1701713594184352000,10.50435205078125,-4.8813581466674805,-6.364908218383789,5.9524455070495605
1701713594193946000,10.513946044921875,-5.094618320465088,-6.333801746368408,6.302096843719482
1701713594203539500,10.52353955078125,-4.996213912963867,-6.271588325500488,6.189633846282959
1701713594213133800,10.5331337890625,-5.1065826416015625,-6.233303070068359,6.182455539703369
1701713594222728700,10.542728759765625,-5.302793979644775,-6.128018856048584,6.251847267150879
1701713594232322800,10.55232275390625,-5.209474086761475,-6.3361945152282715,6.103193283081055
1701713594241916200,10.561916259765624,-5.472684383392334,-7.059125900268555,5.401797294616699
1701713594251510500,10.571510498046875,-5.048855781555176,-7.0184478759765625,5.878267765045166
1701713594261105400,10.58110546875,-5.192724227905273,-6.889235496520996,5.799304962158203
1701713594270699500,10.590699462890624,-5.147260665893555,-6.534798622131348,6.040979862213135
1701713594280293000,10.600293212890625,-5.25254487991333,-5.708975791931152,5.964409351348877
1701713594289887200,10.60988720703125,-5.640182018280029,-5.08654260635376,5.698806285858154
1701713594299482400,10.619482421875,-5.676373481750488,-4.863711357116699,5.9907307624816895
1701713594309076500,10.629076416015625,-5.058426856994629,-5.103292465209961,6.172883987426758
1701713594318669800,10.638669921875,-5.097011566162109,-5.313860893249512,6.175277233123779
1701713594328264000,10.648263916015624,-5.07517671585083,-5.409573554992676,6.201598167419434
1701713594337859000,10.657859130859375,-4.862215518951416,-5.5845489501953125,6.27577543258667
1701713594347453200,10.667453125,-4.759324073791504,-5.450251579284668,6.282954216003418
1701713594357046800,10.677046875,-4.610969066619873,-5.213362216949463,6.124728679656982
1701713594366641000,10.686640869140625,-4.658825874328613,-4.986044406890869,6.371488571166992
1701713594376236000,10.696236083984376,-4.603790760040283,-5.206183910369873,6.577271461486816
1701713594385830100,10.705830078125,-4.644468784332275,-5.213362216949463,6.543771743774414
1701713594395423500,10.715423583984375,-4.457529544830322,-5.48883581161499,6.347560405731201
1701713594405017900,10.725017822265626,-4.5583271980285645,-5.821438312530518,6.464808464050293
1701713594414612700,10.73461279296875,-4.376173496246338,-5.957829475402832,6.665805816650391
1701713594424206800,10.744206787109375,-4.2708892822265625,-6.211767673492432,6.900601387023926
1701713594433800200,10.75380029296875,-4.134498596191406,-6.348158359527588,6.828816890716553
1701713594443394600,10.76339453125,-4.359423637390137,-6.348158359527588,6.716353893280029
1701713594452989400,10.772989501953125,-4.41685152053833,-6.405586242675781,6.742675304412842
1701713594462583800,10.782583740234376,-4.526921272277832,-6.953841686248779,6.8264241218566895
1701713594472177200,10.79217724609375,-4.3809590339660645,-8.040781021118164,7.2212395668029785
1701713594481771300,10.801771240234375,-4.23021125793457,-8.519644737243652,7.848757266998291
1701713594491366400,10.811366455078126,-2.6261229515075684,-8.352147102355957,7.863114356994629
1701713594500960500,10.82096044921875,-2.427518606185913,-7.832605838775635,7.020242691040039
1701713594510553900,10.830553955078125,-3.0667014122009277,-7.69830846786499,6.409773826599121
1701713594520148200,10.840148193359376,-4.031607151031494,-7.825427532196045,6.869494915008545
1701713594529743000,10.8497431640625,-3.203092098236084,-7.537989616394043,6.809674263000488
1701713594539337200,10.859337158203125,-5.211866855621338,-7.2125654220581055,7.355536937713623
1701713594548930800,10.868930908203126,-3.490530014038086,-7.5188469886779785,7.029813766479492
1701713594558525000,10.87852490234375,-6.305984973907471,-6.676274299621582,7.618747234344482
1701713594568120000,10.8881201171875,-5.793622016906738,-5.486144065856934,7.628318786621094
1701713594577714200,10.897714111328124,-5.587540149688721,-5.395216941833496,7.542177200317383
1701713594587307500,10.9073076171875,-5.1209397315979,-6.238088607788086,7.805387496948242
1701713594596901600,10.916901611328125,-2.6261229515075684,-7.511668682098389,8.375178337097168
1701713594606496800,10.926496826171874,-2.6261229515075684,-8.009675025939941,9.431011199951172
1701713594616091000,10.9360908203125,-2.5878376960754395,-6.626025199890137,9.318549156188965
1701713594625684500,10.9456845703125,-2.161616086959839,-6.10169792175293,8.834898948669434
1701713594635278600,10.955278564453126,-3.162414312362671,-6.769594192504883,7.587640762329102
1701713594644873500,10.96487353515625,-6.186044692993164,-6.075376510620117,5.02133846282959
1701713594654467800,10.9744677734375,-1.0028917789459229,-4.0426740646362305,3.896113395690918
1701713594664061200,10.984061279296874,-0.42352959513664246,-4.622035980224609,3.941577196121216
1701713594673655300,10.9936552734375,-4.201497554779053,-5.435894966125488,6.2877397537231445
1701713594683250400,11.00325048828125,-7.914859294891357,-7.753642559051514,9.172586441040039
1701713594692844500,11.012844482421874,-13.303794860839844,-10.882556915283203,18.581464767456055
1701713594702438000,11.02243798828125,-1.036391258239746,-8.380861282348633,23.661725997924805
1701713594712032300,11.0320322265625,6.868896484375,-6.561119556427002,20.874984741210938
1701713594721627100,11.041627197265624,5.870491027832031,-6.929913520812988,20.76970100402832
1701713594731221200,11.05122119140625,7.139285564422607,-6.7911295890808105,19.30678939819336
1701713594740814800,11.06081494140625,7.189534664154053,-6.939484596252441,16.661224365234375
1701713594750409000,11.070408935546874,4.611268520355225,-7.03998327255249,13.819448471069336
1701713594760004000,11.080004150390625,1.8340985774993896,-6.530013084411621,11.73888874053955
1701713594769598200,11.08959814453125,0.009870393201708794,-5.462215900421143,10.178170204162598
1701713594779191600,11.099191650390624,-0.8425726890563965,-4.028316974639893,8.925827026367188
1701713594788786000,11.108785888671875,-1.1273186206817627,-2.7978079319000244,8.025826454162598
1701713594798380800,11.118380859375,-0.23688943684101105,-1.4018949270248413,7.302894592285156
1701713594807975000,11.127974853515624,0.857228696346283,-0.23359930515289307,6.4695940017700195
1701713594817568500,11.137568603515625,1.4844473600387573,-0.14745768904685974,5.839982986450195
1701713594827162600,11.14716259765625,2.3105692863464355,-0.18095721304416656,5.413761138916016
1701713594836757500,11.156757568359374,3.277568817138672,-0.01824527233839035,4.683651447296143
1701713594846352000,11.166351806640625,3.722932815551758,0.015254244208335876,4.2454657554626465
1701713594855945200,11.1759453125,3.7923247814178467,-0.025423740968108177,3.9559340476989746
1701713594865539300,11.185539306640624,3.8545382022857666,0.0726819857954979,3.3933215141296387
1701713594875134500,11.195134521484375,3.9050865173339844,0.24287149310112,2.5313072204589844
1701713594884728600,11.204728515625,3.770789384841919,0.994516909122467,1.8418751955032349
1701713594894322000,11.214322021484374,2.0063817501068115,0.9346963167190552,0.8099704384803772
1701713594903916300,11.223916259765625,0.033798620104789734,-0.5832505226135254,-0.09511470049619675
1701713594913511200,11.23351123046875,1.867598056793213,-0.6478567123413086,-1.1772687435150146
1701713594923105300,11.243105224609375,4.568197727203369,0.17108681797981262,-1.8690935373306274
1701713594932699000,11.252698974609375,7.622934818267822,1.327418327331543,-2.290529489517212
1701713594942293000,11.26229296875,10.189536094665527,2.0383858680725098,-2.297708034515381
1701713594951888100,11.27188818359375,9.772886276245117,1.7174484729766846,-1.0740783214569092
1701713594961482200,11.281482177734375,8.044370651245117,0.8509475588798523,0.9990034699440002
1701713594971075600,11.29107568359375,8.350651741027832,0.6759724020957947,2.332702875137329
1701713594980669700,11.300669677734374,10.337891578674316,1.0878369808197021,2.7442684173583984
1701713594990264800,11.310264892578125,11.125429153442383,1.1333006620407104,3.2829527854919434
1701713594999859000,11.31985888671875,10.46231746673584,0.7648059129714966,4.082753658294678
1701713595009452300,11.329452392578125,9.442377090454102,0.6065805554389954,4.666901588439941
1701713595019046700,11.339046630859375,9.550353050231934,1.1715857982635498,4.891826629638672
1701713595028641800,11.348641845703124,14.261820793151855,1.4997016191482544,4.963611602783203
1701713595038236000,11.35823583984375,10.87418270111084,1.0375877618789673,8.111968040466309
1701713595047829200,11.367829345703125,7.685148239135742,1.609771490097046,8.344071388244629
1701713595057423600,11.377423583984376,7.036394119262695,2.5052852630615234,6.979564666748047
1701713595067018500,11.3870185546875,7.311867713928223,3.2976086139678955,6.345167636871338
1701713595076612600,11.396612548828125,9.485447883605957,3.2641091346740723,5.399404525756836
1701713595086206000,11.4062060546875,11.446366310119629,2.8977081775665283,5.013860702514648
1701713595095800300,11.41580029296875,11.580364227294922,2.524427890777588,4.626223564147949
1701713595105395200,11.425395263671875,10.98185920715332,2.3422741889953613,4.338785648345947
1701713595114989300,11.4349892578125,10.608280181884766,2.0982062816619873,5.011467933654785
1701713595124583000,11.4445830078125,10.467103958129883,2.134098768234253,5.737091541290283
1701713595134177000,11.454177001953125,9.70349407196045,2.4263222217559814,6.064908027648926
1701713595143772200,11.463772216796874,9.02841854095459,2.6608188152313232,6.1342997550964355
1701713595153366300,11.4733662109375,8.910871505737305,2.53399920463562,5.7873406410217285
1701713595162959600,11.482959716796875,9.148059844970703,2.794816732406616,5.133800983428955
1701713595172554000,11.492553955078124,9.061918258666992,3.28564453125,4.669294357299805
1701713595182148900,11.50214892578125,8.4562349319458,3.6089746952056885,4.381856441497803
1701713595191743000,11.511742919921875,7.766504287719727,3.7022948265075684,4.776971340179443
1701713595201336600,11.521336669921874,7.194320201873779,3.5946178436279297,5.320441246032715
1701713595210930700,11.5309306640625,6.6915283203125,3.549154281616211,5.416153907775879
1701713595220525600,11.540525634765626,6.291927337646484,3.723830223083496,4.669294357299805
1701713595230119700,11.55011962890625,7.069893836975098,3.7812578678131104,4.0181474685668945
1701713595239713300,11.55971337890625,8.333902359008789,3.7573297023773193,3.8551363945007324
1701713595249307400,11.569307373046875,9.39452075958252,3.6017963886260986,3.8168511390686035
1701713595258902500,11.578902587890624,9.964311599731445,3.8123645782470703,4.133002758026123
1701713595268496600,11.58849658203125,9.784850120544434,4.138087749481201,5.193621635437012
1701713595278090000,11.598090087890625,9.389735221862793,3.3622148036956787,6.08405065536499
1701713595287684000,11.60768408203125,7.977371692657471,3.120539903640747,6.589235305786133
1701713595297279200,11.617279296875,5.772385597229004,3.661616802215576,6.227919101715088
1701713595306873300,11.626873291015626,3.277568817138672,3.9487555027008057,5.442475318908691
1701713595316467000,11.636467041015624,2.0374884605407715,5.201098918914795,4.125824451446533
1701713595326061000,11.64606103515625,2.183450698852539,6.867401123046875,2.8522446155548096
1701713595335656200,11.65565625,3.253640651702881,8.377870559692383,2.2657039165496826
1701713595345250300,11.665250244140625,4.852943420410156,8.23430061340332,3.2063822746276855
1701713595354843600,11.67484375,6.030810356140137,6.742675304412842,4.678865432739258
1701713595364437800,11.684437744140626,6.4666032791137695,6.103492259979248,4.724328994750977
1701713595374033000,11.694032958984375,6.27278470993042,6.402894496917725,3.874279022216797
1701713595383627000,11.703626953125,5.731707572937012,6.565606117248535,2.9479575157165527
1701713595393220400,11.713220458984376,4.821836948394775,6.141777515411377,2.6485555171966553
1701713595402814700,11.722814697265624,4.146761417388916,5.643771171569824,2.9694929122924805
1701713595412409600,11.73240966796875,4.486841678619385,5.593522071838379,3.2135608196258545
1701713595422003700,11.742003662109376,5.042275428771973,5.79481840133667,2.059622049331665
1701713595431597300,11.751597412109374,6.327819347381592,5.514558792114258,1.3510475158691406
1701713595441191400,11.76119140625,7.673183917999268,6.19920539855957,-0.21954147517681122
1701713595450786600,11.77078662109375,7.5942206382751465,7.430013179779053,-2.072483539581299
1701713595460380700,11.780380615234375,7.424330234527588,6.694818496704102,-2.3718855381011963
1701713595469974000,11.78997412109375,7.737790107727051,4.1955156326293945,-1.0046863555908203
1701713595479568100,11.799568115234376,10.208678245544434,3.4220354557037354,-0.1501496136188507
1701713595489163300,11.809163330078125,13.438390731811523,4.485046863555908,0.48424747586250305
1701713595498757400,11.81875732421875,14.759827613830566,4.856233596801758,1.4395818710327148
1701713595508350700,11.828350830078126,14.62343692779541,4.8299126625061035,2.363809585571289
1701713595517945000,11.837945068359375,12.648160934448242,5.088337421417236,2.5791637897491455
1701713595527540000,11.8475400390625,8.72901725769043,5.62462854385376,1.5903297662734985
1701713595537134300,11.85713427734375,4.625625133514404,6.376573085784912,0.5491527915000916
1701713595546727700,11.866727783203125,2.0207388401031494,6.9583282470703125,-0.4301098585128784
1701713595556321800,11.87632177734375,1.3648061752319336,7.0683979988098145,0.08225327730178833
1701713595565917000,11.8859169921875,2.2938196659088135,7.41535758972168,0.5611169338226318
1701713595575511000,11.895510986328125,3.5697922706604004,7.144968509674072,0.32632118463516235
1701713595585104400,11.9051044921875,4.678267478942871,7.5687971115112305,1.6429718732833862
1701713595594698800,11.91469873046875,5.274379253387451,7.518548011779785,0.7238288521766663
1701713595604293600,11.924293701171875,4.608875751495361,7.403393268585205,0.6640082597732544
1701713595613887700,11.9338876953125,3.622434377670288,7.604689598083496,-0.6816553473472595
1701713595623481000,11.943481201171876,2.7508487701416016,7.355536937713623,-2.0844476222991943
1701713595633075500,11.953075439453125,0.6394818425178528,7.020541667938232,-1.0405787229537964
1701713595642670600,11.962670654296875,1.410269856452942,5.828317642211914,0.06311069428920746
1701713595652264700,11.9722646484375,2.2244277000427246,5.550451278686523,1.1309077739715576
1701713595661858000,11.981858154296875,2.8588249683380127,5.289633750915527,2.6653053760528564
1701713595671452400,11.991452392578125,3.464508056640625,5.071587562561035,4.226323127746582
1701713595681047300,12.00104736328125,3.933800458908081,4.681557655334473,4.860720157623291
1701713595690641400,12.010641357421875,4.335794448852539,4.343870639801025,4.765007019042969
1701713595700234800,12.02023486328125,5.1667022705078125,2.955435037612915,4.989932537078857
1701713595709829000,12.0298291015625,7.929515361785889,0.49172505736351013,7.240382194519043
1701713595719424000,12.039424072265625,12.111869812011719,2.088634967803955,5.459224700927734
1701713595729018000,12.04901806640625,15.763018608093262,3.5228331089019775,5.040481090545654
1701713595738611700,12.05861181640625,16.205690383911133,4.887340068817139,3.8790645599365234
1701713595748205800,12.068205810546875,13.498211860656738,5.4403815269470215,2.011765718460083
1701713595757801000,12.077801025390626,14.426925659179688,5.076373100280762,-0.39900317788124084
1701713595767395000,12.08739501953125,15.00389575958252,4.82751989364624,-1.6941183805465698
1701713595776988400,12.096988525390625,15.082858085632324,4.657629489898682,-2.4843480587005615
1701713595786582800,12.106582763671875,14.912967681884766,4.152444362640381,-2.4029922485351562
1701713595796177700,12.116177734375,15.00389575958252,3.4387853145599365,-1.4428720474243164
1701713595805771800,12.125771728515625,14.934503555297852,2.2657039165496826,-0.025423740968108177
1701713595815365000,12.135365234375,15.248262405395508,0.6640082597732544,1.413260817527771
1701713595824959500,12.14495947265625,16.332809448242188,-1.6319050788879395,2.8115665912628174
1701713595834554400,12.154554443359375,15.975979804992676,-1.6319050788879395,2.8426733016967773
1701713595844148500,12.1641484375,14.123037338256836,1.2385848760604858,-0.18843477964401245
1701713595853742000,12.1737421875,12.693625450134277,2.517249345779419,-1.6414763927459717
1701713595863336200,12.183336181640625,11.355439186096191,3.0152556896209717,-1.8236299753189087
1701713595872931000,12.19293115234375,9.346664428710938,4.303192615509033,-2.551347255706787
1701713595882525400,12.202525390625,7.172784805297852,6.1226348876953125,-3.810570001602173
1701713595892118800,12.212118896484375,6.263213157653809,6.26141881942749,-4.375575542449951
1701713595901713000,12.221712890625,6.27278470993042,4.729413986206055,-3.137887716293335
1701713595911308000,12.23130810546875,6.926324367523193,3.6185460090637207,-1.2921242713928223
1701713595920902100,12.240902099609375,7.283154010772705,3.802793502807617,0.1827518343925476
1701713595930495500,12.25049560546875,7.441080093383789,4.406083583831787,0.9966106414794922
1701713595940089900,12.26008984375,7.788039684295654,4.049253940582275,2.193620204925537
1701713595949684700,12.269684814453125,14.146965980529785,1.4709876775741577,9.739984512329102
1701713595959278800,12.27927880859375,17.831314086914062,3.8865420818328857,9.65384292602539
1701713595968872400,12.28887255859375,15.166906356811523,5.107480049133301,6.594020843505859
1701713595978466600,12.298466552734375,13.447962760925293,5.062016487121582,2.495414972305298
1701713595988061700,12.308061767578126,11.0775728225708,4.150051593780518,0.5946164131164551
1701713595997655800,12.31765576171875,9.274879455566406,4.150051593780518,-0.39900317788124084
1701713596007249200,12.327249267578125,8.508877754211426,4.214657783508301,-0.8730811476707458
1701713596016843300,12.33684326171875,7.689933776855469,4.049253940582275,-0.7606185078620911
1701713596026438400,12.3464384765625,6.260820388793945,3.7190446853637695,-0.3966103494167328
1701713596036032500,12.356032470703125,5.439484119415283,4.209872245788574,-0.3415754437446594
1701713596045625900,12.3656259765625,4.728516578674316,4.427618980407715,0.06071787327528
1701713596055220200,12.37522021484375,4.59212589263916,4.609473705291748,0.3981058597564697
1701713596064815000,12.384815185546875,5.3318071365356445,4.674378871917725,0.4651049077510834
1701713596074409200,12.3944091796875,6.241677761077881,4.707878589630127,0.5225326418876648
1701713596084002800,12.4040029296875,6.833003997802734,4.707878589630127,0.5057829022407532
1701713596093597000,12.413596923828125,7.232605457305908,4.782055854797363,0.37417763471603394
1701713596103192000,12.423192138671874,7.369295597076416,4.817948341369629,0.1301097273826599
1701713596112786200,12.4327861328125,7.307082176208496,4.832305431365967,-0.15254244208335876
