time,seconds_elapsed,z,y,x
1698071915916309000,0.08830908203125,0,0,0
1698071915925901800,0.09790185546875,0,0,0
1698071915935494000,0.107493896484375,-0.03800201416015625,0.24826383590698242,-0.0027773380279541016
1698071915945086700,0.117086669921875,-0.5402889251708984,0.09115791320800781,-0.37941697239875793
1698071915954680300,0.126680419921875,-2.015740394592285,-0.8461170196533203,0.4323568344116211
1698071915964273200,0.136273193359375,-2.9940176010131836,-1.0464897155761719,1.3151614665985107
1698071915973865200,0.145865234375,-1.50459623336792,-0.49530601501464844,0.8965232372283936
1698071915983458000,0.1554580078125,-1.2909927368164062,-0.2233748435974121,0.8897136449813843
1698071915993051600,0.1650517578125,-0.6811151504516602,0.1987614631652832,0.34244418144226074
1698071916002644500,0.17464453125,0.25086069107055664,0.21848440170288086,-0.5668689012527466
1698071916012236500,0.184236572265625,0.8164777755737305,0.009157657623291016,-0.8871808648109436
1698071916021829400,0.193829345703125,0.889653205871582,-0.3125896453857422,-0.6512126326560974
1698071916031423000,0.203423095703125,0.7465081214904785,-0.3885197639465332,-0.9167604446411133
1698071916041015800,0.213015869140625,0.746251106262207,0.0038547515869140625,-1.389967918395996
1698071916050607900,0.22260791015625,1.0447654724121094,0.8679947853088379,-3.2126309871673584
1698071916060200700,0.23220068359375,1.6756086349487305,2.1941514015197754,-5.252538204193115
1698071916069794300,0.241794189453125,1.094048023223877,2.683079242706299,-4.043947696685791
1698071916079387100,0.25138720703125,-0.0023508071899414062,1.7405400276184082,-1.929093837738037
1698071916088979200,0.260979248046875,-0.3868427276611328,0.25147104263305664,-0.2993488311767578
1698071916098572000,0.270572021484375,0.35368967056274414,-0.7420773506164551,0.12053849548101425
1698071916108166000,0.280165771484375,0.5612325668334961,-0.9269819259643555,0.1723724901676178
1698071916117758500,0.289758544921875,1.1896262168884277,-0.29479360580444336,0.6408876776695251
1698071916127350500,0.2993505859375,1.1903176307678223,-0.256925106048584,0.47080445289611816
1698071916136943400,0.308943359375,1.1334738731384277,-0.4310030937194824,-0.397398442029953
1698071916146537000,0.318536865234375,1.3239917755126953,-0.42360544204711914,-1.3115007877349854
1698071916156129800,0.3281298828125,1.303476333618164,-0.6499843597412109,-2.033022165298462
1698071916165721900,0.337721923828125,1.2763671875,0.0635228157043457,-3.004544973373413
1698071916175314700,0.347314697265625,1.5743865966796875,0.5798015594482422,-0.9185198545455933
1698071916184908500,0.356908447265625,0.9277820587158203,-0.06661415100097656,0.7590056657791138
1698071916194501000,0.366501220703125,0.7514286041259766,0.1958456039428711,-0.08948741853237152
1698071916204093200,0.37609326171875,0.7433233261108398,0.18448209762573242,-0.3142819404602051
1698071916213686000,0.38568603515625,0.7325801849365234,-0.28725385665893555,0.1283445954322815
1698071916223279600,0.395279541015625,0.9081153869628906,-0.5373353958129883,0.4858826994895935
1698071916232872400,0.40487255859375,0.9893674850463867,-0.7139883041381836,0.5881618857383728
1698071916242464500,0.414464599609375,1.2009096145629883,-0.7703113555908203,0.34204161167144775
1698071916252057300,0.424057373046875,1.6592235565185547,-0.6354770660400391,0.008781635202467442
1698071916261651200,0.433651123046875,1.8892593383789062,-0.5077781677246094,-0.07531895488500595
1698071916271243800,0.443243896484375,1.842172622680664,-0.3226757049560547,-0.2362550050020218
1698071916280835800,0.4528359375,1.567413330078125,-0.096099853515625,-0.48225346207618713
1698071916290428700,0.4624287109375,1.4018115997314453,0.27347803115844727,-0.6540998816490173
1698071916300022300,0.472022216796875,0.6656255722045898,0.46261072158813477,-0.5852911472320557
1698071916309615000,0.481614990234375,-0.10372543334960938,0.7392878532409668,-0.7535045146942139
1698071916319207200,0.491207275390625,-0.5371017456054688,0.9823441505432129,-0.9158229231834412
1698071916328800000,0.500800048828125,-0.943659782409668,0.962003231048584,-0.9887893795967102
1698071916338393900,0.510393798828125,-1.3654870986938477,0.7006659507751465,-0.9002206921577454
1698071916347986400,0.519986328125,-1.1802592277526855,0.49599599838256836,-0.963519811630249
1698071916357578500,0.52957861328125,-0.7070808410644531,0.39586639404296875,-0.7887515425682068
1698071916367171300,0.53917138671875,-0.2396392822265625,0.2876420021057129,-0.6514111757278442
1698071916376765000,0.548764892578125,0.07505226135253906,-0.05789995193481445,-0.3509693443775177
1698071916386357800,0.558357666015625,0.5309591293334961,-0.18264055252075195,-0.3335755467414856
1698071916395949800,0.56794970703125,0.8615617752075195,-0.20078802108764648,-0.1792900562286377
1698071916405542700,0.577542724609375,0.7968406677246094,-0.17892742156982422,-0.06849563121795654
1698071916415136500,0.587136474609375,0.5051612854003906,-0.09397315979003906,0.03446882963180542
1698071916424729000,0.59672900390625,0.06707096099853516,-0.017386913299560547,0.039716482162475586
1698071916434321200,0.606321044921875,-0.04769325256347656,0.030022144317626953,-0.2074022889137268
1698071916443914200,0.615914306640625,-0.2295513153076172,0.12296581268310547,-0.5363237261772156
1698071916453507600,0.625507568359375,-0.45790624618530273,0.18991613388061523,-0.7404385209083557
1698071916463100400,0.635100341796875,-0.46156930923461914,0.24768877029418945,-0.7255018353462219
1698071916472692500,0.6446923828125,-0.3752875328063965,0.2434062957763672,-0.5689466595649719
1698071916482285300,0.654285400390625,-0.16192626953125,0.23280811309814453,-0.4931439161300659
1698071916491879000,0.66387890625,0.043437957763671875,0.19536685943603516,-0.5599366426467896
1698071916501471700,0.6734716796875,0.36493873596191406,0.16641807556152344,-0.5436283946037292
1698071916511063800,0.683063720703125,0.6136388778686523,0.1316518783569336,-0.5308085680007935
1698071916520657000,0.692656982421875,0.670954704284668,0.1331496238708496,-0.5614851117134094
1698071916530250200,0.702250244140625,0.30084896087646484,0.16581392288208008,-0.5829740762710571
1698071916539843000,0.711843017578125,-0.22304916381835938,0.13582897186279297,-0.4107379913330078
1698071916549435100,0.72143505859375,-0.4536013603210449,0.1891016960144043,-0.42345839738845825
1698071916559028000,0.731028076171875,-0.5115499496459961,0.12710046768188477,-0.4482687711715698
1698071916568621600,0.74062158203125,-0.47530603408813477,0.12397480010986328,-0.4892857074737549
1698071916578214400,0.75021435546875,-0.3666806221008301,0.1233973503112793,-0.4332081079483032
1698071916587806500,0.759806396484375,-0.13164043426513672,0.04624795913696289,-0.4309959411621094
1698071916597399300,0.7693994140625,-0.03127765655517578,-0.005270481109619141,-0.534233808517456
1698071916606993000,0.778992919921875,-0.1031656265258789,-0.08108329772949219,-0.663472592830658
1698071916616585700,0.788585693359375,-0.3810572624206543,0.07339334487915039,-0.7754685878753662
1698071916626177800,0.798177734375,-0.6442179679870605,0.30381345748901367,-0.791736364364624
1698071916635770600,0.8077705078125,-0.7069153785705566,0.31491994857788086,-0.5930436253547668
1698071916645364200,0.8173642578125,-0.691077709197998,0.3967456817626953,-0.5488106608390808
1698071916654957000,0.82695703125,-0.6861987113952637,0.5920486450195312,-0.5422694087028503
1698071916664549000,0.836549072265625,-0.5814127922058105,0.6987123489379883,-0.5713740587234497
1698071916674142000,0.846141845703125,-0.42989683151245117,0.6583709716796875,-0.6177041530609131
1698071916683735600,0.855735595703125,-0.18722009658813477,0.4748539924621582,-0.5824573636054993
1698071916693328400,0.865328369140625,0.1077718734741211,0.2253708839416504,-0.5014917850494385
1698071916702920400,0.87492041015625,0.39324474334716797,0.0405888557434082,-0.5450913906097412
1698071916712513300,0.88451318359375,0.7149410247802734,-0.15419435501098633,-0.399757444858551
1698071916722107000,0.89410693359375,0.9261751174926758,-0.08679819107055664,0.5730960965156555
1698071916731699700,0.90369970703125,0.9609031677246094,-0.09258031845092773,1.3280459642410278
1698071916741291800,0.913291748046875,0.9290666580200195,-0.17960882186889648,1.083862066268921
1698071916750884600,0.922884521484375,0.8540725708007812,-0.2354741096496582,0.6996932029724121
1698071916760478200,0.932478271484375,0.7799959182739258,-0.2883615493774414,0.34714239835739136
1698071916770071000,0.942071044921875,0.8321409225463867,-0.31117916107177734,0.21817860007286072
1698071916779663000,0.9516630859375,0.8062543869018555,-0.2844424247741699,0.13432347774505615
1698071916789256000,0.961255859375,0.7653217315673828,-0.2313833236694336,0.09304219484329224
1698071916798849500,0.970849609375,0.6960124969482422,-0.20816946029663086,0.1464247703552246
1698071916808442400,0.9804423828125,0.721858024597168,-0.26022863388061523,0.06353384256362915
1698071916818034400,0.990034423828125,0.7467164993286133,-0.28054141998291016,0.10316014289855957
1698071916827627300,0.999627197265625,0.6937847137451172,-0.19479703903198242,0.15163278579711914
1698071916837220900,1.009220947265625,0.31160926818847656,-0.1696467399597168,0.16492432355880737
1698071916846813700,1.018813720703125,0.029834747314453125,-0.2857246398925781,0.0040454864501953125
1698071916856405800,1.02840576171875,-0.1142435073852539,-0.5240716934204102,0.8716837167739868
1698071916865998600,1.03799853515625,-0.3503603935241699,-0.2942790985107422,1.145409107208252
1698071916875592200,1.04759228515625,-0.6245818138122559,-0.25025510787963867,1.6493744850158691
1698071916885185000,1.05718505859375,-0.9869856834411621,-0.24132442474365234,2.020132541656494
1698071916894777000,1.066777099609375,-1.2457036972045898,-0.14673900604248047,1.9659922122955322
1698071916904370000,1.076369873046875,-1.531905174255371,-0.130706787109375,1.681220531463623
1698071916913963500,1.085963623046875,-1.6018199920654297,-0.19396638870239258,1.3640222549438477
1698071916923556400,1.095556396484375,-1.4998598098754883,-0.34348154067993164,1.024374008178711
1698071916933148400,1.1051484375,-0.7425570487976074,-0.28548383712768555,0.9686707258224487
1698071916942741200,1.1147412109375,-0.23584318161010742,-0.33998537063598633,1.051973581314087
1698071916952334800,1.1243349609375,0.036032676696777344,-0.47925567626953125,0.8878277540206909
1698071916961927700,1.133927734375,0.3514823913574219,-0.5523080825805664,0.6246572732925415
1698071916971519700,1.143519775390625,0.5502471923828125,-0.5215110778808594,0.552341103553772
1698071916981112600,1.153112548828125,0.5934209823608398,-0.5235891342163086,0.44575589895248413
1698071916990706200,1.1627060546875,0.6336612701416016,-0.46266841888427734,0.32156282663345337
1698071917000299000,1.172299072265625,0.5470514297485352,-0.38825035095214844,0.3323308229446411
1698071917009891000,1.18189111328125,0.4077720642089844,-0.2616114616394043,0.298276424407959
1698071917019484000,1.19148388671875,0.3034372329711914,-0.16765213012695312,0.36716747283935547
1698071917029077500,1.201077392578125,0.25485992431640625,-0.08430814743041992,0.4226645827293396
1698071917038670300,1.21067041015625,0.2639608383178711,-0.030452728271484375,0.46094387769699097
1698071917048262400,1.220262451171875,0.3592185974121094,-0.07294082641601562,0.5096359848976135
1698071917057855200,1.229855224609375,0.400146484375,-0.07366228103637695,0.494072824716568
1698071917067448800,1.23944873046875,0.4278221130371094,-0.1544179916381836,0.46109873056411743
1698071917077041700,1.249041748046875,0.3855276107788086,-0.1984701156616211,0.4583558440208435
1698071917086633700,1.2586337890625,0.4354887008666992,-0.23734283447265625,0.5527735948562622
1698071917096226600,1.2682265625,0.40860939025878906,-0.2192058563232422,0.5818339586257935
1698071917105820200,1.277820068359375,0.2650108337402344,-0.18944263458251953,0.5983867645263672
1698071917115413000,1.2874130859375,0.08562088012695312,-0.13521909713745117,0.517596960067749
1698071917125005000,1.297005126953125,-0.030359268188476562,-0.14346551895141602,0.44913697242736816
1698071917134598000,1.306597900390625,-0.19571542739868164,-0.1153712272644043,0.44039061665534973
1698071917144191500,1.31619140625,-0.33945560455322266,-0.14055967330932617,0.37273305654525757
1698071917153784300,1.325784423828125,-0.4409604072570801,-0.18452787399291992,0.3464014530181885
1698071917163376400,1.33537646484375,-0.533900260925293,-0.2351689338684082,0.32806187868118286
1698071917172969200,1.34496923828125,-0.42072343826293945,-0.2930917739868164,0.34409576654434204
1698071917182562800,1.354562744140625,-0.27089977264404297,-0.2952136993408203,0.37018242478370667
1698071917192155600,1.36415576171875,-0.1934065818786621,-0.2974395751953125,0.3140518367290497
1698071917201747700,1.373747802734375,-0.12069940567016602,-0.24338960647583008,0.20649518072605133
1698071917211340300,1.38334033203125,-0.05931997299194336,-0.17937135696411133,0.1923689842224121
1698071917220934100,1.39293408203125,-0.03250598907470703,-0.20820093154907227,0.300416499376297
1698071917230527000,1.40252685546875,0.01723480224609375,-0.25096797943115234,0.5752285718917847
1698071917240118800,1.412118896484375,-0.10345458984375,-0.2637944221496582,0.8074772953987122
1698071917249711900,1.4217119140625,-0.3045797348022461,-0.2661738395690918,0.8509051203727722
1698071917259305500,1.431305419921875,-0.36810970306396484,-0.28750133514404297,0.7781893014907837
1698071917268898000,1.44089794921875,-0.41692399978637695,-0.35539960861206055,0.6234384179115295
1698071917278490000,1.450489990234375,-0.4658546447753906,-0.38584136962890625,0.49318167567253113
1698071917288083200,1.460083251953125,-0.41022300720214844,-0.4006495475769043,0.4558698534965515
1698071917297676800,1.4696767578125,-0.3074493408203125,-0.41942596435546875,0.5380121469497681
1698071917307269400,1.479269287109375,-0.2616448402404785,-0.3909645080566406,0.7344470024108887
1698071917316861400,1.488861328125,-0.31234312057495117,-0.3637995719909668,0.8567846417427063
1698071917326454300,1.498454345703125,-0.42374610900878906,-0.34899139404296875,0.8479602336883545
1698071917336048000,1.508048095703125,-0.5299887657165527,-0.33528709411621094,0.7666871547698975
1698071917345640700,1.517640625,-0.5982036590576172,-0.29596471786499023,0.7318210005760193
1698071917355232800,1.527232666015625,-0.6333403587341309,-0.21937274932861328,0.7271323204040527
1698071917364825600,1.53682568359375,-0.5667076110839844,-0.17935991287231445,0.7126319408416748
1698071917374419200,1.546419189453125,-0.4699702262878418,-0.15068578720092773,0.6370364427566528
1698071917384012000,1.556011962890625,-0.28490304946899414,-0.10321044921875,0.5697399377822876
1698071917393604000,1.56560400390625,-0.09926795959472656,-0.05008649826049805,0.4202955961227417
1698071917403197000,1.575197021484375,0.022002220153808594,0.009597301483154297,0.37506628036499023
1698071917412790800,1.584790771484375,0.23876667022705078,0.11193180084228516,0.267490416765213
1698071917422383400,1.59438330078125,0.4090900421142578,0.1277785301208496,0.19320517778396606
1698071917431975400,1.603975341796875,0.4945993423461914,0.21499061584472656,0.21326446533203125
1698071917441568300,1.613568359375,0.45938682556152344,0.3105792999267578,0.2684214115142822
1698071917451161900,1.623161865234375,0.3475151062011719,0.3654017448425293,0.27117598056793213
1698071917460754700,1.632754638671875,0.2469625473022461,0.3948817253112793,0.2876442074775696
1698071917470346800,1.6423466796875,0.29900360107421875,0.45795345306396484,0.49580666422843933
1698071917479939600,1.651939697265625,0.3134632110595703,0.48696184158325195,0.6184651255607605
1698071917489533200,1.661533203125,0.2298574447631836,0.4562983512878418,0.5113396048545837
1698071917499126000,1.6711259765625,0.027738571166992188,0.41763973236083984,0.36953017115592957
1698071917508718000,1.680718017578125,-0.18390893936157227,0.3895125389099121,0.25401797890663147
1698071917518311000,1.690310791015625,-0.42229604721069336,0.3660268783569336,0.16822350025177002
1698071917527904500,1.699904541015625,-0.5605177879333496,0.35518407821655273,0.13906782865524292
1698071917537497300,1.709497314453125,-0.6782498359680176,0.35489416122436523,0.08051109313964844
1698071917547089400,1.71908935546875,-0.7784824371337891,0.36782407760620117,0.02022150158882141
1698071917556682200,1.72868212890625,-0.8264145851135254,0.39650583267211914,-0.07596021890640259
1698071917566275800,1.73827587890625,-0.8629212379455566,0.41231584548950195,-0.07928115129470825
1698071917575868700,1.74786865234375,-0.774869441986084,0.3936767578125,0.08103066682815552
1698071917585460700,1.757460693359375,-0.7075166702270508,0.439145565032959,0.30214419960975647
1698071917595053600,1.767053466796875,-0.7618889808654785,0.4792447090148926,0.48329442739486694
1698071917604647200,1.776647216796875,-0.8658413887023926,0.4864511489868164,0.4918089210987091
1698071917614240000,1.786239990234375,-0.8943805694580078,0.5494771003723145,0.3328845798969269
1698071917623832000,1.79583203125,-0.9477672576904297,0.6160268783569336,0.12200173735618591
1698071917633425000,1.8054248046875,-0.9900569915771484,0.6505937576293945,0.0018703937530517578
1698071917643018500,1.8150185546875,-1.0071368217468262,0.6442456245422363,-0.1349838227033615
1698071917652611300,1.824611328125,-0.9189825057983398,0.5619969367980957,-0.2420589029788971
1698071917662203400,1.834203369140625,-0.6768770217895508,0.5474491119384766,-0.3467734158039093
1698071917671796200,1.843796142578125,-0.42833995819091797,0.515653133392334,-0.16739711165428162
1698071917681389800,1.853389892578125,-0.276519775390625,0.4330897331237793,-0.053995996713638306
1698071917690982700,1.862982666015625,-0.0072765350341796875,0.596407413482666,0.3767491579055786
1698071917700574700,1.87257470703125,0.04204130172729492,0.4618515968322754,0.4663383364677429
1698071917710167600,1.88216748046875,-0.12459039688110352,0.4738888740539551,0.3022335171699524
1698071917719761200,1.89176123046875,-0.36197710037231445,0.42887020111083984,0.3921271860599518
1698071917729354000,1.90135400390625,-0.3632216453552246,0.39855432510375977,0.8148962259292603
1698071917738946000,1.910946044921875,-0.4234771728515625,0.3217635154724121,0.9106962084770203
1698071917748539000,1.920538818359375,-0.613459587097168,0.43402767181396484,0.658872127532959
1698071917758132500,1.930132568359375,-0.6740388870239258,0.4161067008972168,0.45252859592437744
1698071917767725300,1.939725341796875,-0.5825352668762207,0.28246450424194336,0.35225969552993774
1698071917777317000,1.949317138671875,-0.3491072654724121,0.2397775650024414,0.1931268572807312
1698071917786910200,1.95891015625,-0.0991973876953125,0.14045190811157227,0.21773380041122437
1698071917796503800,1.96850390625,-0.020115375518798828,0.19546842575073242,0.20969825983047485
1698071917806096400,1.978096435546875,0.003926753997802734,0.36028146743774414,0.2802581787109375
1698071917815688400,1.9876884765625,-0.1454620361328125,0.5202746391296387,0.15940797328948975
1698071917825281500,1.997281494140625,-0.43160581588745117,0.6706709861755371,-0.02279871702194214
1698071917834875100,2.006875244140625,-0.5781188011169434,0.7967047691345215,-0.04792076349258423
1698071917844467700,2.0164677734375,-0.7629618644714355,0.8670659065246582,0.29295819997787476
1698071917854059800,2.026059814453125,-0.7225146293640137,0.8174548149108887,0.24013471603393555
1698071917863652600,2.035652587890625,-0.8875894546508789,0.8368821144104004,0.08939117193222046
1698071917873246500,2.04524658203125,-1.1282281875610352,0.8306994438171387,-0.20035028457641602
1698071917882839000,2.054839111328125,-1.2825660705566406,0.8007850646972656,-0.4630284905433655
1698071917892431000,2.06443115234375,-1.3517017364501953,0.8114075660705566,-0.7645846605300903
1698071917902024000,2.07402392578125,-1.251391887664795,0.8683266639709473,-1.0277726650238037
1698071917911617500,2.083617431640625,-1.1219615936279297,0.9512743949890137,-1.1653047800064087
1698071917921210400,2.09321044921875,-0.9205093383789062,1.081512451171875,-1.1549458503723145
1698071917930802400,2.102802490234375,-0.6951913833618164,1.1707086563110352,-1.1763296127319336
1698071917940395300,2.112395263671875,-0.6060419082641602,1.135735034942627,-1.1675552129745483
1698071917949988900,2.12198876953125,-0.299349308013916,1.102745532989502,-1.0053038597106934
1698071917959581700,2.131581787109375,0.06962060928344727,0.9850850105285645,-0.8824431896209717
1698071917969173800,2.141173828125,0.3512091636657715,0.7846012115478516,-0.9631251096725464
1698071917978766600,2.1507666015625,0.12417793273925781,0.49687957763671875,-1.1243189573287964
1698071917988360200,2.160360107421875,-0.340425968170166,0.37645959854125977,-1.447218418121338
1698071917997953000,2.169953125,-0.8285050392150879,0.37028980255126953,-1.846924901008606
1698071918007545000,2.179545166015625,-1.1901650428771973,0.37639713287353516,-1.9974968433380127
1698071918017138000,2.189137939453125,-1.241382122039795,0.3843402862548828,-1.905476689338684
1698071918026731500,2.1987314453125,-0.9361057281494141,0.27518224716186523,-1.649718999862671
1698071918036324400,2.208324462890625,-0.4353618621826172,0.1756129264831543,-1.4143215417861938
1698071918045916400,2.21791650390625,0.09889650344848633,0.0870819091796875,-1.3533594608306885
1698071918055509200,2.22750927734375,1.1011080741882324,-0.2561359405517578,-1.176335334777832
1698071918065102800,2.237102783203125,2.179549217224121,-0.42389917373657227,-0.9493646025657654
1698071918074695700,2.24669580078125,3.6810317039489746,-0.8927054405212402,-0.8442065715789795
1698071918084287700,2.256287841796875,5.029986381530762,-1.01609468460083,-0.906424880027771
1698071918093880600,2.265880615234375,5.7066450119018555,-1.1088838577270508,-1.5228807926177979
1698071918103474200,2.27547412109375,5.195213317871094,-0.8610978126525879,-1.066965103149414
1698071918113067000,2.28506689453125,5.193783760070801,-0.9853482246398926,-0.13541212677955627
1698071918122659000,2.2946591796875,4.670489311218262,-0.43506431579589844,0.3342670202255249
1698071918132252000,2.304251953125,2.9658203125,-0.3149442672729492,-0.1889980435371399
1698071918141845500,2.313845458984375,0.5515356063842773,-0.42810773849487305,-0.217568039894104
1698071918151438300,2.323438232421875,-1.5701775550842285,-0.5190181732177734,0.0766022801399231
1698071918161030400,2.333030517578125,-2.717827320098877,-0.3455324172973633,0.23776520788669586
1698071918170623200,2.342623291015625,-2.8280506134033203,-0.37908220291137695,0.5447213053703308
1698071918180216800,2.352216796875,-1.9572176933288574,-0.4359884262084961,0.7087470293045044
1698071918189809400,2.361809326171875,-0.7726387977600098,-0.5403342247009277,0.6310127377510071
1698071918199401700,2.371401611328125,0.2767601013183594,-0.6496577262878418,0.25988858938217163
1698071918208994300,2.380994384765625,1.1245174407958984,-0.7275853157043457,-0.05080460011959076
1698071918218588200,2.390588134765625,1.5452661514282227,-0.8971467018127441,-0.24903349578380585
1698071918228180700,2.4001806640625,1.2345209121704102,-1.0483245849609375,-0.3683096170425415
1698071918237772800,2.409772705078125,0.5653181076049805,-1.1281795501708984,-0.6071448922157288
1698071918247365600,2.41936572265625,-0.05161762237548828,-1.165194034576416,-0.6969472765922546
1698071918256959500,2.42895947265625,-0.21717262268066406,-1.4183542728424072,-0.5778411626815796
1698071918266552000,2.438552001953125,0.1500110626220703,-1.2926445007324219,-0.6999745965003967
1698071918276144000,2.44814404296875,0.33820247650146484,-1.0443062782287598,-1.3201208114624023
1698071918285737000,2.457737060546875,0.6949596405029297,-1.6637499332427979,-0.928459882736206
1698071918295330600,2.46733056640625,0.4313497543334961,-1.9261889457702637,-0.5429936051368713
1698071918304923400,2.47692333984375,0.6910600662231445,-2.0361452102661133,0.030745506286621094
1698071918314515500,2.486515380859375,1.170334815979004,-2.001591205596924,0.32076120376586914
1698071918324108300,2.4961083984375,1.2315292358398438,-1.7926769256591797,0.17401063442230225
1698071918333702000,2.505701904296875,1.4294795989990234,-1.6301820278167725,-0.34083664417266846
1698071918343294700,2.515294677734375,1.6630935668945312,-1.712285041809082,-0.5277643799781799
1698071918352886800,2.52488671875,1.4741039276123047,-1.8785839080810547,-0.8022264838218689
1698071918362479600,2.534479736328125,0.9768714904785156,-2.1024465560913086,-1.0973529815673828
1698071918372073200,2.5440732421875,-0.05097484588623047,-2.251413583755493,-1.270136833190918
1698071918381666000,2.553666015625,-1.6663837432861328,-2.1539406776428223,-1.4878170490264893
1698071918391258000,2.563258056640625,-4.555450439453125,-1.963578462600708,-1.0182325839996338
1698071918400851000,2.572850830078125,-6.440325736999512,-1.5748772621154785,0.1920788288116455
1698071918410444500,2.582444580078125,-5.339573383331299,-1.5676147937774658,1.112006425857544
1698071918420037400,2.592037353515625,-3.078982353210449,-2.1114046573638916,1.2264262437820435
1698071918429629400,2.60162939453125,-1.517167091369629,-2.024812698364258,0.4058663845062256
1698071918439222300,2.61122216796875,-1.2231626510620117,-1.6302969455718994,-0.4105340242385864
1698071918448815900,2.62081591796875,-1.4331660270690918,-2.13334059715271,-0.8158724308013916
1698071918458408700,2.63040869140625,-0.7803902626037598,-2.3262431621551514,-2.1512973308563232
1698071918468000800,2.640000732421875,-0.46163320541381836,-1.9990274906158447,-3.113208055496216
1698071918477593600,2.649593505859375,-0.32797765731811523,-1.5819814205169678,-3.6999073028564453
1698071918487187200,2.659187255859375,-0.1644124984741211,-1.2459907531738281,-3.878403663635254
1698071918496780000,2.668780029296875,0.485170841217041,-1.0421051979064941,-3.269036293029785
1698071918506372000,2.6783720703125,0.9916629791259766,-1.0200915336608887,-1.335364818572998
1698071918515964700,2.687964599609375,0.7645277976989746,-0.9006400108337402,0.6515219211578369
1698071918525558500,2.69755859375,0.5867595672607422,-0.6951580047607422,0.9729526042938232
1698071918535151400,2.7071513671875,-0.7359380722045898,-0.46607542037963867,1.4906365871429443
1698071918544743200,2.7167431640625,-2.009476661682129,-0.28177976608276367,1.7921538352966309
1698071918554336000,2.7263359375,-2.3118295669555664,-0.26714515686035156,2.1352386474609375
1698071918563929900,2.735929931640625,-2.509097099304199,-0.6931910514831543,2.2287745475769043
1698071918573522400,2.7455224609375,-1.716139793395996,-1.5836856365203857,2.377490997314453
1698071918583114500,2.755114501953125,-1.1567950248718262,-2.0329935550689697,2.434253692626953
1698071918592707300,2.764707275390625,0.34238100051879883,-1.3389084339141846,0.6163458824157715
1698071918602301000,2.774301025390625,1.0292153358459473,-0.2359333038330078,-0.2508072853088379
1698071918611893800,2.783893798828125,-1.0591506958007812,-0.08328056335449219,1.300886631011963
1698071918621485600,2.793485595703125,-3.2531983852386475,0.14876937866210938,2.887202262878418
1698071918631078400,2.803078369140625,-3.5783486366271973,0.8568873405456543,4.165713310241699
1698071918640672300,2.81267236328125,-2.8085618019104004,0.30219554901123047,5.0679402351379395
1698071918650264800,2.822264892578125,-1.813657283782959,-0.5511977672576904,3.693467617034912
1698071918659857000,2.83185693359375,0.07145166397094727,0.5868356227874756,3.3571181297302246
1698071918669449700,2.84144970703125,2.6506237983703613,-0.4250657558441162,2.730161666870117
1698071918679043300,2.851043212890625,4.569058895111084,-1.1705018281936646,0.5460257530212402
1698071918688636200,2.86063623046875,5.794510841369629,-0.9097400903701782,0.24864435195922852
1698071918698228200,2.870228271484375,5.991909980773926,-1.4806544780731201,2.9423999786376953
1698071918707821000,2.879821044921875,5.899120807647705,-0.8154654502868652,4.284011363983154
1698071918717414700,2.88941455078125,6.379382610321045,-1.5188279151916504,3.999873638153076
1698071918727007500,2.899007568359375,7.915927886962891,-1.8076101541519165,1.5814533233642578
1698071918736599600,2.908599609375,10.006651878356934,-2.264690399169922,-1.9281363487243652
1698071918746192400,2.9181923828125,10.148848533630371,-1.7816212177276611,-4.105568885803223
1698071918755786000,2.927785888671875,10.370040893554688,-2.4403767585754395,-2.358140468597412
1698071918765378800,2.93737890625,10.302009582519531,-1.7419401407241821,-0.44576597213745117
1698071918774971000,2.946970947265625,8.900650978088379,0.25881361961364746,1.0050983428955078
1698071918784563700,2.956563720703125,5.942800045013428,0.541954755783081,5.956422328948975
1698071918794157300,2.9661572265625,3.4340786933898926,2.792590618133545,7.395077705383301
1698071918803750100,2.975750244140625,-0.9867768287658691,4.700140953063965,10.350541114807129
1698071918813342200,2.98534228515625,-3.001457452774048,4.542552947998047,9.50503158569336
1698071918822935000,2.99493505859375,-3.403841495513916,3.100921154022217,4.688211441040039
1698071918832528600,3.004528564453125,-3.425874710083008,1.3510907888412476,-0.6558027267456055
1698071918842121500,3.01412158203125,-2.4497323036193848,-0.0416412353515625,-4.5948591232299805
1698071918851713300,3.02371337890625,-2.36027193069458,-0.9378162622451782,-6.105202674865723
1698071918861306400,3.033306396484375,-0.8674201965332031,-1.8880937099456787,-6.108944892883301
1698071918870900000,3.04289990234375,-0.10004949569702148,-2.3566222190856934,-5.960390090942383
1698071918880492500,3.052492431640625,-0.22552037239074707,-2.7229466438293457,-6.459842205047607
1698071918890084600,3.062084716796875,-0.4653959274291992,-3.345823287963867,-8.036728858947754
1698071918899677400,3.071677490234375,0.08158648014068604,-3.743673086166382,-9.939522743225098
1698071918909271300,3.081271240234375,0.5123201608657837,-3.990839719772339,-10.38554859161377
1698071918918864000,3.09086376953125,0.7819284200668335,-4.551230430603027,-10.71576976776123
1698071918928456000,3.1004560546875,2.2774369716644287,-4.007660865783691,-10.581212043762207
1698071918938048800,3.110048828125,2.724018096923828,-3.998716354370117,-8.681785583496094
1698071918947642400,3.119642333984375,3.1690502166748047,-3.4119601249694824,-6.6655683517456055
1698071918957235200,3.129235107421875,2.690398931503296,-2.338559865951538,-5.353838920593262
1698071918966827300,3.1388271484375,-5.229294300079346,-2.880664110183716,3.6079635620117188
1698071918976420000,3.148420166015625,-7.02236270904541,7.002814292907715,-0.8330345153808594
1698071918986013700,3.158013671875,5.681602954864502,2.5631754398345947,-2.0493364334106445
1698071918995606500,3.1676064453125,-7.981239318847656,2.4138309955596924,7.2669525146484375
1698071919005198600,3.177198486328125,-15.538823127746582,8.789135932922363,13.127607345581055
1698071919014791400,3.18679150390625,-16.292179107666016,11.891146659851074,7.449755668640137
1698071919024385000,3.196385009765625,-14.043951034545898,9.730109214782715,10.244327545166016
1698071919033977900,3.205977783203125,-7.089395999908447,9.527094841003418,6.9566850662231445
1698071919043570000,3.21556982421875,-0.9766789674758911,7.370931625366211,2.216465950012207
1698071919053162800,3.225162841796875,2.4006447792053223,6.0167999267578125,1.0920391082763672
1698071919062756400,3.23475634765625,2.696260929107666,5.6670427322387695,0.5144872665405273
1698071919072349200,3.24434912109375,0.5209236145019531,5.3284912109375,-0.22471332550048828
1698071919081941200,3.253941162109375,-1.2669498920440674,4.553526401519775,-1.6214866638183594
1698071919091533800,3.263533935546875,-1.8684543371200562,3.955779790878296,-3.3878555297851562
1698071919101127700,3.273127685546875,-1.9301446676254272,3.505028247833252,-4.661557197570801
1698071919110720500,3.282720458984375,-1.9015088081359863,3.277855634689331,-4.4890594482421875
1698071919120312300,3.292312255859375,-0.12786829471588135,3.244492530822754,-2.028745174407959
1698071919129905200,3.3019052734375,3.277822256088257,3.1523642539978027,1.2856178283691406
1698071919139499000,3.3114990234375,-0.04223012924194336,4.520632743835449,-0.1353473663330078
1698071919149091600,3.321091552734375,-4.255288600921631,4.292198181152344,-0.7023367881774902
1698071919158683600,3.33068359375,-5.847927570343018,3.651500701904297,0.4934086799621582
1698071919168276500,3.3402763671875,-3.720277786254883,4.46148681640625,1.5956792831420898
1698071919177870000,3.3498701171875,-3.959831953048706,1.8631181716918945,1.5079693794250488
1698071919187463000,3.359462890625,7.930939674377441,-7.288649082183838,8.81946086883545
1698071919197055000,3.369054931640625,-8.545846939086914,-20.937088012695312,7.399228572845459
1698071919206647800,3.378647705078125,-4.677524566650391,-11.494766235351562,0.12565994262695312
1698071919216241400,3.388241455078125,6.4847869873046875,-0.11580896377563477,5.232297897338867
1698071919225834200,3.397834228515625,-1.778024673461914,2.178469657897949,3.5383753776550293
1698071919235426300,3.40742626953125,-6.515750885009766,-6.756899356842041,2.682190418243408
1698071919245019100,3.41701904296875,-1.2868287563323975,-10.456327438354492,5.073461532592773
1698071919254612700,3.42661279296875,1.5154675245285034,-10.092984199523926,3.1227407455444336
1698071919264205600,3.43620556640625,0.8314440250396729,-2.9757461547851562,2.0115890502929688
1698071919273797600,3.445797607421875,-1.5278029441833496,-3.6758570671081543,1.3616538047790527
1698071919283390500,3.455390380859375,-0.40708303451538086,-6.1472063064575195,1.1973762512207031
1698071919292984000,3.464984130859375,0.21709752082824707,-4.99592399597168,0.12223434448242188
1698071919302577000,3.474576904296875,0.4262971878051758,-5.488443374633789,-0.14223814010620117
1698071919312169000,3.4841689453125,1.28287935256958,-6.1532416343688965,0.11137628555297852
1698071919321761800,3.49376171875,0.6361806392669678,-4.406898498535156,3.6139469146728516
1698071919331355400,3.50335546875,2.8057169914245605,-0.22423696517944336,3.2271604537963867
1698071919340948200,3.5129482421875,4.172799110412598,1.737710952758789,3.5581979751586914
1698071919350540000,3.5225400390625,2.3556604385375977,0.33002614974975586,4.236069202423096
1698071919360133000,3.532133056640625,1.4136085510253906,6.821743965148926,-2.6013050079345703
1698071919369726700,3.541726806640625,0.8917449712753296,13.54095458984375,-11.34968376159668
1698071919379319300,3.5513193359375,0.5252342224121094,7.8922529220581055,-8.341026306152344
1698071919388911400,3.560911376953125,3.6589369773864746,4.319684028625488,-4.031991958618164
1698071919398504200,3.570504150390625,4.3985676765441895,4.092023849487305,-6.670193672180176
1698071919408098000,3.58009814453125,3.218921661376953,4.248895645141602,-7.3284711837768555
1698071919417690600,3.589690673828125,1.4339779615402222,2.9900450706481934,-5.766130447387695
1698071919427282700,3.59928271484375,2.9340968132019043,1.3701519966125488,-4.1736159324646
1698071919436875500,3.60887548828125,2.03944730758667,-0.11118221282958984,-2.461421489715576
1698071919446469000,3.61846923828125,0.6986435055732727,-0.9019746780395508,-1.5329978466033936
1698071919456062000,3.62806201171875,-0.22740107774734497,-1.7061786651611328,-1.0688234567642212
1698071919465654000,3.637654052734375,-0.5824102163314819,-2.4362010955810547,0.14241933822631836
1698071919475246800,3.647246826171875,-0.4026891589164734,-2.954679489135742,1.213463306427002
1698071919484840400,3.65684033203125,-0.9905696511268616,-4.219051361083984,1.8459372520446777
1698071919494433300,3.666433349609375,-0.10627704858779907,-2.9111528396606445,1.751460075378418
1698071919504025300,3.676025390625,1.1957080364227295,3.9383559226989746,-0.45950543880462646
1698071919513618200,3.6856181640625,0.9047526121139526,3.6019935607910156,-0.9552196264266968
1698071919523211800,3.695211669921875,1.0685826539993286,1.8010239601135254,-0.26319313049316406
1698071919532804600,3.7048046875,-0.8951737880706787,4.4428510665893555,0.2415940761566162
1698071919542396700,3.714396728515625,-3.9073915481567383,7.573049545288086,-0.8207753896713257
1698071919551989500,3.723989501953125,3.0614213943481445,0.16248130798339844,3.0233850479125977
1698071919561583000,3.7335830078125,1.3220195770263672,1.963648796081543,1.0466054677963257
1698071919571176000,3.743176025390625,1.0126277208328247,1.2594928741455078,0.8135321140289307
1698071919580768000,3.75276806640625,0.25138741731643677,1.1255416870117188,0.5020383596420288
1698071919590360800,3.76236083984375,-0.30798810720443726,2.1709213256835938,0.21206331253051758
1698071919599954400,3.771954345703125,-0.22196048498153687,4.148874759674072,-0.27502429485321045
1698071919609547300,3.78154736328125,0.016833901405334473,5.492676734924316,-0.01166391372680664
1698071919619139300,3.791139404296875,0.022995173931121826,6.657763957977295,0.42615652084350586
1698071919628732200,3.800732177734375,-0.07816815376281738,6.692613124847412,0.7906307578086853
1698071919638325800,3.81032568359375,0.25474369525909424,6.606723308563232,1.5181727409362793
1698071919647918600,3.819918701171875,1.0781859159469604,7.198128700256348,2.7673499584198
1698071919657510400,3.829510498046875,1.9771418571472168,7.122977256774902,4.365376949310303
1698071919667103200,3.839103271484375,1.2348415851593018,3.884408950805664,5.813813209533691
1698071919676697000,3.848697021484375,-2.251281976699829,-2.209956169128418,6.295193195343018
1698071919686289700,3.85828955078125,-4.606788635253906,-7.2069091796875,5.06920051574707
1698071919695881700,3.8678818359375,-1.7270689010620117,-9.041465759277344,2.444453477859497
1698071919705474600,3.877474609375,3.3274340629577637,-7.948920249938965,1.2502979040145874
1698071919715068200,3.887068115234375,4.439257621765137,-8.142813682556152,1.4069322347640991
1698071919724661000,3.896660888671875,3.0302529335021973,-14.237354278564453,0.07970035076141357
1698071919734253000,3.906253173828125,1.4872214794158936,-23.220012664794922,-0.625167727470398
1698071919743846000,3.915845947265625,2.670076847076416,-16.247802734375,0.8238372802734375
1698071919753439500,3.925439453125,3.6864089965820312,-7.572335243225098,0.5153750777244568
1698071919763032300,3.9350322265625,1.7704501152038574,-4.862665176391602,-0.9935365319252014
1698071919772624400,3.944624267578125,0.8060702681541443,-2.941269874572754,-3.8928205966949463
1698071919782217200,3.95421728515625,0.464492529630661,-1.5422401428222656,-3.53798770904541
1698071919791810800,3.963810791015625,-1.4446314573287964,-1.5736846923828125,-4.096587181091309
1698071919801403600,3.973403564453125,-4.376716613769531,-1.3264074325561523,-7.076802730560303
1698071919810995700,3.98299560546875,-7.339559555053711,-0.530548095703125,-11.189620971679688
1698071919820588500,3.992588623046875,-2.293673038482666,-1.9372758865356445,-8.939684867858887
1698071919830182100,4.00218212890625,3.5643391609191895,-3.513199806213379,-5.924277305603027
1698071919839775000,4.01177490234375,6.996107578277588,-4.372855186462402,-2.699948787689209
1698071919849367000,4.021366943359375,4.801994323730469,-3.3919811248779297,-1.6155670881271362
1698071919858960000,4.0309599609375,3.3498196601867676,-1.7951984405517578,-1.6486788988113403
1698071919868553500,4.040553466796875,1.6572773456573486,-1.19903564453125,-0.6869266033172607
1698071919878146300,4.050146240234375,0.8625047206878662,-1.766927719116211,-1.6503065824508667
1698071919887738400,4.05973828125,0.01824784278869629,-2.322108268737793,0.828106701374054
1698071919897331200,4.069331298828125,-2.3500328063964844,-1.9563665390014648,1.853534460067749
1698071919906924800,4.0789248046875,-2.3260626792907715,-0.4719209671020508,1.1174861192703247
1698071919916517600,4.088517578125,-1.374500036239624,0.4471750259399414,1.1739916801452637
1698071919926109700,4.098109619140625,-0.29165220260620117,1.0458736419677734,1.2520456314086914
1698071919935702300,4.107702392578125,0.7500842809677124,1.5496845245361328,0.9577354192733765
1698071919945296100,4.117296142578125,1.3990501165390015,2.050112724304199,0.9023098945617676
1698071919954889000,4.126888916015625,1.6834754943847656,2.478790283203125,0.7713803648948669
1698071919964480800,4.136480712890625,1.8227651119232178,2.5504817962646484,0.7152003049850464
1698071919974073600,4.146073486328125,1.3310078382492065,2.4457764625549316,0.39143601059913635
1698071919983667500,4.15566748046875,0.7086238861083984,3.056304931640625,0.10910749435424805
1698071919993260000,4.165260009765625,0.8054947853088379,3.9190239906311035,0.2329128533601761
1698071920002852000,4.17485205078125,1.6647717952728271,4.362464904785156,0.06025208532810211
1698071920012445000,4.18444482421875,1.1308963298797607,4.369439601898193,0.16016079485416412
1698071920022038500,4.19403857421875,1.096891164779663,4.590606212615967,0.1705424040555954
1698071920031631400,4.20363134765625,0.3879634141921997,4.575022220611572,0.24330151081085205
1698071920041223400,4.213223388671875,0.2169438600540161,3.9039807319641113,0.7937487959861755
1698071920050816300,4.222816162109375,-0.597653865814209,4.280104637145996,0.6170269250869751
1698071920060409900,4.232409912109375,-0.5877565145492554,4.6038079261779785,0.3360345959663391
1698071920070002700,4.242002685546875,-1.0625969171524048,5.563982963562012,-0.38266462087631226
1698071920079594800,4.2515947265625,-0.6413968801498413,8.43051815032959,-0.6382312774658203
1698071920089187600,4.2611875,0.02947068214416504,8.574548721313477,0.41854003071784973
1698071920098781200,4.27078125,-0.4494439363479614,3.4560484886169434,2.38995099067688
1698071920108374000,4.2803740234375,-0.1130838394165039,1.2331457138061523,1.7930759191513062
1698071920117966000,4.289966064453125,-0.09734439849853516,-0.8350257873535156,0.6319291591644287
1698071920127559000,4.299558837890625,-0.040323853492736816,-2.989321708679199,-0.08900433033704758
1698071920137152500,4.309152587890625,-0.3339860439300537,-5.276849746704102,-0.7424089908599854
1698071920146745300,4.318745361328125,-1.0889906883239746,-7.102338790893555,-1.363413691520691
1698071920156337400,4.32833740234375,-1.910871148109436,-7.921905517578125,-1.3310848474502563
1698071920165930200,4.33793017578125,-2.346449851989746,-7.750270843505859,0.12770995497703552
1698071920175523800,4.34752392578125,-3.7273612022399902,-6.264666557312012,1.3143913745880127
1698071920185116700,4.35711669921875,-6.517640113830566,-3.8699798583984375,2.4473605155944824
1698071920194708700,4.366708740234375,-8.144163131713867,-1.5774316787719727,3.772122383117676
1698071920204301600,4.376301513671875,-7.570340156555176,0.10994529724121094,4.489053249359131
1698071920213895200,4.385895263671875,-6.1254448890686035,0.7098426818847656,3.6303231716156006
1698071920223487700,4.39548779296875,-3.6536173820495605,0.02923583984375,2.1003901958465576
1698071920233080000,4.405080078125,-0.5792331695556641,-1.5296039581298828,1.2643976211547852
1698071920242672600,4.414672607421875,2.1953835487365723,-4.811710357666016,0.2193792164325714
1698071920252266500,4.4242666015625,6.460267066955566,-7.909466743469238,-2.776808500289917
1698071920261859000,4.433859130859375,10.562398910522461,-8.585662841796875,-6.132083892822266
1698071920271451100,4.443451171875,10.117734909057617,-6.987977981567383,-9.118712425231934
1698071920281044000,4.4530439453125,7.504213333129883,-4.519960403442383,-10.690929412841797
1698071920290637800,4.462637939453125,1.1406328678131104,-2.2790613174438477,-7.971124649047852
1698071920300230400,4.47223046875,-3.1392297744750977,-0.12324810028076172,-4.478326320648193
1698071920309822500,4.481822509765625,-3.7182226181030273,1.5026569366455078,-2.4202258586883545
1698071920319415300,4.491415283203125,-1.6492540836334229,2.763469696044922,-0.5363849997520447
1698071920329009000,4.5010087890625,0.1436145305633545,3.6400809288024902,0.8348747491836548
1698071920338601700,4.510601806640625,1.308232069015503,3.7688355445861816,1.1739438772201538
1698071920348193800,4.52019384765625,3.1710240840911865,3.2594189643859863,1.4557849168777466
1698071920357786600,4.52978662109375,4.674188613891602,2.922482490539551,1.8146605491638184
1698071920367380200,4.539380126953125,6.032458305358887,2.543452739715576,1.306877851486206
1698071920376973000,4.54897314453125,6.430050373077393,1.6363029479980469,0.08276104927062988
1698071920386565000,4.558565185546875,5.007114410400391,0.03656959533691406,-1.6920466423034668
1698071920396158000,4.568157958984375,2.876657009124756,-1.4217395782470703,-3.3132734298706055
1698071920405751600,4.57775146484375,0.5608392953872681,-2.6240463256835938,-3.732969284057617
1698071920415344400,4.587344482421875,-1.9689866304397583,-3.189478874206543,-3.0426573753356934
1698071920424936400,4.5969365234375,-3.30148983001709,-3.488981246948242,-0.24238410592079163
1698071920434529300,4.606529296875,-3.923476219177246,-3.1476964950561523,1.8396070003509521
1698071920444123000,4.616122802734375,-4.009679794311523,-1.2933406829833984,1.3294882774353027
1698071920453715700,4.6257158203125,-2.3044915199279785,1.1775388717651367,0.17074567079544067
1698071920463307800,4.635307861328125,0.17804664373397827,2.9581995010375977,-0.7237234115600586
1698071920472900600,4.644900634765625,2.7371466159820557,4.675319194793701,-0.47562894225120544
1698071920482494200,4.654494140625,5.582716941833496,6.669703960418701,-0.7802433967590332
1698071920492087000,4.664087158203125,7.088714599609375,7.847208023071289,-2.5864462852478027
1698071920501679000,4.67367919921875,5.123765468597412,6.680455684661865,-3.4608407020568848
1698071920511272000,4.68327197265625,3.2799270153045654,4.924675464630127,-2.629743814468384
1698071920520865500,4.692865478515625,1.850697636604309,3.774473190307617,-1.7513294219970703
1698071920530458400,4.702458251953125,0.2101871520280838,3.0962367057800293,-1.2318919897079468
1698071920540050400,4.712050537109375,-1.929447054862976,2.1480274200439453,-0.7827539443969727
1698071920549643000,4.72164306640625,-3.0399372577667236,1.4464654922485352,-0.2556345462799072
1698071920559236900,4.73123681640625,-2.6159377098083496,1.1677894592285156,0.3499332368373871
1698071920568829700,4.74082958984375,-1.473960280418396,1.2343759536743164,0.6673271059989929
1698071920578421500,4.75042138671875,-0.9189736247062683,0.909637451171875,1.4030826091766357
1698071920588014300,4.760014404296875,-0.9672563672065735,0.6125221252441406,1.664748191833496
1698071920597608200,4.769608154296875,-0.9077544212341309,0.40767765045166016,1.593095064163208
1698071920607200800,4.77920068359375,-1.0317052602767944,0.01588726043701172,1.2461636066436768
1698071920616792800,4.788792724609375,-1.0341849327087402,-0.4781074523925781,1.3472423553466797
1698071920626385700,4.7983857421875,-0.8273060917854309,-1.0325908660888672,1.8075675964355469
1698071920635979500,4.8079794921875,-0.8972257375717163,-1.4937362670898438,2.660017490386963
1698071920645572000,4.817572021484375,-0.7086319923400879,-1.1188058853149414,3.3797805309295654
1698071920655164200,4.8271640625,-1.1003684997558594,-0.9464654922485352,3.9355828762054443
1698071920664757000,4.836757080078125,-1.548581838607788,-1.1963233947753906,4.305599689483643
1698071920674350800,4.846350830078125,-2.4577207565307617,-2.0466432571411133,4.078356742858887
1698071920683943400,4.855943359375,-3.1049647331237793,-3.40036678314209,3.735488176345825
1698071920693535500,4.865535400390625,-3.3452954292297363,-4.525567054748535,3.4263265132904053
1698071920703128300,4.87512841796875,-3.2193989753723145,-4.957200050354004,3.154343366622925
1698071920712722000,4.884721923828125,-2.291935682296753,-4.794955253601074,2.98167085647583
1698071920722314800,4.894314697265625,-0.3854866623878479,-5.153277397155762,2.98085618019104
1698071920731906800,4.90390673828125,-0.35493987798690796,-5.309719085693359,1.870226502418518
1698071920741499600,4.913499755859375,0.4484557509422302,-5.207426071166992,1.024985432624817
1698071920751093200,4.92309326171875,2.1639842987060547,-5.278865814208984,1.6813561916351318
1698071920760686000,4.93268603515625,2.418544292449951,-4.990002632141113,2.3845293521881104
1698071920770278100,4.942278076171875,1.402445912361145,-4.149773597717285,2.0470123291015625
1698071920779871000,4.95187109375,1.6162980794906616,-2.828998565673828,0.8746705055236816
1698071920789464600,4.961464599609375,2.362577199935913,-1.352604866027832,-0.5849674940109253
1698071920799057400,4.971057373046875,1.5802863836288452,0.0651407241821289,-2.466588258743286
1698071920808649500,4.9806494140625,0.05839875340461731,0.31061267852783203,-4.011702537536621
1698071920818242300,4.9902421875,-1.3412370681762695,0.6516427993774414,-4.518723964691162
1698071920827836000,4.9998359375,-1.5907058715820312,-0.20945167541503906,-4.544888973236084
1698071920837428700,5.0094287109375,-0.3567383289337158,-1.1525516510009766,-5.374195575714111
1698071920847020800,5.019020751953125,0.7267313599586487,-2.4707164764404297,-6.428467273712158
1698071920856613600,5.028613525390625,1.5008878707885742,-4.064057350158691,-7.406978607177734
1698071920866207200,5.038207275390625,1.6997289657592773,-5.245645523071289,-6.349154472351074
1698071920875800000,5.047800048828125,0.667542040348053,-5.579092979431152,-4.517151832580566
1698071920885392100,5.05739208984375,-0.42331138253211975,-4.063558578491211,-3.598267078399658
1698071920894985000,5.06698486328125,-0.7173107862472534,-1.9386749267578125,-2.1554086208343506
1698071920904578600,5.07657861328125,0.9380837678909302,-1.2480716705322266,-0.08892016112804413
1698071920914171400,5.08617138671875,0.9951636791229248,-1.4797325134277344,1.9848846197128296
1698071920923763500,5.095763427734375,1.3026431798934937,-1.6929445266723633,2.8516857624053955
1698071920933356300,5.105356201171875,1.1297478675842285,-1.1475133895874023,2.0619468688964844
1698071920942950000,5.114949951171875,1.1281423568725586,0.16689109802246094,1.5727922916412354
1698071920952542700,5.124542724609375,1.910160779953003,1.5279674530029297,1.3081196546554565
1698071920962134800,5.134134765625,2.0865116119384766,3.318453311920166,0.8324874639511108
1698071920971727600,5.1437275390625,2.0910162925720215,4.728268623352051,-0.03941035270690918
1698071920981321200,5.1533212890625,1.5456440448760986,5.732076644897461,-0.1291562020778656
1698071920990914000,5.1629140625,1.3344870805740356,6.185173034667969,-0.12786869704723358
1698071921000505900,5.172505859375,1.1537450551986694,6.0746259689331055,-0.008132629096508026
1698071921010098700,5.1820986328125,0.6806250810623169,5.77410888671875,0.7512813210487366
1698071921019692500,5.191692626953125,-0.2277977466583252,5.350057601928711,1.267087459564209
1698071921029285400,5.201285400390625,-1.7965418100357056,5.124082565307617,1.0952098369598389
1698071921038877200,5.210877197265625,-1.6630146503448486,4.014045238494873,2.514497756958008
1698071921048470300,5.22047021484375,-2.117145299911499,3.7842564582824707,1.7048252820968628
1698071921058064000,5.23006396484375,-2.145571708679199,3.7161874771118164,2.00742769241333
1698071921067656400,5.239656494140625,-1.5364046096801758,3.8101983070373535,2.386679172515869
1698071921077248500,5.24924853515625,-0.8175593614578247,4.0593485832214355,2.0986204147338867
1698071921086841300,5.25884130859375,-0.02963697910308838,4.272616386413574,1.8688174486160278
1698071921096435200,5.268435302734375,0.5275154113769531,4.390629291534424,1.4874979257583618
1698071921106027800,5.27802783203125,1.8504971265792847,4.190423488616943,1.292707085609436
1698071921115619800,5.287619873046875,3.1598825454711914,3.7866110801696777,1.057181715965271
1698071921125212700,5.297212646484375,2.8388123512268066,2.797142505645752,0.3754711449146271
1698071921134806300,5.30680615234375,1.2776347398757935,0.7914237976074219,-0.7893036007881165
1698071921144399000,5.316399169921875,-0.12807154655456543,-1.6562252044677734,-2.482009172439575
1698071921153991200,5.3259912109375,-1.6608401536941528,-4.284727096557617,-4.177123069763184
1698071921163584000,5.335583984375,-3.0176849365234375,-7.121743202209473,-6.466489315032959
1698071921173177600,5.345177490234375,-4.586417198181152,-9.294979095458984,-4.6897687911987305
1698071921182770400,5.3547705078125,-5.946263313293457,-7.2705488204956055,-3.256481409072876
1698071921192362500,5.364362548828125,-7.410470962524414,-3.7892227172851562,-2.5940041542053223
1698071921201955300,5.373955322265625,-7.6556901931762695,-1.8671293258666992,-3.218904733657837
1698071921211549000,5.383548828125,-5.864225387573242,-1.5484094619750977,-3.475165605545044
1698071921221141800,5.393141845703125,0.15261709690093994,-1.7481517791748047,-1.6402908563613892
1698071921230733800,5.40273388671875,3.86091947555542,-4.475665092468262,-0.5590331554412842
1698071921240326700,5.41232666015625,5.375880718231201,-7.412364959716797,-1.3916829824447632
1698071921249920300,5.421920166015625,7.590548038482666,-6.3773603439331055,-3.4589056968688965
1698071921259513000,5.43151318359375,6.159599304199219,-5.270933151245117,-3.4930877685546875
1698071921269105200,5.441105224609375,3.7341244220733643,-5.0328569412231445,-3.294161081314087
1698071921278698000,5.450697998046875,0.40830326080322266,-4.5435028076171875,-3.7402243614196777
1698071921288291600,5.46029150390625,-1.1403203010559082,-3.5398406982421875,-1.7971171140670776
1698071921297884400,5.469884521484375,0.46439290046691895,-2.964676856994629,-0.4637158513069153
1698071921307476500,5.4794765625,2.294534921646118,-2.458115577697754,0.7495222687721252
1698071921317069300,5.4890693359375,2.8262877464294434,-1.0213632583618164,1.1979560852050781
1698071921326663000,5.498662841796875,3.7380053997039795,0.25844573974609375,1.7464361190795898
1698071921336255700,5.508255859375,6.039402484893799,1.1884269714355469,2.5614209175109863
1698071921345847800,5.517847900390625,7.568645477294922,2.181750774383545,3.737248659133911
1698071921355440600,5.527440673828125,7.9940290451049805,2.865236282348633,4.673206806182861
1698071921365034200,5.5370341796875,7.394777297973633,3.284303665161133,3.428269863128662
1698071921374627000,5.546626953125,5.818617820739746,3.08895206451416,1.1899704933166504
1698071921384219100,5.55621923828125,3.1029138565063477,2.291355609893799,-0.6695775985717773
1698071921393812000,5.56581201171875,1.3714662790298462,1.2453203201293945,-1.6948312520980835
1698071921403405600,5.575405517578125,-0.7372841835021973,0.49794673919677734,-2.993098735809326
1698071921412998400,5.584998291015625,-1.695725679397583,0.31430912017822266,-3.2522740364074707
1698071921422590500,5.594590576171875,-1.9970057010650635,0.28188228607177734,-1.5797555446624756
1698071921432184000,5.60418408203125,-2.0927982330322266,0.3448362350463867,-0.07204127311706543
1698071921441778200,5.613778076171875,-1.7075915336608887,0.8287410736083984,0.2448301911354065
1698071921451371000,5.62337109375,-0.6410232782363892,1.9406070709228516,-0.20495319366455078
1698071921460963000,5.632963134765625,0.3615826368331909,3.27748966217041,-1.2088093757629395
1698071921470556000,5.642555908203125,2.116462230682373,4.619433403015137,-1.949326515197754
1698071921480149500,5.6521494140625,3.3509740829467773,6.090597152709961,-1.6823570728302002
1698071921489742300,5.661742431640625,3.0576295852661133,6.705634117126465,-1.778529405593872
1698071921499334400,5.67133447265625,3.2293052673339844,6.422746181488037,-1.999370813369751
1698071921508927200,5.68092724609375,2.718881130218506,5.424850940704346,-1.4845956563949585
1698071921518520800,5.690520751953125,1.5384467840194702,4.19559907913208,-0.4376490116119385
1698071921528113700,5.70011376953125,0.2709769010543823,2.833329200744629,0.5764892101287842
1698071921537705700,5.709705810546875,-0.7173315286636353,1.3982133865356445,1.1135081052780151
1698071921547298300,5.71929833984375,-1.7003782987594604,0.19885921478271484,1.4309858083724976
1698071921556892200,5.72889208984375,-1.9784953594207764,-0.20612525939941406,1.4879701137542725
1698071921566485000,5.738485107421875,-1.460166335105896,-0.3654050827026367,1.1669161319732666
1698071921576076800,5.748076904296875,-0.6624708771705627,-0.9267635345458984,0.5261462330818176
1698071921585670000,5.757669921875,-0.48287659883499146,-1.6670379638671875,-0.14672034978866577
1698071921595263500,5.767263427734375,-0.7742476463317871,-2.4113988876342773,-0.588718593120575
1698071921604856000,5.77685595703125,-1.32266366481781,-2.67000675201416,-0.7161957025527954
1698071921614448400,5.786448486328125,-1.283149242401123,-2.670289993286133,0.009736418724060059
1698071921624041000,5.796041015625,-0.6374449729919434,-2.535996437072754,1.8287237882614136
1698071921633634800,5.805634765625,-0.1769040822982788,-1.843703269958496,4.008065223693848
1698071921643227600,5.8152275390625,-0.6806330680847168,-0.5512685775756836,5.70218563079834
1698071921652819500,5.8248193359375,-1.6469477415084839,0.5637416839599609,6.762767791748047
1698071921662412300,5.834412353515625,-2.3505332469940186,0.7395706176757812,6.953339576721191
1698071921672006100,5.844006103515625,-2.901136636734009,-0.08423328399658203,6.557917594909668
1698071921681598700,5.8535986328125,-2.532029390335083,-1.394637107849121,6.125013828277588
1698071921691191000,5.86319091796875,-1.0349360704421997,-3.0355606079101562,5.657393455505371
1698071921700783600,5.87278369140625,-0.3824000954627991,-4.598532676696777,4.744692802429199
1698071921710377500,5.88237744140625,-0.46338555216789246,-5.155024528503418,3.8384315967559814
1698071921719970300,5.89197021484375,1.444591760635376,-5.272831916809082,4.2353057861328125
1698071921729562000,5.90156201171875,1.670162320137024,-5.90300178527832,3.6458492279052734
1698071921739155000,5.911155029296875,0.589248538017273,-6.384693145751953,2.521632432937622
1698071921748748800,5.920748779296875,0.8287749290466309,-5.994516372680664,1.3693041801452637
1698071921758341400,5.93034130859375,2.452988862991333,-4.305152893066406,-0.0344538688659668
1698071921767933400,5.939933349609375,2.2192258834838867,-1.8027658462524414,-1.3671395778656006
1698071921777526500,5.949526611328125,0.7168253660202026,-0.13563156127929688,-2.669863224029541
1698071921787120000,5.9591201171875,-0.6299909353256226,0.3697967529296875,-4.398478984832764
1698071921796713000,5.968712890625,-1.3847719430923462,0.3195343017578125,-5.255143642425537
1698071921806304800,5.9783046875,-1.522291660308838,-0.09475994110107422,-5.546229362487793
1698071921815897600,5.987897705078125,-1.086588978767395,-0.9750280380249023,-6.562096118927002
1698071921825491500,5.997491455078125,-0.05274146795272827,-1.9873590469360352,-7.274560928344727
1698071921835084000,6.007083984375,2.135958671569824,-2.7498950958251953,-6.975364685058594
1698071921844676000,6.016676025390625,4.40234375,-2.996037483215332,-6.171303749084473
1698071921854269200,6.026269287109375,3.7058944702148438,-2.915156364440918,-4.117603778839111
1698071921863862800,6.03586279296875,2.285254955291748,-2.6757850646972656,-1.770115852355957
1698071921873455400,6.045455322265625,1.6937097311019897,-2.2432937622070312,0.5105396509170532
1698071921883047400,6.05504736328125,1.8744412660598755,-1.7358131408691406,1.364733338356018
1698071921892640300,6.06464013671875,3.4743800163269043,-1.0096912384033203,0.729589581489563
1698071921902234000,6.074234130859375,2.910478115081787,-1.3720197677612305,1.5012623071670532
1698071921911826700,6.08382666015625,0.8742703199386597,-1.9925260543823242,1.7295113801956177
1698071921921419000,6.0934189453125,-0.20063412189483643,-1.3783111572265625,1.6886729001998901
1698071921931011600,6.103011474609375,-0.15941548347473145,-0.16521167755126953,1.0658105611801147
1698071921940605400,6.11260546875,-0.546602725982666,1.3607463836669922,0.6150599122047424
1698071921950198300,6.1221982421875,-0.6480194330215454,2.65415096282959,0.47581958770751953
1698071921959790000,6.1317900390625,-0.043968796730041504,3.628007411956787,0.41991040110588074
1698071921969383000,6.1413828125,0.6581411957740784,4.5399580001831055,0.2903345823287964
1698071921978976800,6.150976806640625,1.0420897006988525,5.212118625640869,0.22358667850494385
1698071921988569300,6.1605693359375,0.8801326155662537,5.619059085845947,0.36423009634017944
1698071921998161700,6.17016162109375,0.168709397315979,5.756203651428223,0.5294733643531799
1698071922007754200,6.179754150390625,-0.13771319389343262,5.66693115234375,0.563482403755188
1698071922017348000,6.18934814453125,-0.2687326669692993,5.564345836639404,0.5144346952438354
1698071922026941000,6.19894091796875,-0.32752692699432373,5.5178375244140625,0.6070950627326965
1698071922036532700,6.20853271484375,-0.2408008575439453,5.560811519622803,0.7068088054656982
1698071922046125800,6.218125732421875,-0.09198117256164551,5.606960296630859,0.8440738916397095
1698071922055719400,6.227719482421875,0.3493518829345703,5.3365325927734375,1.0781197547912598
1698071922065312000,6.23731201171875,1.0457427501678467,4.913477420806885,1.6548714637756348
1698071922074904300,6.246904296875,1.518835186958313,4.496417999267578,2.2311432361602783
1698071922084497000,6.256496826171875,2.290553569793701,3.9643454551696777,2.9574408531188965
1698071922094090800,6.2660908203125,2.87259578704834,3.4754509925842285,2.8409509658813477
1698071922103683600,6.27568359375,2.1528782844543457,2.4312896728515625,2.236112356185913
1698071922113275400,6.285275390625,0.1271805763244629,0.3125801086425781,0.6560322642326355
1698071922122868500,6.294868408203125,-1.6300885677337646,-2.2206077575683594,-1.6330726146697998
1698071922132462000,6.304462158203125,-2.570612907409668,-5.659114837646484,-3.9603028297424316
1698071922142054700,6.3140546875,-3.253364324569702,-9.77248764038086,-4.660397052764893
1698071922151647000,6.32364697265625,-3.7777421474456787,-11.43322467803955,-3.9237349033355713
1698071922161239600,6.333239501953125,-5.619528770446777,-8.742371559143066,-1.5352342128753662
1698071922170833400,6.34283349609375,-7.414646625518799,-5.494192123413086,-0.6268305778503418
1698071922180426200,6.35242626953125,-7.901195049285889,-2.792731285095215,0.5996284484863281
1698071922190018300,6.362018310546875,-7.608605861663818,-1.1724615097045898,0.33153873682022095
1698071922199611100,6.371611083984375,-2.705684185028076,-0.28682613372802734,1.9647189378738403
1698071922209204700,6.381204833984375,0.648645281791687,-1.4709911346435547,3.314650297164917
1698071922218797600,6.390797607421875,3.477996349334717,-4.849359512329102,3.5376579761505127
1698071922228389600,6.4003896484375,8.000307083129883,-5.896030426025391,-0.2426484078168869
1698071922237982500,6.409982421875,9.692756652832031,-3.5125722885131836,-2.224038600921631
1698071922247576000,6.419576171875,7.333798408508301,-2.262843132019043,-3.8525421619415283
1698071922257169000,6.4291689453125,5.192437171936035,-2.288651466369629,-7.213799953460693
1698071922266761000,6.438760986328125,0.5077193975448608,-2.787384033203125,-7.502858638763428
1698071922276353800,6.448353759765625,-2.4378671646118164,-2.5524473190307617,-4.841194152832031
1698071922285947400,6.457947509765625,-1.6345593929290771,-1.9835119247436523,-2.234973192214966
1698071922295540200,6.467540283203125,0.064858078956604,-0.8599586486816406,-0.17424991726875305
1698071922305132300,6.47713232421875,0.9244968295097351,0.33960533142089844,2.0546226501464844
1698071922314725000,6.48672509765625,2.7457590103149414,1.209355354309082,2.856353759765625
1698071922324318700,6.496318603515625,5.396792411804199,1.810718059539795,3.4691097736358643
1698071922333911600,6.50591162109375,7.148026466369629,2.3245677947998047,4.062042713165283
1698071922343503600,6.515503662109375,7.491665363311768,2.7327880859375,3.4684059619903564
1698071922353096400,6.525096435546875,6.59610652923584,2.9130821228027344,1.786967158317566
1698071922362690000,6.53468994140625,5.100344181060791,2.2446517944335938,-0.12366902828216553
1698071922372283000,6.544282958984375,3.029280662536621,1.0784988403320312,-1.4104408025741577
1698071922381875000,6.553875,0.723482608795166,-0.07427120208740234,-2.711571455001831
1698071922391467800,6.5634677734375,-0.45161616802215576,-0.9264116287231445,-2.7723398208618164
1698071922401061400,6.573061279296875,-1.494013786315918,-1.5033769607543945,-1.7089051008224487
1698071922410654200,6.582654296875,-3.1106295585632324,-1.6803054809570312,-0.154438316822052
1698071922420246300,6.592246337890625,-3.522899627685547,-1.163691520690918,0.3805818557739258
1698071922429839000,6.601839111328125,-2.1785669326782227,-0.03366565704345703,-0.11538583040237427
1698071922439432700,6.6114326171875,-0.2092834711074829,1.5007085800170898,-0.9148764610290527
1698071922449025500,6.621025634765625,0.9056549668312073,2.8769569396972656,-1.5166364908218384
1698071922458617600,6.63061767578125,1.5874958038330078,4.216851711273193,-2.0609312057495117
1698071922468210400,6.64021044921875,2.6809892654418945,5.403563976287842,-1.9898993968963623
1698071922477804000,6.649803955078125,3.6653311252593994,6.253365993499756,-1.4333692789077759
1698071922487396900,6.65939697265625,3.261216640472412,6.195338726043701,-1.6953438520431519
1698071922496989000,6.668989013671875,3.159003973007202,5.2930169105529785,-1.5015572309494019
1698071922506581800,6.678581787109375,1.3704220056533813,4.056334495544434,-0.8369091749191284
1698071922516175400,6.68817529296875,-0.25717562437057495,2.8751235008239746,0.10599781572818756
1698071922525768200,6.697768310546875,-1.3154926300048828,2.0980186462402344,0.6658711433410645
1698071922535360300,6.7073603515625,-2.005147933959961,1.530801773071289,1.0464775562286377
1698071922544953000,6.716953125,-1.6565276384353638,1.3759574890136719,0.985238790512085
1698071922554546700,6.726546630859375,-0.9409716725349426,1.14276123046875,0.8066785335540771
1698071922564139500,6.736139404296875,-0.726054310798645,0.45662403106689453,0.8706814050674438
1698071922573731600,6.745731689453125,-0.9799304008483887,-0.19372177124023438,0.6269574761390686
1698071922583324400,6.755324462890625,-0.9393004775047302,-0.6169939041137695,-0.05183929204940796
1698071922592918000,6.76491796875,-0.9823693037033081,-0.7800760269165039,-0.7148088216781616
1698071922602510800,6.7745107421875,-1.2110880613327026,-1.052994728088379,-0.2206871509552002
1698071922612103000,6.78410302734375,-0.939490795135498,-1.801692008972168,1.961362600326538
1698071922621695700,6.79369580078125,-0.456176221370697,-2.211461067199707,4.616727828979492
1698071922631289300,6.803289306640625,-1.1911933422088623,-1.8498716354370117,6.418613433837891
1698071922640882200,6.812882080078125,-2.855508327484131,-1.2369728088378906,6.822259426116943
1698071922650474200,6.82247412109375,-3.9893312454223633,-1.3368844985961914,5.948253631591797
1698071922660067000,6.832067138671875,-3.2811412811279297,-2.290308952331543,4.8119049072265625
1698071922669660700,6.84166064453125,-1.1181360483169556,-4.334781646728516,3.845721960067749
1698071922679253500,6.85125341796875,-0.3234330415725708,-6.11138916015625,2.0615878105163574
1698071922688845600,6.860845458984375,0.3018617033958435,-6.562605857849121,1.1519699096679688
1698071922698438400,6.8704384765625,2.406452178955078,-6.357440948486328,1.7792303562164307
1698071922708032000,6.880031982421875,2.830207586288452,-6.600216865539551,2.0968222618103027
1698071922717624800,6.889624755859375,1.2634868621826172,-6.968860626220703,1.4394209384918213
1698071922727217000,6.899216796875,1.0261870622634888,-6.703159332275391,0.8175411820411682
1698071922736809700,6.908809814453125,1.223299264907837,-4.90947151184082,-0.0552443265914917
1698071922746403600,6.918403564453125,1.1211014986038208,-2.5437097549438477,-1.5500428676605225
1698071922755996200,6.92799609375,0.034987449645996094,-0.7167549133300781,-3.420419216156006
1698071922765588200,6.937588134765625,-2.1914310455322266,-0.5022058486938477,-4.380889415740967
1698071922775181000,6.94718115234375,-3.2414400577545166,-0.1326742172241211,-4.901050090789795
1698071922784774700,6.956774658203125,-2.4904632568359375,-0.09473037719726562,-5.525505065917969
1698071922794367500,6.966367431640625,-0.4074748456478119,-0.4832725524902344,-6.040964126586914
1698071922803959600,6.97595947265625,1.0436567068099976,-0.8546180725097656,-6.432207107543945
1698071922813552600,6.985552734375,2.569662570953369,-0.7849531173706055,-6.181351184844971
1698071922823146200,6.995146240234375,3.7470154762268066,-0.9479074478149414,-5.740830898284912
1698071922832739000,7.004739013671875,2.312506914138794,-1.855942726135254,-3.1578731536865234
1698071922842331000,7.014330810546875,1.354673147201538,-2.2367019653320312,-0.730069637298584
1698071922851924000,7.023924072265625,1.3144397735595703,-2.242067337036133,0.6643982529640198
1698071922861517600,7.033517578125,0.5417190790176392,-2.1955442428588867,1.7085422277450562
1698071922871110100,7.043110107421875,0.852602481842041,-2.3261842727661133,2.4414680004119873
1698071922880702200,7.0527021484375,0.9988011121749878,-2.394756317138672,2.7487924098968506
1698071922890295000,7.062294921875,0.6114224791526794,-1.527822494506836,1.3852734565734863
1698071922899889000,7.071888916015625,-0.45694708824157715,-0.3797750473022461,1.5315890312194824
1698071922909481700,7.081481689453125,-1.419328212738037,1.7742805480957031,1.1128607988357544
1698071922919073800,7.09107373046875,-2.020491600036621,4.1887359619140625,0.010303616523742676
1698071922928666600,7.10066650390625,1.043125867843628,4.6704792976379395,1.768811583518982
1698071922938260200,7.11026025390625,2.477872848510742,4.974109649658203,1.5293210744857788
1698071922947853000,7.11985302734375,2.773404121398926,5.606595993041992,1.6804590225219727
1698071922957445000,7.129445068359375,1.788947582244873,6.573310852050781,1.512316107749939
1698071922967038000,7.139037841796875,0.805901288986206,7.210728645324707,1.4051626920700073
1698071922976631600,7.148631591796875,0.030935168266296387,7.452046871185303,1.3303656578063965
1698071922986224400,7.158224365234375,0.19944298267364502,7.286273002624512,1.5143216848373413
1698071922995816400,7.16781640625,0.08394825458526611,6.876894950866699,1.7711634635925293
1698071923005409300,7.1774091796875,-0.35974371433258057,6.186434745788574,2.1697821617126465
1698071923015003000,7.1870029296875,-0.962908148765564,5.511807918548584,2.466141700744629
1698071923024595700,7.196595703125,-1.3454231023788452,4.817422866821289,2.623417854309082
1698071923034187800,7.206187744140625,-1.0476728677749634,4.072936534881592,2.5240731239318848
1698071923043780600,7.215780517578125,-0.47251033782958984,3.2912354469299316,2.214113712310791
1698071923053374200,7.225374267578125,0.14226758480072021,2.5329041481018066,1.8699984550476074
1698071923062967000,7.234967041015625,0.45527583360671997,1.7123851776123047,1.4045906066894531
1698071923072559000,7.24455908203125,0.13931989669799805,0.5259218215942383,0.7519739866256714
1698071923082152000,7.25415185546875,-0.6749334335327148,-1.1133174896240234,-0.2902120351791382
1698071923091745500,7.26374560546875,-1.1692585945129395,-2.909531593322754,-1.4583373069763184
1698071923101338400,7.27333837890625,-1.9616636037826538,-5.013368606567383,-2.5992369651794434
1698071923110930400,7.282930419921875,-2.0899343490600586,-7.451754570007324,-3.013789176940918
1698071923120523300,7.292523193359375,-2.1671907901763916,-8.30508041381836,-2.682314157485962
1698071923130116900,7.302116943359375,-2.784864902496338,-6.26445198059082,-0.7537511587142944
1698071923139709700,7.311709716796875,-4.805940628051758,-3.5057172775268555,0.42733484506607056
1698071923149301800,7.3213017578125,-6.6278181076049805,-1.9802026748657227,0.17019005119800568
1698071923158894600,7.33089453125,-8.040728569030762,-2.0957813262939453,-1.000167727470398
1698071923168488200,7.34048828125,-3.8418891429901123,-1.999603271484375,0.3780016303062439
1698071923178081000,7.3500810546875,-0.5009132623672485,-5.638535499572754,1.5153918266296387
1698071923187673000,7.359673095703125,3.274402618408203,-9.003497123718262,-0.4390193223953247
1698071923197266000,7.369265869140625,11.002134323120117,-7.839977264404297,-4.826633930206299
1698071923206859500,7.378859619140625,13.33107852935791,-6.5478715896606445,-7.4418559074401855
1698071923216452400,7.388452392578125,8.975814819335938,-5.577138900756836,-8.587124824523926
1698071923226044400,7.39804443359375,1.4091951847076416,-3.633453369140625,-8.211759567260742
1698071923235637200,7.40763720703125,-3.263498306274414,-1.577073097229004,-4.84136438369751
1698071923245230800,7.41723095703125,-3.325742483139038,-1.1132116317749023,-1.674007773399353
1698071923254823700,7.42682373046875,-1.1250399351119995,0.060851097106933594,-0.19217386841773987
1698071923264415700,7.436415771484375,0.6759039163589478,1.1945972442626953,1.9214088916778564
1698071923274008600,7.446008544921875,2.04091739654541,1.5843820571899414,3.508925437927246
1698071923283602200,7.455602294921875,4.645443439483643,1.9734807014465332,2.1815309524536133
1698071923293195000,7.465195068359375,7.395000457763672,2.6607022285461426,0.8866071701049805
1698071923302787000,7.474787109375,7.775096416473389,3.188854217529297,1.0726232528686523
1698071923312380000,7.4843798828125,7.29315185546875,2.8250679969787598,0.2611348032951355
1698071923321973800,7.493973876953125,5.436093330383301,1.742415428161621,-0.963601291179657
1698071923331566300,7.50356640625,2.6266207695007324,0.5819692611694336,-2.247523784637451
1698071923341158400,7.513158447265625,-0.018691658973693848,-0.4499931335449219,-2.8915843963623047
1698071923350751200,7.522751220703125,-1.3893585205078125,-1.0141181945800781,-2.1029088497161865
1698071923360345000,7.532344970703125,-2.7414963245391846,-1.141357421875,-0.5110630989074707
1698071923369937700,7.541937744140625,-3.9500985145568848,-0.6885490417480469,0.7203342914581299
1698071923379529700,7.55152978515625,-3.5663130283355713,0.28360557556152344,0.8413623571395874
1698071923389122600,7.56112255859375,-2.0801053047180176,1.8669719696044922,0.10227984189987183
1698071923398716400,7.57071630859375,-0.21178609132766724,3.3627662658691406,-0.6065047383308411
1698071923408309000,7.58030908203125,1.271850824356079,4.584986209869385,-1.2452701330184937
1698071923417901000,7.589901123046875,2.7851555347442627,5.725913047790527,-1.1403805017471313
1698071923427494100,7.599494140625,4.669180870056152,6.828840255737305,-0.7107303142547607
1698071923437087700,7.609087646484375,4.827943801879883,7.126010894775391,-1.850528359413147
1698071923446680600,7.6186806640625,4.292997360229492,6.1692376136779785,-2.045534133911133
1698071923456272400,7.6282724609375,1.969735026359558,4.409869194030762,-0.7211607098579407
1698071923465865500,7.637865478515625,-0.14067527651786804,2.9246010780334473,0.8825379014015198
1698071923475459000,7.647458984375,-1.2522181272506714,2.157327175140381,1.4527117013931274
1698071923485052000,7.657052001953125,-1.8236523866653442,1.5693902969360352,1.5373154878616333
1698071923494644000,7.66664404296875,-2.656616687774658,0.8980388641357422,1.6612098217010498
1698071923504236800,7.67623681640625,-2.2195968627929688,0.40868377685546875,1.479352593421936
1698071923513830400,7.685830322265625,-1.4808998107910156,0.10808181762695312,1.1607921123504639
1698071923523423200,7.69542333984375,-0.660718560218811,-0.1020193099975586,0.48843830823898315
1698071923533015300,7.705015380859375,-1.3087739944458008,-0.613062858581543,0.013594329357147217
1698071923542608100,7.714608154296875,-1.6128288507461548,-1.0513544082641602,-0.4090397357940674
1698071923552201700,7.72420166015625,-1.573108196258545,-1.2779912948608398,-0.00020682811737060547
1698071923561794600,7.733794677734375,-1.1614625453948975,-1.7080421447753906,1.9553990364074707
1698071923571386600,7.74338671875,-0.33060121536254883,-2.11824893951416,4.575246810913086
1698071923580979500,7.7529794921875,0.13171571493148804,-1.7491445541381836,6.308872222900391
1698071923590573000,7.762572998046875,-0.9816322922706604,-0.8342685699462891,7.169609069824219
1698071923600166000,7.772165771484375,-2.4364686012268066,-0.3450307846069336,6.50706672668457
1698071923609758000,7.781758056640625,-3.2956604957580566,-0.9214944839477539,5.028698444366455
1698071923619350800,7.791350830078125,-2.23382830619812,-2.525808334350586,3.995309352874756
1698071923628944400,7.8009443359375,-0.7632584571838379,-4.852041244506836,3.0156431198120117
1698071923638537200,7.810537109375,-0.662744402885437,-5.827869415283203,1.374591588973999
1698071923648129300,7.82012939453125,0.3634907603263855,-5.773785591125488,0.9363319277763367
1698071923657722000,7.82972216796875,2.09663724899292,-6.368146896362305,1.8653066158294678
1698071923667315700,7.839315673828125,1.6486724615097046,-7.087682723999023,2.650235176086426
1698071923676908500,7.848908447265625,0.9357421398162842,-7.215045928955078,2.2672901153564453
1698071923686500600,7.85850048828125,1.991142749786377,-6.069363594055176,1.3572275638580322
1698071923696093400,7.868093505859375,2.3418455123901367,-3.2967090606689453,0.05051577091217041
1698071923705687000,7.87768701171875,1.4342806339263916,-1.077662467956543,-1.1884093284606934
1698071923715280000,7.88727978515625,-0.19794878363609314,-0.17598342895507812,-2.5672197341918945
1698071923724872000,7.896871826171875,-1.5795842409133911,0.21035385131835938,-5.195964336395264
1698071923734464800,7.90646484375,-2.1902644634246826,-0.715632438659668,-6.678501605987549
1698071923744058400,7.916058349609375,-2.2365927696228027,-1.4893255233764648,-7.2090654373168945
1698071923753651200,7.925651123046875,-2.0085465908050537,-2.1825571060180664,-7.490829944610596
1698071923763243300,7.9352431640625,-0.26464593410491943,-2.8977489471435547,-8.160483360290527
1698071923772836000,7.944836181640625,2.1044352054595947,-3.3639984130859375,-7.735687255859375
1698071923782430000,7.954429931640625,3.179121971130371,-3.4830570220947266,-6.000319957733154
1698071923792022500,7.9640224609375,2.43381929397583,-3.0310440063476562,-4.394982814788818
1698071923801614600,7.973614501953125,1.7928087711334229,-1.94287109375,-2.8626463413238525
1698071923811207700,7.983207763671875,2.056119441986084,-1.2376394271850586,-0.736083984375
1698071923820801300,7.99280126953125,2.404148578643799,-1.3106184005737305,1.5167055130004883
1698071923830393900,8.002393798828125,2.2188873291015625,-0.922607421875,2.0172674655914307
1698071923839986000,8.01198583984375,1.327772617340088,-0.7340288162231445,1.9130938053131104
1698071923849579000,8.0215791015625,0.013743400573730469,-0.1501016616821289,1.588930368423462
1698071923859172600,8.031172607421874,-0.624383270740509,0.47951602935791016,1.9610625505447388
1698071923868765400,8.040765380859375,-0.006992995738983154,1.6830329895019531,1.7453131675720215
1698071923878357500,8.050357421875,0.7435694932937622,3.1800951957702637,1.463104009628296
1698071923887950000,8.0599501953125,1.129136323928833,4.631099224090576,1.3037984371185303
1698071923897544000,8.0695439453125,1.0132819414138794,5.6874566078186035,1.1674973964691162
1698071923907136800,8.07913671875,0.9050095081329346,6.366739273071289,1.0240237712860107
1698071923916728800,8.088728759765624,0.14025139808654785,6.840954303741455,0.5921058058738708
1698071923926321700,8.09832177734375,-0.699822187423706,7.0508317947387695,1.1212042570114136
1698071923935915300,8.107915283203125,0.5492483973503113,5.653357028961182,1.590240716934204
1698071923945508000,8.117508056640625,-0.24612641334533691,5.412782192230225,0.9420633912086487
1698071923955100200,8.12710009765625,-0.20191419124603271,5.2732720375061035,1.500972867012024
1698071923964693000,8.13669287109375,-0.5293188095092773,5.18945837020874,1.9929338693618774
1698071923974286600,8.14628662109375,-0.9322423934936523,5.0251240730285645,2.419375419616699
1698071923983879400,8.15587939453125,-1.2818372249603271,4.9021830558776855,2.3649446964263916
1698071923993471500,8.165471435546875,-1.1130825281143188,4.918641567230225,2.2115156650543213
1698071924003064300,8.175064208984375,-0.6062005758285522,4.69972562789917,2.297431707382202
1698071924012658000,8.184657958984374,0.03827333450317383,4.313190937042236,2.5338730812072754
1698071924022250800,8.194250732421875,0.3896291255950928,3.702096462249756,2.5960071086883545
1698071924031842800,8.2038427734375,0.5854851007461548,2.601950168609619,2.572704553604126
1698071924041435600,8.213435546875,0.12120223045349121,0.9725246429443359,1.6022294759750366
1698071924051029200,8.223029296875,-0.4592632055282593,-1.0426359176635742,-0.264705091714859
1698071924060622000,8.2326220703125,-0.8209891319274902,-3.3019323348999023,-1.816720724105835
1698071924070214100,8.242214111328124,-1.4188482761383057,-6.22000789642334,-3.3007278442382812
1698071924079807000,8.251806884765625,-2.4262123107910156,-9.3742036819458,-5.060121536254883
1698071924089400800,8.26140087890625,-2.4763123989105225,-9.152498245239258,-3.6415765285491943
1698071924098993400,8.270993408203125,-2.69907283782959,-6.111672401428223,-0.9129202961921692
1698071924108585500,8.28058544921875,-5.6234846115112305,-3.8521509170532227,-0.2601518929004669
1698071924118178300,8.29017822265625,-9.682350158691406,-3.6206274032592773,-0.5017558336257935
1698071924127772200,8.299772216796875,-8.144200325012207,-2.87078857421875,0.8541004061698914
1698071924137364700,8.30936474609375,-2.3142902851104736,-3.2764997482299805,3.5767717361450195
1698071924146956800,8.318956787109375,0.2890392541885376,-6.515073776245117,2.5349011421203613
1698071924156549600,8.328549560546875,3.572258949279785,-7.951811790466309,-0.7042843699455261
1698071924166143500,8.3381435546875,10.763433456420898,-5.872125625610352,-3.784111261367798
1698071924175736000,8.347736083984374,11.711935997009277,-5.015344619750977,-6.852774620056152
1698071924185328400,8.357328369140625,8.28119945526123,-4.172946929931641,-9.551376342773438
1698071924194921000,8.3669208984375,2.007932424545288,-3.1478519439697266,-9.473562240600586
1698071924204514800,8.376514892578125,-2.1054158210754395,-1.8883638381958008,-5.684047698974609
1698071924214107600,8.386107666015626,-3.387587785720825,-1.1703815460205078,-2.451364040374756
1698071924223699700,8.39569970703125,-2.290250778198242,-0.14695072174072266,-0.27234065532684326
1698071924233292500,8.40529248046875,-0.34953033924102783,1.067617416381836,1.9225990772247314
1698071924242886100,8.41488623046875,1.7539253234863281,2.2187318801879883,3.0195889472961426
1698071924252479000,8.42447900390625,4.883686542510986,3.0286622047424316,3.163043737411499
1698071924262071000,8.434071044921875,6.869245529174805,3.445028305053711,2.599236249923706
1698071924271663900,8.443663818359376,7.705973148345947,3.737907886505127,1.5643424987792969
1698071924281257500,8.453257568359374,7.416140556335449,3.5300722122192383,0.39761921763420105
1698071924290850300,8.462850341796875,5.960235595703125,2.258277416229248,-0.9963124990463257
1698071924300442400,8.4724423828125,3.051485776901245,0.8559675216674805,-2.417426109313965
1698071924310035200,8.48203515625,0.3790760040283203,-0.3387928009033203,-3.149188995361328
1698071924319628800,8.49162890625,-1.2290598154067993,-1.0800485610961914,-2.4954333305358887
1698071924329221600,8.5012216796875,-3.068729877471924,-1.4679632186889648,-0.7425283789634705
1698071924338813700,8.510813720703124,-4.550078868865967,-1.2990655899047852,0.9221125245094299
1698071924348406500,8.520406494140625,-3.7767324447631836,-0.4804191589355469,1.360508918762207
1698071924358000000,8.530000244140625,-1.3403961658477783,0.817591667175293,1.128387689590454
1698071924367593000,8.539593017578126,0.52796471118927,2.5721511840820312,0.21492469310760498
1698071924377185000,8.54918505859375,1.8051414489746094,4.151093006134033,-1.0185043811798096
1698071924386777900,8.55877783203125,3.5304603576660156,5.514185905456543,-1.5930118560791016
1698071924396371700,8.568371826171875,5.021683216094971,6.73809289932251,-1.1398186683654785
1698071924405964500,8.577964599609375,3.9235644340515137,6.775749683380127,-1.2690677642822266
1698071924415556400,8.587556396484375,3.4540023803710938,6.180757522583008,-1.7017487287521362
1698071924425149400,8.5971494140625,1.9514013528823853,4.889551162719727,-1.5068974494934082
1698071924434743000,8.606742919921874,0.019401513040065765,3.4578304290771484,-0.3917488753795624
1698071924444335900,8.6163359375,-1.7334893941879272,2.2135701179504395,0.3840131461620331
1698071924453928000,8.625927978515625,-2.6435062885284424,1.3002166748046875,0.5712003111839294
1698071924463520800,8.635520751953125,-2.619685649871826,0.6361455917358398,0.763611912727356
1698071924473114400,8.6451142578125,-2.1207990646362305,0.33791351318359375,1.0483113527297974
1698071924482707200,8.654707275390624,-1.8124287128448486,0.1277322769165039,1.1253337860107422
1698071924492299300,8.66429931640625,-1.633615255355835,-0.3095703125,0.931306779384613
1698071924501892000,8.67389208984375,-1.5700026750564575,-0.9563541412353516,0.5162035226821899
1698071924511485700,8.683485595703125,-1.7588696479797363,-1.553762435913086,0.22937989234924316
1698071924521078500,8.69307861328125,-1.614891767501831,-1.9271583557128906,0.47403740882873535
1698071924530670600,8.702670654296876,-0.9774037599563599,-2.0286436080932617,1.6704444885253906
1698071924540263400,8.712263427734374,-0.02695643901824951,-1.9848270416259766,3.4850096702575684
1698071924549857000,8.72185693359375,0.5819488167762756,-1.6239547729492188,5.164104461669922
1698071924559449900,8.731449951171875,-0.11892086267471313,-0.7128629684448242,6.203670024871826
1698071924569042000,8.7410419921875,-2.0165438652038574,-0.02219867706298828,5.909293174743652
1698071924578635000,8.750635009765626,-3.73984432220459,-0.5766897201538086,4.23588752746582
1698071924588228600,8.760228515625,-4.046391010284424,-2.025510787963867,2.9826717376708984
1698071924597821200,8.7698212890625,-2.5073935985565186,-3.91046142578125,2.4198551177978516
1698071924607413200,8.779413330078125,-0.936529278755188,-5.668684959411621,1.589686632156372
1698071924617006300,8.78900634765625,-1.973842740058899,-5.89569091796875,0.09934312105178833
1698071924626600000,8.798599853515626,-0.7040345668792725,-5.37583065032959,-0.2752063274383545
1698071924636192800,8.80819287109375,1.6403378248214722,-5.696376800537109,0.6809700727462769
1698071924645784800,8.817784912109374,1.3327628374099731,-6.4437408447265625,1.09223210811615
1698071924655377700,8.827377685546875,0.8240479230880737,-6.403038024902344,1.0961955785751343
1698071924664971300,8.83697119140625,1.6046907901763916,-5.2468061447143555,0.9763665795326233
1698071924674564000,8.846564208984375,2.8303213119506836,-2.6542272567749023,0.2131463885307312
1698071924684156200,8.85615625,2.3178186416625977,-0.42604637145996094,-0.8202420473098755
1698071924693749000,8.8657490234375,0.8079738616943359,0.3749256134033203,-2.0779905319213867
1698071924703342600,8.875342529296875,-1.5401275157928467,0.6112480163574219,-3.2841498851776123
1698071924712935400,8.884935302734375,-3.3503077030181885,0.42650508880615234,-5.000913143157959
1698071924722527500,8.894527587890625,-3.4304440021514893,-0.2866859436035156,-6.794020652770996
1698071924732120300,8.904120361328125,-1.7380435466766357,-1.0709552764892578,-8.075273513793945
1698071924741714000,8.9137138671875,1.2452914714813232,-1.2611064910888672,-8.529809951782227
1698071924751306800,8.923306640625,3.7346882820129395,-1.7166013717651367,-7.581898212432861
1698071924760898800,8.93289892578125,3.573377847671509,-2.376040458679199,-4.283273696899414
1698071924770491600,8.94249169921875,1.3899600505828857,-2.303034782409668,-2.8817245960235596
1698071924780085200,8.952085205078125,0.6617195010185242,-1.4617395401000977,-1.5212047100067139
1698071924789678000,8.961677978515626,0.9947579503059387,-1.4161396026611328,0.13024282455444336
1698071924799270100,8.971270263671874,1.4832217693328857,-1.5193300247192383,1.8191548585891724
1698071924808863000,8.980863037109375,1.7945504188537598,-1.7254037857055664,2.6875720024108887
1698071924818456800,8.990456787109375,1.3156338930130005,-1.8122453689575195,2.729262351989746
1698071924828049400,9.00004931640625,-0.5145884156227112,-0.8399944305419922,2.425264358520508
1698071924837641700,9.009641845703126,-1.5242276191711426,0.624812126159668,2.867310047149658
1698071924847234600,9.019234619140626,0.336672306060791,1.887049674987793,2.8399362564086914
1698071924856828200,9.028828125,1.2009836435317993,3.879457950592041,1.110131025314331
1698071924866421000,9.0384208984375,1.574594259262085,5.153563022613525,0.340891569852829
1698071924876013000,9.048012939453125,1.415871262550354,5.740070343017578,0.25471174716949463
1698071924885606000,9.05760595703125,0.9998944997787476,5.903430461883545,0.4004999101161957
1698071924895199500,9.067199462890626,0.47803741693496704,5.785399436950684,0.4258279800415039
1698071924904792300,9.076792236328124,0.0556865930557251,5.541696548461914,0.4266052842140198
1698071924914384400,9.08638427734375,-0.5021265745162964,5.165334701538086,0.33921438455581665
1698071924923977200,9.095977294921875,-1.0053640604019165,4.78080940246582,0.469585120677948
1698071924933570800,9.10557080078125,-1.3391848802566528,4.350046634674072,0.6902367472648621
1698071924943163600,9.11516357421875,-1.7345002889633179,4.205077171325684,0.9040025472640991
1698071924952755700,9.124755615234376,-1.748293399810791,4.177934169769287,1.163206934928894
1698071924962348500,9.1343486328125,-1.5717692375183105,4.22051477432251,1.314314603805542
1698071924971942400,9.1439423828125,-1.0080115795135498,4.2994256019592285,1.5423792600631714
1698071924981535000,9.153534912109375,-0.13792645931243896,4.369444847106934,1.888643741607666
1698071924991127000,9.163126953125,0.7795881032943726,4.2494635581970215,2.118572235107422
1698071925000720100,9.17272021484375,1.5544993877410889,3.8209948539733887,2.1804168224334717
1698071925010313700,9.182313720703124,1.5403728485107422,2.886385917663574,1.9201381206512451
1698071925019906600,9.191906494140625,1.149972915649414,1.259659767150879,0.826829195022583
1698071925029498600,9.20149853515625,0.44170719385147095,-0.9890775680541992,-0.3790629208087921
1698071925039091500,9.211091552734375,-0.7228618860244751,-3.6555776596069336,-1.4618030786514282
1698071925048685000,9.22068505859375,-1.8527027368545532,-6.733768463134766,-1.9008285999298096
1698071925058278000,9.23027783203125,-3.0521605014801025,-8.696428298950195,-2.1166465282440186
1698071925067870000,9.239869873046874,-4.548637866973877,-7.448284149169922,-0.9478356838226318
1698071925077462800,9.249462890625,-7.063335418701172,-5.003718376159668,-0.5408443212509155
1698071925087056400,9.259056396484375,-8.594942092895508,-3.8689794540405273,-1.3368921279907227
1698071925096649200,9.268649169921876,-7.431570053100586,-3.558980941772461,-1.2155288457870483
1698071925106241300,9.2782412109375,-2.271491050720215,-3.379204750061035,0.4588667154312134
1698071925115834000,9.287834228515624,1.8788236379623413,-6.1359968185424805,0.41480833292007446
1698071925125427700,9.297427734375,4.620913505554199,-7.818097114562988,-2.1869993209838867
1698071925135020500,9.3070205078125,9.891212463378906,-6.116449356079102,-4.237977981567383
1698071925144612600,9.316612548828125,9.504602432250977,-4.866127967834473,-5.668230056762695
1698071925154205400,9.326205322265626,5.07597541809082,-4.01607608795166,-6.698538303375244
1698071925163799300,9.33579931640625,-0.18691158294677734,-3.173063278198242,-5.946808338165283
1698071925173392100,9.34539208984375,-3.0056490898132324,-1.6987857818603516,-3.794253349304199
1698071925182984000,9.35498388671875,-2.1156439781188965,-1.2614936828613281,-1.8375955820083618
1698071925192577000,9.364576904296875,0.10579240322113037,-0.6703596115112305,-0.8602081537246704
1698071925202170600,9.374170654296876,1.99149489402771,0.5170459747314453,0.34313851594924927
1698071925211763500,9.383763427734374,4.024226665496826,1.6529321670532227,1.9183427095413208
1698071925221355500,9.39335546875,6.227200508117676,2.65146541595459,2.2486724853515625
1698071925230948400,9.4029482421875,7.356529712677002,3.305558204650879,2.4628047943115234
1698071925240542000,9.4125419921875,7.30410099029541,3.502077579498291,2.4065980911254883
1698071925250134800,9.422134765625,6.405728816986084,3.420595645904541,1.3990695476531982
1698071925259726800,9.431726806640626,4.307416915893555,2.571150779724121,-0.30082064867019653
1698071925269319700,9.441319580078124,2.0920917987823486,1.3284130096435547,-1.6974270343780518
1698071925278913300,9.450913330078125,-0.26356881856918335,0.3351144790649414,-2.905148983001709
1698071925288506000,9.460506103515625,-1.6755447387695312,-0.37757301330566406,-2.9326300621032715
1698071925298098200,9.47009814453125,-2.4918010234832764,-0.9541826248168945,-1.4144506454467773
1698071925307691300,9.479691162109376,-3.202272415161133,-1.2712650299072266,0.34022921323776245
1698071925317284900,9.489284912109374,-3.3194973468780518,-0.7957792282104492,1.1629972457885742
1698071925326877400,9.49887744140625,-2.459742307662964,0.1793069839477539,0.863837480545044
1698071925336469500,9.508469482421875,-0.47295594215393066,1.655034065246582,0.01319950819015503
1698071925346062300,9.518062255859375,1.0587306022644043,3.108976364135742,-0.9155461192131042
1698071925355656200,9.52765625,2.1513490676879883,4.213347434997559,-1.6778100728988647
1698071925365249000,9.5372490234375,2.875673294067383,5.157285213470459,-1.8040752410888672
1698071925374841000,9.546841064453124,3.398383140563965,5.804745674133301,-1.095318078994751
1698071925384434000,9.556433837890625,2.914952516555786,5.904817581176758,-1.0719730854034424
1698071925394027500,9.566027587890625,1.9714657068252563,5.458044528961182,-1.4622693061828613
1698071925403620400,9.575620361328125,1.234418511390686,4.596800327301025,-0.9449537992477417
1698071925413212400,9.58521240234375,-0.8400391340255737,3.30548095703125,-0.08490753173828125
1698071925422805200,9.59480517578125,-1.9278491735458374,2.056089401245117,0.6801480054855347
1698071925432398800,9.60439892578125,-2.280996799468994,1.2046918869018555,1.0128517150878906
1698071925441991700,9.61399169921875,-2.2699544429779053,0.7194232940673828,1.2663949728012085
1698071925451583700,9.623583740234375,-1.8999577760696411,0.37734508514404297,1.4338703155517578
1698071925461176600,9.633176513671875,-1.5215470790863037,0.10656070709228516,1.3929224014282227
1698071925470770200,9.642770263671874,-1.636088252067566,-0.5297174453735352,1.4154908657073975
1698071925480363000,9.652363037109374,-1.5870120525360107,-1.3009347915649414,1.0719735622406006
1698071925489955000,9.661955078125,-1.6451497077941895,-1.8575925827026367,0.9347929954528809
1698071925499548200,9.671548095703125,-1.177107810974121,-2.244875907897949,1.463439702987671
1698071925509141800,9.681141845703126,-0.2546805143356323,-2.3645219802856445,2.7069485187530518
1698071925518734600,9.690734619140626,0.9233886003494263,-2.054232597351074,4.71514892578125
1698071925528326700,9.70032666015625,0.6848654747009277,-0.5531530380249023,5.995812892913818
1698071925537919500,9.70991943359375,-1.4226951599121094,0.9485673904418945,6.131558418273926
1698071925547513000,9.71951318359375,-3.822288751602173,0.7140645980834961,4.957915306091309
1698071925557106000,9.72910595703125,-4.611990928649902,-1.0050840377807617,3.2861087322235107
1698071925566698000,9.738697998046876,-3.526209831237793,-3.004513740539551,2.5461840629577637
1698071925576290800,9.748290771484376,-1.69326651096344,-4.599950790405273,2.2651407718658447
1698071925585884400,9.757884521484375,-0.9869861006736755,-5.497882843017578,1.4241101741790771
1698071925595477200,9.767477294921875,-1.7778089046478271,-4.885502815246582,-0.24309396743774414
1698071925605069300,9.7770693359375,-0.14722585678100586,-4.8942155838012695,-0.2909306287765503
1698071925614662100,9.786662109375,1.8590571880340576,-5.402986526489258,0.2837299108505249
1698071925624255700,9.796255859375,1.4712332487106323,-5.3996429443359375,0.5820421576499939
1698071925633848600,9.8058486328125,1.4585142135620117,-4.832245826721191,0.46648716926574707
1698071925643440600,9.815440673828125,1.946043610572815,-2.725682258605957,-0.32129478454589844
1698071925653033500,9.825033447265625,1.9288086891174316,-0.20004558563232422,-0.803677499294281
1698071925662627300,9.83462744140625,0.1519984006881714,1.2331876754760742,-1.291418433189392
1698071925672220000,9.844219970703126,-2.42830753326416,1.1834297180175781,-2.8109822273254395
1698071925681812000,9.85381201171875,-3.5610222816467285,0.3564901351928711,-4.813472747802734
1698071925691405000,9.863405029296874,-2.4492015838623047,-0.42796993255615234,-6.481271743774414
1698071925700998700,9.87299853515625,-1.0823427438735962,-1.0335187911987305,-7.884624004364014
1698071925710591500,9.882591552734375,0.6479741334915161,-1.4375896453857422,-8.698856353759766
1698071925720183600,9.89218359375,4.10580587387085,-2.521892547607422,-8.057555198669434
1698071925729776400,9.9017763671875,6.438228607177734,-3.905160903930664,-4.446691036224365
1698071925739370000,9.911369873046874,3.725545883178711,-3.803034782409668,-3.0440194606781006
1698071925748962800,9.920962890625,-0.07857134938240051,-2.7509937286376953,-2.0772924423217773
1698071925758555000,9.930554931640625,-1.2858288288116455,-2.072951316833496,0.1887962520122528
1698071925768147700,9.940147705078125,0.6920801997184753,-1.3930225372314453,-0.7889109253883362
1698071925777741300,9.9497412109375,2.1186463832855225,-2.9602222442626953,3.6818504333496094
1698071925787334100,9.959334228515624,-0.8356311321258545,-3.7750349044799805,3.90988826751709
1698071925796926200,9.96892626953125,-2.195739269256592,-3.0545854568481445,3.8585398197174072
1698071925806519000,9.97851904296875,-2.6213433742523193,-1.552964210510254,3.968625068664551
1698071925816112600,9.988112548828125,-2.015702724456787,1.1434926986694336,2.993460178375244
1698071925825705500,9.99770556640625,-0.6530869007110596,3.0482301712036133,2.318535804748535
1698071925835297500,10.007297607421876,1.0650177001953125,3.747067928314209,1.8591400384902954
1698071925844890600,10.016890625,1.9169797897338867,4.252364158630371,1.432053565979004
1698071925854484200,10.026484130859375,1.9772121906280518,5.243631362915039,1.0012985467910767
1698071925864076800,10.036076904296875,1.6766806840896606,6.282822608947754,0.8327541351318359
1698071925873668900,10.0456689453125,1.051085114479065,6.729527950286865,0.9766571521759033
1698071925883262000,10.055261962890626,0.519611120223999,6.845248222351074,0.8913483619689941
1698071925892855600,10.06485546875,0.19666802883148193,6.926614284515381,0.8660199046134949
1698071925902448400,10.074448486328125,-0.23040485382080078,6.829989910125732,0.8822689056396484
1698071925912040400,10.08404052734375,-0.743749737739563,6.605063438415527,0.8754345774650574
1698071925921633300,10.09363330078125,-1.4676172733306885,6.231990337371826,1.23885977268219
1698071925931227000,10.103226806640626,-1.7095420360565186,5.706028461456299,2.2212162017822266
1698071925940819700,10.11281982421875,-1.7533725500106812,5.039675235748291,2.801605701446533
1698071925950411800,10.122411865234374,-0.5946403741836548,4.174718379974365,3.4082913398742676
1698071925960004600,10.132004638671875,1.157724380493164,3.2187304496765137,3.7557878494262695
1698071925969598200,10.14159814453125,2.1389389038085938,2.1633782386779785,3.643444776535034
1698071925979191000,10.15119091796875,1.9003465175628662,1.0556516647338867,2.5054683685302734
1698071925988783000,10.160783203125,0.9219469428062439,-0.3021268844604492,0.6534436941146851
1698071925998376000,10.1703759765625,-0.7952650785446167,-2.460420608520508,-1.8672471046447754
1698071926007969500,10.179969482421875,-2.126338005065918,-6.019037246704102,-4.339244365692139
1698071926017562400,10.189562255859375,-2.434134006500244,-9.31529426574707,-5.8072028160095215
1698071926027154400,10.199154541015625,-3.3097989559173584,-7.9915666580200195,-3.246924877166748
1698071926036747300,10.208747314453126,-5.879549503326416,-4.159916877746582,-1.6584327220916748
1698071926046340900,10.2183408203125,-9.592829704284668,-2.5437211990356445,-1.6081326007843018
1698071926055933700,10.22793359375,-10.560524940490723,-3.2159996032714844,-0.9070433378219604
1698071926065525800,10.23752587890625,-2.8790793418884277,-2.660262107849121,2.3312644958496094
1698071926075118600,10.24711865234375,0.7905248403549194,-5.3174333572387695,2.0397167205810547
1698071926084712400,10.25671240234375,5.249209880828857,-8.129491806030273,-0.9924654960632324
1698071926094305000,10.266304931640626,10.589460372924805,-8.034351348876953,-4.964574337005615
1698071926103897300,10.2758974609375,11.130735397338867,-6.687597274780273,-6.671474456787109
1698071926113490200,10.285490234375,7.081210613250732,-5.309955596923828,-6.214494705200195
1698071926123083800,10.295083740234375,1.7794134616851807,-3.650040626525879,-4.214430332183838
1698071926132676600,10.304676513671875,-1.4819668531417847,-2.3219242095947266,-1.7188177108764648
1698071926142268700,10.3142685546875,-0.9683527946472168,-2.243380546569824,-0.05076451599597931
1698071926151861500,10.323861572265624,0.6379989385604858,-1.4989795684814453,0.9724924564361572
1698071926161455000,10.333455078125,2.312591075897217,-0.0171661376953125,1.8410042524337769
1698071926171048000,10.3430478515625,4.302584171295166,1.7736034393310547,1.5309587717056274
1698071926180640000,10.352639892578125,5.696977615356445,2.967207908630371,2.860136032104492
1698071926190232800,10.36223291015625,6.552314281463623,3.704164981842041,3.505617141723633
1698071926199826400,10.371826416015624,7.045391082763672,3.7645645141601562,2.236713409423828
1698071926209419300,10.381419189453124,6.202910423278809,2.8316807746887207,0.525709867477417
1698071926219011300,10.39101123046875,3.5442757606506348,1.6062688827514648,-0.6394597887992859
1698071926228604200,10.400604248046875,0.5634132027626038,0.4282417297363281,-2.150557041168213
1698071926238197800,10.41019775390625,-0.30183207988739014,-0.5473909378051758,-3.1973347663879395
1698071926247790600,10.41979052734375,-0.784841775894165,-1.1073722839355469,-2.848264455795288
1698071926257382700,10.429382568359374,-1.8906471729278564,-1.279684066772461,-0.8444669246673584
1698071926266975700,10.438975830078125,-2.922395944595337,-0.937647819519043,0.648432731628418
1698071926276569000,10.448569091796875,-2.545677900314331,0.27339839935302734,0.5426145792007446
1698071926286162000,10.458161865234375,-1.2912218570709229,1.9687409400939941,-0.5341225266456604
1698071926295754000,10.46775390625,0.3996369242668152,3.509401321411133,-1.378633737564087
1698071926305346800,10.477346923828126,2.5048418045043945,5.52924919128418,-1.3705458641052246
1698071926314940700,10.486940673828125,4.729365825653076,7.301163196563721,-1.4266531467437744
1698071926324533500,10.496533447265625,5.732641696929932,8.2823486328125,-2.6959428787231445
1698071926334125600,10.50612548828125,4.737500190734863,7.39121675491333,-2.912552833557129
1698071926343718400,10.515718505859375,2.1561379432678223,5.364662170410156,-1.7096443176269531
1698071926353312000,10.52531201171875,0.30231672525405884,3.485654830932617,-0.013037502765655518
1698071926362904800,10.53490478515625,-0.9960794448852539,2.2891697883605957,0.6278795599937439
1698071926372497000,10.544496826171875,-2.356506824493408,1.0697879791259766,1.221256971359253
1698071926382089700,10.55408984375,-2.959075450897217,0.2390422821044922,1.6739649772644043
1698071926391683300,10.563683349609375,-2.495593786239624,0.22840118408203125,1.7653838396072388
1698071926401276200,10.573276123046876,-1.4282195568084717,0.29544830322265625,1.9416812658309937
1698071926410868200,10.5828681640625,-0.9126739501953125,0.02204132080078125,1.7821149826049805
1698071926420461000,10.5924609375,-1.1611034870147705,-0.5383100509643555,1.1705995798110962
1698071926430054700,10.6020546875,-1.7227548360824585,-1.1768741607666016,0.5459861159324646
1698071926439647500,10.6116474609375,-2.364189863204956,-1.6806516647338867,-0.008973956108093262
1698071926449239600,10.621239501953125,-1.2646862268447876,-1.8298559188842773,0.4634332060813904
1698071926458832400,10.630832275390626,-0.9166029691696167,-1.856048583984375,2.163452625274658
1698071926468426000,10.640426025390624,0.3413616716861725,-1.5102767944335938,4.130535125732422
1698071926478018800,10.650018798828125,0.7977449297904968,-1.0651054382324219,5.815681457519531
1698071926487611000,10.65961083984375,-0.20699363946914673,-0.6878385543823242,6.678672790527344
1698071926497203700,10.66920361328125,-2.1371984481811523,-0.4003915786743164,6.1101226806640625
1698071926506797300,10.67879736328125,-4.088992118835449,-1.3184967041015625,4.654027462005615
1698071926516390100,10.68839013671875,-4.467771053314209,-2.6707019805908203,4.029847621917725
1698071926525982200,10.697982177734374,-3.0976924896240234,-3.7681198120117188,3.645765781402588
1698071926535575300,10.7075751953125,-1.372260570526123,-5.281620025634766,3.0166707038879395
1698071926545169000,10.7171689453125,-1.3977599143981934,-5.961206436157227,1.369407057762146
1698071926554761700,10.72676171875,-0.0044362545013427734,-5.935647964477539,1.27593994140625
1698071926564353500,10.736353515625,2.180922508239746,-5.855894088745117,2.198235511779785
1698071926573946600,10.745946533203124,1.792937159538269,-6.1848249435424805,2.4560070037841797
1698071926583540200,10.755540283203125,0.8375633358955383,-5.753044128417969,2.287534236907959
1698071926593133000,10.765133056640625,1.5076539516448975,-4.376409530639648,1.5042880773544312
1698071926602725000,10.77472509765625,3.0076498985290527,-2.0225629806518555,0.400256872177124
1698071926612318000,10.78431787109375,2.6926510334014893,-0.1183919906616211,-0.5817007422447205
1698071926621911600,10.79391162109375,0.95777827501297,0.6412382125854492,-1.7269985675811768
1698071926631504400,10.80350439453125,-1.4678460359573364,0.7502326965332031,-2.813920021057129
1698071926641096400,10.813096435546875,-3.0829949378967285,0.2400684356689453,-3.862748384475708
1698071926650689300,10.822689208984375,-3.00708270072937,-0.5521755218505859,-5.3440775871276855
1698071926660283000,10.832282958984376,-1.3818724155426025,-1.4111499786376953,-6.907166481018066
1698071926669875700,10.841875732421874,1.3633613586425781,-1.9941673278808594,-8.201187133789062
1698071926679467800,10.8514677734375,3.371943712234497,-3.011507034301758,-6.919322490692139
1698071926689060600,10.861060546875,3.511394739151001,-3.620060920715332,-3.917170524597168
1698071926698654200,10.870654296875,1.62361478805542,-3.016263008117676,-2.2153708934783936
1698071926708247000,10.8802470703125,1.399259328842163,-1.6716728210449219,-1.1927016973495483
1698071926717839000,10.889839111328126,1.5101635456085205,-1.2552480697631836,0.3158366084098816
1698071926727432000,10.899431884765624,0.8590337038040161,-1.3970766067504883,1.4415555000305176
1698071926737025500,10.909025634765625,0.8329662084579468,-2.01418399810791,3.221811056137085
1698071926746618400,10.918618408203125,1.6927952766418457,-2.121347427368164,2.9822113513946533
1698071926756210400,10.92821044921875,0.9775736331939697,-1.626948356628418,2.645416021347046
1698071926765803300,10.93780322265625,0.48637843132019043,-0.5018272399902344,2.215585708618164
1698071926775396900,10.94739697265625,-1.8754252195358276,2.111280918121338,0.29133057594299316
1698071926784989700,10.95698974609375,0.2686137557029724,3.0289740562438965,2.2804009914398193
1698071926794581800,10.966581787109375,1.254575490951538,3.992586135864258,0.5363119840621948
1698071926804174600,10.976174560546875,1.6311522722244263,4.8330912590026855,0.38888871669769287
1698071926813768400,10.9857685546875,1.7496049404144287,5.281372547149658,0.46610310673713684
1698071926823361000,10.995361083984376,1.187827467918396,5.541324615478516,0.5432813167572021
1698071926832953000,11.004953125,0.5228905081748962,5.739493370056152,0.46470534801483154
1698071926842546000,11.0145458984375,-0.24276459217071533,5.815756797790527,0.2450740486383438
1698071926852139800,11.024139892578125,-0.4335639476776123,5.667574405670166,0.5658782720565796
1698071926861732400,11.033732421875,-0.8137542009353638,5.4792962074279785,0.6265705227851868
1698071926871324400,11.043324462890626,-0.9216502904891968,5.315500736236572,0.7306505441665649
1698071926880917200,11.052917236328126,-1.2387837171554565,5.297762870788574,0.9491230845451355
1698071926890511000,11.062510986328125,-1.352855920791626,5.215555667877197,1.2750163078308105
1698071926900104000,11.07210400390625,-1.3068541288375854,5.007046222686768,1.559938907623291
1698071926909696000,11.081696044921875,-1.1911267042160034,4.703636646270752,1.6632784605026245
1698071926919288800,11.091288818359375,-0.5746840238571167,4.253324031829834,2.1488423347473145
1698071926928882400,11.10088232421875,-0.08155858516693115,3.589956283569336,2.437864303588867
1698071926938475300,11.110475341796874,0.23612678050994873,2.4922170639038086,2.090952157974243
1698071926948067300,11.1200673828125,0.1479865312576294,0.9751787185668945,1.0203886032104492
1698071926957660200,11.12966015625,0.29811108112335205,-0.946192741394043,-0.477378249168396
1698071926967253800,11.139253662109375,1.0437965393066406,-2.988713264465332,-1.7502275705337524
1698071926976846600,11.1488466796875,0.9218554496765137,-5.510056495666504,-3.8414194583892822
1698071926986438700,11.158438720703124,0.3245816230773926,-8.138142585754395,-4.638158798217773
1698071926996031500,11.168031494140624,-0.5370386838912964,-8.303329467773438,-2.3159117698669434
1698071927005625000,11.177625,-3.3425724506378174,-5.539556503295898,-0.04149791598320007
1698071927015218000,11.187218017578125,-7.419130802154541,-2.9556407928466797,1.3623623847961426
1698071927024810000,11.19681005859375,-11.68675422668457,-2.3632125854492188,2.0062825679779053
1698071927034402800,11.20640283203125,-10.147841453552246,-2.391242027282715,4.187443733215332
1698071927043996400,11.215996337890624,-3.475951910018921,-1.8981313705444336,5.880344390869141
1698071927053589200,11.22558935546875,-0.08533942699432373,-4.115083694458008,4.028250694274902
1698071927063181300,11.235181396484375,4.253713607788086,-6.394402503967285,0.8216389417648315
1698071927072774100,11.244774169921875,10.370532035827637,-7.8723907470703125,-3.7688493728637695
1698071927082367700,11.25436767578125,15.8444242477417,-8.753766059875488,-7.483302593231201
1698071927091960600,11.263960693359374,12.67782974243164,-7.705177307128906,-8.594071388244629
1698071927101552600,11.273552734375,2.809234619140625,-4.00904655456543,-7.577414035797119
1698071927111145500,11.2831455078125,-3.4431698322296143,-1.9062862396240234,-4.011481761932373
1698071927120739000,11.292739013671875,-4.183324813842773,-1.5725078582763672,-1.6826443672180176
1698071927130332000,11.302331787109376,-2.2767696380615234,-0.4373283386230469,-0.13429681956768036
1698071927139924000,11.311924072265626,0.46143627166748047,1.1578340530395508,1.596478819847107
1698071927149516800,11.321516845703124,2.9592432975769043,2.444924831390381,2.64977765083313
1698071927159110400,11.3311103515625,4.942165851593018,3.6045427322387695,1.820311188697815
1698071927168703200,11.340703125,5.926186561584473,4.1923346519470215,1.9605531692504883
1698071927178295300,11.35029541015625,6.888679027557373,4.334315776824951,1.4966957569122314
1698071927187888000,11.35988818359375,6.860424041748047,3.678452491760254,0.09551191329956055
1698071927197481700,11.369481689453124,5.067165851593018,2.1587071418762207,-1.302144169807434
1698071927207074600,11.379074462890625,2.5402493476867676,0.595820426940918,-2.6675467491149902
1698071927216666600,11.38866650390625,0.6809211373329163,-0.5645275115966797,-3.3821589946746826
1698071927226259500,11.398259521484375,-0.08517694473266602,-1.2484045028686523,-2.6470353603363037
1698071927235853000,11.40785302734375,-1.7387187480926514,-1.5821332931518555,-0.48790132999420166
1698071927245446000,11.41744580078125,-3.0811030864715576,-1.5107250213623047,1.2734190225601196
1698071927255038000,11.427037841796874,-3.2937145233154297,-0.4743528366088867,1.1421300172805786
1698071927264631000,11.436631103515625,-2.3519110679626465,1.4379081726074219,0.042195916175842285
1698071927274224600,11.446224609375,-0.6487885117530823,3.156193733215332,-0.8614921569824219
1698071927283817200,11.455817138671875,1.3223848342895508,4.87984037399292,-1.0924556255340576
1698071927293409300,11.4654091796875,4.028940677642822,6.521247386932373,-0.8645515441894531
1698071927303002400,11.47500244140625,6.028829097747803,7.707472801208496,-1.7435046434402466
1698071927312596000,11.484595947265625,5.132016181945801,7.403832912445068,-2.3223698139190674
1698071927322188500,11.4941884765625,2.6735284328460693,5.6079254150390625,-2.008864641189575
1698071927331780600,11.503780517578125,0.7435088753700256,3.7632670402526855,-0.5278396606445312
1698071927341373400,11.51337353515625,-0.5956610441207886,2.4791741371154785,0.5628448724746704
1698071927350967300,11.52296728515625,-1.9064972400665283,1.3488655090332031,1.2413699626922607
1698071927360559900,11.532559814453125,-2.900743007659912,0.31536197662353516,1.776692271232605
1698071927370152200,11.542152099609375,-2.518167734146118,0.02837085723876953,1.9337407350540161
1698071927379744800,11.551744873046875,-2.16743540763855,0.02770233154296875,2.0073678493499756
1698071927389338600,11.561338623046876,-2.084808588027954,-0.2722187042236328,1.7889623641967773
1698071927398931500,11.570931396484376,-2.0102529525756836,-0.7749595642089844,1.2690398693084717
1698071927408523500,11.5805234375,-1.7663695812225342,-1.2340307235717773,0.5112774968147278
1698071927418116600,11.59011669921875,-1.5036133527755737,-1.4487571716308594,0.03698873519897461
1698071927427710200,11.599710205078125,-1.190246343612671,-1.4740705490112305,0.6474933624267578
1698071927437302800,11.609302734375,0.06652683019638062,-1.2428102493286133,2.330521583557129
1698071927446894800,11.618894775390626,1.2244821786880493,-0.9436483383178711,4.16306209564209
1698071927456488000,11.628488037109374,0.8480573892593384,-0.5454196929931641,5.408163070678711
1698071927466081500,11.63808154296875,-0.9746127128601074,0.24772071838378906,5.786746501922607
1698071927475674400,11.64767431640625,-3.457184314727783,0.039719581604003906,4.7291154861450195
1698071927485266200,11.65726611328125,-4.71062707901001,-1.5615644454956055,3.752688407897949
1698071927494859000,11.66685888671875,-4.168896675109863,-3.1896705627441406,3.07316255569458
1698071927504452900,11.676452880859374,-2.0339908599853516,-4.550657272338867,2.615539073944092
1698071927514045400,11.68604541015625,-0.8589187264442444,-5.568020820617676,1.5322991609573364
1698071927523637800,11.6956376953125,-1.6485872268676758,-5.819696426391602,-0.19743549823760986
1698071927533230300,11.705230224609375,0.07216149568557739,-5.902414321899414,-0.12348592281341553
1698071927542824200,11.71482421875,1.520037055015564,-6.0289154052734375,0.9451160430908203
1698071927552417000,11.7244169921875,0.44833892583847046,-5.7779436111450195,1.3085930347442627
1698071927562008800,11.7340087890625,-0.5781834125518799,-5.00669002532959,1.3226768970489502
1698071927571602000,11.743601806640624,0.9464629888534546,-3.901042938232422,1.1566715240478516
1698071927581195500,11.753195556640625,3.489987850189209,-1.9091510772705078,0.7740627527236938
1698071927590788400,11.762788330078125,3.6244258880615234,0.07510089874267578,0.05621027946472168
1698071927600380400,11.77238037109375,1.740495204925537,1.2583913803100586,-1.054253339767456
1698071927609973200,11.78197314453125,-0.8258324861526489,1.5799036026000977,-2.6211941242218018
1698071927619566800,11.79156689453125,-2.755380868911743,0.8282070159912109,-4.317476272583008
1698071927629159700,11.80115966796875,-3.3875555992126465,-0.2545623779296875,-6.085052013397217
1698071927638751700,11.810751708984375,-1.980810523033142,-1.4886360168457031,-7.40944766998291
1698071927648344600,11.820344482421875,1.4807426929473877,-2.473799705505371,-8.521880149841309
1698071927657938200,11.829938232421876,4.613122463226318,-3.767489433288574,-7.011923789978027
1698071927667531000,11.839531005859374,3.9552509784698486,-4.047142028808594,-4.117166996002197
1698071927677123000,11.849123046875,2.242525815963745,-3.334465980529785,-2.473034381866455
1698071927686716000,11.8587158203125,1.4784409999847412,-2.1770477294921875,-1.3904083967208862
1698071927696309500,11.8683095703125,0.41741278767585754,-1.744333267211914,0.7525290250778198
1698071927705902300,11.87790234375,0.6842176914215088,-1.6238508224487305,2.5234758853912354
1698071927715494400,11.887494384765626,1.138706922531128,-1.7596607208251953,3.159566640853882
1698071927725087200,11.897087158203124,1.5650312900543213,-1.4776582717895508,2.503126621246338
1698071927734680800,11.906680908203125,-0.2766854763031006,-0.48581695556640625,1.9727816581726074
1698071927744273700,11.916273681640625,-0.9702664017677307,0.7984523773193359,3.3020312786102295
1698071927753865700,11.92586572265625,0.21648633480072021,1.4820280075073242,3.29353666305542
1698071927763458600,11.93545849609375,0.5501790642738342,2.904086112976074,1.9459391832351685
1698071927773052200,11.94505224609375,0.6409093141555786,4.293973445892334,1.2874975204467773
1698071927782645000,11.95464501953125,0.7612495422363281,5.129133224487305,0.5900816917419434
1698071927792237000,11.964237060546875,0.7913697957992554,5.650212287902832,0.3121688663959503
1698071927801830000,11.973829833984375,0.3947110176086426,5.8724870681762695,0.07917200028896332
1698071927811423500,11.983423583984376,-0.0465313196182251,5.830080032348633,-0.09334197640419006
1698071927821016300,11.993016357421874,-0.7035317420959473,5.592616081237793,-0.36426886916160583
1698071927830608400,12.0026083984375,-1.092125415802002,5.365865707397461,-0.3691028952598572
1698071927840201200,12.012201171875,-1.1283832788467407,5.145236968994141,-0.36188238859176636
1698071927849794800,12.021794921875,-0.9839860200881958,4.899906158447266,0.18848855793476105
1698071927859387600,12.0313876953125,-1.2232862710952759,4.823188304901123,0.624769926071167
1698071927868979700,12.040979736328126,-1.3784823417663574,4.840236663818359,0.8434891700744629
1698071927878572500,12.050572509765624,-1.2772828340530396,4.866923809051514,1.0662341117858887
1698071927888166100,12.060166259765625,-0.9561374187469482,4.778873443603516,1.5198304653167725
1698071927897759000,12.069759033203125,-0.443581223487854,4.511923313140869,2.098864793777466
1698071927907351000,12.07935107421875,0.09488213062286377,3.8756027221679688,2.645216226577759
1698071927916944000,12.08894384765625,0.527445375919342,2.7849411964416504,2.8413617610931396
1698071927926537500,12.098537353515624,0.7369028329849243,1.0093317031860352,2.3682212829589844
1698071927936130300,12.10813037109375,1.0651798248291016,-1.1008033752441406,1.2608693838119507
1698071927945722400,12.117722412109375,1.3405892848968506,-3.23635196685791,-0.00002937018871307373
1698071927955315200,12.127315185546875,0.8651746511459351,-5.564366340637207,-2.038856029510498
1698071927964908800,12.13690869140625,-0.05499541759490967,-7.926272392272949,-2.972170829772949
1698071927974501600,12.146501708984376,-1.156956672668457,-7.647374153137207,-1.4676618576049805
1698071927984093700,12.15609375,-3.9957895278930664,-5.231064796447754,0.2913007140159607
1698071927993686500,12.1656865234375,-8.186317443847656,-3.2343215942382812,1.1295245885849
1698071928003280100,12.175280029296875,-11.16794204711914,-3.0489892959594727,1.880821943283081
1698071928012873000,12.184873046875,-9.485836029052734,-3.18050479888916,4.027029514312744
1698071928022465000,12.194465087890626,-3.1796603202819824,-2.9805660247802734,5.909027576446533
