time,seconds_elapsed,z,y,x
1697211262119965200,0.086965087890625,8.668862342834473,4.2207112312316895,1.7907589673995972
1697211262138803200,0.10580322265625,8.97073745727539,3.613292932510376,1.624927043914795
1697211262157641000,0.124640869140625,9.244325637817383,2.9464519023895264,1.4252209663391113
1697211262176478700,0.143478759765625,9.363845825195312,2.5226380825042725,1.4577590227127075
1697211262195316700,0.162316650390625,9.372648239135742,2.4542529582977295,1.5167299509048462
1697211262214154800,0.18115478515625,9.384331703186035,2.410691022872925,1.5143569707870483
1697211262232992500,0.199992431640625,9.399967193603516,2.369148015975952,1.4826090335845947
1697211262251830500,0.21883056640625,9.415379524230957,2.3194010257720947,1.4633430242538452
1697211262270668300,0.237668212890625,9.430682182312012,2.261867046356201,1.4548430442810059
1697211262289506300,0.25650634765625,9.446311950683594,2.2090189456939697,1.4345049858093262
1697211262308344000,0.275343994140625,9.462489128112793,2.176906108856201,1.3757740259170532
1697211262327182000,0.29418212890625,9.478590965270996,2.16715407371521,1.2767720222473145
1697211262346019800,0.313019775390625,9.49952507019043,2.1338679790496826,1.1730409860610962
1697211262364857900,0.33185791015625,9.523894309997559,2.0793399810791016,1.0687119960784912
1697211262383696000,0.35069580078125,9.54263687133789,2.0316739082336426,0.9903349876403809
1697211262402533600,0.36953369140625,9.557233810424805,1.9802299737930298,0.9530699849128723
1697211262421371600,0.38837158203125,9.574286460876465,1.9313600063323975,0.8793749809265137
1697211262440209700,0.407209716796875,9.591193199157715,1.881119966506958,0.8004969954490662
1697211262459047400,0.42604736328125,9.60125732421875,1.8492610454559326,0.7526410222053528
1697211262477885400,0.444885498046875,9.598716735839844,1.8622770309448242,0.7529640197753906
1697211262496723200,0.46372314453125,9.58752727508545,1.9074690341949463,0.7818329930305481
1697211262515561000,0.48256103515625,9.583146095275879,1.9409879446029663,0.752498984336853
1697211262534399000,0.50139892578125,9.594878196716309,1.9174829721450806,0.6572359800338745
1697211262553236700,0.52023681640625,9.620594024658203,1.8310530185699463,0.5116580128669739
1697211262572075000,0.539074951171875,9.65417194366455,1.6836609840393066,0.36420801281929016
1697211262590912500,0.55791259765625,9.686161041259766,1.5076229572296143,0.2752059996128082
1697211262609750500,0.57675048828125,9.7052583694458,1.385032057762146,0.24503600597381592
1697211262628588500,0.595588623046875,9.71175479888916,1.3436930179595947,0.21606099605560303
1697211262647426300,0.61442626953125,9.709817886352539,1.3373210430145264,0.31840500235557556
1697211262666264000,0.63326416015625,9.69635009765625,1.3421950340270996,0.59135901927948
1697211262685102000,0.65210205078125,9.65837287902832,1.3731050491333008,1.0004069805145264
1697211262703939800,0.67093994140625,9.603257179260254,1.4099960327148438,1.3999090194702148
1697211262722777900,0.68977783203125,9.55160903930664,1.4097449779510498,1.717484951019287
1697211262741615900,0.708615966796875,9.503616333007812,1.383978009223938,1.9840099811553955
1697211262760453600,0.72745361328125,9.47842025756836,1.3639459609985352,2.114137887954712
1697211262779291600,0.746291748046875,9.457433700561523,1.3456079959869385,2.2173550128936768
1697211262798129400,0.76512939453125,9.439753532409668,1.345870018005371,2.2913029193878174
1697211262816967400,0.783967529296875,9.427184104919434,1.3692760467529297,2.3288750648498535
1697211262835805200,0.80280517578125,9.422855377197266,1.3625340461730957,2.350250005722046
1697211262854643200,0.821643310546875,9.417007446289062,1.2835019826889038,2.4172229766845703
1697211262873481200,0.840481201171875,9.386093139648438,1.1568330526351929,2.594878911972046
1697211262892319000,0.859319091796875,9.3691987991333,1.0605729818344116,2.695122003555298
1697211262911157000,0.878156982421875,9.389759063720703,0.9997040033340454,2.6463940143585205
1697211262929994800,0.896994873046875,9.427041053771973,0.937686026096344,2.534169912338257
1697211262948832500,0.91583251953125,9.443122863769531,0.8745689988136292,2.4965860843658447
1697211262967670500,0.93467041015625,9.437920570373535,0.8202250003814697,2.5344181060791016
1697211262986508500,0.953508544921875,9.420585632324219,0.7749149799346924,2.611984968185425
1697211263005346300,0.97234619140625,9.403935432434082,0.7506759762763977,2.67822003364563
1697211263024184300,0.991184326171875,9.397067070007324,0.7443959712982178,2.7039599418640137
1697211263043022000,1.01002197265625,9.395934104919434,0.7135549783706665,2.7161829471588135
1697211263061860400,1.0288603515625,9.406926155090332,0.6520529985427856,2.69350004196167
1697211263080698000,1.047697998046875,9.424799919128418,0.5920630097389221,2.6444270610809326
1697211263099535600,1.06653564453125,9.433547019958496,0.5619149804115295,2.619702100753784
1697211263118374000,1.085373779296875,9.449077606201172,0.5518199801445007,2.565308094024658
1697211263137211600,1.104211669921875,9.45942211151123,0.5141299962997437,2.5348360538482666
1697211263156049700,1.123049560546875,9.461393356323242,0.4628320038318634,2.537360906600952
1697211263174887400,1.141887451171875,9.457868576049805,0.4199660122394562,2.557874917984009
1697211263193725200,1.16072509765625,9.427393913269043,0.3571990132331848,2.6771318912506104
1697211263212563500,1.1795634765625,9.38303279876709,0.28670600056648254,2.836703062057495
1697211263231401200,1.198401123046875,9.347999572753906,0.24340400099754333,2.953989028930664
1697211263250239000,1.217239013671875,9.323380470275879,0.2249850034713745,3.032222032546997
1697211263269076700,1.23607666015625,9.306049346923828,0.18435800075531006,3.087692975997925
1697211263287914800,1.254914794921875,9.26980972290039,0.07295399904251099,3.199323892593384
1697211263306752500,1.27375244140625,9.1908597946167,-0.08111099898815155,3.4193429946899414
1697211263325590800,1.2925908203125,9.054361343383789,-0.1746630072593689,3.7627689838409424
1697211263344428500,1.311428466796875,8.873204231262207,-0.12369599938392639,4.173888206481934
1697211263363266300,1.330266357421875,8.647909164428711,0.0353039987385273,4.624156951904297
1697211263382104600,1.3491044921875,8.407779693603516,0.2364950031042099,5.042191982269287
1697211263400942000,1.367942138671875,8.244915962219238,0.3708159923553467,5.296624183654785
1697211263419780000,1.386780029296875,8.22584342956543,0.28150200843811035,5.331664085388184
1697211263438618000,1.4056181640625,8.237518310546875,-0.05017999932169914,5.3208231925964355
1697211263457455900,1.424455810546875,8.091461181640625,-0.45135799050331116,5.522220134735107
1697211263476294000,1.4432939453125,7.758110046386719,-0.7186819911003113,5.955301761627197
1697211263495132000,1.4621318359375,7.2624711990356445,-1.0548399686813354,6.504936218261719
1697211263513969700,1.4809697265625,6.624553203582764,-1.6112109422683716,7.04909086227417
1697211263532807400,1.499807373046875,5.773788928985596,-2.2714180946350098,7.594366073608398
1697211263551645400,1.5186455078125,4.791736125946045,-2.9477949142456055,8.03244400024414
1697211263570483500,1.5374833984375,3.7651989459991455,-3.5744268894195557,8.319684028625488
1697211263589321200,1.5563212890625,2.7725250720977783,-4.095036029815674,8.468422889709473
1697211263608159200,1.5751591796875,1.8792730569839478,-4.737473011016846,8.378250122070312
1697211263626997200,1.593997314453125,1.2357840538024902,-5.509786128997803,8.017824172973633
1697211263645835000,1.6128349609375,0.8170210123062134,-6.1522722244262695,7.5929179191589355
1697211263664673000,1.631673095703125,0.6041560173034668,-6.551422119140625,7.27215576171875
1697211263683510800,1.6505107421875,0.6704559922218323,-6.745344161987305,7.086692810058594
1697211263702348500,1.6693486328125,0.951973021030426,-6.83819580078125,6.964426040649414
1697211263721186600,1.6881865234375,1.3148419857025146,-6.927059173583984,6.815968990325928
1697211263740024600,1.707024658203125,1.6081830263137817,-7.0678510665893555,6.6052727699279785
1697211263758862000,1.725862060546875,1.8930909633636475,-7.245761871337891,6.331315040588379
1697211263777700000,1.7447001953125,2.2293670177459717,-7.457921981811523,5.96487283706665
1697211263796538000,1.7635380859375,2.608872890472412,-7.658547878265381,5.5417351722717285
1697211263815376000,1.7823759765625,2.9612019062042236,-7.812335014343262,5.13508415222168
1697211263834214000,1.8012138671875,3.3093819618225098,-7.872406959533691,4.821160793304443
1697211263853051600,1.8200517578125,3.6949501037597656,-7.7483320236206055,4.741418838500977
1697211263871889700,1.8388896484375,4.016363143920898,-7.450784206390381,4.952272891998291
1697211263890727400,1.8577275390625,4.1272149085998535,-7.147942066192627,5.295601844787598
1697211263909565400,1.8765654296875,3.9729650020599365,-6.965514183044434,5.645135879516602
1697211263928403200,1.8954033203125,3.738326072692871,-6.748688220977783,6.053965091705322
1697211263947241000,1.914240966796875,3.4805688858032227,-6.527340888977051,6.4381561279296875
1697211263966079200,1.933079345703125,3.2212510108947754,-6.301137924194336,6.788930892944336
1697211263984917000,1.9519169921875,2.9574809074401855,-5.885251045227051,7.265501976013184
1697211264003754800,1.970754638671875,2.5912508964538574,-5.34573221206665,7.802496910095215
1697211264022592800,1.9895927734375,2.0857090950012207,-4.950998783111572,8.204133987426758
1697211264041430500,2.008430419921875,1.5512009859085083,-4.650300025939941,8.493462562561035
1697211264060268500,2.0272685546875,1.036741018295288,-4.4415059089660645,8.681509017944336
1697211264079106600,2.0461064453125,0.517549991607666,-4.252387046813965,8.821549415588379
1697211264097944300,2.0649443359375,0.10751800239086151,-4.092309951782227,8.911330223083496
1697211264116782000,2.083781982421875,-0.03029399923980236,-3.9910759925842285,8.957723617553711
1697211264135620000,2.1026201171875,-0.05003799870610237,-3.839087963104248,9.023818969726562
1697211264154457900,2.121457763671875,-0.24479499459266663,-3.6609768867492676,9.094379425048828
1697211264173295900,2.1402958984375,-0.3222149908542633,-3.5934669971466064,9.118856430053711
1697211264192134000,2.1591337890625,-0.27865201234817505,-3.5264298915863037,9.14642333984375
1697211264210972000,2.177971923828125,-0.24363300204277039,-3.4116570949554443,9.190844535827637
1697211264229809700,2.1968095703125,-0.18958500027656555,-3.440579891204834,9.1813325881958
1697211264248647700,2.215647705078125,-0.11230699717998505,-3.75544810295105,9.058387756347656
1697211264267485400,2.2344853515625,0.011067000217735767,-4.169002056121826,8.876357078552246
1697211264286323200,2.2533232421875,0.08153899759054184,-4.484189033508301,8.72099781036377
1697211264305161500,2.272161376953125,-0.2064419984817505,-4.869166851043701,8.509936332702637
1697211264323999200,2.290999267578125,-0.5281950235366821,-5.352441787719727,8.200167655944824
1697211264342837200,2.309837158203125,-0.4959630072116852,-5.86417293548584,7.844482898712158
1697211264361675300,2.32867529296875,-0.048337001353502274,-6.329249858856201,7.490571022033691
1697211264380513000,2.347512939453125,0.36423200368881226,-6.872782230377197,6.985885143280029
1697211264399351000,2.36635107421875,0.7288619875907898,-7.478799819946289,6.301327228546143
1697211264418188800,2.385188720703125,1.063889980316162,-8.091800689697266,5.437027931213379
1697211264437026800,2.40402685546875,1.2990180253982544,-8.663261413574219,4.408044815063477
1697211264455864600,2.422864501953125,1.4388530254364014,-9.090188980102539,3.386528968811035
1697211264474702600,2.44170263671875,1.6334569454193115,-9.380428314208984,2.3472940921783447
1697211264493540400,2.460540283203125,1.9002649784088135,-9.517597198486328,1.405243992805481
1697211264512378400,2.47937841796875,2.304539918899536,-9.517036437988281,0.53432697057724
1697211264531216400,2.49821630859375,2.6823389530181885,-9.431757926940918,-0.1318960040807724
1697211264550054400,2.517054443359375,2.9404449462890625,-9.343021392822266,-0.4818029999732971
1697211264568892000,2.535891845703125,3.1607580184936523,-9.263909339904785,-0.5999810099601746
1697211264587730200,2.554730224609375,3.3757879734039307,-9.18149185180664,-0.6889410018920898
1697211264606568000,2.57356787109375,3.503722906112671,-9.121408462524414,-0.8332120180130005
1697211264625406000,2.592406005859375,3.5613410472869873,-9.087465286254883,-0.951429009437561
1697211264644243700,2.61124365234375,3.6211259365081787,-9.056621551513672,-1.0175729990005493
1697211264663081500,2.63008154296875,3.719841957092285,-9.014630317687988,-1.034203052520752
1697211264681919500,2.64891943359375,3.861794948577881,-8.953908920288086,-1.0413689613342285
1697211264700757500,2.667757568359375,3.9833829402923584,-8.898999214172363,-1.0539790391921997
1697211264719595300,2.68659521484375,4.01127290725708,-8.885064125061035,-1.0657000541687012
1697211264738433300,2.705433349609375,3.9288129806518555,-8.917974472045898,-1.0975250005722046
1697211264757271000,2.72427099609375,3.7407279014587402,-9.001908302307129,-1.069108009338379
1697211264776109000,2.743109130859375,3.4757630825042725,-9.121374130249023,-0.9433990120887756
1697211264794946800,2.76194677734375,3.1461730003356934,-9.254643440246582,-0.7896469831466675
1697211264813784800,2.780784912109375,2.77988600730896,-9.381847381591797,-0.6508209705352783
1697211264832622800,2.799622802734375,2.4622979164123535,-9.47724437713623,-0.5379030108451843
1697211264851460900,2.8184609375,2.145711898803711,-9.558167457580566,-0.45580101013183594
1697211264870298600,2.837298583984375,1.725350022315979,-9.642274856567383,-0.46915000677108765
1697211264889136400,2.856136474609375,1.2265650033950806,-9.711169242858887,-0.5992850065231323
1697211264907974400,2.874974365234375,0.6853820085525513,-9.749695777893066,-0.8025550246238708
1697211264926812200,2.893812255859375,0.1004830002784729,-9.747809410095215,-1.0679550170898438
1697211264945650200,2.912650146484375,-0.4927240014076233,-9.711477279663086,-1.2707630395889282
1697211264964488000,2.931488037109375,-0.9339529871940613,-9.67143726348877,-1.327185034751892
1697211264983326000,2.950325927734375,-1.2756669521331787,-9.639627456665039,-1.2730560302734375
1697211265002164000,2.9691640625,-1.5658910274505615,-9.60367202758789,-1.2197890281677246
1697211265021001700,2.988001708984375,-1.9109309911727905,-9.54352855682373,-1.1999160051345825
1697211265039839700,3.00683984375,-2.36899995803833,-9.445615768432617,-1.1569550037384033
1697211265058677800,3.025677734375,-2.750880002975464,-9.341337203979492,-1.1586439609527588
1697211265077515500,3.044515625,-3.0147879123687744,-9.254504203796387,-1.1981630325317383
1697211265096353500,3.063353515625,-3.2099950313568115,-9.185795783996582,-1.2196409702301025
1697211265115191300,3.08219140625,-3.3301680088043213,-9.139280319213867,-1.2465699911117554
1697211265134029300,3.101029296875,-3.376966953277588,-9.106751441955566,-1.3540990352630615
1697211265152867300,3.119867431640625,-3.3374669551849365,-9.102103233337402,-1.4776450395584106
1697211265171705000,3.138705078125,-3.187333106994629,-9.138422012329102,-1.5813250541687012
1697211265190543000,3.157543212890625,-2.8813679218292236,-9.224832534790039,-1.664505958557129
1697211265209381000,3.176381103515625,-2.425590991973877,-9.351693153381348,-1.683076024055481
1697211265228219000,3.195218994140625,-2.165271043777466,-9.436847686767578,-1.558174967765808
1697211265247057000,3.214056884765625,-2.3173348903656006,-9.411039352416992,-1.4942229986190796
1697211265265894700,3.232894775390625,-2.5179998874664307,-9.352482795715332,-1.5365979671478271
1697211265284732700,3.251732666015625,-2.6177148818969727,-9.336895942687988,-1.4629909992218018
1697211265303570700,3.27057080078125,-2.886686086654663,-9.275009155273438,-1.345973014831543
1697211265322408400,3.289408447265625,-3.224976062774658,-9.16832447052002,-1.3083479404449463
1697211265341246500,3.30824658203125,-3.3677399158477783,-9.101149559020996,-1.4134260416030884
1697211265360084200,3.327084228515625,-3.364748954772949,-9.08954906463623,-1.492982029914856
1697211265378922000,3.345921875,-3.1962521076202393,-9.15059757232666,-1.4902750253677368
1697211265397760300,3.36476025390625,-2.9182870388031006,-9.25255012512207,-1.4297930002212524
1697211265416598000,3.383597900390625,-2.629491090774536,-9.354719161987305,-1.3211419582366943
1697211265435435800,3.402435791015625,-2.334887981414795,-9.441510200500488,-1.2556120157241821
1697211265454273800,3.421273681640625,-2.0312728881835938,-9.51839542388916,-1.201874017715454
1697211265473111600,3.440111572265625,-1.7020740509033203,-9.584238052368164,-1.189836025238037
1697211265491949800,3.45894970703125,-1.3363460302352905,-9.63227653503418,-1.2664289474487305
1697211265510787600,3.47778759765625,-0.964576005935669,-9.66020393371582,-1.3858089447021484
1697211265529625300,3.496625244140625,-0.6529309749603271,-9.66949462890625,-1.4983199834823608
1697211265548463400,3.51546337890625,-0.35717400908470154,-9.675177574157715,-1.5600539445877075
1697211265567301400,3.53430126953125,-0.06129299849271774,-9.675985336303711,-1.5943479537963867
1697211265586139100,3.55313916015625,0.24420200288295746,-9.671243667602539,-1.6055580377578735
1697211265604977200,3.57197705078125,0.582709014415741,-9.657031059265137,-1.6039329767227173
1697211265623815000,3.59081494140625,0.9583470225334167,-9.62575912475586,-1.6114380359649658
1697211265642653000,3.60965283203125,1.3006340265274048,-9.581862449645996,-1.6329909563064575
1697211265661491000,3.628490966796875,1.5552500486373901,-9.535888671875,-1.6788150072097778
1697211265680328700,3.64732861328125,-1.7451109886169434,-9.62529468536377,-0.6918870210647583
1697211265699166500,3.66616650390625,-1.449044942855835,-9.696599960327148,-0.21597599983215332
1697211265718004500,3.68500439453125,-1.2755650281906128,-9.719820976257324,-0.26156699657440186
1697211265736842500,3.703842529296875,-1.053987979888916,-9.744297981262207,-0.32888099551200867
1697211265755680500,3.722680419921875,-0.6919209957122803,-9.771783828735352,-0.4515489935874939
1697211265774518300,3.741518310546875,-0.40100398659706116,-9.783937454223633,-0.5330830216407776
1697211265793356000,3.76035595703125,-0.16165700554847717,-9.784387588500977,-0.6403380036354065
1697211265812194000,3.779194091796875,0.10827499628067017,-9.778578758239746,-0.7335259914398193
1697211265831032300,3.7980322265625,0.38378798961639404,-9.766322135925293,-0.8012840151786804
1697211265849870000,3.8168701171875,0.5747609734535217,-9.752537727355957,-0.8532779812812805
1697211265868707800,3.835707763671875,0.4344019889831543,-9.766131401062012,-0.7774159908294678
1697211265887545900,3.8545458984375,0.470755010843277,-9.761256217956543,-0.8164860010147095
1697211265906383600,3.873383544921875,0.5809710025787354,-9.752225875854492,-0.8526049852371216
1697211265925221600,3.8922216796875,0.7336819767951965,-9.739803314208984,-0.8765439987182617
1697211265944059600,3.9110595703125,0.7723590135574341,-9.735899925231934,-0.8866230249404907
1697211265962897400,3.9298974609375,0.5969120264053345,-9.750589370727539,-0.8602839708328247
1697211265981735400,3.9487353515625,0.2911750078201294,-9.771097183227539,-0.7818530201911926
1697211266000573400,3.967573486328125,-0.05474799871444702,-9.78420352935791,-0.6608690023422241
1697211266019411200,3.9864111328125,-0.39942899346351624,-9.783239364624023,-0.5468840003013611
1697211266038249200,4.005249267578125,-0.7451159954071045,-9.766615867614746,-0.47793999314308167
1697211271199837700,9.166837646484375,-3.751568078994751,-9.031716346740723,-0.7240549921989441
1697211271218675500,9.185675537109375,-4.190882205963135,-8.848082542419434,-0.5641589760780334
1697211271237513500,9.204513427734375,-4.554736137390137,-8.671977996826172,-0.47067999839782715
1697211271256351200,9.223351318359375,-4.8147759437561035,-8.53504467010498,-0.3760010004043579
1697211271275189200,9.242189208984374,-5.063007831573486,-8.395782470703125,-0.2172739952802658
1697211271294027000,9.261027099609375,-5.291889190673828,-8.25596809387207,-0.07283200323581696
1697211271312865300,9.279865234375,-5.511198043823242,-8.111458778381348,-0.036375001072883606
1697211271331703000,9.298703125,-5.69715690612793,-7.981770992279053,-0.06408800184726715
1697211271350541000,9.317541015625,-5.803031921386719,-7.904351234436035,-0.12835100293159485
1697211271369378800,9.33637890625,-5.801718235015869,-7.902284145355225,-0.25376299023628235
1697211271388216800,9.355216796875,-5.685707092285156,-7.978805065155029,-0.4263879954814911
1697211271407054800,9.374054931640625,-5.441039085388184,-8.134639739990234,-0.6270040273666382
1697211271425892600,9.392892578125,-5.033716201782227,-8.370068550109863,-0.8797940015792847
1697211271444730400,9.41173046875,-4.560052871704102,-8.610685348510742,-1.1101579666137695
1697211271463568400,9.430568359375,-4.4825239181518555,-8.663707733154297,-1.0087300539016724
1697211271482406400,9.449406494140625,-4.874664783477783,-8.451532363891602,-0.9897630214691162
1697211271501244400,9.468244384765624,-5.240355968475342,-8.200215339660645,-1.2106059789657593
1697211271830907600,9.79790771484375,-2.38740611076355,-9.37820816040039,-1.58742094039917
1697211271849745400,9.816745361328126,-2.1123900413513184,-9.44311809539795,-1.5924079418182373
1697211271868583200,9.835583251953125,-1.8204180002212524,-9.504286766052246,-1.5890309810638428
1697211271887421200,9.854421142578126,-1.4962480068206787,-9.559690475463867,-1.5949909687042236
1697211271906259000,9.873259033203125,-1.1931840181350708,-9.600048065185547,-1.608046054840088
1697211271925097200,9.89209716796875,-0.9463949799537659,-9.62427043914795,-1.6273139715194702
1697211271943935000,9.91093505859375,-0.7662789821624756,-9.631007194519043,-1.6813490390777588
1697211271962772700,9.929772705078125,-0.6074939966201782,-9.627565383911133,-1.7639080286026
1697211271981610800,9.94861083984375,-0.4240739941596985,-9.621758460998535,-1.8472529649734497
1697211272000448800,9.96744873046875,-0.1973150074481964,-9.615543365478516,-1.916450023651123
1697211272019286300,9.986286376953124,0.05899899825453758,-9.604374885559082,-1.9806300401687622
1697211272038124500,10.00512451171875,0.3203960061073303,-9.587651252746582,-2.0358479022979736
1697211272056962300,10.02396240234375,0.5724700093269348,-9.570229530334473,-2.0623700618743896
1697211272075800300,10.04280029296875,0.8182960152626038,-9.551370620727539,-2.0669050216674805
1697211272094638000,10.06163818359375,0.950609028339386,-9.534539222717285,-2.0878920555114746
1697211272113476000,10.08047607421875,0.9322569966316223,-9.523262977600098,-2.146800994873047
1697211272132313900,10.09931396484375,0.9177790284156799,-9.506635665893555,-2.2252960205078125
1697211272151151900,10.11815185546875,1.0100350379943848,-9.482769966125488,-2.2863309383392334
1697211272169990000,10.136989990234374,1.184988021850586,-9.458955764770508,-2.300947904586792
1697211272188827600,10.15582763671875,1.2832119464874268,-9.457456588745117,-2.2539501190185547
1697211272207665400,10.17466552734375,1.2126009464263916,-9.483080863952637,-2.1843020915985107
1697211272226503400,10.19350341796875,1.0030579566955566,-9.52476978302002,-2.107853889465332
1697211272245341400,10.212341552734374,0.733905017375946,-9.572107315063477,-2.0016350746154785
1697211272264179200,10.23117919921875,0.38035500049591064,-9.612375259399414,-1.9047260284423828
1697211272283017200,10.250017333984376,-0.0676179975271225,-9.63786792755127,-1.810346007347107
1697211272301855200,10.268855224609375,-0.5463849902153015,-9.639337539672852,-1.7190220355987549
1697211272320693000,10.28769287109375,-1.0246360301971436,-9.609631538391113,-1.6659660339355469
1697211272339531000,10.306531005859375,-1.474223017692566,-9.558618545532227,-1.6216950416564941
1697211272358368800,10.32536865234375,-1.9014559984207153,-9.490815162658691,-1.574573040008545
1697211272377206500,10.34420654296875,-2.3267910480499268,-9.40538501739502,-1.5149879455566406
1697211272396044500,10.36304443359375,-2.7466280460357666,-9.30225944519043,-1.4471980333328247
1697211272414882300,10.38188232421875,-3.1683719158172607,-9.180936813354492,-1.3572759628295898
1697211272433720600,10.400720458984376,-3.570120096206665,-9.050338745117188,-1.2312690019607544
1697211272452558300,10.419558349609375,-3.953900098800659,-8.909601211547852,-1.0752170085906982
1697211272471396400,10.438396240234376,-4.268754005432129,-8.778462409973145,-0.9416790008544922
1697211272490234400,10.457234375,-4.538234233856201,-8.651801109313965,-0.8492400050163269
1697211272509072000,10.47607177734375,-4.811418056488037,-8.511638641357422,-0.7567660212516785
1697211272527910000,10.494909912109375,-5.067008972167969,-8.370271682739258,-0.6590830087661743
1697211272546748000,10.513747802734375,-5.287239074707031,-8.239169120788574,-0.5758150219917297
1697211272565585700,10.532585693359374,-5.468018054962158,-8.125127792358398,-0.5034520030021667
1697211272584423700,10.551423583984375,-5.613161087036133,-8.025309562683105,-0.5071939826011658
1697211272603261400,10.570261474609374,-5.722248077392578,-7.942052841186523,-0.5916810035705566
1697211272622099500,10.589099365234375,-5.759231090545654,-7.907072067260742,-0.6927289962768555
1697211272640937500,10.6079375,-5.686921119689941,-7.950907230377197,-0.7825409770011902
1697211272659775200,10.626775146484375,-5.493545055389404,-8.077193260192871,-0.8662059903144836
1697211272678613200,10.64561328125,-5.182350158691406,-8.269664764404297,-0.962440013885498
1697211272697451000,10.664450927734375,-4.829329013824463,-8.471463203430176,-1.0403289794921875
1697211272716289000,10.6832890625,-4.628799915313721,-8.586967468261719,-1.0042990446090698
1697211272735126800,10.702126708984375,-4.71643590927124,-8.537275314331055,-1.02006995677948
1697211272753964800,10.72096484375,-5.067677021026611,-8.324389457702637,-1.0925190448760986
1697211272772802600,10.739802490234375,-5.2710771560668945,-8.188087463378906,-1.1581599712371826
1697211272791640600,10.758640625,-5.413784027099609,-8.103767395019531,-1.0910029411315918
1697211272810478300,10.777478271484375,-5.638810157775879,-7.9611592292785645,-0.9970840215682983
1697211272829316400,10.79631640625,-5.804714202880859,-7.83739709854126,-1.025141954421997
1697211282582612500,20.549612548828126,-4.895301818847656,-8.197649955749512,-2.237178087234497
1697211282601450200,20.5684501953125,-5.159968852996826,-8.076993942260742,-2.0753960609436035
1697211282620288300,20.587288330078124,-5.376873970031738,-7.966211795806885,-1.9491369724273682
1697211282639125800,20.606125732421877,-5.583261013031006,-7.822754859924316,-1.9498939514160156
1697211282657963500,20.624963623046874,-5.755814075469971,-7.671856880187988,-2.04538893699646
1697211282676801500,20.643801513671875,-5.858822822570801,-7.556431770324707,-2.178291082382202
1697211282695639300,20.662639404296876,-5.874417781829834,-7.504881858825684,-2.3104898929595947
1697211282714477000,20.68147705078125,-5.793708801269531,-7.533843040466309,-2.4175519943237305
1697211282733314800,20.700314697265625,-5.599325180053711,-7.638394832611084,-2.5441880226135254
1697211282752152600,20.719152587890626,-5.268977165222168,-7.821043968200684,-2.6906399726867676
1697211282770990600,20.737990478515623,-4.976828098297119,-8.011082649230957,-2.6877689361572266
1697211282789828400,20.756828369140624,-4.898052215576172,-8.108041763305664,-2.5375521183013916
1697211282808665900,20.775665771484373,-4.931301116943359,-8.044367790222168,-2.6722280979156494
1697211282827503900,20.79450390625,-5.189373970031738,-7.813110828399658,-2.8628768920898438
1697211282846341400,20.81334130859375,-5.399560928344727,-7.635201930999756,-2.9527699947357178
1697211282865179400,20.832179443359376,-5.60484504699707,-7.525850772857666,-2.849155902862549
1697211282884017200,20.85101708984375,-5.9751057624816895,-7.295300006866455,-2.692044973373413
1697211282902855000,20.86985498046875,-6.230639934539795,-7.05629301071167,-2.7492260932922363
1697211282921693000,20.88869287109375,-6.1783270835876465,-6.994297981262207,-3.013050079345703
1697211282940530700,20.90753076171875,-6.1096930503845215,-7.029882907867432,-3.06965708732605
1697211282959368200,20.9263681640625,-5.95891809463501,-7.161163806915283,-3.0625829696655273
1697211282978206000,20.9452060546875,-5.7070159912109375,-7.431220054626465,-2.894360065460205
1697211282997044000,20.9640439453125,-5.275765895843506,-7.808228969573975,-2.714456081390381
1697211283015881700,20.9828818359375,-4.800469875335693,-8.149002075195312,-2.5922319889068604
1697211283034719500,21.001719482421876,-4.416046142578125,-8.402169227600098,-2.4642438888549805
1697211283053557000,21.020556884765625,-4.1410908699035645,-8.568806648254395,-2.3658668994903564
1697211283072395000,21.03939501953125,-3.9084339141845703,-8.672511100769043,-2.383721113204956
1697211283091232800,21.058232666015623,-3.6562089920043945,-8.745924949645996,-2.512244939804077
1697211283110070500,21.077070556640624,-3.3650670051574707,-8.821120262145996,-2.652277946472168
1697211283128908300,21.095908203125,-3.0466670989990234,-8.90811824798584,-2.744748115539551
1697211283147746000,21.11474609375,-2.739980936050415,-8.992895126342773,-2.791187047958374
1697211283166583800,21.133583740234375,-2.4637019634246826,-9.072504043579102,-2.7911059856414795
1697211283185421800,21.152421875,-2.187959909439087,-9.15192985534668,-2.7614190578460693
1697211283204259600,21.171259521484377,-1.8807259798049927,-9.229127883911133,-2.730652093887329
1697211283223097300,21.190097412109374,-1.5398249626159668,-9.297503471374512,-2.7121479511260986
1697211283241935400,21.208935302734375,-1.1926130056381226,-9.353938102722168,-2.692934036254883
1697211290244854500,28.2118544921875,-6.030797958374023,-7.400422096252441,-2.2435710430145264
1697211290263692300,28.2306923828125,-5.80682897567749,-7.547920227050781,-2.3409509658813477
1697211290282529800,28.24952978515625,-5.450102806091309,-7.796460151672363,-2.3836910724639893
1697211290301367800,28.268367919921875,-5.185805797576904,-7.997488021850586,-2.3060851097106934
1697211290320205300,28.287205322265624,-5.1022257804870605,-8.043354988098145,-2.332840919494629
1697211290339042800,28.306042724609377,-5.28574800491333,-7.849137783050537,-2.5733749866485596
1697211290357880600,28.324880615234374,-5.54660177230835,-7.582770824432373,-2.8119680881500244
1697211290376718000,28.343718017578126,-5.672989845275879,-7.482891082763672,-2.8273520469665527
1697211290395556000,28.36255615234375,-5.865049839019775,-7.377906799316406,-2.7088940143585205
1697211290414393600,28.3813935546875,-6.142306804656982,-7.158857822418213,-2.6820199489593506
1697211290433231400,28.4002314453125,-6.2025861740112305,-7.020742893218994,-2.8995659351348877
1697211290452069000,28.419069091796874,-6.239169120788574,-6.940854072570801,-3.011262893676758
1697211290470906600,28.43790673828125,-6.201535224914551,-6.9662909507751465,-3.030208110809326
1697211290489744400,28.456744384765624,-6.080896854400635,-7.063346862792969,-3.049949884414673
1697211290508582000,28.475581787109373,-5.898344993591309,-7.248428821563721,-2.9732439517974854
1697211290527419600,28.494419677734374,-5.531357765197754,-7.600954055786133,-2.7928380966186523
1697211290546257400,28.51325732421875,-5.044213771820068,-8.014719009399414,-2.547666072845459
1697211290565095000,28.532094970703124,-4.519171237945557,-8.39461612701416,-2.297379970550537
1697211290583932700,28.5509326171875,-4.060678958892822,-8.686767578125,-2.0545990467071533
1697211290602770200,28.569770263671874,-3.7217869758605957,-8.87588882446289,-1.8807710409164429
1697211290621608200,28.588608154296875,-3.449326992034912,-8.99058723449707,-1.855234980583191
1697211290640445700,28.60744580078125,-3.0960710048675537,-9.077837944030762,-2.043915033340454
1697211290659283200,28.626283203125,-2.7246649265289307,-9.146750450134277,-2.254672050476074
1697211290678121000,28.645120849609373,-2.4105939865112305,-9.21546745300293,-2.331218957901001
1697211290696958500,28.66395849609375,-2.1340420246124268,-9.286333084106445,-2.319540023803711
1697211290715796200,28.682796142578123,-1.8470710515975952,-9.361701965332031,-2.262131929397583
1697211290734634000,28.701634033203124,-1.525128960609436,-9.435298919677734,-2.1953370571136475
1697211290753471500,28.720471435546877,-1.1935800313949585,-9.488587379455566,-2.1708199977874756
1697211290772309200,28.739309326171874,-0.8924139738082886,-9.525593757629395,-2.1533849239349365
1697211290791146800,28.758146728515626,-0.6361799836158752,-9.544048309326172,-2.1625919342041016
1697211290809984500,28.776984619140624,-0.4129030108451843,-9.545384407043457,-2.210325002670288
1697211290828822300,28.795822265625,-0.1924230009317398,-9.535897254943848,-2.28035306930542
1697211290847659800,28.81465966796875,0.062401000410318375,-9.520976066589355,-2.348947048187256
1697211290866497500,28.83349755859375,0.32974499464035034,-9.502998352050781,-2.3988940715789795
1697211290885335000,28.8523349609375,0.5724890232086182,-9.482196807861328,-2.4352779388427734
1697211290904172500,28.871172607421876,0.807794988155365,-9.461675643920898,-2.4483840465545654
1697211290923010300,28.89001025390625,1.07716703414917,-9.438700675964355,-2.4333178997039795
1697211290941848000,28.90884814453125,1.2768880128860474,-9.41580867767334,-2.425386905670166
1697211290960685800,28.927685791015627,1.328847050666809,-9.405108451843262,-2.438960075378418
1697211290979523300,28.9465234375,1.3347129821777344,-9.393996238708496,-2.4782609939575195
1697211290998360800,28.96536083984375,1.3712619543075562,-9.38173770904541,-2.5046029090881348
1697211291017198600,28.984198486328125,1.4772160053253174,-9.37106990814209,-2.484205961227417
1697211291036036400,29.003036376953126,1.6025309562683105,-9.376091003417969,-2.3856279850006104
1697211291054873900,29.021873779296875,1.644582986831665,-9.393899917602539,-2.2848150730133057
1697211291073711600,29.040711669921876,1.4930249452590942,-9.42902946472168,-2.2438108921051025
1697211291092549000,29.059549072265625,1.1653399467468262,-9.47606372833252,-2.239778995513916
1697211291111387000,29.078386962890626,0.7053549885749817,-9.52072811126709,-2.2424609661102295
1697211291130224400,29.097224365234375,0.10952500253915787,-9.552658081054688,-2.2147560119628906
1697211291149062000,29.116061767578124,-0.5617889761924744,-9.550474166870117,-2.154818058013916
1697211291167899600,29.134899658203125,-1.2281570434570312,-9.509978294372559,-2.0548360347747803
1697211291186737400,29.1537373046875,-1.796774983406067,-9.44074821472168,-1.9530099630355835
1697211291205575000,29.172574951171875,-2.243567943572998,-9.346413612365723,-1.9445610046386719
1697211291224412700,29.19141259765625,-2.614375114440918,-9.232221603393555,-2.0252230167388916
1697211291243250200,29.210250244140624,-2.9573891162872314,-9.102873802185059,-2.1358659267425537
1697211291262088000,29.229087890625,-3.3316900730133057,-8.950230598449707,-2.2279229164123535
1697211291280925700,29.24792578125,-3.7671709060668945,-8.7644624710083,-2.2722249031066895
1697211291299763200,29.26676318359375,-4.250973224639893,-8.532320022583008,-2.3019869327545166
1697211291318601000,29.28560107421875,-4.692669868469238,-8.293878555297852,-2.3153469562530518
1697211291337438500,29.3044384765625,-5.023595809936523,-8.116620063781738,-2.2481980323791504
1697211291356276200,29.323276123046874,-5.3080058097839355,-7.997766971588135,-2.0077950954437256
1697211291375114000,29.342114013671875,-5.548839092254639,-7.885319232940674,-1.7895660400390625
1697211291393951700,29.36095166015625,-5.794789791107178,-7.703649044036865,-1.8012850284576416
1697211291412789200,29.379789306640625,-6.044577121734619,-7.474943161010742,-1.9387379884719849
1697211291431627000,29.398626953125,-6.239119052886963,-7.266589164733887,-2.107245922088623
1697211291450464500,29.417464599609374,-6.338688850402832,-7.115800857543945,-2.314474105834961
1697211291469302000,29.436302001953123,-6.312949180603027,-7.065762042999268,-2.5282559394836426
1697211291488139800,29.455139892578124,-6.133756160736084,-7.156352996826172,-2.708143949508667
1697211291506977500,29.4739775390625,-5.775845050811768,-7.391846179962158,-2.8584280014038086
1697211291525815000,29.49281494140625,-5.319784164428711,-7.7093048095703125,-2.9046380519866943
1697211291544652800,29.51165283203125,-5.282261848449707,-7.853638172149658,-2.566807985305786
1697211291563490300,29.530490234375,-5.443178176879883,-7.749116897583008,-2.5482120513916016
1697211291582327800,29.549327880859376,-5.69335412979126,-7.422195911407471,-2.9439949989318848
1697211291601165800,29.568165771484374,-5.835453987121582,-7.185647010803223,-3.2379560470581055
1697211291620003300,29.58700341796875,-5.976168155670166,-7.0311970710754395,-3.319350004196167
1697211291638840800,29.6058408203125,-6.191714763641357,-6.832040786743164,-3.3401010036468506
1697211291657678600,29.6246787109375,-6.228575229644775,-6.746800899505615,-3.443243980407715
1697211291676516400,29.643516357421873,-6.182472229003906,-6.792026996612549,-3.4374101161956787
1697211291695353900,29.662353759765626,-6.161771774291992,-6.803178787231445,-3.452493906021118
1697211291714191600,29.681191650390623,-5.9889631271362305,-6.990593910217285,-3.3814640045166016
1697211291733029000,29.700029052734376,-5.811106204986572,-7.162510871887207,-3.331648111343384
1697211291751867100,29.7188671875,-5.642094135284424,-7.326710224151611,-3.264430046081543
1697211291770704600,29.73770458984375,-5.317450046539307,-7.601966857910156,-3.1788721084594727
1697211291789542100,29.756542236328126,-4.893731117248535,-7.936089992523193,-3.0397849082946777
1697211291808379600,29.775379638671875,-4.476928234100342,-8.242045402526855,-2.8628969192504883
1697211291827217400,29.794217529296876,-4.128293037414551,-8.468356132507324,-2.722968101501465
1697211291846055200,29.81305517578125,-3.8591771125793457,-8.616768836975098,-2.6511290073394775
1697211291864893000,29.831892822265626,-3.550935983657837,-8.737879753112793,-2.6852779388427734
1697211291883730200,29.850730224609375,-3.076986074447632,-8.87028694152832,-2.832066059112549
1697211291902568000,29.86956787109375,-2.6346828937530518,-8.995207786560059,-2.883586883544922
1697211291921405700,29.88840576171875,-2.315768003463745,-9.098281860351562,-2.8335249423980713
1697211291940243200,29.9072431640625,-2.0317070484161377,-9.198007583618164,-2.7274909019470215
1697211291959080700,29.926080810546875,-1.7119439840316772,-9.296244621276855,-2.6114120483398438
1697211291977918200,29.944918212890624,-1.3695199489593506,-9.378063201904297,-2.519270896911621
1697211291996756000,29.963755859375,-1.0429279804229736,-9.440022468566895,-2.4430809020996094
1697211292015593700,29.98259375,-0.7610229849815369,-9.479639053344727,-2.3932559490203857
1697211292034431200,30.00143115234375,-0.5358139872550964,-9.49870777130127,-2.378622055053711
1697211292053269000,30.02026904296875,-0.3604219853878021,-9.50434684753418,-2.3891220092773438
1697211292072106800,30.039106689453124,-0.17975600063800812,-9.504261016845703,-2.409799098968506
1697211292090944300,30.0579443359375,0.06746099889278412,-9.49832534790039,-2.4387829303741455
1697211292109782000,30.076781982421874,0.36401501297950745,-9.484437942504883,-2.4664430618286133
1697211292128619500,30.09561962890625,0.6431429982185364,-9.464882850646973,-2.484498977661133
1697211292147457000,30.11445703125,0.8891230225563049,-9.442864418029785,-2.492418050765991
1697211292166294800,30.133294677734376,1.1000549793243408,-9.41988468170166,-2.495206117630005
1697211292185132500,30.152132568359374,1.2217170000076294,-9.399426460266113,-2.5156679153442383
1697211292203970300,30.17097021484375,1.258641004562378,-9.381707191467285,-2.563162088394165
1697211292222807800,30.189807861328124,1.2763259410858154,-9.363452911376953,-2.6205248832702637
1697211292241645600,30.2086455078125,1.4021949768066406,-9.338234901428223,-2.6460580825805664
1697211292260483000,30.227483154296873,1.6238490343093872,-9.31479263305664,-2.601562023162842
1697211292279320600,30.246320556640626,1.816884994506836,-9.31296443939209,-2.4775009155273438
1697211292298158300,30.265158447265627,1.8040540218353271,-9.330304145812988,-2.4209940433502197
1697211292316995800,30.283995849609376,1.506309986114502,-9.3826904296875,-2.422096014022827
1697211292335833300,30.302833251953125,1.0528450012207031,-9.44730281829834,-2.410473108291626
1697211292354671000,30.321671142578126,0.5297449827194214,-9.504575729370117,-2.356442928314209
1697211292373508600,30.340508544921875,-0.03227800130844116,-9.541486740112305,-2.264815092086792
1697211292392346400,30.359346435546875,-0.6275179982185364,-9.54272747039795,-2.170941114425659
1697211292411183900,30.378183837890624,-1.1827600002288818,-9.4909029006958,-2.1666159629821777
1697211292430021600,30.397021728515625,-1.6738890409469604,-9.40169906616211,-2.230818033218384
1697211292448859100,30.415859130859374,-2.083972930908203,-9.294981956481934,-2.3304030895233154
1697211292467696600,30.434696533203127,-2.463568925857544,-9.187250137329102,-2.3865559101104736
1697211292486534400,30.453534423828124,-2.9253389835357666,-9.04521369934082,-2.407670021057129
1697211292505372200,30.4723720703125,-3.465341091156006,-8.835750579833984,-2.4680581092834473
1697211292524210000,30.4912099609375,-3.9955968856811523,-8.59123420715332,-2.5290889739990234
1697211292543047400,30.51004736328125,-4.4326348304748535,-8.367984771728516,-2.5493109226226807
1697211292561885200,30.52888525390625,-4.750785827636719,-8.191176414489746,-2.5504989624023438
1697211292580723000,30.547722900390625,-4.998929023742676,-8.071821212768555,-2.4549560546875
1697211292599560400,30.566560546875,-5.2338480949401855,-7.97694206237793,-2.268397092819214
1697211292618398000,30.58539794921875,-5.444561004638672,-7.8804612159729,-2.1036911010742188
1697211292637235500,30.6042353515625,-5.637152194976807,-7.755577087402344,-2.0600879192352295
1697211292656073200,30.6230732421875,-5.823946952819824,-7.603425979614258,-2.1071200370788574
1697211292674911000,30.641910888671877,-5.96359920501709,-7.472624778747559,-2.183060884475708
1697211292693748500,30.66074853515625,-6.035941123962402,-7.393394947052002,-2.252897024154663
1697211292712586000,30.6795859375,-6.01501989364624,-7.391199111938477,-2.315196990966797
1697211292731424000,30.698424072265624,-5.855691909790039,-7.493081092834473,-2.394784927368164
1697211292750261500,30.717261474609376,-5.550661087036133,-7.695690155029297,-2.477283000946045
1697211292769099000,30.73609912109375,-5.296621799468994,-7.887657165527344,-2.4292070865631104
1697211292787936800,30.754936767578126,-5.199124813079834,-7.971156120300293,-2.366461992263794
1697211292806774300,30.773774169921875,-5.193061828613281,-7.893174171447754,-2.6268410682678223
1697211292825612000,30.792612060546876,-5.399930953979492,-7.656591892242432,-2.8961620330810547
1697211292844449500,30.811449462890625,-5.541923999786377,-7.503245830535889,-3.0263500213623047
1697211292863287300,30.830287353515626,-5.737868785858154,-7.3762969970703125,-2.9727859497070312
1697211292882124800,30.849124755859375,-6.051784992218018,-7.150872230529785,-2.9002270698547363
1697211292900962300,30.86796240234375,-6.084630012512207,-7.029520034790039,-3.1198549270629883
1697211292919800000,30.886800048828125,-6.039838790893555,-7.009652137756348,-3.2489280700683594
1697211292938637800,30.905637939453126,-6.008823871612549,-7.018586158752441,-3.28692889213562
1697211292957475300,30.924475341796875,-5.874247074127197,-7.152435779571533,-3.2413370609283447
1697211292976312800,30.943312744140623,-5.741915225982666,-7.3075737953186035,-3.130513906478882
1697211292995150600,30.962150634765624,-5.460535049438477,-7.555784225463867,-3.0435268878936768
1697211293013988400,30.98098828125,-5.051421165466309,-7.881653785705566,-2.921147108078003
1697211293032826000,30.999826171875,-4.6045451164245605,-8.220465660095215,-2.718916893005371
1697211293051663600,31.01866357421875,-4.166466236114502,-8.518852233886719,-2.498016119003296
1697211293070501000,31.037501220703124,-3.771867036819458,-8.751106262207031,-2.315498113632202
1697211293089338600,31.056338623046877,-3.453950881958008,-8.917095184326172,-2.1739490032196045
1697211293108176100,31.075176025390626,-3.11753511428833,-9.04178237915039,-2.1673851013183594
1697211293127013600,31.094013671875,-2.6875200271606445,-9.142077445983887,-2.317337989807129
1697211293145851400,31.112851318359375,-2.313662052154541,-9.218302726745605,-2.4166669845581055
1697211293164689200,31.131689208984376,-2.039146900177002,-9.273541450500488,-2.4522879123687744
1697211293183526700,31.150526611328125,-1.799718976020813,-9.324511528015137,-2.4464008808135986
1697211293202364400,31.169364501953126,-1.5428810119628906,-9.378763198852539,-2.4142770767211914
1697211293221202200,31.1882021484375,-1.262058973312378,-9.431355476379395,-2.372154951095581
1697211293240039700,31.207039794921876,-0.9700620174407959,-9.475664138793945,-2.332632064819336
1697211293258877200,31.225877197265625,-0.6844679713249207,-9.508699417114258,-2.2992520332336426
1697211293277714700,31.244714599609374,-0.5245440006256104,-9.514023780822754,-2.3191769123077393
1697211293296552400,31.263552490234375,-0.30688801407814026,-9.523981094360352,-2.3173270225524902
1697211293315390200,31.28239013671875,-0.10993500053882599,-9.526322364807129,-2.3254079818725586
1697211293334228000,31.30122802734375,0.19505000114440918,-9.5394287109375,-2.265312910079956
1697211293353065200,31.320065185546873,0.43122199177742004,-9.545504570007324,-2.2063069343566895
1697211293371903000,31.338903076171874,0.6766669750213623,-9.531267166137695,-2.206235885620117
1697211293390740500,31.357740478515623,0.9734389781951904,-9.505410194396973,-2.206805944442749
1697211293409578500,31.37657861328125,1.2829949855804443,-9.469934463500977,-2.201061964035034
1697211293428416000,31.395416015625,1.489169955253601,-9.437643051147461,-2.209904909133911
1697211293447253500,31.41425341796875,1.5628490447998047,-9.410661697387695,-2.273181915283203
1697211293466091000,31.433091064453127,1.5783389806747437,-9.38533878326416,-2.365304946899414
1697211293484928500,31.451928466796875,1.6526360511779785,-9.358986854553223,-2.418375015258789
1697211293503766300,31.470766357421876,1.7584789991378784,-9.352136611938477,-2.3697431087493896
1697211293522603800,31.489603759765625,1.8277360200881958,-9.369003295898438,-2.247565984725952
1697211293541441800,31.50844189453125,1.6942230463027954,-9.41466999053955,-2.1596319675445557
1697211293560279300,31.527279296875,1.342250943183899,-9.48238468170166,-2.110244035720825
1697211293579116800,31.54611669921875,0.8606860041618347,-9.543841361999512,-2.084398031234741
1697211293597954300,31.564954345703125,0.2647849917411804,-9.590368270874023,-2.0310349464416504
1697211293616792000,31.5837919921875,-0.36396101117134094,-9.609160423278809,-1.9240540266036987
1697211293635629600,31.602629638671875,-0.9689409732818604,-9.58154010772705,-1.850849986076355
1697211293654467300,31.62146728515625,-1.4728330373764038,-9.518253326416016,-1.8449950218200684
1697211293673304800,31.640304931640625,-1.8798140287399292,-9.438748359680176,-1.883275032043457
1697211293692142300,31.659142333984374,-2.252608060836792,-9.341629981994629,-1.9570670127868652
1697211293710979800,31.677979736328126,-2.6619160175323486,-9.214585304260254,-2.0435309410095215
1697211293729817900,31.69681787109375,-3.2452480792999268,-9.008004188537598,-2.120048999786377
1697211293748655400,31.7156552734375,-3.8614320755004883,-8.739057540893555,-2.211029052734375
1697211293767492900,31.734492919921873,-4.362441062927246,-8.46934986114502,-2.3258650302886963
1697211293786330400,31.753330322265626,-4.772154808044434,-8.231745719909668,-2.3738749027252197
1697211293805167900,31.77216796875,-5.1326141357421875,-8.047225952148438,-2.251405954360962
1697211293824005600,31.791005615234376,-5.449577808380127,-7.903442859649658,-2.0020179748535156
1697211293842843400,31.809843505859376,-5.720461845397949,-7.75597620010376,-1.8142720460891724
1697211293861681200,31.82868115234375,-5.964901924133301,-7.562195777893066,-1.8448669910430908
1697211293880518700,31.8475185546875,-6.176479816436768,-7.353535175323486,-1.986706018447876
1697211293899356200,31.866356201171875,-6.303679943084717,-7.194095134735107,-2.1630940437316895
1697211293918193700,31.885193603515624,-6.331975936889648,-7.113224029541016,-2.3406200408935547
1697211293937031200,31.90403125,-6.227352142333984,-7.144000053405762,-2.520669937133789
1697211293955869000,31.922868896484374,-5.968495845794678,-7.3059000968933105,-2.677932024002075
1697211293974706700,31.941706787109375,-5.5624542236328125,-7.5825419425964355,-2.781101942062378
1697211293993544200,31.960544189453124,-5.2917890548706055,-7.816882133483887,-2.6577699184417725
1697211294012381700,31.979381591796876,-5.286874771118164,-7.836334228515625,-2.609827995300293
1697211294031219500,31.998219482421874,-5.4234209060668945,-7.600739002227783,-2.997612953186035
1697211294050057200,32.01705712890625,-5.6189751625061035,-7.316473960876465,-3.3266639709472656
1697211294068894700,32.035894775390624,-5.794791221618652,-7.15685510635376,-3.3719770908355713
1697211294087732200,32.05473217773437,-6.120748043060303,-6.93659782409668,-3.254293918609619
1697211294106569700,32.07356982421875,-6.298758029937744,-6.724164009094238,-3.358819007873535
1697211294125407500,32.09240747070312,-6.178549766540527,-6.753520965576172,-3.5193591117858887
1697211294144245000,32.11124487304688,-6.185181140899658,-6.749456882476807,-3.515501022338867
1697211294163082800,32.13008276367187,-6.103940963745117,-6.862346172332764,-3.438101053237915
1697211294181920500,32.14892041015625,-5.955643177032471,-7.036818027496338,-3.3442299365997314
1697211294200757800,32.1677578125,-5.666003227233887,-7.308298110961914,-3.2642860412597656
1697211294219595500,32.18659545898438,-5.284182071685791,-7.678884029388428,-3.046720027923584
1697211294238433300,32.20543334960937,-4.8324079513549805,-8.083316802978516,-2.7346351146698
1697211294257270800,32.22427075195313,-4.347157955169678,-8.444469451904297,-2.4420371055603027
1697211294276108500,32.24310864257812,-3.9250500202178955,-8.702719688415527,-2.2421090602874756
1697211294294946000,32.26194604492188,-3.6188480854034424,-8.864232063293457,-2.1212658882141113
1697211294313783600,32.28078344726563,-3.3001489639282227,-8.980051040649414,-2.1536190509796143
1697211294332621000,32.29962109375,-2.9016239643096924,-9.076728820800781,-2.3160219192504883
1697211294351459000,32.318458984375,-2.533581018447876,-9.16309642791748,-2.4060370922088623
1697211294370296600,32.33729663085938,-2.223357915878296,-9.236544609069824,-2.4317328929901123
1697211294389134000,32.356134033203126,-1.9532639980316162,-9.293349266052246,-2.447206974029541
1697211294407971600,32.3749716796875,-1.673002004623413,-9.352453231811523,-2.429624080657959
1697211294426809300,32.393809326171876,-1.3703399896621704,-9.408987998962402,-2.4007270336151123
1697211294445646800,32.412646728515625,-1.0763609409332275,-9.45496940612793,-2.369680881500244
1697211298203746000,36.17074609375,0.2325109988451004,-9.505831718444824,-2.3990659713745117
1697211298222583600,36.18958349609375,0.5325210094451904,-9.49310302734375,-2.4016270637512207
1697211298241421600,36.20842163085938,0.843874990940094,-9.4751615524292,-2.383188009262085
1697211298260259000,36.227259033203126,1.1294440031051636,-9.455849647521973,-2.341296911239624
1697211298279096600,36.2460966796875,1.2441890239715576,-9.448417663574219,-2.312959909439087
1697211298297934000,36.26493408203125,1.2170759439468384,-9.446585655212402,-2.334765911102295
1697211298316771600,36.283771484375,1.24931001663208,-9.436788558959961,-2.3572490215301514
1697211298335609000,36.30260913085937,1.44438898563385,-9.412588119506836,-2.3425090312957764
1697211298354446800,36.32144677734375,1.6718989610671997,-9.387174606323242,-2.2926158905029297
1697211298373284600,36.34028466796875,1.7837879657745361,-9.384967803955078,-2.2160489559173584
1697211298392122000,36.3591220703125,1.6666710376739502,-9.407511711120605,-2.2116339206695557
1697211298410959600,36.37795971679687,1.3473329544067383,-9.458486557006836,-2.2118189334869385
1697211298429797000,36.39679711914062,0.8980960249900818,-9.521869659423828,-2.167447090148926
1697211298448634600,36.41563452148438,0.3563160002231598,-9.57345199584961,-2.0958120822906494
1697211298467472100,36.43447216796875,-0.23000000417232513,-9.597352027893066,-2.002078056335449
1697211298486310100,36.45331005859375,-0.8203880190849304,-9.583148956298828,-1.9132729768753052
1697211298505147600,36.47214770507812,-1.360605001449585,-9.52323055267334,-1.9045319557189941
1697211298604044800,36.571044921875,-3.933948040008545,-8.671558380126953,-2.344888925552368
1697211298622882300,36.58988232421875,-4.473729133605957,-8.380830764770508,-2.4326560497283936
1697211298641720000,36.60871997070313,-4.891190052032471,-8.12392807006836,-2.4996869564056396
1697211298660557600,36.6275576171875,-5.15385103225708,-7.968461036682129,-2.472217082977295
1697211298679395000,36.64639501953125,-5.391132831573486,-7.883389949798584,-2.2267088890075684
1697211298698232600,36.665232666015626,-5.621479034423828,-7.793262958526611,-1.9581669569015503
1697211298717070300,36.6840703125,-5.863330841064453,-7.617613792419434,-1.9400310516357422
1697211298735907800,36.702907958984376,-6.109418869018555,-7.372117042541504,-2.1206820011138916
1697211298754745300,36.721745361328125,-6.299346923828125,-7.144073963165283,-2.334707021713257
1697211298773583000,36.7405830078125,-6.396472930908203,-6.982473850250244,-2.5496280193328857
1697211298792420600,36.759420654296875,-6.375796794891357,-6.9311442375183105,-2.7347469329833984
1697211298811258400,36.77825830078125,-6.199440956115723,-7.029956817626953,-2.8839359283447266
1697211298830096000,36.797095947265625,-5.858283042907715,-7.275081157684326,-2.9873239994049072
1697211298848933400,36.815933349609374,-5.418266773223877,-7.611509799957275,-2.9795420169830322
1697211298867771000,36.83477099609375,-5.329920768737793,-7.78115701675415,-2.6862480640411377
1697211298886608600,36.85360864257812,-5.337070941925049,-7.72417688369751,-2.83251690864563
1697211298905446100,36.87244604492187,-5.474743843078613,-7.417046070098877,-3.3444039821624756
1697211298924284000,36.89128393554687,-5.706809043884277,-7.116314888000488,-3.600109100341797
1697211298943121200,36.91012109375,-5.974827766418457,-6.938053131103516,-3.5121560096740723
1697211298961958700,36.92895874023438,-6.3379130363464355,-6.680062770843506,-3.373133897781372
1697211298980796200,36.94779614257813,-6.381303787231445,-6.50425910949707,-3.625464916229248
1697211298999634000,36.96663403320313,-6.334309101104736,-6.454390048980713,-3.7931249141693115
1697211299018471400,36.98547143554688,-6.320435047149658,-6.504854202270508,-3.729522943496704
1697211299037309200,37.00430908203125,-6.240249156951904,-6.687747955322266,-3.5360639095306396
1697211299056146700,37.02314672851563,-6.059537887573242,-6.955268859863281,-3.328162908554077
1697211299074984200,37.041984130859376,-5.760197162628174,-7.327805995941162,-3.0485730171203613
1697211299093821700,37.06082177734375,-5.370014190673828,-7.731871128082275,-2.7480039596557617
1697211299112659200,37.0796591796875,-4.924745082855225,-8.125541687011719,-2.42751407623291
1697211299131497200,37.09849731445313,-4.490696907043457,-8.453471183776855,-2.131402015686035
1697211299150334700,37.117334716796876,-4.119412899017334,-8.682021141052246,-1.9553370475769043
1697211299169172200,37.136172119140625,-3.778501033782959,-8.84383487701416,-1.918300986289978
1697211299188009700,37.155009765625,-3.367223024368286,-8.98299789428711,-2.0341920852661133
1697211299206847200,37.17384716796875,-2.90476393699646,-9.096550941467285,-2.2328169345855713
1697211299225685000,37.19268505859375,-2.5226080417633057,-9.182599067687988,-2.3423759937286377
1697211299244522500,37.2115224609375,-2.20542311668396,-9.262564659118652,-2.3476428985595703
1697211299263360000,37.23036010742187,-1.906046986579895,-9.335755348205566,-2.3197109699249268
1697211299282197800,37.24919775390625,-1.5995019674301147,-9.401350975036621,-2.286175012588501
1697211299301035000,37.26803491210938,-1.2976089715957642,-9.455594062805176,-2.253519058227539
1697211299319873000,37.286873046875,-1.0150320529937744,-9.498570442199707,-2.2174949645996094
1697211299338710300,37.30571020507813,-0.7580879926681519,-9.52126693725586,-2.2228689193725586
1697211299357548000,37.32454809570312,-0.5339140295982361,-9.528308868408203,-2.2575840950012207
1697211299376385500,37.34338549804688,-0.31568700075149536,-9.525620460510254,-2.3094000816345215
1697211299395223000,37.36222314453125,-0.06348200142383575,-9.515737533569336,-2.370047092437744
1697211299414060500,37.381060546875,0.252934992313385,-9.49932861328125,-2.4226479530334473
1697211299432898300,37.39989819335938,0.5862950086593628,-9.479853630065918,-2.4411110877990723
1697211299451735600,37.418735595703126,0.9045619964599609,-9.458005905151367,-2.4286420345306396
1697211299470573600,37.43757348632813,1.1659250259399414,-9.435596466064453,-2.4042809009552
1697211299489411000,37.4564111328125,1.309272050857544,-9.417186737060547,-2.402661085128784
1697211299508248600,37.47524853515625,1.3169959783554077,-9.404878616333008,-2.446259021759033
1697211299527086000,37.494086181640625,1.3090150356292725,-9.39669418334961,-2.481734037399292
1697211299545923600,37.512923583984374,1.3858020305633545,-9.389930725097656,-2.4655959606170654
1697211299564761000,37.53176098632812,1.5016529560089111,-9.39140796661377,-2.3910000324249268
1697211299583598800,37.550598876953124,1.5893540382385254,-9.409002304077148,-2.261643886566162
1697211299602436600,37.5694365234375,1.4492700099945068,-9.449482917785645,-2.185699939727783
1697211299621274000,37.588274169921874,1.0725849866867065,-9.498414993286133,-2.190903902053833
1697211299640111600,37.60711157226562,0.5713080167770386,-9.541367530822754,-2.192333936691284
1697211299658949000,37.62594921875,0.0033909999765455723,-9.570281982421875,-2.1401150226593018
1697211299677786600,37.64478662109375,-0.6241329908370972,-9.570189476013184,-2.047528028488159
1697211299696624000,37.6636240234375,-1.232895016670227,-9.523327827453613,-1.9891170263290405
1697211299715461600,37.68246166992188,-1.758409023284912,-9.433443069458008,-2.0220210552215576
1697211299734299400,37.70129931640625,-2.2115960121154785,-9.321455955505371,-2.0951640605926514
1697211299753137000,37.72013696289063,-2.6177449226379395,-9.19908618927002,-2.1667110919952393
1697211299771974700,37.738974609375,-2.978498935699463,-9.064742088317871,-2.264816999435425
1697211299790812200,37.75781225585938,-3.382554054260254,-8.888920783996582,-2.3907759189605713
1697211299809649700,37.77664965820313,-3.8724019527435303,-8.666366577148438,-2.4635350704193115
1697211299828487400,37.7954873046875,-4.356287002563477,-8.427504539489746,-2.4840199947357178
1697211299847325000,37.814324951171876,-4.772265911102295,-8.215184211730957,-2.430354118347168
1697211299866162400,37.833162353515625,-5.094611167907715,-8.065958976745605,-2.270608901977539
1697211299885000000,37.852,-5.343332767486572,-7.973083972930908,-2.0122509002685547
1697211299903837400,37.87083740234375,-5.601157188415527,-7.829690933227539,-1.8690600395202637
1697211299922675000,37.889675048828124,-5.842350959777832,-7.638669013977051,-1.9204380512237549
1697211299941512700,37.9085126953125,-6.083559989929199,-7.421227931976318,-2.0214149951934814
1697211299960350500,37.9273505859375,-6.278773784637451,-7.213919162750244,-2.169512987136841
1697211299979188000,37.94618798828125,-6.384457111358643,-7.061243057250977,-2.3554139137268066
1697211299998025500,37.965025390625,-6.360504150390625,-7.025203227996826,-2.52209210395813
1697211300016863000,37.98386303710937,-6.190578937530518,-7.131740093231201,-2.642988920211792
1697211300035700500,38.00270043945312,-5.8563408851623535,-7.376111030578613,-2.732522964477539
1697211300054538200,38.02153833007812,-5.424152851104736,-7.700170040130615,-2.730626106262207
1697211300073375700,38.04037573242187,-5.271296977996826,-7.892563819885254,-2.468050003051758
1697211300092213200,38.05921313476563,-5.222503185272217,-7.894134998321533,-2.5648601055145264
1697211300111051000,38.07805102539062,-5.382532119750977,-7.626038074493408,-3.007038116455078
1697211300129888500,38.09688842773438,-5.589786052703857,-7.355741024017334,-3.289033889770508
1697211300148726000,38.11572607421875,-5.891871929168701,-7.140032768249512,-3.2366890907287598
1697211300167563500,38.1345634765625,-6.251787185668945,-6.878225803375244,-3.1265931129455566
1697211300186401300,38.1534013671875,-6.181077003479004,-6.8140130043029785,-3.3961620330810547
1697211300205238800,38.17223876953125,-6.202412128448486,-6.652299880981445,-3.667069911956787
1697211300224076300,38.191076171875,-6.100067138671875,-6.669252872467041,-3.805349111557007
1697211300242913800,38.209913818359375,-6.002447128295898,-6.902703762054443,-3.534646987915039
1697211300261751600,38.22875146484375,-5.91246223449707,-7.088115215301514,-3.3123769760131836
1697211300280588800,38.2475888671875,-5.667453765869141,-7.35127592086792,-3.1637160778045654
1697211300299426600,38.266426513671874,-5.30413818359375,-7.704098224639893,-2.946765899658203
1697211300318264300,38.285264404296875,-4.851624965667725,-8.10671329498291,-2.6293230056762695
1697211300337101800,38.304101806640624,-4.330753803253174,-8.500112533569336,-2.2722339630126953
1697211300355939300,38.32293920898437,-3.8224198818206787,-8.808695793151855,-1.9915800094604492
1697211300374776800,38.34177685546875,-3.414980888366699,-9.012823104858398,-1.8103389739990234
1697211300393614300,38.3606142578125,-3.1104021072387695,-9.143094062805176,-1.7028290033340454
1697211300412451800,38.37945190429687,-2.768817901611328,-9.244551658630371,-1.7442229986190796
1697211300431289600,38.39828955078125,-2.3264639377593994,-9.331965446472168,-1.9163539409637451
1697211300450127000,38.41712719726563,-1.960618019104004,-9.398221015930176,-1.999959945678711
1697211300468964900,38.43596484375,-1.7142980098724365,-9.448225021362305,-1.9906330108642578
1697211300487802000,38.45480200195313,-1.522799015045166,-9.489458084106445,-1.9497840404510498
1697211300506640000,38.47363989257813,-1.3251010179519653,-9.528255462646484,-1.9044259786605835
1697211300525477400,38.492477294921876,-1.111467957496643,-9.5609130859375,-1.8772319555282593
1697211300544315100,38.51131518554688,-0.9118430018424988,-9.582099914550781,-1.8767800331115723
1697211300563152400,38.53015234375,-0.7400559782981873,-9.5912446975708,-1.9054549932479858
1697211300581990400,38.54899047851563,-0.5508009791374207,-9.59646224975586,-1.9429130554199219
1697211300600827600,38.56782763671875,-0.2936359941959381,-9.601019859313965,-1.976004958152771
1697211300619665200,38.5866650390625,0.00965999998152256,-9.598797798156738,-2.008328914642334
1697211300638502700,38.605502685546874,0.33396100997924805,-9.587800025939941,-2.0329689979553223
1697211300657340400,38.62434033203125,0.6619910001754761,-9.568635940551758,-2.0428850650787354
1697211300676178000,38.643177978515624,0.9780629873275757,-9.542314529418945,-2.0391221046447754
1697211300695015700,38.662015625,1.1951229572296143,-9.513482093811035,-2.0580921173095703
1697211300713853200,38.680853271484374,1.2710100412368774,-9.493664741516113,-2.1036269664764404
1697211300732690700,38.69969067382812,1.2804739475250244,-9.476334571838379,-2.17482590675354
1697211300751528200,38.71852807617187,1.3404040336608887,-9.45688247680664,-2.222853899002075
1697211300770366000,38.73736596679687,1.4910119771957397,-9.438703536987305,-2.2041149139404297
1697211300789203200,38.756203125,1.650560975074768,-9.435456275939941,-2.101952075958252
1697211300808040700,38.77504077148438,1.6689879894256592,-9.458501815795898,-1.9803129434585571
1697211300826878700,38.79387866210938,1.4777230024337769,-9.505105018615723,-1.9078060388565063
1697211300845716200,38.81271630859375,1.124912977218628,-9.56620979309082,-1.841897964477539
1697211300864553700,38.8315537109375,0.6809539794921875,-9.618432998657227,-1.786749005317688
1697211300883391200,38.85039111328125,0.1748570054769516,-9.650750160217285,-1.7328749895095825
1697211300902228700,38.869228759765626,-0.4045250117778778,-9.652789115905762,-1.6823819875717163
1697211300921066200,38.888066162109375,-0.9952570199966431,-9.612573623657227,-1.6668189764022827
1697211300939904000,38.906904052734376,-1.51802396774292,-9.537568092346191,-1.7031790018081665
1697211300958741500,38.925741455078125,-1.9638559818267822,-9.444336891174316,-1.7658360004425049
1697211300977579000,38.9445791015625,-2.371380090713501,-9.3375825881958,-1.8320809602737427
1697211300996416500,38.96341650390625,-2.7899088859558105,-9.204459190368652,-1.9143489599227905
1697211301015254000,38.98225390625,-3.248276948928833,-9.035179138183594,-1.9961479902267456
1697211301034091800,39.001091796875,-3.7525370121002197,-8.822344779968262,-2.0627880096435547
1697211301052929300,39.01992919921875,-4.264486789703369,-8.575239181518555,-2.109457015991211
1697211301071767000,39.03876708984375,-4.714366912841797,-8.341750144958496,-2.088146924972534
1697211301090604500,39.0576044921875,-5.103499889373779,-8.130532264709473,-2.0047719478607178
1697211301109442000,39.07644213867187,-5.437326908111572,-7.942777156829834,-1.8756860494613647
1697211301128279600,39.09527954101563,-5.696127891540527,-7.7911458015441895,-1.7385460138320923
1697211301147117000,39.11411694335938,-5.908215045928955,-7.644382953643799,-1.681311011314392
1697211301165954600,39.13295458984375,-6.08144998550415,-7.488348007202148,-1.763808012008667
1697211301184792300,39.15179223632813,-6.1930317878723145,-7.346090793609619,-1.9625810384750366
1697211301203629800,39.1706298828125,-6.24136209487915,-7.240472793579102,-2.1889100074768066
1697211301222467600,39.18946752929688,-6.2169270515441895,-7.208794116973877,-2.356580972671509
1697211301241305000,39.20830517578125,-6.0757927894592285,-7.284030914306641,-2.4895849227905273
1697211301260142600,39.227142578125,-5.780735969543457,-7.486880779266357,-2.5884530544281006
1697211301278980000,39.24597998046875,-5.384130001068115,-7.779943943023682,-2.579535961151123
1697211301297817600,39.264817626953125,-5.177952766418457,-7.966846942901611,-2.4266281127929688
1697211301316655000,39.283655029296874,-5.056976795196533,-7.9598388671875,-2.6904149055480957
1697211301335492900,39.302492919921875,-5.2188849449157715,-7.695205211639404,-3.117280960083008
1697211301354330400,39.321330322265624,-5.43902587890625,-7.44862699508667,-3.3324759006500244
1697211301373167900,39.34016796875,-5.668410778045654,-7.292938232421875,-3.294327974319458
1697211301392005400,39.35900537109375,-5.997806072235107,-7.095527172088623,-3.138511896133423
1697211301410843100,39.37784301757812,-5.996273040771484,-7.046595096588135,-3.2497010231018066
1697211301429681000,39.39668090820312,-5.889741897583008,-7.06517219543457,-3.400692939758301
1697211301448518400,39.41551831054687,-5.8942742347717285,-6.9969658851623535,-3.5313520431518555
1697211301467356000,39.43435595703125,-5.8039679527282715,-7.106118202209473,-3.462290048599243
1697211301486193400,39.453193359375,-5.720989227294922,-7.20039176940918,-3.405150890350342
1697211301505031000,39.47203100585938,-5.5348639488220215,-7.329726219177246,-3.43668794631958
1697211301523868400,39.49086840820313,-5.244531154632568,-7.532703876495361,-3.4530680179595947
1697211301542706200,39.5097060546875,-4.964526176452637,-7.774316787719727,-3.3292460441589355
1697211301561544000,39.5285439453125,-4.691716194152832,-8.032537460327148,-3.104283094406128
1697211301580381400,39.54738134765625,-4.414900779724121,-8.267375946044922,-2.886096954345703
1697211301599218700,39.56621875,-4.078046798706055,-8.474427223205566,-2.7792060375213623
1697211301618056200,39.58505615234375,-3.5699269771575928,-8.67399787902832,-2.8614299297332764
1697211301636893700,39.603893798828125,-3.077177047729492,-8.833163261413574,-2.9456100463867188
1697211301655731500,39.6227314453125,-2.7118399143218994,-8.963342666625977,-2.9111530780792236
1697211301674569000,39.64156884765625,-2.451864004135132,-9.063577651977539,-2.830251932144165
1697211301693406700,39.66040673828125,-2.2365260124206543,-9.155680656433105,-2.7095839977264404
1697211301712244200,39.679244140625,-1.993101954460144,-9.246729850769043,-2.587651014328003
1697211301731081700,39.69808178710937,-1.6686300039291382,-9.323266983032227,-2.5422000885009766
1697211301749919200,39.71691918945312,-1.2886229753494263,-9.3891019821167,-2.5208349227905273
1697211301768757000,39.73575708007812,-0.8914750218391418,-9.449604034423828,-2.4659030437469482
1697211301787594500,39.75459448242187,-0.5303980112075806,-9.488232612609863,-2.4212629795074463
1697211301806432000,39.77343188476563,-0.27964699268341064,-9.492609024047852,-2.4459280967712402
1697211301825269800,39.79226977539062,-0.0985879972577095,-9.480520248413086,-2.5060760974884033
1697211301844107000,39.81110693359375,0.1076740026473999,-9.461808204650879,-2.575455904006958
1697211301862944500,39.82994458007813,0.336995005607605,-9.442256927490234,-2.6269009113311768
1697211301881782300,39.8487822265625,0.5420399904251099,-9.42695140838623,-2.647484064102173
1697211301900619800,39.86761987304688,0.724822998046875,-9.414770126342773,-2.647099018096924
1697211301919457300,39.886457275390626,0.899653971195221,-9.402947425842285,-2.635451078414917
1697211301938295000,39.905294921875,0.8324289917945862,-9.405248641967773,-2.6492910385131836
1697211301957132500,39.924132568359376,0.8659200072288513,-9.39076042175293,-2.6896469593048096
1697211301975970000,39.942969970703125,0.8939610123634338,-9.37417221069336,-2.7379040718078613
1697211301994807600,39.9618076171875,0.9909579753875732,-9.361133575439453,-2.7491021156311035
1697211302013645000,39.98064501953125,1.0986640453338623,-9.357208251953125,-2.7213900089263916
1697211302032482800,39.99948291015625,1.079252004623413,-9.372904777526855,-2.674746036529541
1697211302051320600,40.018320556640624,0.898684024810791,-9.402263641357422,-2.638216972351074
1697211302070158000,40.03715795898437,0.5764210224151611,-9.431217193603516,-2.624937057495117
1697211303398205700,41.365205810546875,-0.977836012840271,-9.366376876831055,-2.7359139919281006
1697211303417043200,41.384043212890624,-1.4809399843215942,-9.30527114868164,-2.7183001041412354
1697211303435881000,41.402880859375,-1.9471850395202637,-9.216506004333496,-2.7266979217529297
1697211303454718500,41.421718505859374,-2.3647220134735107,-9.113944053649902,-2.7412619590759277
1697211303473556000,41.44055590820312,-2.7581489086151123,-8.990120887756348,-2.78222393989563
1697211303492393700,41.459393798828124,-3.2085299491882324,-8.80673599243164,-2.8839409351348877
1697211303511231200,41.47823120117187,-3.704561948776245,-8.563346862792969,-3.0192220211029053
1697211303530069000,41.497069091796874,-4.166804790496826,-8.299168586730957,-3.1514968872070312
1697211303548906200,41.51590625,-4.554340839385986,-8.058725357055664,-3.238110065460205
1697211303567744000,41.53474389648437,-4.855897903442383,-7.885096073150635,-3.227372884750366
1697211303586581500,41.55358154296875,-5.0929107666015625,-7.805519104003906,-3.0506598949432373
1697211303605419000,41.5724189453125,-5.30980110168457,-7.7750139236450195,-2.743278980255127
1697211303624256500,41.59125659179688,-5.482859134674072,-7.748719215393066,-2.462930917739868
1697211303643094000,41.61009399414063,-5.587700843811035,-7.7079010009765625,-2.3529269695281982
1697211303661931500,41.628931640625,-5.650310039520264,-7.625977993011475,-2.4675679206848145
1697211303680769000,41.64776904296875,-5.70921516418457,-7.5225911140441895,-2.643079996109009
1697211303699606800,41.666606689453126,-5.767867088317871,-7.432401180267334,-2.7679378986358643
1697211303718444500,41.685444580078126,-5.79567813873291,-7.374251842498779,-2.863723039627075
1697211303737281800,41.70428173828125,-5.734474182128906,-7.3751301765441895,-2.9822330474853516
1697211303756119600,41.72311962890625,-5.511666774749756,-7.464628219604492,-3.1735219955444336
1697211303774957000,41.74195703125,-5.419503211975098,-7.537563800811768,-3.159820079803467
1697211303793794600,41.760794677734374,-5.3764967918396,-7.55745792388916,-3.185667037963867
1697211303812632000,41.77963208007812,-5.325263977050781,-7.459840774536133,-3.4875121116638184
1697211303831469800,41.7984697265625,-5.368480205535889,-7.257718086242676,-3.8308451175689697
1697211303850307300,41.81730737304687,-5.385818958282471,-7.127985000610352,-4.044155120849609
1697211303869144800,41.83614477539062,-5.56649923324585,-6.974165916442871,-4.067619800567627
1697211303887982300,41.854982421875,-5.825689792633057,-6.715702056884766,-4.13897180557251
1697211303906819800,41.87381982421875,-5.75569486618042,-6.684059143066406,-4.285528182983398
1697211303925657300,41.8926572265625,-5.710680961608887,-6.719499111175537,-4.290317058563232
1697211303944495000,41.9114951171875,-5.7154622077941895,-6.728507041931152,-4.269784927368164
1697211303963332600,41.93033251953125,-5.591856956481934,-6.828836917877197,-4.274172782897949
1697211303982170000,41.94917016601563,-5.39577579498291,-6.955018997192383,-4.322461128234863
1697211304001007600,41.968007568359376,-5.103862762451172,-7.135085105895996,-4.383098125457764
1697211304019845400,41.98684545898438,-4.769960880279541,-7.37944221496582,-4.354506969451904
1697211304038683000,42.005682861328125,-4.431180953979492,-7.652729034423828,-4.239191055297852
1697211325211965400,63.17896533203125,-3.711894989013672,-8.992758750915527,-1.2339140176773071
1697211325230803200,63.19780322265625,-4.203869819641113,-8.745905876159668,-1.4166909456253052
1697211325249640400,63.216640380859374,-4.78322696685791,-8.424047470092773,-1.5253100395202637
1697211325268477400,63.2354775390625,-5.278473854064941,-8.115930557250977,-1.5619759559631348
1697211325287315000,63.25431494140625,-5.630640029907227,-7.874989032745361,-1.5655109882354736
1697211325306152200,63.273152099609376,-5.910110950469971,-7.684635162353516,-1.4789639711380005
1697211325324989400,63.291989501953125,-6.103548049926758,-7.566247940063477,-1.2919080257415771
1697211325343827000,63.310826904296874,-6.2573041915893555,-7.4624738693237305,-1.1524029970169067
1697211325362664200,63.32966430664062,-6.409333229064941,-7.320466041564941,-1.2254019975662231
1697211325381501700,63.34850170898437,-6.536972999572754,-7.154869079589844,-1.498731017112732
1697211325400339000,63.3673388671875,-6.629103183746338,-7.006657123565674,-1.7697949409484863
1697211325419176200,63.38617626953125,-6.657924175262451,-6.9103617668151855,-2.022214889526367
1697211325438013400,63.405013427734374,-6.559403896331787,-6.930014133453369,-2.2626309394836426
1697211325456851000,63.42385083007812,-6.31798791885376,-7.093970775604248,-2.4349539279937744
1697211325475688200,63.44268823242187,-6.101061820983887,-7.297543048858643,-2.386070966720581
1697211325494525400,63.461525390625,-6.100296974182129,-7.3499250411987305,-2.2215769290924072
1697211325513363000,63.48036303710938,-6.075719833374023,-7.233788967132568,-2.6321771144866943
1697211325532200200,63.4992001953125,-6.181835174560547,-6.897103786468506,-3.222611904144287
1697211325551037400,63.51803735351562,-6.32986307144165,-6.653904914855957,-3.4393088817596436
1697211325569875000,63.536875,-6.560783863067627,-6.4563751220703125,-3.382559061050415
1697211325588712200,63.55571215820312,-6.834469795227051,-6.114227771759033,-3.475142002105713
1697211325607549700,63.5745498046875,-6.763605117797852,-5.909008979797363,-3.937985897064209
1697211325626387000,63.59338696289063,-6.729833126068115,-5.905154228210449,-4.00111198425293
1697211325645224200,63.61222412109375,-6.806540012359619,-5.935201168060303,-3.8229269981384277
1697211325664061400,63.6310615234375,-6.7503437995910645,-6.040572166442871,-3.756956100463867
1697211325682898700,63.64989868164062,-6.621169090270996,-6.307743072509766,-3.541590929031372
1697211325701736200,63.66873608398438,-6.4361701011657715,-6.7540788650512695,-3.0213499069213867
1697211325720573400,63.68757348632813,-6.164038181304932,-7.216132164001465,-2.4703190326690674
1697211325739410700,63.70641064453125,-5.8072381019592285,-7.6337738037109375,-2.0425169467926025
1697211325758248200,63.725248291015625,-5.429462909698486,-7.970242023468018,-1.7794820070266724
1697211325777085400,63.74408544921875,-5.032462120056152,-8.25041389465332,-1.6659560203552246
1697211325795922700,63.76292260742188,-4.6068949699401855,-8.49860954284668,-1.6494059562683105
1697211325814760200,63.78176025390625,-4.174617767333984,-8.707477569580078,-1.7096140384674072
1697211325833597700,63.80059765625,-3.758194923400879,-8.881552696228027,-1.7788699865341187
1697211325852434700,63.8194345703125,-3.3607630729675293,-9.03797721862793,-1.786234974861145
1697211325871272200,63.838272216796874,-3.0020980834960938,-9.166712760925293,-1.7689540386199951
1697211325890109400,63.857109375,-2.66316294670105,-9.276948928833008,-1.7367180585861206
1697211325908946700,63.87594677734375,-2.3115038871765137,-9.368650436401367,-1.7480679750442505
1697211325927784000,63.894783935546876,-1.9611870050430298,-9.439285278320312,-1.795562982559204
1697211325946621400,63.913621337890625,-1.653277039527893,-9.488066673278809,-1.8476120233535767
1697211325965458700,63.932458740234374,-1.411553978919983,-9.521525382995605,-1.875756025314331
1697211325984296000,63.9512958984375,-1.1981359720230103,-9.553571701049805,-1.8612240552902222
1697211326003133400,63.97013354492187,-0.972216010093689,-9.578469276428223,-1.8649779558181763
1697211326021970700,63.988970703125,-0.7476890087127686,-9.585542678833008,-1.9309899806976318
1697211326040808200,64.00780810546875,-0.5025399923324585,-9.597859382629395,-1.9490890502929688
1697211326059645400,64.0266455078125,-0.2480120062828064,-9.60433292388916,-1.9661389589309692
1697211326078482700,64.04548266601563,0.002520000096410513,-9.607192993164062,-1.9678030014038086
1697211326097320000,64.06431982421876,0.2552419900894165,-9.605927467346191,-1.957406997680664
1697211326116157400,64.08315747070313,0.5276029706001282,-9.597749710083008,-1.9430019855499268
1697211326134994700,64.10199462890625,0.7359110116958618,-9.587174415588379,-1.9274159669876099
1697211326153832000,64.12083203125,0.8716520071029663,-9.576037406921387,-1.926169991493225
1697211326172669200,64.13966918945313,0.9988160133361816,-9.572461128234863,-1.8816920518875122
1697211326191506700,64.15850659179688,1.0692050457000732,-9.578141212463379,-1.8128470182418823
1697211326210344200,64.17734423828125,1.0206660032272339,-9.594111442565918,-1.7554700374603271
1697211326229181400,64.19618139648438,0.7910900115966797,-9.61916446685791,-1.736732006072998
1697211326248018700,64.21501879882813,0.414669007062912,-9.647894859313965,-1.7078009843826294
1697211326266856000,64.23385595703125,-0.043738000094890594,-9.65980339050293,-1.6901689767837524
1697211326285693400,64.252693359375,-0.5856930017471313,-9.642361640930176,-1.6888519525527954
1697211326304530700,64.27153076171875,-1.209656000137329,-9.58743953704834,-1.6697609424591064
1697211326323368000,64.29036791992188,-1.816809058189392,-9.50090217590332,-1.6132149696350098
1697211326342205400,64.30920532226563,-2.3160929679870605,-9.401686668395996,-1.5538369417190552
1697211326361042700,64.32804272460938,-2.736901044845581,-9.287206649780273,-1.5580699443817139
1697211326379880000,64.3468798828125,-3.1383230686187744,-9.146951675415039,-1.6292959451675415
1697211326398717200,64.36571728515625,-3.5379090309143066,-8.974974632263184,-1.7616560459136963
1697211326417554700,64.3845546875,-3.995305061340332,-8.7407808303833,-1.9510730504989624
1697211326436392000,64.40339184570313,-4.512915134429932,-8.440986633300781,-2.13395094871521
1697211326455229200,64.42222924804688,-5.0026750564575195,-8.123991012573242,-2.2681310176849365
1697211335417086200,73.38408618164063,-6.073124885559082,-7.438148021697998,-1.9903570413589478
1697211335435923500,73.40292333984375,-5.612825870513916,-7.839896202087402,-1.7895760536193848
1697211335454760700,73.4217607421875,-5.150510787963867,-8.224594116210938,-1.4137580394744873
1697211335473598000,73.44059790039063,-4.691339015960693,-8.547122955322266,-1.0528340339660645
1697211335492435500,73.459435546875,-4.272481918334961,-8.791817665100098,-0.7875580191612244
1697211335511272700,73.47827270507813,-3.943537950515747,-8.95726490020752,-0.6215800046920776
1697211335530110200,73.49711010742188,-3.6320769786834717,-9.090380668640137,-0.5859929919242859
1697211335548947200,73.515947265625,-3.2133729457855225,-9.23721981048584,-0.7200019955635071
1697211335567784700,73.53478466796875,-2.8131840229034424,-9.359796524047852,-0.8065919876098633
1697211335586622000,73.5536220703125,-2.524976968765259,-9.444210052490234,-0.7757369875907898
1697211335605459200,73.57245922851563,-2.2927238941192627,-9.509977340698242,-0.6885769963264465
1697211335624296400,73.59129638671875,-2.038464069366455,-9.572429656982422,-0.6194159984588623
1697211335643133700,73.6101337890625,-1.7575509548187256,-9.630782127380371,-0.5739889740943909
1697211335661971200,73.62897119140625,-1.4826689958572388,-9.679149627685547,-0.5349050164222717
1697211335680808400,73.64780834960938,-1.2636480331420898,-9.7113037109375,-0.5139849781990051
1697211335699645700,73.66664575195313,-1.0793689489364624,-9.732521057128906,-0.5323500037193298
1697211335718483200,73.68548315429688,-0.884975016117096,-9.750333786010742,-0.5640820264816284
1697211335737320400,73.70432055664062,-0.6452000141143799,-9.767847061157227,-0.585902988910675
1697211335756157700,73.72315771484375,-0.3692519962787628,-9.780784606933594,-0.6085349917411804
1697211335774995200,73.7419951171875,-0.0641380026936531,-9.786816596984863,-0.6200780272483826
1697211335793832400,73.76083251953125,0.28369200229644775,-9.783384323120117,-0.612637996673584
1697211335812669700,73.77966967773438,0.583391010761261,-9.770828247070312,-0.6007930040359497
1697211335831507200,73.79850708007812,0.6951450109481812,-9.763298988342285,-0.6042760014533997
1697211335850344400,73.81734448242187,0.6564069986343384,-9.765462875366211,-0.6126019954681396
1697211335869181700,73.836181640625,0.6932730078697205,-9.763470649719238,-0.6036580204963684
1697211335888019000,73.85501904296875,0.8852319717407227,-9.751435279846191,-0.5442919731140137
1697211335906856200,73.87385620117188,1.1055940389633179,-9.73406982421875,-0.44266900420188904
1697211335925693700,73.89269360351562,1.160662055015564,-9.730714797973633,-0.3694149851799011
1697211335944531000,73.91153100585937,0.9346989989280701,-9.755537033081055,-0.35531601309776306
1697211335963368400,73.93036840820312,0.5391749739646912,-9.783625602722168,-0.4004940092563629
1697211335982205700,73.94920581054687,0.06437700241804123,-9.794927597045898,-0.4750329852104187
1697211336001043000,73.96804296875,-0.4804620146751404,-9.779508590698242,-0.5484189987182617
1697211336019880200,73.98688012695312,-1.0488920211791992,-9.735203742980957,-0.5440800189971924
1697211336876978200,74.84397827148437,-1.2525320053100586,-9.705020904541016,-0.6435189843177795
1697211336895815700,74.86281567382812,-1.0590620040893555,-9.727242469787598,-0.6553980112075806
1697211336914653000,74.88165283203125,-0.8684769868850708,-9.743426322937012,-0.6941149830818176
1697211336933490200,74.900490234375,-0.642861008644104,-9.757360458374023,-0.7423549890518188
1697211336952327700,74.91932763671875,-0.37371599674224854,-9.76760482788086,-0.7903209924697876
1697211336971165000,74.9381650390625,-0.061494000256061554,-9.772421836853027,-0.8163319826126099
1697211336990002200,74.95700219726562,0.24108600616455078,-9.770026206970215,-0.8117240071296692
1697211337008839700,74.97583959960937,0.44155099987983704,-9.76487922668457,-0.7890310287475586
1697211337027677000,74.99467700195312,0.5327100157737732,-9.762264251708984,-0.7647410035133362
1697211337046514200,75.01351416015625,0.58057701587677,-9.76233959197998,-0.7280700206756592
1697211337065351400,75.03235131835937,0.6951460242271423,-9.758536338806152,-0.6768540143966675
1697211337084189000,75.05118896484375,0.8710229992866516,-9.748456954956055,-0.6158559918403625
1697211337103026200,75.07002612304687,1.011855959892273,-9.7415771484375,-0.4982379972934723
1697211337121863700,75.08886376953124,0.9994000196456909,-9.745582580566406,-0.44182100892066956
1697211337140700700,75.10770068359375,0.766281008720398,-9.76771354675293,-0.4183160066604614
1697211337159538000,75.12653784179687,0.3782089948654175,-9.79056453704834,-0.41495099663734436
1697211337178375200,75.14537524414062,-0.11603700369596481,-9.795795440673828,-0.4464310109615326
1697211337197212700,75.16421264648437,-0.7115200161933899,-9.768936157226562,-0.4816719889640808
1697211337216050000,75.1830498046875,-1.357875943183899,-9.70163631439209,-0.45259299874305725
1697211337234887400,75.20188745117187,-1.9407490491867065,-9.606176376342773,-0.3539530038833618
1697211337253724400,75.22072436523437,-2.4355549812316895,-9.495223045349121,-0.28148800134658813
1697211337272561700,75.23956176757812,-2.8822059631347656,-9.369857788085938,-0.2628050148487091
1697211337291399200,75.25839916992187,-3.3129100799560547,-9.224934577941895,-0.3092629909515381
1697211337310236400,75.277236328125,-3.7059319019317627,-9.069782257080078,-0.41897499561309814
1697211337329073700,75.29607373046875,-4.067199230194092,-8.901471138000488,-0.6261559724807739
1697211337347911000,75.31491088867188,-4.485602855682373,-8.667261123657227,-0.9635270237922668
1697211337366748400,75.33374853515625,-4.969979763031006,-8.359033584594727,-1.2634220123291016
1697211337385585700,75.35258569335937,-5.4525909423828125,-8.04399299621582,-1.3167569637298584
1697211337404423000,75.3714228515625,-5.828884124755859,-7.801303863525391,-1.155061960220337
1697211337423260400,75.39026049804687,-6.0779829025268555,-7.642650127410889,-0.9046459794044495
1697211337442097700,75.40909765625,-6.270847797393799,-7.508317947387695,-0.6870449781417847
1697211337460935000,75.42793481445312,-6.406006813049316,-7.395439147949219,-0.6640639901161194
1697211337479772200,75.44677221679687,-6.520450115203857,-7.276949882507324,-0.8367469906806946
1697211337498609400,75.465609375,-6.6016130447387695,-7.167821884155273,-1.10063898563385
1697211337517447000,75.48444702148437,-6.612003803253174,-7.115294933319092,-1.3507059812545776
1697211337536284200,75.5032841796875,-6.518002033233643,-7.1622490882873535,-1.5453979969024658
1697211337555121400,75.52212133789062,-6.30649995803833,-7.322874069213867,-1.665516972541809
1697211337573958700,75.54095874023437,-6.037318229675293,-7.549561977386475,-1.6508389711380005
1697211337592796200,75.55979614257812,-6.046999931335449,-7.594307899475098,-1.3894920349121094
1697211337611633700,75.57863354492187,-6.094730854034424,-7.538179874420166,-1.48341703414917
1697211337630471000,75.59747094726562,-6.224221229553223,-7.294663906097412,-2.0536179542541504
1697211337649308200,75.61630810546875,-6.410837173461914,-6.994924068450928,-2.478430986404419
1697211337668145400,75.6351455078125,-6.573636054992676,-6.814846038818359,-2.5525529384613037
1697211337686982700,75.65398266601562,-6.832202911376953,-6.533160209655762,-2.6094470024108887
1697211337705820000,75.67281982421875,-6.901169776916504,-6.273352146148682,-3.031390905380249
1697211337724657400,75.69165747070312,-6.7994561195373535,-6.259498119354248,-3.2797091007232666
1697211337743494700,75.71049462890625,-6.839017868041992,-6.195766925811768,-3.31823992729187
1697211337762332000,75.72933178710937,-6.801877975463867,-6.319522857666016,-3.157291889190674
1697211337781169400,75.74816943359374,-6.7733049392700195,-6.50611686706543,-2.821923017501831
1697211337800006700,75.76700659179687,-6.608837127685547,-6.7950568199157715,-2.5141310691833496
1697211337818843600,75.78584375,-6.299513816833496,-7.176401138305664,-2.232893943786621
1697211337837681200,75.80468115234375,-5.901924133300781,-7.598421096801758,-1.8978110551834106
1697211337856518700,75.8235185546875,-5.437057018280029,-8.0148286819458,-1.539903998374939
1697211337875356000,75.84235595703124,-4.9580230712890625,-8.367974281311035,-1.2511659860610962
1697211337894193200,75.86119311523437,-4.529115200042725,-8.631974220275879,-1.0707800388336182
1697211337913030700,75.88003076171876,-4.205593109130859,-8.808218002319336,-0.947983980178833
1697211337931868000,75.89886791992187,-3.9065370559692383,-8.94796085357666,-0.9183570146560669
1697211346846626600,84.81362646484375,-2.183419942855835,-9.559500694274902,-0.13788799941539764
1697211346865463800,84.8324638671875,-2.701245069503784,-9.426151275634766,-0.1460839956998825
1697211346884301000,84.85130102539063,-3.1493570804595947,-9.284594535827637,-0.21957500278949738
1697211346903138600,84.870138671875,-3.5413289070129395,-9.139019966125488,-0.32815098762512207
1697211346921976000,84.88897607421875,-3.8790230751037598,-8.993678092956543,-0.48718199133872986
1697211346940813000,84.90781298828125,-4.17179012298584,-8.850062370300293,-0.6655420064926147
1697211346959650300,84.926650390625,-4.5756049156188965,-8.634140968322754,-0.8281580209732056
1697211346978487600,84.94548754882813,-5.130834102630615,-8.310737609863281,-0.8812500238418579
1697211346997325000,84.96432495117188,-5.67703104019165,-7.949370861053467,-0.8655959963798523
1697211347016162300,84.98316235351562,-6.119088172912598,-7.6142048835754395,-0.8666139841079712
1697211347034999600,85.00199951171875,-6.4280900955200195,-7.353607177734375,-0.8800529837608337
1697211347053837000,85.02083715820312,-6.638430118560791,-7.162017822265625,-0.898406982421875
1697211347072674300,85.03967431640625,-6.80754280090332,-6.985054969787598,-1.0182290077209473
1697211347091511800,85.05851171875,-6.956377029418945,-6.801581859588623,-1.2319430112838745
1697211347110349000,85.07734912109375,-7.077017784118652,-6.630405902862549,-1.4573719501495361
1697211347129186300,85.09618627929687,-7.13808012008667,-6.5140228271484375,-1.669052004814148
1697211347148023600,85.1150234375,-7.113210201263428,-6.499646186828613,-1.8240770101547241
1697211347166860800,85.13386083984375,-6.97774076461792,-6.620643138885498,-1.91013503074646
1697211347185698000,85.15269799804688,-6.727531909942627,-6.878681182861328,-1.8959089517593384
1697211347204535600,85.17153564453125,-6.457756042480469,-7.173871040344238,-1.7330219745635986
1697211347223372800,85.19037280273437,-6.335161209106445,-7.317861080169678,-1.5763920545578003
1697211347242210000,85.2092099609375,-6.170557975769043,-7.351263046264648,-2.0133368968963623
1697211347261047300,85.22804736328125,-6.187932014465332,-7.158873081207275,-2.5749599933624268
1697211347279884800,85.246884765625,-6.299285888671875,-6.985803127288818,-2.7727129459381104
1697211347298722000,85.26572216796875,-6.468503952026367,-6.825625896453857,-2.7820329666137695
1697211347317559300,85.28455932617187,-6.649990081787109,-6.572999954223633,-2.956976890563965
1697211347336396500,85.303396484375,-6.755021095275879,-6.294069766998291,-3.3052709102630615
1697211347355233800,85.32223388671875,-6.715793132781982,-6.212928771972656,-3.531006097793579
1697211347374071300,85.3410712890625,-6.685579776763916,-6.227293014526367,-3.5628979206085205
1697211347392908500,85.35990844726562,-6.6751389503479,-6.410030841827393,-3.2441420555114746
1697211347411745800,85.37874584960937,-6.543230056762695,-6.785942077636719,-2.703242063522339
1697211347430583300,85.39758325195312,-6.254100799560547,-7.275819778442383,-2.029550075531006
1697211347449420500,85.41642065429687,-5.851053237915039,-7.755984783172607,-1.334272027015686
1697211347468257800,85.4352578125,-5.343498229980469,-8.184585571289062,-0.7937139868736267
1697211357207130400,95.17413037109375,-2.3123559951782227,-9.52930736541748,0.1251869946718216
1697211357225967900,95.1929677734375,-2.0036940574645996,-9.598336219787598,0.16607600450515747
1697211357244804900,95.21180493164063,-1.7174229621887207,-9.653820037841797,0.15692800283432007
1697211357263642000,95.23064208984376,-1.4753570556640625,-9.694000244140625,0.1417739987373352
1697211357282479600,95.24947973632813,-1.2765549421310425,-9.72166919708252,0.17312799394130707
1697211357301316900,95.26831689453125,-1.0787420272827148,-9.745673179626465,0.16908200085163116
1697211357320154000,95.28715405273438,-0.8493080139160156,-9.768810272216797,0.13938799500465393
1697211357338991000,95.3059912109375,-0.5646730065345764,-9.78984260559082,0.10265500098466873
1697211357357828400,95.32482836914062,-0.2393369972705841,-9.803418159484863,0.07820899784564972
1697211357376665600,95.34366552734375,0.10897599905729294,-9.805784225463867,0.07152800261974335
1697211357395502600,95.36250268554687,0.4019159972667694,-9.798107147216797,0.07732199877500534
1697211357414340000,95.38134008789062,0.5393009781837463,-9.791426658630371,0.08686400204896927
1697211357433177300,95.40017724609375,0.5429279804229736,-9.791223526000977,0.08699899911880493
1697211357452014600,95.4190146484375,0.5721750259399414,-9.78931999206543,0.11054299771785736
1697211357470851800,95.43785180664062,0.6953660249710083,-9.780499458312988,0.16944700479507446
1697211357489688800,95.45668872070313,0.8684660196304321,-9.765003204345703,0.2467779964208603
1697211357508526000,95.47552612304688,0.9362429976463318,-9.756197929382324,0.33232399821281433
1697211357527363600,95.49436352539063,0.7532280087471008,-9.769393920898438,0.4024580121040344
1697211357546200600,95.51320068359375,0.3969930112361908,-9.788389205932617,0.44748398661613464
1697211357565038000,95.5320380859375,-0.03582699969410896,-9.79560661315918,0.4638949930667877
1697211357583875300,95.55087524414063,-0.5670260190963745,-9.780400276184082,0.4389509856700897
1697211357602712600,95.56971264648438,-1.1554449796676636,-9.728673934936523,0.43386098742485046
1697211357621549800,95.5885498046875,-1.714169979095459,-9.643021583557129,0.4941309988498688
1697211357640387000,95.60738696289063,-2.151705026626587,-9.549199104309082,0.5944560170173645
1697211357659224300,95.62622436523438,-2.605705976486206,-9.433721542358398,0.6209459900856018
1697211357678061300,95.64506127929687,-3.103243112564087,-9.285975456237793,0.5576379895210266
1697211357696898600,95.66389868164063,-3.5929811000823975,-9.11484146118164,0.4249710142612457
1697211357715735800,95.68273583984374,-4.013467788696289,-8.944116592407227,0.2553879916667938
1697211357734573000,95.70157299804687,-4.3979268074035645,-8.765132904052734,0.0328029990196228
1697211357753410300,95.72041040039062,-4.817615032196045,-8.538678169250488,-0.22795100510120392
1697211357772247600,95.73924755859375,-5.304715156555176,-8.234554290771484,-0.47170498967170715
1697211357791084800,95.75808471679687,-5.7219038009643555,-7.941288948059082,-0.605105996131897
1697211357809922000,95.77692211914062,-6.00704288482666,-7.732996940612793,-0.5353509783744812
1697211357828759300,95.79575927734375,-6.193601131439209,-7.59441614151001,-0.36684298515319824
1697211357847596500,95.81459643554687,-6.304111957550049,-7.505393981933594,-0.31248199939727783
1697211357866433800,95.83343383789062,-6.35076379776001,-7.460000991821289,-0.4319239854812622
1697211357885271000,95.85227099609375,-6.363348960876465,-7.434269905090332,-0.6401649713516235
1697211357904108300,95.8711083984375,-6.349715232849121,-7.430193901062012,-0.8023189902305603
1697211357922945500,95.88994555664063,-6.30139684677124,-7.465519905090332,-0.8536959886550903
1697211357941782500,95.90878247070313,-6.303194046020508,-7.475090980529785,-0.7504280209541321
1697211357960619800,95.92761987304688,-6.554862976074219,-7.26682186126709,-0.6304460167884827
1697211357979457000,95.94645703125,-6.605049133300781,-7.190401077270508,-0.9175390005111694
1697211357998294500,95.96529443359375,-6.5060319900512695,-7.212955951690674,-1.3473219871520996
1697211358017131800,95.9841318359375,-6.491765022277832,-7.157798767089844,-1.671321988105774
1697211358035969000,96.00296899414063,-6.571385860443115,-7.0546650886535645,-1.7941620349884033
1697211358054806000,96.02180590820312,-6.681420803070068,-6.908254146575928,-1.9506429433822632
1697211358073643300,96.04064331054687,-6.857684135437012,-6.653314113616943,-2.2081708908081055
1697211358092480500,96.05948046875,-6.946461200714111,-6.365600109100342,-2.719609022140503
1697211358111318000,96.07831811523438,-6.8850178718566895,-6.360052108764648,-2.88386607170105
1697211358130155300,96.0971552734375,-6.926241874694824,-6.381046772003174,-2.7349209785461426
1697211358148992300,96.1159921875,-6.8917951583862305,-6.446434020996094,-2.667788028717041
1697211358167829500,96.13482958984375,-6.821378231048584,-6.562143802642822,-2.564656972885132
1697211358186666800,96.15366674804687,-6.705292224884033,-6.7772908210754395,-2.2973430156707764
1697211358205504000,96.17250390625,-6.498712062835693,-7.134335994720459,-1.743088960647583
1697211358224341200,96.19134130859375,-6.166866779327393,-7.547854900360107,-1.0816730260849
1697211358243178500,96.21017846679688,-5.751091003417969,-7.918933868408203,-0.6211839914321899
1697211358262015700,96.229015625,-5.356960773468018,-8.20400333404541,-0.4095189869403839
1697211358280853000,96.24785302734375,-4.997554779052734,-8.432896614074707,-0.28471601009368896
1697211358299690200,96.26669018554688,-4.697380065917969,-8.606818199157715,-0.16654500365257263
1697211358318527500,96.28552758789063,-4.427704811096191,-8.74963665008545,-0.09849599748849869
1697211358337364700,96.30436474609375,-4.035621166229248,-8.936387062072754,-0.15871499478816986
1697211358356201700,96.32320166015624,-3.5634078979492188,-9.134288787841797,-0.19321200251579285
1697211358375039200,96.34203930664063,-3.1537070274353027,-9.284981727600098,-0.11698699742555618
1697211358393876200,96.36087622070312,-2.849806070327759,-9.383386611938477,0.03286400064826012
1697211358412713700,96.37971362304687,-2.5878279209136963,-9.457181930541992,0.18780699372291565
1697211358431551000,96.39855102539063,-2.306605100631714,-9.52629566192627,0.3156760036945343
1697211358450388200,96.41738818359374,-2.0017800331115723,-9.591408729553223,0.4101000130176544
1697211358469225500,96.4362255859375,-1.698752999305725,-9.64652156829834,0.47884199023246765
1697211358488062700,96.45506274414062,-1.4444739818572998,-9.685562133789062,0.5232489705085754
1697211358506899700,96.47389965820312,-1.2545870542526245,-9.710716247558594,0.546271026134491
1697211358525737000,96.49273706054687,-1.0878640413284302,-9.731649398803711,0.5309810042381287
1697211358544574200,96.51157421875,-0.8859840035438538,-9.753067970275879,0.512902021408081
1697211358563411500,96.53041137695313,-0.5846260190010071,-9.77548599243164,0.5181710124015808
1697211358582248700,96.54924877929687,-0.18443599343299866,-9.790031433105469,0.540058970451355
1697211358601086000,96.5680859375,0.20186300575733185,-9.788766860961914,0.5565130114555359
1697211358619923200,96.58692309570313,0.4417960047721863,-9.779642105102539,0.5777440071105957
1697211358638760400,96.60576049804688,0.5218110084533691,-9.773115158081055,0.6199399828910828
1697211358657597700,96.62459765625,0.5760909914970398,-9.765765190124512,0.6843590140342712
1697211358676435000,96.64343505859375,0.7372729778289795,-9.748841285705566,0.7661150097846985
1697211358695272200,96.66227221679688,0.91047602891922,-9.725899696350098,0.8650410175323486
1697211358714109400,96.681109375,0.9989619851112366,-9.713173866271973,0.9092360138893127
1697211358732946700,96.69994677734375,0.8976359963417053,-9.727386474609375,0.8617349863052368
1697211358751784000,96.71878393554688,0.5801020264625549,-9.757488250732422,0.790768027305603
1697211358770621000,96.73762084960937,0.15763400495052338,-9.778616905212402,0.7240089774131775
1697211358789458200,96.75645825195312,-0.3253439962863922,-9.777946472167969,0.6755300164222717
1697211358808295700,96.77529565429687,-0.7977390289306641,-9.750106811523438,0.6851660013198853
1697211358827133000,96.7941328125,-1.2206100225448608,-9.701518058776855,0.7490479946136475
1697211358845970200,96.81297021484374,-1.6305509805679321,-9.631965637207031,0.8584640026092529
1697211358864807400,96.83180737304687,-2.0638389587402344,-9.541535377502441,0.9327790141105652
1697211358883644400,96.85064453125,-2.542090892791748,-9.428791999816895,0.8978009819984436
1697211358902482000,96.86948193359375,-3.051764965057373,-9.2876615524292,0.7723280191421509
1697211359006086700,96.97308666992187,-5.437437057495117,-8.146138191223145,-0.49506300687789917
1697211359024924000,96.991923828125,-5.7132110595703125,-7.964278221130371,-0.31604498624801636
1697211359043761200,97.01076123046874,-5.881621837615967,-7.846941947937012,-0.049803998321294785
1697211359062598400,97.02959838867187,-5.944931983947754,-7.7978339195251465,0.14826999604701996
1697211359081435600,97.048435546875,-5.965618133544922,-7.782032012939453,0.1475210040807724
1697211359100273000,97.06727294921875,-6.027744770050049,-7.735406875610352,-0.012955999933183193
1697211359119110000,97.08610986328125,-6.116538047790527,-7.663611888885498,-0.16565300524234772
1697211359137947100,97.10494702148438,-6.164455890655518,-7.622795104980469,-0.25081899762153625
1697211359156784400,97.12378442382813,-6.1279520988464355,-7.650430202484131,-0.2992649972438812
1697211359175622000,97.14262182617188,-6.018415927886963,-7.736751079559326,-0.30287298560142517
1697211359194459000,97.161458984375,-6.018444061279297,-7.741238117218018,-0.14823800325393677
1697211359213296000,97.18029614257813,-6.109737873077393,-7.667424201965332,-0.22822800278663635
1697211359232133600,97.19913354492188,-6.186008930206299,-7.566415786743164,-0.8081279993057251
1697211359250970600,97.217970703125,-6.366415023803711,-7.336048126220703,-1.3496400117874146
1697211359269807900,97.23680786132813,-6.558359146118164,-7.138617992401123,-1.4827300310134888
1697211359288645000,97.25564501953124,-6.7578630447387695,-6.923160076141357,-1.6036089658737183
1697211359307482400,97.274482421875,-6.9486308097839355,-6.649216175079346,-1.9169869422912598
1697211359326319600,97.29331958007812,-6.9428911209106445,-6.603658199310303,-2.0876760482788086
1697211359345156900,97.31215698242187,-6.9465718269348145,-6.632612228393555,-1.9809110164642334
1697211359363994000,97.330994140625,-6.9051899909973145,-6.69898796081543,-1.9006099700927734
1697211359382831400,97.34983129882812,-6.783131122589111,-6.886507987976074,-1.6539510488510132
1697211359401668900,97.3686689453125,-6.576251983642578,-7.14539909362793,-1.3662389516830444
1697211359420505900,97.387505859375,-6.247430801391602,-7.492012023925781,-1.004870057106018
1697211359439343000,97.40634301757812,-5.821170806884766,-7.870873928070068,-0.5776829719543457
1697211359458180000,97.42518017578125,-5.341379165649414,-8.222923278808594,-0.15356700122356415
1697211359477017600,97.444017578125,-4.89533805847168,-8.495199203491211,0.1941010057926178
1697211359495854600,97.4628544921875,-4.524896144866943,-8.688140869140625,0.460332989692688
1697211359514691800,97.48169189453125,-4.214724063873291,-8.834602355957031,0.5969120264053345
1697211359533529300,97.500529296875,-3.8246750831604004,-9.015660285949707,0.5100510120391846
1697211359552366600,97.51936669921875,-3.4009079933166504,-9.190352439880371,0.37638598680496216
1697211359571203800,97.53820385742188,-3.061199903488159,-9.309412002563477,0.3664639890193939
1697211359590041000,97.557041015625,-2.8041069507598877,-9.386237144470215,0.45378199219703674
1697211359608878300,97.57587841796875,-2.537226915359497,-9.456398963928223,0.5562390089035034
1697211359627715600,97.59471557617188,-2.2268118858337402,-9.529202461242676,0.6371949911117554
1697211359646552800,97.613552734375,-1.9190770387649536,-9.591428756713867,0.7014539837837219
1697211359665389800,97.63238989257812,-1.665824055671692,-9.635144233703613,0.747963011264801
1697211359684227300,97.65122729492188,-1.4731520414352417,-9.66478157043457,0.769556999206543
1697211359703064600,97.67006469726563,-1.3033310174942017,-9.689483642578125,0.7652950286865234
1697211359721901800,97.68890185546876,-1.1168880462646484,-9.714192390441895,0.746616005897522
1697211359740739000,97.70773901367187,-0.8868730068206787,-9.739389419555664,0.7267550230026245
1697211359759576300,97.72657641601562,-0.5713559985160828,-9.76457691192627,0.7049679756164551
1697211359778413300,97.74541333007812,-0.20030799508094788,-9.780959129333496,0.6805199980735779
1697211359797250600,97.76425048828125,0.16213500499725342,-9.782658576965332,0.6661019921302795
1697211359816087800,97.783087890625,0.4415540099143982,-9.774272918701172,0.6625999808311462
1697211359834925000,97.80192504882812,0.6015539765357971,-9.764962196350098,0.673816978931427
1697211359853762300,97.82076220703125,0.6898059844970703,-9.755420684814453,0.725504994392395
1697211359872599600,97.839599609375,0.7683460116386414,-9.743830680847168,0.7986279726028442
1697211359891437000,97.85843701171875,0.9215149879455566,-9.721753120422363,0.8992829918861389
1697211359910274000,97.87727416992188,1.1190489530563354,-9.688491821289062,1.0253020524978638
1697211359929111300,97.896111328125,1.2023169994354248,-9.671311378479004,1.0911409854888916
1697211359947948500,97.91494848632813,1.0075169801712036,-9.695948600769043,1.06952702999115
1697211359966785800,97.93378588867188,0.6272199749946594,-9.732475280761719,1.0275720357894897
1697211359985623000,97.952623046875,0.15459400415420532,-9.75368881225586,1.0060080289840698
1697211360004460300,97.97146020507813,-0.38164299726486206,-9.747740745544434,1.0031479597091675
1697211360023297500,97.99029760742188,-0.9195709824562073,-9.708489418029785,1.0344239473342896
1697211360042134800,98.009134765625,-1.4242819547653198,-9.639504432678223,1.1053420305252075
1697211360060972000,98.02797192382812,-1.8908679485321045,-9.551994323730469,1.1638070344924927
1697211360079809300,98.04680932617188,-2.3595809936523438,-9.445980072021484,1.1731350421905518
1697211360098646300,98.06564624023437,-2.8446390628814697,-9.318524360656738,1.1151399612426758
1697211360117483500,98.0844833984375,-3.302578926086426,-9.180882453918457,0.9873160123825073
1697211360136320800,98.10332080078125,-3.708967924118042,-9.043482780456543,0.7933430075645447
1697211360155158000,98.12215795898437,-4.12136697769165,-8.88652515411377,0.4630559980869293
1697211360173995300,98.14099536132812,-4.610013961791992,-8.655488967895508,0.02691599912941456
1697211360192832800,98.15983276367187,-5.108159065246582,-8.365372657775879,-0.3124980032444
1697211360211670000,98.178669921875,-5.526790142059326,-8.091641426086426,-0.38772499561309814
1697211360230507300,98.19750732421875,-5.804708003997803,-7.901185989379883,-0.21689699590206146
1697211360249344300,98.21634423828125,-5.938212871551514,-7.804243087768555,0.043196000158786774
1697211360268181500,98.23518139648438,-6.000894069671631,-7.754655838012695,0.15805399417877197
1697211360287019000,98.25401904296875,-6.109347820281982,-7.671131134033203,-0.005816000048071146
1697211360305856000,98.27285595703125,-6.249177932739258,-7.55302619934082,-0.2645519971847534
1697211360324693500,98.29169360351563,-6.349987983703613,-7.458103179931641,-0.4740949869155884
1697211360343530800,98.31053076171875,-6.368966102600098,-7.430633068084717,-0.6263819932937622
1697211360362368000,98.32936791992188,-6.2954559326171875,-7.487332820892334,-0.6909779906272888
1697211360381205200,98.34820532226563,-6.145687103271484,-7.618764877319336,-0.5961480140686035
1697211360400042200,98.36704223632813,-6.0608649253845215,-7.704631805419922,-0.2738170027732849
1697211360418879500,98.38587939453124,-6.003293991088867,-7.751035213470459,-0.22874300181865692
1697211360437716700,98.404716796875,-6.038496971130371,-7.69796895980835,-0.669497013092041
1697211360456554000,98.42355395507812,-6.256375789642334,-7.464395999908447,-1.1449639797210693
1697211360475391200,98.44239111328125,-6.4908127784729,-7.230062007904053,-1.328881025314331
1697211360494228200,98.46122827148437,-6.690814018249512,-7.0209550857543945,-1.4524530172348022
1697211360513065700,98.48006567382812,-6.940003871917725,-6.721249103546143,-1.6827130317687988
1697211360531903000,98.49890307617187,-6.951025009155273,-6.631737232208252,-1.9681780338287354
1697211360550740200,98.517740234375,-6.895585060119629,-6.6839280128479,-1.9865620136260986
1697211360569577500,98.53657739257812,-6.8604230880737305,-6.7656941413879395,-1.8249380588531494
1697211360588414700,98.55541479492187,-6.7343831062316895,-6.959530830383301,-1.5438189506530762
1697211360607251700,98.57425170898438,-6.485061168670654,-7.258256912231445,-1.1967060565948486
1697211360626089200,98.59308911132813,-6.117558002471924,-7.633181095123291,-0.6931059956550598
1697211360644926500,98.61192651367188,-5.626564025878906,-8.030404090881348,-0.15749000012874603
1697211360663763500,98.63076342773438,-5.062966823577881,-8.395156860351562,0.2410539984703064
1697211360682600700,98.6496005859375,-4.577760219573975,-8.662264823913574,0.4239180088043213
1697211360701438000,98.66843798828126,-4.227390766143799,-8.835897445678711,0.4759170114994049
1697211360720275200,98.68727514648438,-3.976999044418335,-8.952634811401367,0.4519070088863373
1697211360739112400,98.70611254882813,-3.7161359786987305,-9.067839622497559,0.36744600534439087
1697211360757949700,98.72494970703124,-3.4179461002349854,-9.1852388381958,0.3455510139465332
1697211360776787000,98.74378686523437,-3.112262010574341,-9.290708541870117,0.4086320102214813
1697211360795624000,98.7626240234375,-2.809720993041992,-9.380475997924805,0.5315290093421936
1697211360814461200,98.78146118164062,-2.4908370971679688,-9.460287094116211,0.684902012348175
1697211360833298700,98.80029858398437,-2.1447839736938477,-9.535008430480957,0.80867600440979
1697211360852136000,98.81913598632812,-1.8022990226745605,-9.597990036010742,0.8948180079460144
1697211360870973000,98.83797290039062,-1.5330979824066162,-9.640127182006836,0.9423059821128845
1697211360889810200,98.85681005859375,-1.3506100177764893,-9.66714859008789,0.944707989692688
1697211360908647400,98.8756474609375,-1.212854027748108,-9.687260627746582,0.9254109859466553
1697211360927484700,98.89448461914063,-1.068606972694397,-9.7070951461792,0.8948439955711365
1697211360946322200,98.913322265625,-0.8704829812049866,-9.728325843811035,0.8788220286369324
1697211360965159400,98.93215942382812,-0.5933759808540344,-9.749817848205566,0.871396005153656
1697211360983996700,98.95099658203125,-0.25402799248695374,-9.763951301574707,0.8781419992446899
1697211361002833700,98.96983374023438,0.08836100250482559,-9.764793395996094,0.9007819890975952
1697211361021671000,98.9886708984375,0.3807620108127594,-9.756507873535156,0.9143289923667908
1697211384210228500,122.177228515625,-5.949635028839111,-7.740570068359375,-0.9251009821891785
1697211384229065500,122.1960654296875,-6.326004981994629,-7.443562030792236,-0.863381028175354
1697211384247902500,122.21490234375,-6.536801815032959,-7.2661309242248535,-0.8024770021438599
1697211384266739700,122.23373974609375,-6.604735851287842,-7.193648815155029,-0.8940209746360779
1697211384285576700,122.25257666015625,-6.620500087738037,-7.143415927886963,-1.1449840068817139
1697211384304414000,122.2714140625,-6.6201958656311035,-7.0871429443359375,-1.4545669555664062
1697211384323251000,122.2902509765625,-6.590289115905762,-7.057845115661621,-1.7103630304336548
1697211384342088200,122.30908813476563,-6.525487899780273,-7.075386047363281,-1.878106951713562
1697211384360925200,122.32792529296874,-6.417394161224365,-7.177800178527832,-1.861901044845581
1697211384379762200,122.34676220703125,-6.32165002822876,-7.345293998718262,-1.5012609958648682
1697211384398599400,122.36559936523437,-6.329720973968506,-7.359375,-1.394516944885254
1697211384417436200,122.38443627929688,-6.221182823181152,-7.305180072784424,-2.025243043899536
1697211384436273400,122.4032734375,-6.246105194091797,-7.049293041229248,-2.732038974761963
1697211384455110400,122.4221103515625,-6.422700881958008,-6.781861782073975,-2.9875879287719727
1697211384473947600,122.44094775390624,-6.631271839141846,-6.522107124328613,-3.1078550815582275
1697211384492785000,122.45978491210937,-6.82352876663208,-6.157865047454834,-3.4191410541534424
1697211384511622100,122.4786220703125,-6.728896141052246,-5.966340065002441,-3.9109079837799072
1697211384530459100,122.49745922851562,-6.624833106994629,-6.06921911239624,-3.9302079677581787
1697211384549296000,122.51629614257813,-6.694809913635254,-6.1880059242248535,-3.613658905029297
1697211384568133000,122.53513305664063,-6.715244770050049,-6.352200984954834,-3.2749741077423096
1697211384586970400,122.55397045898438,-6.648721218109131,-6.574273109436035,-2.957003116607666
1697211384605807400,122.57280737304687,-6.543360233306885,-6.904344081878662,-2.3843019008636475
1697211384624644600,122.59164453125,-6.305960178375244,-7.315950870513916,-1.6976759433746338
1697211384643481600,122.61048168945312,-5.922516822814941,-7.74124002456665,-1.0804510116577148
1697211384662318800,122.62931884765625,-5.464852809906006,-8.122156143188477,-0.580016016960144
1697211384681156000,122.64815600585938,-5.0066728591918945,-8.429369926452637,-0.22217300534248352
1697211384699992800,122.66699291992188,-4.622260093688965,-8.648965835571289,0.02194100059568882
1697211384718829800,122.68582983398437,-4.266133785247803,-8.828363418579102,0.1746699959039688
1697211384737667000,122.7046669921875,-3.824892997741699,-9.027982711791992,0.1899529993534088
1697211384756504300,122.72350439453125,-3.3553740978240967,-9.213842391967773,0.13021500408649445
1697211384775341300,122.74234130859375,-2.9541969299316406,-9.349774360656738,0.15758199989795685
1697211384794178600,122.76117846679688,-2.616852045059204,-9.448419570922852,0.2232850044965744
1697211384813015600,122.780015625,-2.314774990081787,-9.526067733764648,0.2573759853839874
1697211384831852800,122.79885278320313,-2.0419609546661377,-9.588255882263184,0.2571620047092438
1697211384850689800,122.81768969726562,-1.7731720209121704,-9.642204284667969,0.23271000385284424
1697211384869526800,122.83652685546875,-1.5003750324249268,-9.686605453491211,0.2982659935951233
1697211384888364000,122.85536401367187,-1.2472649812698364,-9.716338157653809,0.45552799105644226
1697211384907201000,122.87420092773438,-0.9985470175743103,-9.742032051086426,0.5158770084381104
1697211384926038000,122.8930380859375,-0.7779979705810547,-9.762433052062988,0.5099499821662903
1697211384944875000,122.911875,-0.5710170269012451,-9.778425216674805,0.47617200016975403
1697211384963712300,122.93071215820312,-0.31227099895477295,-9.79108715057373,0.4555250108242035
1697211384982549200,122.94954931640625,-0.04538799822330475,-9.795116424560547,0.4733160138130188
1697211385001386500,122.96838647460937,0.1339309960603714,-9.792871475219727,0.5021380186080933
1697211385020223500,122.98722338867188,0.20644299685955048,-9.79102897644043,0.5133450031280518
1697211385039060500,123.006060546875,0.24840299785137177,-9.788061141967773,0.5500460267066956
1697211385057897700,123.02489770507813,0.3222239911556244,-9.780709266662598,0.635824978351593
1697211385076734700,123.04373461914062,0.36579999327659607,-9.771354675292969,0.7464609742164612
1697211385095571700,123.06257177734375,0.36361199617385864,-9.76423168182373,0.835436999797821
1697211385114409000,123.08140893554688,0.21254199743270874,-9.765013694763184,0.8773429989814758
1697211385133246000,123.10024584960938,-0.11900199949741364,-9.76980972290039,0.8408719897270203
1697211385152083200,123.11908325195313,-0.5791090130805969,-9.76325511932373,0.7168480157852173
1697211385170920200,123.13792016601562,-1.1290260553359985,-9.724156379699707,0.5800619721412659
1697211385189757400,123.15675732421874,-1.7197229862213135,-9.641054153442383,0.5128830075263977
1697211385208594400,123.17559448242187,-2.300726890563965,-9.517727851867676,0.538407027721405
1697211385227431700,123.194431640625,-2.788731098175049,-9.382335662841797,0.6042919754981995
1697211385246269000,123.21326904296875,-3.188873052597046,-9.253418922424316,0.6129900217056274
1697211385265106000,123.23210595703125,-3.5900659561157227,-9.111225128173828,0.5171229839324951
1697211385283943000,123.25094287109376,-3.996474027633667,-8.948637962341309,0.3470889925956726
1697211385302780000,123.26977978515625,-4.390623092651367,-8.768362998962402,0.09292899817228317
1697211385321617200,123.2886171875,-4.813526153564453,-8.541192054748535,-0.2200939953327179
1697211385340454100,123.3074541015625,-5.294084072113037,-8.236571311950684,-0.5495150089263916
1697211385359291400,123.32629150390625,-5.71718692779541,-7.922223091125488,-0.8500480055809021
1697211385378128400,123.34512841796875,-6.075238227844238,-7.6394758224487305,-0.9488329887390137
1697211385396965400,123.36396533203126,-6.368699073791504,-7.401429176330566,-0.910485029220581
1697211385415802400,123.38280224609375,-6.561112880706787,-7.217595100402832,-1.0141539573669434
1697211385434639600,123.4016396484375,-6.664563179016113,-7.069333076477051,-1.3336100578308105
1697211385453476900,123.42047680664062,-6.687039852142334,-6.968715190887451,-1.7002689838409424
1697211385472313900,123.43931396484375,-6.645750999450684,-6.925731182098389,-2.0096259117126465
1697211385491151000,123.45815112304687,-6.545918941497803,-6.950687885284424,-2.2381479740142822
1697211385509988400,123.47698828125,-6.427267074584961,-7.051140785217285,-2.267611026763916
1697211385528825300,123.49582543945313,-6.2610039710998535,-7.294036865234375,-1.9409409761428833
1697211385547662000,123.514662109375,-6.269653797149658,-7.371045112609863,-1.590459942817688
1697211385566499300,123.53349926757812,-6.152070999145508,-7.375606060028076,-1.98061203956604
1697211385585336600,123.55233666992187,-6.0010151863098145,-7.237257957458496,-2.7893218994140625
1697211385604173600,123.57117358398438,-6.136136054992676,-6.983572959899902,-3.1221721172332764
1697211385623010600,123.59001049804688,-6.331805229187012,-6.717007160186768,-3.310655117034912
1697211385641847800,123.60884790039063,-6.516520023345947,-6.33997106552124,-3.6756179332733154
1697211394547092200,132.51409228515624,0.022975999861955643,-9.802691459655762,-0.2777329981327057
1697211394565929500,132.53292944335936,0.14458799362182617,-9.801953315734863,-0.2668119966983795
1697211394584766700,132.5517666015625,0.006477999966591597,-9.800483703613281,-0.3476580083370209
1697211394603603700,132.57060375976562,-0.40759900212287903,-9.786683082580566,-0.47447699308395386
1697211394622440700,132.58944067382814,-0.9559730291366577,-9.7420654296875,-0.5905029773712158
1697211394641278000,132.60827783203126,-1.5219670534133911,-9.66557788848877,-0.6562219858169556
1697211394660115000,132.62711499023436,-2.0121281147003174,-9.577396392822266,-0.6286429762840271
1697211394678952200,132.6459521484375,-2.440340995788574,-9.480650901794434,-0.5765299797058105
1697211394697789400,132.66478955078125,-2.9117040634155273,-9.348722457885742,-0.542041003704071
1697211394716626400,132.68362646484374,-3.4498190879821777,-9.163222312927246,-0.5518199801445007
1697211394735463700,132.70246362304687,-3.990304946899414,-8.935999870300293,-0.6291369795799255
1697211394754300700,132.72130078125,-4.5007710456848145,-8.678400993347168,-0.773868978023529
1697211394773137700,132.7401376953125,-4.968081951141357,-8.395486831665039,-1.0021530389785767
1697211394791975000,132.75897485351564,-5.361120223999023,-8.104461669921875,-1.32156503200531
1697211394810812000,132.77781201171874,-5.618360996246338,-7.835024833679199,-1.793544054031372
