time,seconds_elapsed,z,y,x
1701881284783064800,0.16406494140625,0.7924251556396484,1.888256549835205,-2.4831528663635254
1701881284792657200,0.1736572265625,-1.5855216979980469,1.4672183990478516,-2.286959409713745
1701881284802250200,0.183250244140625,0.12049674987792969,1.031644344329834,-2.225022315979004
1701881284811842600,0.192842529296875,0.04819631576538086,0.16152667999267578,-1.626582384109497
1701881284821434000,0.20243408203125,0.9665379524230957,0.7139186859130859,-2.1265745162963867
1701881284831026400,0.2120263671875,1.6581697463989258,0.8141999244689941,-2.0902047157287598
1701881284840619500,0.22161962890625,1.881908893585205,0.5014858245849609,-1.5206245183944702
1701881284850211800,0.2312119140625,1.8909993171691895,0.2796506881713867,-1.361372709274292
1701881284859803100,0.24080322265625,2.090618133544922,0.28487682342529297,-1.8979004621505737
1701881284869395700,0.250395751953125,1.8712244033813477,0.5438880920410156,-1.7823572158813477
1701881284878988800,0.25998876953125,1.7346515655517578,0.2462477684020996,-1.3814138174057007
1701881284888580900,0.269580810546875,1.620889663696289,-0.22016668319702148,-0.8356677293777466
1701881284898172400,0.27917236328125,0.8691129684448242,-0.481264591217041,-0.06440675258636475
1701881284907764700,0.2887646484375,0.506525993347168,-0.7467083930969238,0.5200279951095581
1701881284917357800,0.29835791015625,0.8223109245300293,-0.9207725524902344,0.23971664905548096
1701881284926950100,0.3079501953125,0.5630779266357422,-0.8261470794677734,-0.28739404678344727
1701881284936541700,0.317541748046875,0.24680566787719727,-0.8232684135437012,-0.815106987953186
1701881284946134000,0.327134033203125,0.5602588653564453,-0.6425127983093262,-1.2125766277313232
1701881284955727000,0.33672705078125,0.582463264465332,-0.46353721618652344,-1.3511826992034912
1701881284965319400,0.3463193359375,0.448638916015625,-0.37037181854248047,-1.2925727367401123
1701881284974910700,0.35591064453125,0.37528276443481445,-0.29575490951538086,-1.0487496852874756
1701881284984503000,0.3655029296875,0.12802505493164062,-0.2808713912963867,-0.6844515800476074
1701881284994096000,0.37509619140625,-0.019072532653808594,-0.1597452163696289,-0.5769451856613159
1701881285003688400,0.3846884765625,-0.18820953369140625,0.045752525329589844,-0.5429060459136963
1701881285013280000,0.394280029296875,-0.7241826057434082,0.04885244369506836,0.03269529342651367
1701881285022872300,0.403872314453125,-0.6089410781860352,-0.28217172622680664,0.5278229713439941
1701881285032465400,0.41346533203125,-0.32976484298706055,-0.27161264419555664,0.8857569694519043
1701881285042057700,0.4230576171875,-0.02992725372314453,-0.06743717193603516,1.2872371673583984
1701881285051649300,0.432649169921875,-0.43611717224121094,0.24133968353271484,1.4352471828460693
1701881285061241600,0.44224169921875,-0.9526667594909668,0.5015749931335449,1.2779042720794678
1701881285070834700,0.451834716796875,-1.0341167449951172,0.5819234848022461,0.9912331104278564
1701881285080426800,0.4614267578125,-0.7579731941223145,0.549039363861084,0.58780837059021
1701881285090018300,0.471018310546875,-0.5100741386413574,0.4720783233642578,0.19675612449645996
1701881285099610600,0.480610595703125,-0.02713489532470703,0.2843165397644043,0.03325915336608887
1701881285109203700,0.49020361328125,0.5138630867004395,0.00797414779663086,0.27344465255737305
1701881285118796000,0.499796142578125,0.7127666473388672,-0.1617450714111328,0.49776482582092285
1701881285128387600,0.5093876953125,0.5365839004516602,-0.28569459915161133,0.5366415977478027
1701881285137980000,0.51897998046875,0.2920656204223633,-0.37585973739624023,0.5511789321899414
1701881285147573000,0.528572998046875,-0.13861465454101562,-0.5164051055908203,0.5845584869384766
1701881285157165300,0.538165283203125,-0.4456973075866699,-0.8290472030639648,1.5928187370300293
1701881285166756900,0.5477568359375,-0.09532833099365234,-0.4726090431213379,0.5327048301696777
1701881285176349200,0.55734912109375,-0.7298269271850586,-0.2730875015258789,0.2813558578491211
1701881285185942300,0.5669423828125,-1.007645606994629,0.016037464141845703,0.3098421096801758
1701881285195534300,0.576534423828125,-1.0524873733520508,0.1582350730895996,0.002895355224609375
1701881285205126000,0.5861259765625,-1.0727124214172363,0.2310948371887207,-0.3854351043701172
1701881285214718200,0.59571826171875,-0.8139023780822754,0.25510692596435547,-0.6880578994750977
1701881285224311300,0.605311279296875,-0.5206761360168457,0.08072662353515625,-0.8729343414306641
1701881285233903600,0.614903564453125,-0.36434268951416016,-0.20806169509887695,-0.9420661926269531
1701881285243495200,0.6244951171875,-0.1938638687133789,-0.4166555404663086,-0.8185224533081055
1701881285253087500,0.63408740234375,0.027334213256835938,-0.6099710464477539,-0.6812610626220703
1701881285262680600,0.6436806640625,0.07000017166137695,-0.8646960258483887,-0.36628007888793945
1701881285272273000,0.65327294921875,0.08328771591186523,-0.9412708282470703,-0.09319543838500977
1701881285281864200,0.6628642578125,0.09530448913574219,-0.8645401000976562,-0.0658121109008789
1701881285291456800,0.672456787109375,0.12511348724365234,-0.8491520881652832,-0.2361135482788086
1701881285301049600,0.682049560546875,0.011081218719482422,-0.9454021453857422,-0.6337499618530273
1701881285310642000,0.691641845703125,-0.3927912712097168,-1.2434182167053223,-0.7786698341369629
1701881285320233500,0.7012333984375,-0.7798233032226562,-1.4433379173278809,-0.6337099075317383
1701881285329825800,0.71082568359375,-0.797966480255127,-1.380293369293213,-0.7300052642822266
1701881285339419000,0.7204189453125,-0.6127276420593262,-1.338019609451294,-0.8435020446777344
1701881285349011200,0.73001123046875,-0.047926902770996094,-1.228661298751831,-1.1293621063232422
1701881285358602800,0.739602783203125,0.7374567985534668,-1.1356654167175293,-1.7171969413757324
1701881285368195000,0.749195068359375,2.0452823638916016,-1.5229074954986572,-2.0403542518615723
1701881285377788200,0.7587880859375,3.2288646697998047,-1.2798545360565186,-1.4789252281188965
1701881285387380200,0.768380126953125,3.060135841369629,-1.4465014934539795,-0.5644006729125977
1701881285396971800,0.7779716796875,2.7965943813323975,-1.5475432872772217,0.14963054656982422
1701881285406564400,0.787564453125,2.6128745079040527,-1.4084994792938232,1.2848796844482422
1701881285416157400,0.797157470703125,2.004939317703247,-1.0849807262420654,2.243541717529297
1701881285425749500,0.80674951171875,1.1276440620422363,-0.5856564044952393,3.1675148010253906
1701881285435341000,0.816341064453125,-0.24425268173217773,-0.02089548110961914,3.908802032470703
1701881285444933400,0.825933349609375,-2.200188636779785,0.4279468059539795,3.514547348022461
1701881285454526500,0.8355263671875,-3.4313323497772217,1.4586410522460938,3.2891645431518555
1701881285464118800,0.845118896484375,-3.405776023864746,2.393230438232422,3.0734195709228516
1701881285473710300,0.85471044921875,-3.4839727878570557,2.4956116676330566,1.9777774810791016
1701881285483302700,0.864302734375,-4.047564506530762,2.2654552459716797,1.2333812713623047
1701881285492895700,0.873895751953125,-4.215672492980957,2.1547658443450928,0.8701152801513672
1701881285502487800,0.88348779296875,-4.000129699707031,2.0159339904785156,0.6054849624633789
1701881285512079400,0.893079345703125,-3.985975980758667,1.6574196815490723,0.5241899490356445
1701881285521671700,0.902671630859375,-3.81650972366333,1.2458534240722656,0.5044946670532227
1701881285531264800,0.9122646484375,-3.5607941150665283,0.8077414035797119,0.36287498474121094
1701881285540857000,0.921857177734375,-3.3234243392944336,0.24924659729003906,0.15769481658935547
1701881285550448600,0.93144873046875,-2.9893863201141357,-0.27987074851989746,-0.09631919860839844
1701881285560041000,0.941041015625,-2.5218400955200195,-0.6916220188140869,-0.3391871452331543
1701881285569634000,0.950634033203125,-1.4976909160614014,-1.0890746116638184,-0.4886322021484375
1701881285579226400,0.960226318359375,0.24286890029907227,-0.9761452674865723,-0.6699433326721191
1701881285588817700,0.969817626953125,1.1814875602722168,-0.9895131587982178,-0.7286896705627441
1701881285598410200,0.97941015625,1.704350471496582,-1.1300560235977173,-0.913607120513916
1701881285608003300,0.98900341796875,2.367490768432617,-1.1601810455322266,-1.0072031021118164
1701881285617595400,0.998595458984375,2.725648880004883,-1.2195216417312622,-1.0385923385620117
1701881285627187000,1.00818701171875,2.6774144172668457,-1.4337526559829712,-1.0558891296386719
1701881285636779300,1.017779296875,2.47979736328125,-1.6086622476577759,-1.1259851455688477
1701881285646372400,1.027372314453125,2.296727180480957,-1.7758063077926636,-1.269594669342041
1701881285655964700,1.036964599609375,2.094165802001953,-1.8230396509170532,-1.5476441383361816
1701881285665556200,1.04655615234375,1.964503288269043,-1.6450273990631104,-2.0019264221191406
1701881285675148500,1.0561484375,1.9167509078979492,-1.3721319437026978,-2.3301501274108887
1701881285684741600,1.06574169921875,1.7923893928527832,-1.1530660390853882,-2.316157341003418
1701881285694334000,1.075333984375,1.516251564025879,-0.9449460506439209,-1.9073262214660645
1701881285703925200,1.08492529296875,1.2129120826721191,-0.789422869682312,-1.3135275840759277
1701881285713517600,1.094517578125,0.9217743873596191,-0.7187292575836182,-0.7600674629211426
1701881285723111000,1.10411083984375,0.5779204368591309,-0.8138267993927002,-0.3189382553100586
1701881285732703000,1.113702880859375,0.35388994216918945,-0.957122802734375,-0.0901193618774414
1701881285742294500,1.12329443359375,0.28362607955932617,-1.0259315967559814,-0.1308269500732422
1701881285751886800,1.132886962890625,0.3873329162597656,-1.0328588485717773,-0.4809684753417969
1701881285761480000,1.14247998046875,0.465883731842041,-1.0272349119186401,-0.7781929969787598
1701881285771072300,1.152072265625,0.5474157333374023,-1.0027012825012207,-0.8157973289489746
1701881285780663800,1.161663818359375,0.8156824111938477,-0.9841787219047546,-1.0901317596435547
1701881285790256000,1.171256103515625,1.3737549781799316,-1.0004278421401978,-1.6017632484436035
1701881285799849200,1.18084912109375,2.0014514923095703,-1.1105821132659912,-2.1232824325561523
1701881285809441300,1.190441162109375,2.6286096572875977,-1.3354101181030273,-2.6806821823120117
1701881285819032800,1.20003271484375,3.1410274505615234,-1.6885446310043335,-3.2160701751708984
1701881285828625400,1.20962548828125,3.328036308288574,-2.1364946365356445,-3.459627628326416
1701881285838218200,1.21921826171875,2.962726354598999,-2.7028541564941406,-2.969709873199463
1701881285847810600,1.228810546875,2.434143304824829,-3.1627025604248047,-1.715430736541748
1701881285857402000,1.238402099609375,2.025925874710083,-3.2289936542510986,-0.6574878692626953
1701881285866994400,1.247994384765625,1.461310863494873,-3.1252875328063965,-0.2295684814453125
1701881285876587500,1.25758740234375,0.7490644454956055,-3.077982187271118,-0.40445423126220703
1701881285886179800,1.267179931640625,0.2312026023864746,-3.0141162872314453,-0.9471435546875
1701881285895771400,1.276771484375,-0.2883493900299072,-2.887963056564331,-1.346773624420166
1701881285905363700,1.28636376953125,-0.9424463510513306,-2.839812994003296,-1.3285884857177734
1701881285914956800,1.295956787109375,-1.4212231636047363,-2.7635693550109863,-1.1929750442504883
1701881285924548900,1.305548828125,-1.6940479278564453,-2.5145952701568604,-1.2799692153930664
1701881285934140400,1.315140380859375,-1.843532919883728,-2.2420358657836914,-1.5035314559936523
1701881285943732700,1.324732666015625,-1.9337260723114014,-2.1186094284057617,-1.7527647018432617
1701881285953325800,1.334325927734375,-2.042072057723999,-2.0647149085998535,-1.9074974060058594
1701881285962918100,1.343918212890625,-2.104963779449463,-1.9896385669708252,-1.7976865768432617
1701881285972509700,1.353509765625,-2.0150253772735596,-1.9073171615600586,-1.2591581344604492
1701881285982102000,1.36310205078125,-2.20131254196167,-1.954453468322754,-0.8497562408447266
1701881285991695000,1.372695068359375,-2.72883677482605,-2.0930590629577637,-0.46225452423095703
1701881286001287400,1.382287353515625,-3.394258975982666,-2.2963085174560547,-0.00414276123046875
1701881286010878700,1.391878662109375,-3.514099359512329,-2.0169568061828613,0.4086284637451172
1701881286020471300,1.40147119140625,-3.4160165786743164,-1.6607928276062012,0.5288553237915039
1701881286030064000,1.411064208984375,-3.6988301277160645,-1.4435334205627441,0.2744426727294922
1701881286039656400,1.420656494140625,-4.13621711730957,-1.3706083297729492,0.34413719177246094
1701881286049248000,1.430248046875,-4.442358493804932,-1.408602237701416,0.793034553527832
1701881286058840300,1.43984033203125,-4.513757228851318,-1.5189871788024902,0.9108896255493164
1701881286068433400,1.449433349609375,-4.208219528198242,-1.5467581748962402,0.8493022918701172
1701881286078025700,1.459025634765625,-3.8143630027770996,-1.5098214149475098,0.9800162315368652
1701881286087617300,1.4686171875,-3.330988645553589,-1.4075922966003418,1.1171550750732422
1701881286097209600,1.478209716796875,-3.331670045852661,-1.2615041732788086,1.7312836647033691
1701881286106802700,1.487802734375,-3.917745351791382,-1.0479035377502441,2.3305745124816895
1701881286116394800,1.497394775390625,-3.7108724117279053,-0.5008125305175781,1.7173957824707031
1701881286125986300,1.506986328125,-3.416350841522217,-0.10343027114868164,1.2056903839111328
1701881286135578600,1.51657861328125,-3.187887668609619,-0.13175630569458008,0.6016440391540527
1701881286145171700,1.526171630859375,-3.1048734188079834,-0.293701171875,0.17267513275146484
1701881286154764000,1.535763916015625,-3.159336805343628,-0.5678348541259766,-0.024124622344970703
1701881286164355600,1.54535546875,0.43405216932296753,-5.181456089019775,12.90478515625
1701881286173948000,1.554947998046875,6.458625793457031,-5.557554244995117,12.863085746765137
1701881286183541000,1.564541015625,3.4228672981262207,-0.48388671875,1.6047563552856445
1701881286193133300,1.57413330078125,-0.945593535900116,0.6561598777770996,-0.6920313835144043
1701881286202724900,1.583724853515625,-2.2996103763580322,-1.7503938674926758,-0.4846959114074707
1701881286212317200,1.593317138671875,-0.18965905904769897,-4.990387916564941,-0.5790176391601562
1701881286221910300,1.60291015625,1.873064398765564,-3.4765892028808594,-1.5302257537841797
1701881286231502300,1.61250244140625,1.3981828689575195,-1.6284441947937012,-2.816795825958252
1701881286241094000,1.622093994140625,-0.2733684778213501,-0.7462186813354492,-3.389453649520874
1701881286250686200,1.631686279296875,-1.1432052850723267,-0.4220619201660156,-3.8929035663604736
1701881286260279300,1.641279296875,0.259524405002594,-0.9465484619140625,-0.46439027786254883
1701881286269871600,1.65087158203125,1.1214550733566284,0.2514314651489258,0.29703283309936523
1701881286279463200,1.660463134765625,-0.26486510038375854,0.10340452194213867,0.4315457344055176
1701881286289055500,1.670055419921875,-0.8603531122207642,-0.17409610748291016,0.5637235641479492
1701881286298648600,1.679648681640625,-0.5302308797836304,-0.583460807800293,0.8609137535095215
1701881286308241000,1.689240966796875,0.3957909643650055,-0.6475162506103516,0.624934196472168
1701881286317832400,1.69883251953125,1.0084788799285889,-0.2644777297973633,-0.40483999252319336
1701881286327424800,1.7084248046875,0.9122199416160583,0.046192169189453125,-0.5478944778442383
1701881286337017900,1.718017822265625,0.4731515347957611,0.26663780212402344,-0.05152416229248047
1701881286346610000,1.72760986328125,0.9123650789260864,0.9241533279418945,-1.6461098194122314
1701881286356201500,1.737201416015625,0.6125001907348633,0.9756321907043457,-0.5714817047119141
1701881286365793800,1.746793701171875,1.1470675468444824,1.0989532470703125,-0.5836825370788574
1701881286375387000,1.756386962890625,1.3528997898101807,1.2101020812988281,-0.12094974517822266
1701881286384979200,1.765979248046875,0.6245105266571045,1.5978622436523438,-0.5589604377746582
1701881286394570800,1.77557080078125,-0.199432373046875,2.3424720764160156,-1.5545191764831543
1701881286404163000,1.7851630859375,-2.9222278594970703,2.8885068893432617,-1.2071011066436768
1701881286413756200,1.794756103515625,-5.271468162536621,2.214946746826172,-0.033926963806152344
1701881286423348500,1.804348388671875,-3.5235815048217773,1.0827059745788574,0.15269136428833008
1701881286432939800,1.813939697265625,-0.9636752009391785,0.5517044067382812,0.1501021385192871
1701881286442532000,1.823531982421875,-0.44206589460372925,0.3342609405517578,1.2255637645721436
1701881286452125200,1.833125244140625,0.7930517792701721,0.7053050994873047,0.46703290939331055
1701881286461717500,1.842717529296875,1.1716516017913818,0.6354618072509766,0.036617279052734375
1701881286471309000,1.85230908203125,0.6953023672103882,0.2665414810180664,0.06047487258911133
1701881286480901400,1.8619013671875,0.46234655380249023,-0.6713294982910156,0.01683640480041504
1701881286490494500,1.871494384765625,0.415469765663147,-1.4359512329101562,-0.9045567512512207
1701881286500086800,1.881086669921875,0.27750536799430847,-1.546213150024414,-1.3160333633422852
1701881286509678000,1.890677978515625,0.1340927630662918,-1.777644157409668,-1.400325894355774
1701881286519270700,1.900270751953125,0.4231114387512207,-2.208493232727051,-0.8120191097259521
1701881286528863700,1.90986376953125,0.6522005796432495,-2.549907684326172,-0.3558037281036377
1701881286538455800,1.919455810546875,0.7712975144386292,-2.7218017578125,0.08226513862609863
1701881286548047400,1.92904736328125,0.5723163485527039,-2.8804922103881836,0.6102511882781982
1701881286557639700,1.9386396484375,0.5541113615036011,-2.4956159591674805,1.0234181880950928
1701881286567232800,1.948232666015625,0.21508188545703888,-1.8226699829101562,0.9500539302825928
1701881286576825000,1.9578251953125,-0.2561641335487366,-0.9588327407836914,0.6077280044555664
1701881286586416600,1.967416748046875,-0.48585066199302673,-0.3915901184082031,0.2834439277648926
1701881286596009000,1.977009033203125,-0.1545737087726593,-0.4078493118286133,0.06858205795288086
1701881286605602000,1.98660205078125,0.3306005001068115,-0.2586097717285156,-0.30997443199157715
1701881286615194400,1.9961943359375,0.42219626903533936,-0.030788421630859375,-0.09103846549987793
1701881286624785700,2.00578564453125,-0.02453473210334778,0.16777324676513672,0.10632658004760742
1701881286634378000,2.0153779296875,-0.4677550494670868,0.3087596893310547,0.10401606559753418
1701881286643971000,2.02497119140625,-0.7530361413955688,0.3828573226928711,0.16465449333190918
1701881286653563400,2.0345634765625,-0.6410186886787415,0.37797069549560547,0.423419713973999
1701881286663155000,2.044155029296875,-0.27223968505859375,0.43691539764404297,0.5859243869781494
1701881286672747300,2.053747314453125,0.7719778418540955,0.5693645477294922,0.35224008560180664
1701881286682340400,2.06334033203125,2.899057149887085,1.1871137619018555,-0.33180463314056396
1701881286691932700,2.0729326171875,2.3756771087646484,4.307801723480225,-2.363974094390869
1701881286701524200,2.082524169921875,1.1970552206039429,4.456452369689941,-2.091330051422119
1701881286711116500,2.092116455078125,0.010531723499298096,3.1700997352600098,-1.6396028995513916
1701881286720709600,2.101709716796875,-0.16129079461097717,1.9411277770996094,-0.846156895160675
1701881286730301700,2.1113017578125,-1.466890573501587,3.5074687004089355,1.7066396474838257
1701881286739893200,2.120893310546875,-2.0239622592926025,5.506217956542969,0.8685649633407593
1701881286749485600,2.130485595703125,-1.7594356536865234,6.358883380889893,0.24357306957244873
1701881286759078700,2.14007861328125,1.038802146911621,5.416015148162842,0.2063281536102295
1701881286768671000,2.1496708984375,4.021305084228516,3.789860248565674,-0.6134746074676514
1701881286778262500,2.159262451171875,0.14132681488990784,3.2447590827941895,-0.8322197198867798
1701881286787854800,2.168854736328125,-1.0028831958770752,2.2572927474975586,-0.3276765048503876
1701881286797448000,2.178447998046875,0.46988773345947266,1.2772083282470703,0.5457748770713806
1701881286807040300,2.188040283203125,-0.11585596203804016,1.9110116958618164,1.0507643222808838
1701881286816631600,2.197631591796875,-0.7552301287651062,2.6319479942321777,1.394601583480835
1701881286826224000,2.20722412109375,-3.3775763511657715,2.2125935554504395,0.2746695876121521
1701881286835817200,2.216817138671875,-5.3932037353515625,1.8861565589904785,-0.9378092885017395
1701881286845409300,2.2264091796875,-8.033098220825195,1.0084295272827148,-1.1755441427230835
1701881286855000800,2.236000732421875,-7.751722812652588,0.6882963180541992,-1.4035472869873047
1701881286864593200,2.24559326171875,-2.4039485454559326,0.48365020751953125,-1.3806347846984863
1701881286874186200,2.255186279296875,5.192000389099121,0.4765653610229492,-2.977390766143799
1701881286883778600,2.264778564453125,8.67903995513916,-6.933794975280762,-9.015421867370605
1701881286893370000,2.2743701171875,3.9407317638397217,-25.122709274291992,-9.891205787658691
1701881286902962400,2.28396240234375,2.0546352863311768,-32.277748107910156,1.3431553840637207
1701881286912555500,2.293555419921875,1.6963574886322021,-20.6341495513916,15.033717155456543
1701881286922147600,2.303147705078125,0.810315728187561,-0.7856121063232422,6.830268859863281
1701881286931739100,2.3127392578125,-0.8430356979370117,3.9590954780578613,-0.384421706199646
1701881286941331500,2.32233154296875,-1.5299828052520752,1.7035274505615234,-1.405424952507019
1701881286950924500,2.331924560546875,-0.41917845606803894,0.46117210388183594,-0.25708502531051636
1701881286960516900,2.341516845703125,-0.026419490575790405,0.9117984771728516,-0.7433975338935852
1701881286970108400,2.3511083984375,-0.07021966576576233,1.0695152282714844,-0.8990346193313599
1701881286979700700,2.36070068359375,0.0801897644996643,0.9380807876586914,-1.1208480596542358
1701881286989293800,2.3702939453125,0.361411988735199,0.5235786437988281,-1.040145754814148
1701881286998886100,2.37988623046875,0.4609750509262085,-0.09902000427246094,-0.6920269727706909
1701881287008477700,2.389477783203125,0.4451894164085388,-0.47603321075439453,-0.3572421073913574
1701881287018070000,2.399070068359375,0.32920411229133606,-0.6896066665649414,-0.1464071124792099
1701881287027663000,2.4086630859375,0.17454808950424194,-0.7119150161743164,-0.08044679462909698
1701881287037255200,2.418255126953125,0.1353546380996704,-0.6058292388916016,-0.1197921484708786
1701881287046846700,2.4278466796875,0.2281894087791443,-0.5245065689086914,-0.18902769684791565
1701881287056439000,2.43743896484375,0.25963056087493896,-0.6896486282348633,-0.1303987354040146
1701881287066032000,2.4470322265625,0.1779586672782898,-0.8547887802124023,-0.0284997820854187
1701881287075624400,2.45662451171875,0.20130211114883423,-0.7647781372070312,0.008572369813919067
1701881287085216000,2.466216064453125,0.27701038122177124,-0.2771415710449219,0.03345853090286255
1701881287094808300,2.475808349609375,0.3597261905670166,0.23274898529052734,-0.07254329323768616
1701881287104401400,2.4854013671875,-0.16316479444503784,0.12364578247070312,-0.345550000667572
1701881287113993500,2.494993408203125,0.6363555192947388,1.9615607261657715,-1.2722691297531128
1701881287123585000,2.5045849609375,0.7189880013465881,2.6703624725341797,-2.087864398956299
1701881287133177600,2.514177490234375,0.1570720076560974,2.4769821166992188,-1.8051578998565674
1701881287142770400,2.5237705078125,-0.608574390411377,2.5117321014404297,-1.3140740394592285
1701881287152362800,2.53336279296875,-1.626259446144104,-0.8058805465698242,0.4616735577583313
1701881287161954300,2.542954345703125,0.5908406376838684,-2.8598098754882812,1.834594488143921
1701881287171546600,2.552546630859375,1.0930553674697876,-2.721041679382324,0.5197910070419312
1701881287181139700,2.5621396484375,0.31106531620025635,-1.3253698348999023,-0.15404126048088074
1701881287190732000,2.57173193359375,-0.2163349986076355,-0.3543825149536133,0.1369532346725464
1701881287200323600,2.581323486328125,0.09077626466751099,-0.04046440124511719,-0.1402101069688797
1701881287209916000,2.590916015625,0.23539656400680542,0.30317020416259766,-0.5011231899261475
1701881287219509000,2.600509033203125,0.23579484224319458,0.5762033462524414,-0.5888422727584839
1701881287229101000,2.61010107421875,0.22547262907028198,0.7432193756103516,-0.5924974679946899
1701881287238692600,2.619692626953125,0.23247355222702026,0.8547754287719727,-0.5434440970420837
1701881287248285000,2.629284912109375,0.23906821012496948,0.9159278869628906,-0.44975781440734863
1701881287257878000,2.6388779296875,0.1760784387588501,0.9006175994873047,-0.3480008840560913
1701881287267470300,2.64847021484375,0.07240158319473267,0.8234176635742188,-0.27462610602378845
1701881287277062000,2.658061767578125,-0.01228111982345581,0.6416139602661133,-0.2516304850578308
1701881287286654200,2.667654296875,-0.0899466872215271,0.41044044494628906,-0.21947872638702393
1701881287296247300,2.677247314453125,-0.16574102640151978,0.16349506378173828,-0.18535912036895752
1701881287305839600,2.686839599609375,-0.18479681015014648,-0.1277933120727539,-0.1349228173494339
1701881287315431000,2.696430908203125,-0.22352927923202515,-0.3893299102783203,-0.0799027681350708
1701881287325023500,2.7060234375,-0.22211158275604248,-0.6713123321533203,-0.000634998083114624
1701881287334616300,2.7156162109375,-0.19044935703277588,-0.9092378616333008,0.12225386500358582
1701881287344208600,2.725208740234375,-0.14785653352737427,-1.0937118530273438,0.23645630478858948
1701881287353800200,2.73480029296875,-0.12991183996200562,-1.1748638153076172,0.35145342350006104
1701881287363392500,2.744392578125,-0.13390523195266724,-1.1196966171264648,0.38614967465400696
1701881287372985600,2.753985595703125,-0.1424790620803833,-0.9263706207275391,0.40035480260849
1701881287382578000,2.763577880859375,-0.15741604566574097,-0.5978164672851562,0.35109496116638184
1701881287392169500,2.77316943359375,-0.12107950448989868,-0.22042560577392578,0.26940205693244934
1701881287401761800,2.78276171875,-0.08374369144439697,0.06487464904785156,0.19548705220222473
1701881287411355000,2.79235498046875,-0.04768097400665283,0.22500038146972656,0.2100788950920105
1701881287420947000,2.801947021484375,-0.03471654653549194,0.3677549362182617,0.25238072872161865
1701881287430538500,2.81153857421875,-0.05204194784164429,0.4574155807495117,0.28616225719451904
1701881287440130800,2.821130859375,-0.047401368618011475,0.5013551712036133,0.30420956015586853
1701881287449724000,2.830723876953125,-0.03768199682235718,0.5307531356811523,0.32555699348449707
1701881287459316200,2.840316162109375,-0.06833082437515259,0.6005563735961914,0.34102627635002136
1701881287468907800,2.84990771484375,-0.10113966464996338,0.6390571594238281,0.3839420974254608
1701881287478500000,2.8595,-0.1267467737197876,0.682164192199707,0.4207782745361328
1701881287488093200,2.86909326171875,-0.17890185117721558,0.6988973617553711,0.39741411805152893
1701881287497685500,2.878685546875,-0.23388516902923584,0.7060985565185547,0.35780075192451477
1701881287507276800,2.88827685546875,-0.24418514966964722,0.6465854644775391,0.36951571702957153
1701881287516869400,2.897869384765625,-0.20811009407043457,0.5254058837890625,0.3799611032009125
1701881287526462200,2.907462158203125,-0.2238858938217163,0.40722084045410156,0.3776344060897827
1701881287536054500,2.917054443359375,-0.1553388237953186,0.3040018081665039,0.3472597897052765
1701881287545646000,2.92664599609375,-0.15323060750961304,0.18230533599853516,0.34635213017463684
1701881287555238400,2.93623828125,-0.14326953887939453,0.06842708587646484,0.2748306095600128
1701881287564831500,2.94583154296875,-0.10645842552185059,-0.1498250961303711,0.2709982097148895
1701881287574423800,2.955423828125,-0.11932498216629028,-0.4554586410522461,0.3262830078601837
1701881287584015400,2.965015380859375,-0.12687772512435913,-0.7456302642822266,0.2964182496070862
1701881287593607700,2.974607666015625,-0.09291142225265503,-0.9440984725952148,0.24810537695884705
1701881287603200800,2.98420068359375,-0.07713311910629272,-1.0822229385375977,0.1499757170677185
1701881287612792800,2.993792724609375,-0.048022687435150146,-1.1149177551269531,0.09973454475402832
1701881287622384400,3.00338427734375,-0.04563319683074951,-1.0139389038085938,-0.000667870044708252
1701881287631976700,3.012976806640625,-0.01895838975906372,-0.8012466430664062,-0.0864093154668808
1701881287641569800,3.02256982421875,-0.03430455923080444,-0.5058679580688477,-0.16695255041122437
1701881287651162000,3.032162109375,-0.03345435857772827,-0.20684242248535156,-0.2585653066635132
1701881287660753700,3.041753662109375,0.050610482692718506,0.03853893280029297,-0.32093125581741333
1701881287670346000,3.051345947265625,0.1675328016281128,0.21853351593017578,-0.42326951026916504
1701881287679939000,3.06093896484375,0.23344308137893677,0.3620109558105469,-0.4723958969116211
1701881287689531400,3.070531494140625,0.27416184544563293,0.4571866989135742,-0.531031608581543
1701881287699122700,3.080122802734375,0.28918612003326416,0.5018596649169922,-0.5805383324623108
1701881287708715000,3.089715087890625,0.2973366677761078,0.5033740997314453,-0.6138145327568054
1701881287718308000,3.09930810546875,0.26272857189178467,0.4833517074584961,-0.6551378965377808
1701881287727900400,3.108900390625,0.24004477262496948,0.3750572204589844,-0.6615515351295471
1701881287737492000,3.118491943359375,0.21028882265090942,0.2646818161010742,-0.6645160913467407
1701881287747084300,3.128084228515625,0.18554085493087769,0.15222644805908203,-0.6376769542694092
1701881287756677400,3.137677490234375,0.1515919268131256,0.07349586486816406,-0.602731466293335
1701881287766269700,3.147269775390625,0.15371572971343994,-0.019344329833984375,-0.5741232633590698
1701881287775861200,3.156861328125,0.16829562187194824,-0.1000051498413086,-0.5491856932640076
1701881287785453600,3.16645361328125,0.20688654482364655,-0.19237613677978516,-0.5232326984405518
1701881287795046700,3.176046630859375,0.27169352769851685,-0.27016162872314453,-0.4865958094596863
1701881287804638700,3.185638671875,0.34093475341796875,-0.30475521087646484,-0.44620463252067566
1701881287814230300,3.195230224609375,0.4265371859073639,-0.3034515380859375,-0.40659141540527344
1701881287823822600,3.204822509765625,0.46616673469543457,-0.2520313262939453,-0.3959241211414337
1701881287833415700,3.214415771484375,0.4911103844642639,-0.2198657989501953,-0.3828491270542145
1701881287843008000,3.224008056640625,0.5182379484176636,-0.2092885971069336,-0.36476728320121765
1701881287852599600,3.233599609375,0.5361902117729187,-0.19161128997802734,-0.3747490644454956
1701881287862191900,3.24319189453125,0.535910964012146,-0.18835163116455078,-0.40290549397468567
1701881287871785000,3.252784912109375,0.5271161794662476,-0.18753337860107422,-0.4297306537628174
1701881287881377300,3.262377197265625,0.4883469343185425,-0.19153594970703125,-0.422201007604599
1701881287890968600,3.271968505859375,0.45083779096603394,-0.15261173248291016,-0.4233669638633728
1701881287900561000,3.281560791015625,0.4292508363723755,-0.14727783203125,-0.4091741740703583
1701881287910154000,3.291154052734375,0.3040764331817627,-0.13485431671142578,-0.39448291063308716
1701881287919746300,3.300746337890625,0.2230311930179596,-0.13921260833740234,-0.3675852119922638
1701881287929337900,3.310337890625,0.12345841526985168,-0.1292581558227539,-0.37160637974739075
1701881287938930200,3.31993017578125,0.07917836308479309,-0.1384410858154297,-0.3496362566947937
1701881287948523300,3.329523193359375,-0.10411643981933594,-0.071197509765625,-0.4167432188987732
1701881287958115600,3.339115478515625,-0.171645849943161,-0.05184173583984375,-0.40831124782562256
1701881287967707100,3.34870703125,-0.26505208015441895,-0.008602142333984375,-0.382174551486969
1701881287977299500,3.358299560546875,-0.19773182272911072,0.039333343505859375,-0.397079735994339
1701881287986892500,3.367892578125,-0.13429483771324158,-0.022645950317382812,-0.37182173132896423
1701881287996484600,3.377484619140625,-0.1390531361103058,-0.1273822784423828,-0.3712310194969177
1701881288006076200,3.387076171875,-0.253378689289093,-0.17444801330566406,-0.43723222613334656
1701881288015668500,3.39666845703125,-0.23243653774261475,-0.19716453552246094,-0.5055214166641235
1701881288025261600,3.406261474609375,-0.0756845474243164,-0.20302581787109375,-0.6410335302352905
1701881288034854000,3.41585400390625,-0.03166460990905762,-0.2935771942138672,-0.6745892763137817
1701881288044445400,3.425445556640625,-0.041199952363967896,-0.4085865020751953,-0.5718896985054016
1701881288054037800,3.435037841796875,-0.053363263607025146,-0.48409080505371094,-0.4224568009376526
1701881288063630800,3.444630859375,-0.12410761415958405,-0.541935920715332,-0.25593122839927673
1701881288073223000,3.454222900390625,-0.13717956840991974,-0.5918102264404297,-0.12050308287143707
1701881288082814500,3.463814453125,0.011704564094543457,-0.5937957763671875,-0.004553273320198059
1701881288092406800,3.47340673828125,0.1778777837753296,-0.46626853942871094,0.14854475855827332
1701881288101999900,3.482999755859375,0.2945607304573059,-0.27023887634277344,0.1807851344347
1701881288111592200,3.49259228515625,0.2520482540130615,-0.0021457672119140625,0.1274842619895935
1701881288121183700,3.502183837890625,0.16936208307743073,0.28263092041015625,0.0776604413986206
1701881288130776000,3.511776123046875,0.11151123046875,0.5790691375732422,0.00642763078212738
1701881288140369200,3.521369140625,0.12018129974603653,0.7621946334838867,-0.012614995241165161
1701881288149961500,3.53096142578125,0.13411825895309448,0.8033170700073242,-0.02529306709766388
1701881288159552800,3.540552734375,0.14212407171726227,0.7001409530639648,-0.041744619607925415
1701881288169145300,3.550145263671875,0.14753982424736023,0.5022077560424805,-0.050965726375579834
1701881288178738400,3.559738525390625,0.14727652072906494,0.2652769088745117,-0.06567126512527466
1701881288188330500,3.56933056640625,0.11084641516208649,0.060652732849121094,-0.015962839126586914
1701881288197922000,3.578922119140625,0.0885402262210846,-0.1121988296508789,0.07542966306209564
1701881288207514400,3.588514404296875,0.16061367094516754,-0.23026466369628906,0.1579238623380661
1701881288217107500,3.598107421875,0.22472314536571503,-0.2968273162841797,0.2128298133611679
1701881288226699800,3.60769970703125,0.2464873045682907,-0.3033790588378906,0.2251615971326828
1701881288236291300,3.617291259765625,0.2935469448566437,-0.28864288330078125,0.14499260485172272
1701881288245883600,3.626883544921875,0.2866963744163513,-0.2718505859375,-0.010862156748771667
1701881288255476700,3.636476806640625,0.28682631254196167,-0.23423480987548828,-0.17171317338943481
1701881288265068800,3.64606884765625,0.2541446089744568,-0.18793296813964844,-0.3178362250328064
1701881288274660400,3.655660400390625,0.2082645297050476,-0.17075252532958984,-0.3788488507270813
1701881288284252700,3.665252685546875,0.15131783485412598,-0.12569522857666016,-0.3519209325313568
1701881288293845800,3.674845703125,0.0990733727812767,-0.07908821105957031,-0.2747528553009033
1701881288303438000,3.68443798828125,0.022414885461330414,-0.021509170532226562,-0.1492198407649994
1701881288313029600,3.694029541015625,-0.019988805055618286,0.00921630859375,-0.04025906324386597
1701881288322622000,3.7036220703125,-0.03177742660045624,0.022978782653808594,0.004754096269607544
1701881288332215000,3.713215087890625,-0.021011382341384888,0.008307456970214844,0.04540008306503296
1701881288341807000,3.72280712890625,0.051589153707027435,-0.02020263671875,0.0678587257862091
1701881288351398700,3.732398681640625,0.12154342234134674,-0.045833587646484375,0.05571892857551575
1701881288360991200,3.7419912109375,0.18666048347949982,-0.038041114807128906,0.030968785285949707
1701881288370584300,3.751584228515625,0.2547794580459595,-0.044470787048339844,-0.013251632452011108
1701881288380176400,3.76117626953125,0.26711946725845337,-0.031937599182128906,-0.029310762882232666
1701881288389768000,3.770767822265625,0.23650909960269928,-0.045485496520996094,-0.041339993476867676
1701881288399360300,3.7803603515625,0.1661567986011505,-0.03760719299316406,-0.06554260849952698
1701881288408953300,3.789953369140625,0.06402609497308731,-0.015726089477539062,-0.05451443791389465
1701881288418545700,3.799545654296875,-0.042878054082393646,-0.01303863525390625,-0.03697234392166138
1701881288428137200,3.80913720703125,-0.09750182181596756,-0.012749671936035156,-0.026913046836853027
1701881288437729500,3.8187294921875,-0.10754905641078949,-0.0053997039794921875,-0.03597801923751831
1701881288447322600,3.828322509765625,-0.06188782677054405,0.02301311492919922,-0.06361475586891174
1701881288456914700,3.837914794921875,0.010171957314014435,0.053299903869628906,-0.1023346483707428
1701881288466506200,3.84750634765625,0.08912009745836258,0.07365036010742188,-0.14701446890830994
1701881288476098600,3.8570986328125,0.15060898661613464,0.06775283813476562,-0.21168163418769836
1701881288485691600,3.866691650390625,0.16656416654586792,0.0878305435180664,-0.2511596381664276
1701881288495284000,3.876283935546875,0.1727282553911209,0.10049724578857422,-0.24244052171707153
1701881288504875500,3.88587548828125,0.17619262635707855,0.0776376724243164,-0.2126869261264801
1701881288514467800,3.8954677734375,0.14158712327480316,0.10225200653076172,-0.2001466155052185
1701881288524061000,3.90506103515625,0.11900918185710907,0.15235233306884766,-0.16439291834831238
1701881288533653000,3.914653076171875,0.10120216757059097,0.16395950317382812,-0.160072922706604
1701881288543244500,3.92424462890625,0.09491629153490067,0.1871480941772461,-0.16547492146492004
1701881288552836900,3.9338369140625,0.10488647222518921,0.20053482055664062,-0.18974000215530396
1701881288562430000,3.943429931640625,0.09304344654083252,0.2160501480102539,-0.21360814571380615
1701881288572022300,3.953022216796875,0.06938952207565308,0.2101154327392578,-0.2535666525363922
1701881288581613800,3.96261376953125,0.015512548387050629,0.16896343231201172,-0.27156543731689453
1701881288591206100,3.9722060546875,-0.02299867570400238,0.15438079833984375,-0.2959875166416168
1701881288600799200,3.98179931640625,-0.07474607229232788,0.13061046600341797,-0.2983548939228058
1701881288610391600,3.9913916015625,-0.017477266490459442,0.010725975036621094,-0.2727828323841095
1701881288619982800,4.00098291015625,-0.027082696557044983,-0.02003765106201172,-0.2292664349079132
1701881288629575200,4.0105751953125,-0.008482217788696289,0.006217002868652344,-0.20553725957870483
1701881288639168300,4.020168212890625,0.016323238611221313,0.001434326171875,-0.19891181588172913
1701881288648760600,4.029760498046875,0.06347257643938065,0.0037946701049804688,-0.19027450680732727
1701881288658352000,4.03935205078125,0.07844334095716476,0.017887115478515625,-0.18907839059829712
1701881288667944400,4.0489443359375,0.09474765509366989,0.0364227294921875,-0.2345285713672638
1701881288677537500,4.05853759765625,0.02044675499200821,0.06639671325683594,-0.2600415050983429
1701881288687129900,4.0681298828125,0.06930038332939148,-0.06656169891357422,-0.27148446440696716
1701881288696721400,4.077721435546875,0.01371956616640091,-0.10783958435058594,-0.2853422462940216
1701881288706313700,4.087313720703125,-0.019417881965637207,-0.11548614501953125,-0.2915763258934021
1701881288715906800,4.09690673828125,-0.007156342267990112,-0.16069316864013672,-0.30431684851646423
1701881288725499000,4.106498779296875,-0.0042750537395477295,-0.2310657501220703,-0.2927321195602417
1701881288735090400,4.11609033203125,-0.008355841040611267,-0.27204132080078125,-0.2807599902153015
1701881288744682800,4.125682861328125,-0.04281151294708252,-0.29588890075683594,-0.28229451179504395
1701881288754275800,4.13527587890625,-0.0714578777551651,-0.2911252975463867,-0.3064015209674835
1701881288763868200,4.1448681640625,-0.06130552291870117,-0.24409961700439453,-0.30561360716819763
1701881288773459700,4.154459716796875,-0.05020926892757416,-0.1602182388305664,-0.3109493851661682
1701881288783052000,4.164052001953125,-0.057104721665382385,-0.06365299224853516,-0.279573529958725
1701881288792645000,4.17364501953125,-0.10766105353832245,0.11835384368896484,-0.28259363770484924
1701881288802237400,4.183237548828125,0.030982837080955505,-0.03459358215332031,-0.20373666286468506
1701881288811828700,4.192828857421875,0.0053374916315078735,-0.050754547119140625,-0.20256495475769043
1701881288821421000,4.202421142578125,-0.019649982452392578,-0.0006761550903320312,-0.15536481142044067
1701881288831014100,4.21201416015625,-0.01867583394050598,0.0274200439453125,-0.13824045658111572
1701881288840606500,4.2216064453125,-0.01815567910671234,0.059803009033203125,-0.1366705298423767
1701881288850198000,4.231197998046875,-0.02300293743610382,0.08461666107177734,-0.11955440044403076
1701881288859790300,4.240790283203125,-0.030658751726150513,0.08549690246582031,-0.12458699941635132
1701881288869383400,4.250383544921875,-0.047764137387275696,0.1710977554321289,-0.13398748636245728
1701881288878975700,4.259975830078125,-0.032043322920799255,0.0975656509399414,-0.035612642765045166
1701881288888567000,4.269567138671875,-0.014367669820785522,-0.021782875061035156,0.006048262119293213
1701881288898159600,4.27915966796875,-0.07655857503414154,0.03979682922363281,0.046790510416030884
1701881288907752700,4.288752685546875,-0.1021651178598404,0.06269073486328125,0.07497099041938782
1701881288917344800,4.2983447265625,-0.13405723869800568,0.042827606201171875,0.11457100510597229
1701881288926936300,4.307936279296875,-0.13178685307502747,-0.00023365020751953125,0.1511504054069519
1701881288936528600,4.317528564453125,-0.11959780752658844,-0.08023834228515625,0.1683875322341919
1701881288946121700,4.327121826171875,-0.08848507702350616,-0.1518392562866211,0.16412848234176636
1701881288955714000,4.336714111328125,-0.08831070363521576,-0.19870662689208984,0.18122470378875732
1701881288965305600,4.3463056640625,-0.07169915735721588,-0.21654415130615234,0.18624845147132874
1701881288974898000,4.35589794921875,-0.07625095546245575,-0.22466659545898438,0.16303426027297974
1701881288984491000,4.365490966796875,-0.08039765059947968,-0.20911598205566406,0.1427842378616333
1701881288994083000,4.3750830078125,-0.0772034227848053,-0.20323848724365234,0.14640432596206665
1701881289003674600,4.384674560546875,-0.06947964429855347,-0.1645069122314453,0.13124102354049683
1701881289013267000,4.394266845703125,-0.10683965682983398,-0.10759735107421875,0.13292717933654785
1701881289022860000,4.403860107421875,-0.1367502212524414,-0.04692268371582031,0.11081013083457947
1701881289032452400,4.413452392578125,-0.14992882311344147,-0.003742218017578125,0.09611764550209045
1701881289042044000,4.4230439453125,-0.1466643214225769,0.026952743530273438,0.10261610150337219
1701881289051636200,4.43263623046875,-0.12040892243385315,0.04065704345703125,0.07109281420707703
1701881289061229300,4.442229248046875,-0.09992122650146484,0.04706859588623047,0.0586775541305542
1701881289070821400,4.4518212890625,-0.09462098777294159,0.0533599853515625,0.03939288854598999
1701881289080413000,4.461412841796875,-0.08517540991306305,0.06659793853759766,0.027484625577926636
1701881289090005500,4.471005615234375,-0.08812832832336426,0.09842967987060547,-0.0028339624404907227
1701881289099598600,4.4805986328125,-0.0749024897813797,0.10616493225097656,-0.03936770558357239
1701881289109190700,4.490190673828125,-0.05740794539451599,0.1160879135131836,-0.05576410889625549
1701881289118782200,4.4997822265625,-0.04277874529361725,0.13758182525634766,-0.0641302764415741
1701881289128374500,4.50937451171875,-0.04038478434085846,0.13278865814208984,-0.06000715494155884
1701881289137967600,4.518967529296875,-0.02189713716506958,0.1351022720336914,-0.041253894567489624
1701881289147560000,4.528559814453125,-0.025355249643325806,0.134979248046875,-0.04330769181251526
1701881289157151500,4.5381513671875,-0.019909024238586426,0.1512899398803711,-0.037574589252471924
1701881289166743800,4.547743896484375,-0.03608693182468414,0.155517578125,-0.052552640438079834
1701881289176337000,4.5573369140625,-0.06881514191627502,0.15257644653320312,-0.08094671368598938
1701881289185929000,4.566928955078125,-0.08966560661792755,0.1472921371459961,-0.10604581236839294
1701881289195520500,4.5765205078125,-0.07978297770023346,0.12086677551269531,-0.11837857961654663
1701881289205112800,4.58611279296875,-0.07980640232563019,0.10661792755126953,-0.13015177845954895
1701881289214706000,4.595705810546875,-0.07520972192287445,0.09728527069091797,-0.1319543421268463
1701881289224298200,4.60529833984375,-0.09418092668056488,0.06924724578857422,-0.12629377841949463
1701881289233889800,4.614889892578125,-0.15968509018421173,0.11459827423095703,-0.1714184582233429
1701881289243482000,4.624482177734375,-0.09939144551753998,0.03911590576171875,-0.0556793212890625
1701881289253075200,4.6340751953125,-0.012012362480163574,-0.07982444763183594,-0.09078490734100342
1701881289262667300,4.643667236328125,-0.062493398785591125,-0.036705970764160156,-0.06408119201660156
1701881289272258800,4.6532587890625,-0.04628032445907593,-0.0037298202514648438,-0.049678683280944824
1701881289281851100,4.66285107421875,-0.056298017501831055,-0.008980751037597656,-0.01911991834640503
1701881289291444200,4.6724443359375,-0.08963920176029205,0.004693031311035156,0.013087272644042969
1701881289301036500,4.68203662109375,-0.12226839363574982,-0.0007028579711914062,0.023595213890075684
1701881289310628000,4.691628173828125,-0.14717884361743927,0.00341033935546875,0.045582354068756104
1701881289320220400,4.701220458984375,-0.1362503618001938,-0.009022712707519531,0.09298312664031982
1701881289329813500,4.7108134765625,-0.15401460230350494,-0.016541481018066406,0.10874199867248535
1701881289339405800,4.72040576171875,-0.1387706845998764,-0.009812355041503906,0.15224826335906982
1701881289348997000,4.7299970703125,-0.14308471977710724,-0.0032052993774414062,0.1971471905708313
1701881289358589400,4.73958935546875,-0.13860519230365753,0.019751548767089844,0.2269412875175476
1701881289368182500,4.7491826171875,-0.12078315019607544,0.03287315368652344,0.2632906436920166
1701881289377774800,4.75877490234375,-0.1415494680404663,0.033965110778808594,0.3038228154182434
1701881289387366400,4.768366455078125,-0.14599958062171936,0.013811111450195312,0.33681046962738037
1701881289396958700,4.777958740234375,-0.13465669751167297,0.000988006591796875,0.3578852415084839
1701881289406551800,4.7875517578125,-0.13592621684074402,-0.0187530517578125,0.3767700791358948
1701881289416144100,4.79714404296875,-0.14264816045761108,0.0017728805541992188,0.424216628074646
1701881289425735700,4.806735595703125,-0.15438681840896606,0.038364410400390625,0.4267650842666626
1701881289435328000,4.816327880859375,-0.17342734336853027,0.06721878051757812,0.4650782346725464
1701881289444921000,4.825921142578125,-0.194715678691864,0.07671833038330078,0.5241954922676086
1701881289454513200,4.83551318359375,-0.23012283444404602,0.048348426818847656,0.5871482491493225
1701881289464104700,4.845104736328125,-0.23704349994659424,0.036911964416503906,0.639393150806427
1701881289473697000,4.854697021484375,-0.24939560890197754,0.01622486114501953,0.6854455471038818
1701881289483290000,4.8642900390625,-0.2227630615234375,0.00525665283203125,0.6876736283302307
1701881289492882400,4.87388232421875,-0.2230876088142395,0.07450103759765625,0.7220606207847595
1701881289502474000,4.883473876953125,-0.20949959754943848,0.22026348114013672,0.814337968826294
1701881289512066300,4.89306640625,-0.06763279438018799,0.3164405822753906,0.8272426128387451
1701881289521659400,4.902659423828125,0.02519524097442627,0.34967613220214844,0.8207498788833618
1701881289531251500,4.91225146484375,0.041018009185791016,0.3233470916748047,0.8488730788230896
1701881289540843000,4.921843017578125,0.039782702922821045,0.23138141632080078,0.7998242378234863
1701881289550435300,4.931435302734375,0.05252945423126221,0.16196060180664062,0.6749167442321777
1701881289560028400,4.9410283203125,0.02085411548614502,0.06763744354248047,0.5156480669975281
1701881289569620700,4.950620849609375,0.014097332954406738,-0.01587963104248047,0.3349039554595947
1701881289579212300,4.96021240234375,0.013920903205871582,-0.055785179138183594,0.17363792657852173
1701881289588804600,4.9698046875,0.013752460479736328,-0.03630542755126953,0.07913807034492493
1701881289598397700,4.979397705078125,0.008809804916381836,0.00152587890625,-0.017668336629867554
1701881289607989800,4.98898974609375,-0.07110846042633057,0.017431259155273438,-0.06303760409355164
1701881289617581300,4.998581298828125,-0.19373905658721924,-0.025836944580078125,-0.07450100779533386
1701881289627174000,5.008173828125,-0.2688691020011902,-0.06607818603515625,-0.1653895378112793
1701881289636767000,5.01776708984375,-0.2903037667274475,-0.07038497924804688,-0.31072312593460083
1701881289646359000,5.027359130859375,-0.2944106459617615,-0.08882713317871094,-0.45270565152168274
1701881289655950600,5.03695068359375,-0.3379945755004883,-0.04116630554199219,-0.6164939403533936
1701881289665543000,5.04654296875,-0.31233227252960205,-0.020296096801757812,-0.6095742583274841
1701881289675136000,5.056135986328125,-0.23698961734771729,-0.05626678466796875,-0.7185081243515015
1701881289684728300,5.065728271484375,-0.29820358753204346,-0.030393600463867188,-0.8983097076416016
1701881289694319900,5.07531982421875,-0.36090588569641113,-0.028372764587402344,-0.9871751070022583
1701881289703912200,5.084912109375,-0.37526261806488037,-0.0686178207397461,-1.1391432285308838
1701881289713505300,5.09450537109375,-0.35859644412994385,-0.09392929077148438,-1.2400550842285156
1701881289723097300,5.104097412109375,-0.2350606918334961,-0.1282501220703125,-1.2672364711761475
1701881289732689000,5.11368896484375,-0.0008792877197265625,-0.07381343841552734,-1.4373971223831177
1701881289742281200,5.12328125,0.1493072509765625,-0.046001434326171875,-1.6189885139465332
1701881289751874300,5.132874267578125,0.008090019226074219,-0.015836715698242188,-1.744558572769165
1701881289761466600,5.142466552734375,-0.3744127154350281,0.048201560974121094,-1.7759628295898438
1701881289771058200,5.15205810546875,-0.8410866260528564,0.18951129913330078,-1.783280611038208
1701881289780650500,5.161650390625,-1.1638972759246826,0.32956695556640625,-1.77005934715271
1701881289790243600,5.17124365234375,-1.377540111541748,0.4852409362792969,-1.8707647323608398
1701881289799835600,5.180835693359375,-1.2410781383514404,0.8256263732910156,-2.149597644805908
1701881289809427200,5.19042724609375,-0.47338008880615234,1.4187355041503906,-2.3378474712371826
1701881289819019500,5.20001953125,-0.19833427667617798,2.0774855613708496,-2.5469298362731934
1701881289828612600,5.209612548828125,-0.510533332824707,2.8257994651794434,-3.152128219604492
1701881289838205000,5.219204833984375,-0.30303454399108887,3.3681435585021973,-2.3559186458587646
1701881289847796500,5.22879638671875,-0.2213209867477417,3.228945255279541,-0.13569700717926025
1701881289857388800,5.238388916015625,-0.8917245864868164,2.2485151290893555,1.2738966941833496
1701881289866982000,5.24798193359375,-1.6193886995315552,1.5146102905273438,1.4009912014007568
1701881289876574200,5.25757421875,-2.2876925468444824,1.3535423278808594,-0.652229905128479
1701881289886165500,5.26716552734375,-1.7630829811096191,2.083859443664551,-2.90395188331604
1701881289895757800,5.2767578125,-0.5484248995780945,3.2036333084106445,-2.874483108520508
1701881289905351000,5.286350830078125,0.13771775364875793,4.213323593139648,-1.5410125255584717
1701881289914943200,5.295943115234375,0.33857613801956177,5.0754170417785645,-0.7721078395843506
1701881289924534800,5.30553466796875,0.6414251923561096,6.050248146057129,-0.8908389806747437
1701881289934127000,5.315127197265625,0.9870659112930298,6.943975448608398,-1.7191442251205444
1701881289943720200,5.32472021484375,1.1148886680603027,7.093376159667969,-1.6571096181869507
1701881289953312500,5.3343125,2.4195101261138916,6.157020568847656,-0.5247707366943359
1701881289962904000,5.343904052734375,4.35906457901001,4.670761585235596,0.663999617099762
1701881289972496400,5.353496337890625,5.700934886932373,3.522451400756836,1.858750343322754
1701881289982089500,5.36308935546875,5.756903648376465,2.97182035446167,3.0544846057891846
1701881289991681500,5.372681640625,5.528414249420166,3.0722546577453613,3.8737738132476807
1701881290001273000,5.382273193359375,5.231281757354736,3.709470748901367,4.335337162017822
1701881290010865400,5.391865478515625,3.998582363128662,4.355994701385498,4.013631820678711
1701881290020458500,5.40145849609375,4.466764450073242,4.347628593444824,2.947371006011963
1701881290030050800,5.41105078125,6.140761375427246,3.3521833419799805,2.8872830867767334
1701881290039642400,5.420642333984375,6.835396766662598,1.89835786819458,3.2660133838653564
1701881290049234700,5.430234619140625,6.722107410430908,0.42235565185546875,3.6460604667663574
1701881290058827800,5.439827880859375,5.590480804443359,-0.9283113479614258,3.5280487537384033
1701881290068419800,5.449419921875,3.975245714187622,-1.8114700317382812,3.6640501022338867
1701881290078011400,5.459011474609375,1.9877264499664307,-1.841151237487793,3.9382426738739014
1701881290087603700,5.468603759765625,0.06133532524108887,-1.1096153259277344,3.7486820220947266
1701881290097196800,5.47819677734375,-0.5267244577407837,1.3938302993774414,2.7670671939849854
1701881290106789000,5.4877890625,0.6098756194114685,4.262796878814697,1.410666584968567
1701881290116380700,5.497380615234375,1.9791748523712158,6.929693222045898,0.4684244990348816
1701881290125973000,5.506972900390625,2.754810333251953,8.410720825195312,0.5255278944969177
1701881290135566000,5.516566162109375,2.5962908267974854,8.578625679016113,1.3815016746520996
1701881290145158100,5.526158203125,3.144670009613037,7.460518836975098,0.3148896098136902
1701881290154749700,5.535749755859375,4.647733688354492,5.67014217376709,0.40180402994155884
1701881290164342000,5.545342041015625,4.672303199768066,3.6038689613342285,2.1384711265563965
1701881290173935000,5.55493505859375,3.7391891479492188,1.572373390197754,3.5231356620788574
1701881290183527400,5.56452734375,1.7719602584838867,-0.3657350540161133,4.534902572631836
1701881290193119000,5.574118896484375,-0.11263465881347656,-1.344944953918457,5.893237113952637
1701881290202711300,5.583711181640625,-2.1364784240722656,-0.7217121124267578,7.959100723266602
1701881290212304400,5.593304443359375,-2.8879871368408203,0.7321147918701172,9.263176918029785
1701881290221896700,5.602896728515625,-1.966226577758789,1.5764741897583008,8.558266639709473
1701881290231488000,5.612488037109375,1.4637749195098877,2.620633602142334,5.388528347015381
1701881290241080300,5.622080322265625,-0.4874720573425293,-3.7761144638061523,3.2390503883361816
1701881290250673400,5.63167333984375,0.21956396102905273,-9.187647819519043,1.6294416189193726
1701881290260265700,5.641265625,0.8858673572540283,-14.84626579284668,2.356186628341675
1701881290269857300,5.650857177734375,4.974668979644775,-17.266231536865234,3.2671172618865967
1701881290279449600,5.66044970703125,5.9804768562316895,-17.483863830566406,3.635702133178711
1701881290289042700,5.670042724609375,3.3325247764587402,-17.687278747558594,1.2270457744598389
1701881290298635000,5.679635009765625,1.444739818572998,-20.53584861755371,-1.805760383605957
1701881290308226600,5.6892265625,2.756138801574707,-19.295228958129883,-7.334756851196289
1701881290317819000,5.69881884765625,1.3697152137756348,-10.945751190185547,-9.905804634094238
1701881290327412000,5.708411865234375,-1.0019993782043457,-6.499096870422363,-5.768035411834717
1701881290337004000,5.718004150390625,-5.25937557220459,-10.936240196228027,-2.794877290725708
1701881290346595600,5.727595703125,-3.648937225341797,-14.367032051086426,1.30220627784729
1701881290356188000,5.73718798828125,-5.675677299499512,-16.52943229675293,-2.2174248695373535
1701881290365781000,5.746781005859375,-2.1101174354553223,-13.199146270751953,-1.930905818939209
1701881290375373300,5.756373291015625,-0.43895769119262695,-5.241920471191406,0.5315079689025879
1701881290384964900,5.76596484375,-2.386601448059082,1.0050101280212402,4.354567527770996
1701881290394557200,5.77555712890625,-4.202731609344482,3.0768396854400635,7.244078636169434
1701881290404150300,5.785150390625,-2.5348172187805176,3.27323317527771,8.088607788085938
1701881290413742300,5.794742431640625,-1.2646141052246094,2.8789563179016113,6.579490661621094
1701881290423334000,5.804333984375,-1.0392193794250488,2.7735493183135986,4.185133457183838
1701881290432926200,5.81392626953125,-1.7141189575195312,2.9517455101013184,2.9196584224700928
1701881290442519300,5.823519287109375,-2.9101061820983887,3.8769869804382324,2.4698646068573
1701881290452111600,5.833111572265625,-3.8466615676879883,4.602669715881348,2.9446587562561035
1701881290461703200,5.842703125,-3.9523983001708984,4.705241680145264,3.7307214736938477
1701881290471295500,5.85229541015625,-4.361952781677246,4.003396511077881,3.8100411891937256
1701881290480888600,5.861888671875,-0.16211509704589844,3.5636909008026123,6.461461544036865
1701881290490481000,5.87148095703125,-1.6889362335205078,2.9902639389038086,5.439387321472168
1701881290500072200,5.881072265625,-1.363968849182129,3.3950648307800293,4.285118579864502
1701881290509664800,5.890664794921875,-1.6869745254516602,3.9263768196105957,1.8972182273864746
1701881290519257600,5.900257568359375,-2.313142776489258,4.129705429077148,-0.9836292266845703
1701881290528850000,5.909849853515625,-2.381763458251953,3.6267266273498535,-3.399244785308838
1701881290538441500,5.91944140625,-1.9449710845947266,2.387395143508911,-4.082369804382324
1701881290548033800,5.92903369140625,-1.1754522323608398,1.0331076383590698,-2.810488224029541
1701881290557627000,5.938626953125,-0.29357051849365234,-0.012180209159851074,-1.0051889419555664
1701881290567219200,5.94821923828125,0.3990597724914551,-0.37459611892700195,0.6861386299133301
1701881290576810800,5.957810791015625,0.5375699996948242,0.10450845956802368,1.7228317260742188
1701881290586403000,5.967403076171875,0.590630054473877,1.0306321382522583,1.9800333976745605
1701881290595996200,5.97699609375,0.8373918533325195,1.833155632019043,1.769413948059082
1701881290605588200,5.986588134765625,1.1769061088562012,2.4475674629211426,1.294456958770752
1701881290615179800,5.9961796875,1.6363797187805176,3.2118020057678223,0.41711950302124023
1701881290624772000,6.005772216796875,1.4846649169921875,3.5527331829071045,-0.21025323867797852
1701881290634365200,6.015365234375,1.0982184410095215,3.5177149772644043,-0.7040514945983887
1701881290643957500,6.02495751953125,0.5070691108703613,3.352576732635498,-0.8417654037475586
1701881290653549000,6.034549072265625,-0.039775848388671875,3.0605289936065674,-0.7180318832397461
1701881290663141400,6.044141357421875,-0.14698314666748047,2.906952142715454,-0.4224433898925781
1701881290672734500,6.053734375,0.020391464233398438,2.770785331726074,-0.33394813537597656
1701881290682326500,6.063326416015625,0.4340195655822754,3.032341241836548,-0.2210536003112793
1701881290691918000,6.07291796875,0.6676473617553711,3.5448694229125977,-0.19089555740356445
1701881290701510400,6.082510498046875,0.5654630661010742,4.042074680328369,-0.20274114608764648
1701881290711103500,6.092103515625,0.47088623046875,4.186522006988525,-0.18848228454589844
1701881290720695800,6.10169580078125,0.617650032043457,3.85634183883667,0.03501272201538086
1701881290730287400,6.111287353515625,0.8703751564025879,3.103938341140747,0.6111850738525391
1701881290739879700,6.120879638671875,1.0849595069885254,1.957355260848999,1.3962597846984863
1701881290749472800,6.13047265625,1.323347568511963,1.2854819297790527,1.8507742881774902
1701881290759065000,6.140065185546875,1.6427536010742188,1.1333985328674316,2.102553367614746
1701881290768656400,6.149656494140625,1.6449074745178223,1.2555975914001465,2.0412540435791016
1701881290778249000,6.1592490234375,1.472569227218628,1.9722061157226562,1.596907615661621
1701881290787841800,6.168841796875,1.4254159927368164,2.159268379211426,1.1749444007873535
1701881290797434000,6.17843408203125,1.9727659225463867,1.8168444633483887,1.1422510147094727
1701881290807025700,6.188025634765625,2.256195068359375,1.7260241508483887,1.111617088317871
1701881290816618000,6.197617919921875,2.3524463176727295,1.735154628753662,1.116530418395996
1701881290826211000,6.207211181640625,2.684648036956787,1.6256818771362305,1.4207725524902344
1701881290835803400,6.216803466796875,3.0607733726501465,1.5035676956176758,1.5818853378295898
1701881290845395000,6.22639501953125,3.331944227218628,1.4802131652832031,1.6918678283691406
1701881290854987300,6.2359873046875,3.4152302742004395,1.4573445320129395,1.8174080848693848
1701881290864580400,6.245580322265625,3.1696250438690186,1.580561637878418,1.7516207695007324
1701881290874172400,6.25517236328125,3.1760542392730713,1.7287893295288086,1.6989831924438477
1701881290883764000,6.264763916015625,3.2394473552703857,1.9065070152282715,1.9227581024169922
1701881290893356300,6.274356201171875,3.2625012397766113,1.9338436126708984,2.181546688079834
1701881290902949400,6.283949462890625,3.173544406890869,1.7263875007629395,2.3229217529296875
1701881290912541700,6.293541748046875,3.1235461235046387,1.2864928245544434,2.5053505897521973
1701881290922133200,6.30313330078125,3.074077844619751,1.0996527671813965,2.453983783721924
1701881290931725600,6.3127255859375,2.934271812438965,0.9738144874572754,2.1665472984313965
1701881290941318700,6.322318603515625,2.469202995300293,0.6895351409912109,1.7215166091918945
1701881290950910700,6.33191064453125,2.1165285110473633,0.5489649772644043,1.3020834922790527
1701881290960502300,6.341502197265625,1.7123563289642334,0.6103272438049316,1.0428581237792969
1701881290970094600,6.351094482421875,1.1069567203521729,0.7891621589660645,0.8639392852783203
1701881290979687700,6.360687744140625,0.7901871204376221,0.7305312156677246,0.9602413177490234
1701881290989280000,6.370280029296875,-0.0020761489868164062,0.8360538482666016,0.4193868637084961
1701881290998871600,6.37987158203125,-0.00017309188842773438,0.6357333660125732,0.2295846939086914
1701881291008464000,6.3894638671875,0.39428114891052246,0.5813312530517578,-0.1493988037109375
1701881291018057000,6.399056884765625,0.8580503463745117,0.30469465255737305,-0.0759439468383789
1701881291027649000,6.40864892578125,0.7477138042449951,0.01780104637145996,-0.3727397918701172
1701881291037240600,6.418240478515625,0.8301272392272949,-0.3574812412261963,-0.3358440399169922
1701881291046833000,6.4278330078125,0.9871211051940918,-0.670828104019165,-0.2669715881347656
1701881291056426000,6.437426025390625,0.7352762222290039,-0.9125473499298096,-0.22421741485595703
1701881291066018300,6.447018310546875,0.44019579887390137,-1.0862505435943604,-0.5156421661376953
1701881291075609900,6.45660986328125,0.13080120086669922,-1.217118740081787,-0.8089694976806641
1701881291085202200,6.4662021484375,-0.32189035415649414,-1.421858549118042,-0.8457260131835938
1701881291094795300,6.475795166015625,-0.8694534301757812,-1.4958409070968628,-1.3250226974487305
1701881291104387600,6.4853876953125,-1.0752992630004883,-1.4708669185638428,-1.337839126586914
1701881291113979000,6.494978759765625,-0.9121699333190918,-1.5835232734680176,-0.8100337982177734
1701881291123571500,6.504571533203125,-0.7559356689453125,-1.5854506492614746,-1.422952651977539
1701881291133164300,6.514164306640625,-0.04193449020385742,-1.914401650428772,-0.1392812728881836
1701881291142756600,6.523756591796875,-0.053662776947021484,-1.8522430658340454,-0.9281463623046875
1701881291152348200,6.53334814453125,0.17243528366088867,-1.935882568359375,-1.0128536224365234
1701881291161940500,6.5429404296875,0.437061071395874,-2.0341379642486572,-0.04149055480957031
1701881291171533600,6.552533447265625,-0.5904130935668945,-2.094611406326294,-0.6799335479736328
1701881291181126000,6.5621259765625,-1.7677030563354492,-2.0343832969665527,-1.7513885498046875
1701881291190717400,6.571717529296875,-2.1869821548461914,-1.8224481344223022,-2.190929412841797
1701881291200309800,6.581309814453125,-1.2599883079528809,-1.9740010499954224,-0.3342142105102539
1701881291209902800,6.59090283203125,-0.8864502906799316,-1.720890760421753,-0.2471179962158203
1701881291219495000,6.600494873046875,-0.3481602668762207,-1.3835177421569824,-0.24875736236572266
1701881291229086500,6.61008642578125,0.14150714874267578,-1.204559087753296,0.2801189422607422
1701881291238678800,6.6196787109375,0.28722620010375977,-1.0214893817901611,-0.045403480529785156
1701881291248272000,6.62927197265625,0.17618989944458008,-0.9980396628379822,-0.1358795166015625
1701881291257864200,6.6388642578125,0.016892433166503906,-1.0220590829849243,-0.1281280517578125
1701881291267455700,6.648455810546875,-0.19332170486450195,-1.0218791961669922,-0.1630868911743164
1701881291277048000,6.658048095703125,-0.5615830421447754,-1.0434582233428955,-0.1835470199584961
1701881291286641200,6.66764111328125,-0.8778114318847656,-1.0076910257339478,-0.21791934967041016
1701881291296233200,6.677233154296875,-0.9074554443359375,-0.9107789993286133,-0.19330215454101562
1701881291305824800,6.68682470703125,-0.783266544342041,-0.8012303113937378,-0.16165637969970703
1701881291315417000,6.6964169921875,-0.4037284851074219,-0.6143274307250977,-0.05277061462402344
1701881291325010200,6.70601025390625,-0.1598663330078125,-0.3915189504623413,0.06358909606933594
1701881291334602500,6.7156025390625,0.07188177108764648,-0.18141615390777588,0.19892024993896484
1701881291344194000,6.725194091796875,0.2835845947265625,-0.03801584243774414,0.33233070373535156
1701881291353786400,6.734786376953125,0.41335391998291016,0.03945612907409668,0.42568016052246094
1701881291363379500,6.74437939453125,0.3993563652038574,0.037850260734558105,0.5652570724487305
1701881291372971500,6.753971435546875,0.31413888931274414,-0.008586525917053223,0.7030277252197266
1701881291382563000,6.76356298828125,0.13891363143920898,-0.06858623027801514,0.7601394653320312
1701881291392155400,6.7731552734375,-0.025216102600097656,-0.125280499458313,0.8176813125610352
1701881291401748500,6.78274853515625,-0.04644584655761719,-0.12883210182189941,0.784541130065918
1701881291411340800,6.7923408203125,0.032384395599365234,-0.11783421039581299,0.6581830978393555
1701881291420932400,6.801932373046875,0.08150005340576172,-0.06415438652038574,0.5369224548339844
1701881291430524700,6.811524658203125,0.10773420333862305,-0.023620009422302246,0.4255399703979492
1701881291440117800,6.82111767578125,0.13925647735595703,0.038912415504455566,0.2763681411743164
1701881291449710000,6.8307099609375,0.1258378028869629,0.08230090141296387,0.2207498550415039
1701881291459301400,6.84030126953125,0.1787562370300293,0.09043753147125244,0.07479572296142578
1701881291468894000,6.84989404296875,0.13058757781982422,0.06194031238555908,-0.013441085815429688
1701881291478486800,6.85948681640625,0.24216794967651367,0.07076466083526611,-0.08010673522949219
1701881291488079000,6.8690791015625,0.305936336517334,0.030692100524902344,-0.09457969665527344
1701881291497670700,6.878670654296875,0.28141307830810547,-0.015363097190856934,-0.15253829956054688
1701881291507263000,6.888262939453125,0.2877311706542969,-0.1160283088684082,-0.22029495239257812
1701881291516856000,6.89785595703125,0.27428674697875977,-0.18104755878448486,-0.3263530731201172
1701881291526448400,6.907448486328125,0.2580752372741699,-0.2563140392303467,-0.3203411102294922
1701881291536040000,6.9170400390625,0.18030643463134766,-0.2848743200302124,-0.3487997055053711
1701881291545632300,6.92663232421875,0.2204146385192871,-0.29132676124572754,-0.36884403228759766
1701881291555225300,6.936225341796875,0.23165416717529297,-0.2472611665725708,-0.3155632019042969
1701881291564817400,6.9458173828125,0.1579151153564453,-0.2224503755569458,-0.30783748626708984
1701881291574409000,6.955408935546875,0.10963773727416992,-0.18045294284820557,-0.2501411437988281
1701881291584001300,6.965001220703125,0.2214202880859375,-0.10552012920379639,-0.22649860382080078
1701881291593594400,6.974594482421875,0.1777353286743164,-0.10859930515289307,-0.16739940643310547
1701881291603186700,6.984186767578125,0.09626340866088867,-0.1974712610244751,-0.08716678619384766
1701881291612778200,6.9937783203125,0.07900619506835938,-0.19461369514465332,-0.04258441925048828
1701881291622370600,7.00337060546875,-0.01608562469482422,-0.30131208896636963,0.07683086395263672
1701881291631963600,7.012963623046875,0.12609529495239258,-0.7151599526405334,-0.2917613983154297
1701881291641555700,7.0225556640625,-0.13464975357055664,-0.6716629266738892,0.4113044738769531
1701881291651147300,7.032147216796875,-0.2617030143737793,-0.5092806816101074,0.6070914268493652
1701881291660739600,7.041739501953125,-0.370882511138916,-0.6633660197257996,0.9099922180175781
1701881291670332700,7.051332763671875,-0.46427059173583984,-0.9885405898094177,1.2576470375061035
1701881291679925000,7.060925048828125,-0.23674821853637695,-0.7161682844161987,0.9502239227294922
1701881291689516500,7.0705166015625,-0.1800975799560547,-0.8744516968727112,1.1398615837097168
1701881291699108900,7.08010888671875,-0.010910511016845703,-0.6067402362823486,0.927861213684082
1701881291708702000,7.089701904296875,0.09751415252685547,-0.534748911857605,0.8995256423950195
1701881291718294300,7.099294189453125,0.1190023422241211,-0.4410440921783447,0.9649028778076172
1701881291727885600,7.108885498046875,0.24612760543823242,-0.2795611619949341,0.8531966209411621
1701881291737478000,7.118477783203125,0.2560310363769531,-0.2922157049179077,0.6749296188354492
1701881291747071000,7.128071044921875,0.0942683219909668,-0.21624839305877686,0.5399370193481445
1701881291756663300,7.137663330078125,-0.014281749725341797,-0.10444509983062744,0.33350086212158203
1701881291766254800,7.1472548828125,-0.11275482177734375,-0.016928911209106445,0.1656055450439453
1701881291775847200,7.15684716796875,-0.20582199096679688,0.05108821392059326,0.05517101287841797
1701881291785440300,7.166440185546875,-0.24828481674194336,0.05413484573364258,-0.000255584716796875
1701881291795032300,7.1760322265625,-0.2620353698730469,0.06168961524963379,-0.0125732421875
1701881291804624000,7.185623779296875,-0.22968387603759766,0.04761970043182373,-0.015763282775878906
1701881291814216200,7.19521630859375,-0.16336727142333984,0.03667736053466797,0.042876243591308594
1701881291823809300,7.204809326171875,-0.022542953491210938,0.04605996608734131,0.0032482147216796875
1701881291833401600,7.214401611328125,0.04889345169067383,-0.060625314712524414,-0.014767646789550781
1701881291842993200,7.2239931640625,0.1112217903137207,-0.0990452766418457,0.04108238220214844
1701881291852585500,7.23358544921875,0.2820425033569336,-0.17680621147155762,-0.06951427459716797
1701881291862178600,7.243178466796875,0.41324853897094727,-0.29471147060394287,-0.05627155303955078
1701881291871771000,7.25277099609375,0.4916510581970215,-0.41217219829559326,-0.07447147369384766
1701881291881362200,7.262362060546875,0.49453210830688477,-0.5370156168937683,-0.1189718246459961
1701881291890954500,7.27195458984375,0.41879701614379883,-0.6714733839035034,-0.24295806884765625
1701881291900547600,7.281547607421875,0.4631199836730957,-1.0180795192718506,-0.642634391784668
1701881291910140000,7.291139892578125,0.011945724487304688,-0.5505903363227844,0.22274112701416016
1701881291919731500,7.3007314453125,-0.010943889617919922,-0.570926308631897,0.2110137939453125
1701881291929323800,7.31032373046875,-0.05460691452026367,-0.7141262888908386,0.18756484985351562
1701881291938916900,7.319916748046875,-0.1456589698791504,-0.7189584374427795,0.2498149871826172
1701881291948509200,7.32950927734375,-0.23681974411010742,-0.6489666700363159,0.2860593795776367
1701881291958100500,7.3391005859375,-0.2976350784301758,-0.5905126333236694,0.25205326080322266
1701881291967693000,7.348693115234375,-0.30466508865356445,-0.5081316828727722,0.2499408721923828
1701881291977286100,7.3582861328125,-0.3171510696411133,-0.4419369101524353,0.2600822448730469
1701881291986878200,7.367878173828125,-0.2685203552246094,-0.3504185676574707,0.3433046340942383
1701881291996469800,7.3774697265625,-0.18991756439208984,-0.3117440938949585,0.2579498291015625
1701881292006062000,7.38706201171875,-0.10522270202636719,-0.26654577255249023,0.15733814239501953
1701881292015655200,7.3966552734375,-0.023787975311279297,-0.22131240367889404,0.1570730209350586
1701881292025247500,7.40624755859375,0.04721212387084961,-0.19202208518981934,0.18738651275634766
1701881292034839000,7.415839111328125,0.11010169982910156,-0.19259560108184814,0.1866779327392578
1701881292044431400,7.425431396484375,0.15531396865844727,-0.19927978515625,0.16266727447509766
1701881292054024400,7.4350244140625,0.15961456298828125,-0.20513582229614258,0.1674957275390625
1701881292063616500,7.444616455078125,0.16821002960205078,-0.2081698179244995,0.17957115173339844
1701881292073208000,7.4542080078125,0.14099359512329102,-0.19210565090179443,0.2152395248413086
1701881292082800400,7.46380029296875,0.07618284225463867,-0.16924762725830078,0.20111465454101562
1701881292092393500,7.4733935546875,-0.023403167724609375,-0.12842893600463867,0.22516441345214844
1701881292101985800,7.48298583984375,-0.06792640686035156,-0.10777127742767334,0.21152687072753906
1701881292111577300,7.492577392578125,-0.0916433334350586,-0.07623851299285889,0.20816707611083984
1701881292121169700,7.502169677734375,-0.11385393142700195,-0.05531895160675049,0.19378662109375
1701881292130762800,7.5117626953125,-0.09875917434692383,-0.009341835975646973,0.2294769287109375
1701881292140354800,7.521354736328125,-0.12035036087036133,0.021384596824645996,0.24404048919677734
1701881292149946400,7.5309462890625,-0.10020875930786133,0.07735121250152588,0.2260112762451172
1701881292159538700,7.54053857421875,-0.1066122055053711,0.09243571758270264,0.2414407730102539
1701881292169131800,7.5501318359375,-0.0825357437133789,0.12884974479675293,0.25916004180908203
1701881292178724000,7.55972412109375,-0.04944467544555664,0.10853886604309082,0.21071243286132812
1701881292188315600,7.569315673828125,-0.025916576385498047,0.07033014297485352,0.1864337921142578
1701881292197908000,7.578907958984375,0.033139705657958984,0.02135908603668213,0.1010122299194336
1701881292207501000,7.5885009765625,0.010482311248779297,0.09755134582519531,-0.021760940551757812
1701881292217093400,7.59809326171875,0.11581134796142578,-0.09024298191070557,-0.0061206817626953125
1701881292226684700,7.6076845703125,0.17313528060913086,-0.14576971530914307,0.03254890441894531
1701881292236277000,7.617277099609375,0.2418217658996582,-0.16059863567352295,0.061092376708984375
1701881292245870000,7.6268701171875,0.2675447463989258,-0.16671741008758545,-0.028720855712890625
1701881292255462400,7.63646240234375,0.2604331970214844,-0.1364995241165161,-0.053707122802734375
1701881292265054000,7.646053955078125,0.22575902938842773,-0.14407753944396973,-0.0785970687866211
1701881292274646300,7.655646240234375,0.1731576919555664,-0.17050862312316895,-0.07270336151123047
1701881292284239400,7.6652392578125,0.12604951858520508,-0.18975961208343506,-0.09986495971679688
1701881292293831700,7.674831787109375,0.08940887451171875,-0.2092270851135254,-0.0844430923461914
1701881292303423000,7.684423095703125,0.08227682113647461,-0.2147817611694336,-0.08623790740966797
1701881292313015600,7.694015625,0.08043146133422852,-0.2183300256729126,-0.07187080383300781
1701881292322608600,7.703608642578125,0.0674138069152832,-0.23171335458755493,-0.11466026306152344
1701881292332200700,7.71320068359375,0.0695791244506836,-0.23421329259872437,-0.09147834777832031
1701881292341792300,7.722792236328125,0.030536651611328125,-0.13282114267349243,-0.2297649383544922
1701881292351384600,7.732384521484375,0.10790443420410156,-0.29282253980636597,-0.18952083587646484
1701881292360977700,7.741977783203125,0.0688481330871582,-0.25703173875808716,-0.055908203125
1701881292370570000,7.751570068359375,0.09155130386352539,-0.2619536519050598,-0.01864337921142578
1701881292380161500,7.76116162109375,0.08544063568115234,-0.2574131488800049,-0.00778961181640625
1701881292389753900,7.77075390625,0.04822683334350586,-0.23432719707489014,0.012643814086914062
1701881292399347000,7.780346923828125,0.039464473724365234,-0.22385966777801514,-0.004727363586425781
1701881292408939000,7.78993896484375,0.004904270172119141,-0.18622058629989624,0.025196075439453125
1701881292418530600,7.799530517578125,-0.010303974151611328,-0.1784219741821289,0.035712242126464844
1701881292428123000,7.809122802734375,-0.02549457550048828,-0.14047878980636597,0.11443328857421875
1701881292437716000,7.818716064453125,-0.045589447021484375,-0.10351985692977905,0.13086700439453125
1701881292447308300,7.828308349609375,-0.04676103591918945,-0.09797912836074829,0.1612834930419922
1701881292456899800,7.83789990234375,-0.04335594177246094,-0.08321613073348999,0.17714786529541016
1701881292466492200,7.8474921875,-0.030718326568603516,-0.056817471981048584,0.1857767105102539
1701881292476085200,7.857085205078125,-0.020560741424560547,-0.032889366149902344,0.16364192962646484
1701881292485677300,7.86667724609375,-0.012938499450683594,-0.011295318603515625,0.16076374053955078
1701881292495268900,7.876268798828125,0.018374919891357422,-0.006026864051818848,0.13663578033447266
1701881292504861200,7.885861083984375,0.03043842315673828,0.01626431941986084,0.10349845886230469
1701881292514454300,7.895454345703125,0.021112918853759766,0.003443300724029541,0.06627082824707031
1701881292524046600,7.905046630859375,0.030574321746826172,0.0005745887756347656,0.029822349548339844
1701881292533638100,7.91463818359375,0.01602792739868164,-0.02797466516494751,0.015381813049316406
1701881292543230500,7.92423046875,0.022688865661621094,-0.06554621458053589,0.008370399475097656
1701881292552823600,7.933823486328125,-0.008661746978759766,-0.10508161783218384,0.013363838195800781
1701881292562415900,7.943415771484375,-0.004305839538574219,-0.11597985029220581,0.018321990966796875
1701881292572007200,7.953007080078125,0.0018973350524902344,-0.13895279169082642,0.02341175079345703
1701881292581599500,7.962599609375,0.02199554443359375,-0.1431717872619629,0.016672134399414062
1701881292591192600,7.972192626953125,0.016031265258789062,-0.13350361585617065,0.026383399963378906
1701881292600785000,7.981784912109375,0.043412208557128906,-0.12418711185455322,0.019257545471191406
1701881292610376400,7.99137646484375,0.06592464447021484,-0.1151576042175293,0.0049877166748046875
1701881292619968800,8.00096875,0.07443380355834961,-0.10145235061645508,0.011850357055664062
1701881292629561900,8.010561767578125,0.09743547439575195,-0.09476625919342041,0.020669937133789062
1701881292639154200,8.020154296875,0.09465456008911133,-0.07140403985977173,0.04790210723876953
1701881292648745700,8.029745849609375,0.08290481567382812,-0.045768797397613525,0.04621601104736328
1701881292658338000,8.039338134765625,0.04103279113769531,-0.06293642520904541,0.042026519775390625
1701881292667931100,8.04893115234375,0.047036170959472656,-0.07030606269836426,0.049628257751464844
1701881292677523200,8.058523193359376,0.029692649841308594,-0.06826776266098022,0.05455207824707031
1701881292687114800,8.06811474609375,0.019584178924560547,-0.05480068922042847,0.04530525207519531
1701881292696707000,8.07770703125,0.014141559600830078,-0.04657471179962158,0.050436973571777344
1701881292706300200,8.087300048828125,0.027421951293945312,-0.020091712474822998,0.057910919189453125
1701881292715892500,8.096892578125,0.03793668746948242,-0.017782211303710938,0.06064796447753906
1701881292725484000,8.106484130859375,0.043396949768066406,0.010502934455871582,0.058750152587890625
1701881292735076400,8.116076416015625,0.04407835006713867,0.017246901988983154,0.08042621612548828
1701881292744669400,8.12566943359375,0.02830028533935547,0.02189159393310547,0.1017608642578125
1701881292754261500,8.135261474609376,0.010556221008300781,0.02917999029159546,0.10622406005859375
1701881292763853000,8.14485302734375,0.005078315734863281,0.024919986724853516,0.11287879943847656
1701881292773445400,8.1544453125,-0.021285533905029297,0.02800697088241577,0.11931419372558594
1701881292783038500,8.16403857421875,-0.03298044204711914,0.02658313512802124,0.10206031799316406
1701881292792630800,8.173630859375,-0.049190521240234375,0.03478991985321045,0.09453201293945312
1701881292802222300,8.183222412109375,-0.06050682067871094,0.04056459665298462,0.08718681335449219
1701881292811814700,8.192814697265625,-0.07172966003417969,0.043889522552490234,0.06118965148925781
1701881292821407700,8.20240771484375,-0.08042240142822266,0.06771910190582275,0.047333717346191406
1701881292830999800,8.211999755859376,-0.11490821838378906,0.11172372102737427,0.04073047637939453
1701881292840591400,8.22159130859375,-0.03668069839477539,0.02103114128112793,0.05598735809326172
1701881292850183700,8.23118359375,-0.0359339714050293,0.04735994338989258,0.08095073699951172
1701881292859776800,8.24077685546875,-0.03566265106201172,0.04967266321182251,0.0916595458984375
1701881292869369000,8.250369140625,-0.04783010482788086,0.03782147169113159,0.0837717056274414
1701881292878960600,8.259960693359375,-0.041423797607421875,0.028486311435699463,0.08571815490722656
1701881292888553000,8.269552978515625,-0.05406332015991211,0.030829191207885742,0.0664825439453125
1701881292898146000,8.27914599609375,-0.05208301544189453,0.03765195608139038,0.06149482727050781
1701881292907738400,8.28873828125,-0.04353618621826172,-0.030535459518432617,0.09694766998291016
1701881292917329700,8.29832958984375,-0.04018878936767578,-0.07819658517837524,0.10148239135742188
1701881292926922200,8.307922119140626,-0.046398162841796875,-0.08234459161758423,0.131927490234375
1701881292936515000,8.31751513671875,-0.0434565544128418,-0.09314286708831787,0.1079854965209961
1701881292946107400,8.327107421875,-0.07148313522338867,-0.11335617303848267,0.08932781219482422
1701881292955699000,8.336698974609375,-0.056793212890625,-0.13143491744995117,0.02862262725830078
1701881292965291300,8.346291259765625,-0.12380504608154297,-0.02871161699295044,-0.06011390686035156
1701881292974884400,8.35588427734375,-0.07416200637817383,-0.19940370321273804,0.0124969482421875
1701881292984476700,8.3654765625,-0.024010658264160156,-0.2477901577949524,-0.040305137634277344
1701881292994068200,8.375068115234376,0.015333175659179688,-0.21391957998275757,-0.021356582641601562
1701881293003660500,8.38466064453125,0.038842201232910156,-0.2234269380569458,-0.01859569549560547
1701881293013253600,8.394253662109374,0.5630927085876465,-0.4368140697479248,0.11087512969970703
1701881293022845700,8.403845703125,1.034341812133789,-0.3658818006515503,0.19988059997558594
1701881293032437200,8.413437255859375,1.0410447120666504,-0.0962797999382019,0.11124420166015625
1701881293042029600,8.423029541015625,0.6063375473022461,0.11843353509902954,-0.06135845184326172
1701881293051622700,8.43262255859375,0.07534551620483398,0.20771050453186035,-0.16449260711669922
1701881293061215000,8.442215087890625,-0.5798993110656738,0.20394253730773926,-0.15545940399169922
1701881293070806500,8.451806640625,-1.0119338035583496,0.11447983980178833,-0.12293815612792969
1701881293080398800,8.46139892578125,-0.8916983604431152,0.012088894844055176,-0.1369619369506836
1701881293089992000,8.470991943359374,-0.6480989456176758,-0.05419778823852539,-0.14440155029296875
1701881293099584000,8.480583984375,-0.48136043548583984,-0.062428295612335205,-0.14733219146728516
1701881293109175600,8.490175537109375,-0.2371983528137207,-0.021553754806518555,-0.14331626892089844
1701881293118767900,8.499767822265625,-0.0034799575805664062,0.08910810947418213,-0.18691635131835938
1701881293128361000,8.50936083984375,0.14955902099609375,0.1567704677581787,-0.11252880096435547
1701881293137953300,8.518953369140625,0.29720592498779297,0.15763217210769653,-0.07177162170410156
1701881293147544800,8.528544921875,0.4579916000366211,0.14529907703399658,0.0021648406982421875
1701881293157137200,8.53813720703125,0.44574689865112305,0.16238725185394287,0.11342620849609375
1701881293166730200,8.547730224609374,0.35315656661987305,0.21014130115509033,0.13399028778076172
1701881293176322300,8.557322265625,0.19126367568969727,0.18873614072799683,0.18991374969482422
1701881293185913900,8.566913818359374,0.06510114669799805,0.1435835361480713,0.23328876495361328
1701881293195506200,8.576506103515625,-0.05633354187011719,0.088356614112854,0.24762439727783203
1701881293205099300,8.586099365234375,-0.1545705795288086,0.022506535053253174,0.24056434631347656
1701881293214691600,8.595691650390625,-0.24439716339111328,-0.0426788330078125,0.2007884979248047
1701881293224283100,8.605283203125,-0.28863048553466797,-0.09843093156814575,0.17371749877929688
1701881293233875500,8.61487548828125,-0.28589439392089844,-0.1383061408996582,0.14745616912841797
1701881293243468500,8.624468505859374,-0.23705291748046875,-0.16270160675048828,0.13144874572753906
1701881293253060900,8.634060791015624,-0.1526479721069336,-0.1601771116256714,0.11161518096923828
1701881293262652200,8.643652099609374,-0.05864238739013672,-0.13540518283843994,0.11128711700439453
1701881293272244700,8.65324462890625,0.021301746368408203,-0.10255080461502075,0.10425186157226562
1701881293281837600,8.662837646484375,0.08085966110229492,-0.07767176628112793,0.12568092346191406
1701881293291430000,8.672429931640625,0.11127853393554688,-0.057855069637298584,0.12785816192626953
1701881293301021400,8.682021484375,0.13454818725585938,-0.025982022285461426,0.12744903564453125
1701881293310613800,8.69161376953125,0.13930892944335938,-0.0011240839958190918,0.10783004760742188
1701881293320206800,8.701206787109374,0.12100362777709961,0.029066503047943115,0.09301376342773438
1701881293329799200,8.710799072265624,0.09402704238891602,0.033683061599731445,0.06648826599121094
1701881293339390700,8.720390625,0.0537109375,0.02467447519302368,0.0025930404663085938
1701881293348983000,8.729983154296875,0.009787559509277344,0.011495411396026611,-0.043982505798339844
1701881293358576000,8.739576171875,-0.01937389373779297,-0.010975122451782227,-0.09679603576660156
1701881293368168200,8.749168212890625,-0.03383922576904297,-0.031154155731201172,-0.14176654815673828
1701881293377759700,8.758759765625,-0.03865766525268555,-0.04192274808883667,-0.15776824951171875
1701881293387352000,8.76835205078125,-0.02712726593017578,-0.0600704550743103,-0.17107295989990234
1701881293396945200,8.777945068359376,-0.0066661834716796875,-0.040496766567230225,-0.1533966064453125
1701881293406537500,8.787537353515624,0.006285190582275391,-0.03581249713897705,-0.12893295288085938
1701881293416129000,8.79712890625,0.02106952667236328,-0.005522370338439941,-0.10000419616699219
1701881293425721300,8.806721435546875,0.04482412338256836,0.026558339595794678,-0.0714406967163086
1701881293435314400,8.816314453125,0.061309814453125,0.048782289028167725,-0.05287742614746094
1701881293444906500,8.825906494140625,0.08960580825805664,0.07551956176757812,-0.030091285705566406
1701881293454498000,8.835498046875,0.08019495010375977,0.09532541036605835,-0.014950752258300781
1701881293464090400,8.84509033203125,0.08316278457641602,0.0966612696647644,0.013858795166015625
1701881293473683500,8.854683349609376,0.1030125617980957,0.09170061349868774,0.020807266235351562
1701881293483275800,8.86427587890625,0.07560491561889648,0.09414011240005493,0.025218963623046875
1701881293492867300,8.873867431640624,-0.004797935485839844,0.23475700616836548,-0.088653564453125
1701881293502459600,8.883459716796875,0.007880210876464844,-0.033464014530181885,0.09848308563232422
1701881293512052700,8.893052734375,-0.03881359100341797,0.0014619827270507812,-0.009263038635253906
1701881293521644800,8.902644775390625,-0.08488702774047852,0.0589028000831604,0.037856101989746094
1701881293531236400,8.912236328125,-0.07628631591796875,-0.056477129459381104,0.06079578399658203
1701881293540828700,8.92182861328125,-0.09180355072021484,-0.09705591201782227,0.07889938354492188
1701881293550421800,8.931421875,-0.08356046676635742,-0.09472155570983887,0.06845951080322266
1701881293560014000,8.94101416015625,-0.08020448684692383,-0.11149352788925171,0.09586143493652344
1701881293569605600,8.950605712890624,-0.055841922760009766,-0.12100386619567871,0.09697818756103516
1701881293579198000,8.960197998046874,-0.029541969299316406,-0.11628895998001099,0.10278511047363281
1701881293588791000,8.969791015625,-0.020073890686035156,-0.11171114444732666,0.06841564178466797
1701881293598383400,8.97938330078125,0.007975101470947266,-0.07670003175735474,0.053501129150390625
1701881293607974700,8.988974609375,0.0001277923583984375,-0.06847518682479858,0.01297760009765625
1701881293617567200,8.998567138671875,0.020556926727294922,-0.04876965284347534,-0.00798797607421875
1701881293627160000,9.00816015625,0.0029783248901367188,-0.05293452739715576,-0.00270843505859375
1701881293636752400,9.01775244140625,0.0021619796752929688,-0.04776644706726074,0.00011920928955078125
1701881293646344000,9.027343994140624,-0.012880325317382812,-0.047509610652923584,-0.020585060119628906
1701881293655936300,9.036936279296874,-0.01580667495727539,-0.05676877498626709,-0.019824981689453125
1701881293665529300,9.046529296875,-0.028100967407226562,-0.04704004526138306,-0.02378559112548828
1701881293675121700,9.05612158203125,-0.019012451171875,-0.04694861173629761,-0.008847236633300781
1701881293684713200,9.065713134765625,-0.019292354583740234,-0.049059510231018066,0.0010280609130859375
1701881293694305500,9.075305419921875,-0.007512092590332031,-0.029947519302368164,-0.010624885559082031
1701881293703898600,9.084898681640626,-0.007414340972900391,-0.02989286184310913,-0.0034151077270507812
1701881293713490700,9.09449072265625,0.004547119140625,-0.003847956657409668,0.013043403625488281
1701881293723082200,9.104082275390626,0.014145374298095703,0.0030241012573242188,0.0032243728637695312
1701881293732674600,9.113674560546874,0.030950546264648438,0.002835869789123535,0.005164146423339844
1701881293742267600,9.123267578125,0.02413320541381836,0.00732266902923584,0.018715858459472656
1701881293751860000,9.13285986328125,0.01036691665649414,0.006931424140930176,0.03203296661376953
1701881293761451500,9.142451416015625,0.0015287399291992188,0.004134118556976318,0.047481536865234375
1701881293771043800,9.1520439453125,0.006878376007080078,0.008504390716552734,0.04625129699707031
1701881293780637000,9.161636962890626,0.002616405487060547,0.0006878972053527832,0.04506969451904297
1701881293790229000,9.17122900390625,-0.013649940490722656,-0.018886148929595947,0.044083595275878906
1701881293799820500,9.180820556640626,-0.00836324691772461,-0.017135679721832275,0.03361701965332031
1701881293809412900,9.190412841796874,-0.01055145263671875,-0.011224210262298584,0.023471832275390625
1701881293819006000,9.200005859375,-0.019861221313476562,-0.0056008100509643555,0.0064697265625
1701881293828598300,9.209598388671875,0.006317615509033203,0.025941967964172363,-0.012602806091308594
1701881293838189800,9.21918994140625,0.01326608657836914,0.03591048717498779,-0.012534141540527344
1701881293847782100,9.2287822265625,0.027507305145263672,0.0413549542427063,-0.0244140625
1701881293857375200,9.238375244140625,0.022918224334716797,0.044836342334747314,-0.022066116333007812
1701881293866967600,9.247967529296876,0.013737678527832031,0.06026434898376465,-0.03623771667480469
1701881293876558800,9.257558837890626,0.009250164031982422,0.06867927312850952,-0.01707744598388672
1701881293886151200,9.267151123046874,-0.000030040740966796875,0.07477521896362305,-0.016953468322753906
1701881293895744300,9.276744140625,-0.018826007843017578,0.06239563226699829,0.004563331604003906
1701881293905336600,9.286336669921875,-0.023447036743164062,0.052977919578552246,0.014155387878417969
1701881293914928000,9.29592822265625,-0.03963661193847656,0.04163318872451782,0.03766632080078125
1701881293924520400,9.3055205078125,-0.05321359634399414,0.018837809562683105,0.04903411865234375
1701881293934113500,9.315113525390625,-0.07368707656860352,-0.003928244113922119,0.034316062927246094
1701881293943705900,9.324705810546876,-0.07503795623779297,-0.012766242027282715,0.041001319885253906
1701881293953297200,9.334297119140626,-0.05332756042480469,-0.026530325412750244,0.054907798767089844
1701881293962889700,9.3438896484375,-0.027471542358398438,-0.028447210788726807,0.05927467346191406
1701881293972482600,9.353482666015625,-0.021268367767333984,-0.03039085865020752,0.05673980712890625
1701881293982075000,9.363074951171875,-0.008021831512451172,-0.04177725315093994,0.03064441680908203
1701881293991666400,9.37266650390625,-0.016014575958251953,-0.034162700176239014,0.01665019989013672
1701881294001258800,9.3822587890625,-0.000247955322265625,-0.021930277347564697,0.0075473785400390625
1701881294010851800,9.391851806640625,0.015330314636230469,-0.016891837120056152,-0.027335166931152344
1701881294020444200,9.401444091796876,0.030828475952148438,-0.0023894906044006348,-0.028776168823242188
1701881294030035700,9.41103564453125,0.041464805603027344,0.00034815073013305664,-0.016107559204101562
1701881294039628000,9.4206279296875,0.04721546173095703,-0.003927469253540039,-0.036597251892089844
1701881294049221000,9.43022119140625,0.04815101623535156,-0.0010328292846679688,-0.02848529815673828
1701881294058813200,9.439813232421875,0.03748035430908203,0.0016603469848632812,-0.03946876525878906
1701881294068404700,9.44940478515625,0.04608440399169922,-0.01925516128540039,-0.041016578674316406
1701881294077997000,9.4589970703125,0.05259132385253906,-0.006841301918029785,-0.04749107360839844
1701881294087590100,9.468590087890625,0.056929588317871094,-0.00870126485824585,-0.05403423309326172
1701881294097182500,9.478182373046875,0.054343223571777344,-0.010413289070129395,-0.06058311462402344
1701881294106774000,9.48777392578125,0.05917787551879883,0.006816864013671875,-0.05543804168701172
1701881294116366300,9.497366455078126,0.05219078063964844,0.0004876852035522461,-0.0668478012084961
1701881294125959400,9.50695947265625,0.03610372543334961,0.017864525318145752,-0.035808563232421875
1701881294135551700,9.5165517578125,0.032065391540527344,0.018435895442962646,-0.033547401428222656
1701881294145143000,9.52614306640625,0.030448436737060547,0.02361130714416504,-0.021915435791015625
1701881294154735600,9.535735595703125,0.026409626007080078,0.01918882131576538,-0.0033693313598632812
1701881294164328400,9.545328369140625,-0.0033636093139648438,0.0005254149436950684,0.005373954772949219
1701881294173920800,9.554920654296875,-0.011548042297363281,-0.01321333646774292,0.028143882751464844
1701881294183512300,9.56451220703125,-0.01507711410522461,-0.015046775341033936,0.022391319274902344
1701881294193104600,9.574104736328126,-0.025695323944091797,-0.004925191402435303,0.014447212219238281
1701881294202697700,9.58369775390625,-0.03152322769165039,-0.009192228317260742,0.03258037567138672
1701881294212290000,9.5932900390625,-0.03980684280395508,0.010000824928283691,0.02933216094970703
1701881294221881600,9.602881591796875,-0.03392314910888672,0.024070918560028076,0.028539657592773438
1701881294231474000,9.612473876953125,-0.028252601623535156,0.0282781720161438,0.044287681579589844
1701881294241067000,9.62206689453125,-0.03708505630493164,0.03712385892868042,0.059947967529296875
1701881294250659000,9.6316591796875,-0.02703237533569336,0.03659498691558838,0.06836509704589844
1701881294260250600,9.641250732421875,-0.029106616973876953,0.0384291410446167,0.0649871826171875
1701881294269843000,9.650843017578126,-0.03594970703125,0.023943066596984863,0.07116031646728516
1701881294279436000,9.66043603515625,-0.052095890045166016,0.017045140266418457,0.05136394500732422
1701881294289028400,9.6700283203125,-0.03973245620727539,0.0032358169555664062,0.0625143051147461
1701881294298620000,9.679619873046875,-0.03476238250732422,0.013023078441619873,0.054701805114746094
1701881294308212200,9.689212158203125,-0.02762603759765625,0.0014008879661560059,0.03766345977783203
1701881294317805300,9.698805419921875,-0.023056983947753906,-0.002965092658996582,0.03979969024658203
1701881294327397400,9.7083974609375,-0.011512279510498047,-0.002608358860015869,0.03483867645263672
1701881294336989000,9.717989013671875,0.007091522216796875,-0.006965935230255127,0.008653640747070312
1701881294346581200,9.727581298828126,0.020961761474609375,-0.032343924045562744,-0.0031337738037109375
1701881294356174300,9.73717431640625,0.032540321350097656,-0.01947873830795288,-0.01959991455078125
1701881294365766700,9.7467666015625,0.03951263427734375,-0.032570838928222656,-0.026538848876953125
1701881294375358200,9.756358154296874,0.044118404388427734,-0.042937397956848145,-0.031057357788085938
1701881294384950500,9.765950439453125,0.05806398391723633,-0.03175395727157593,-0.026063919067382812
1701881294394543600,9.775543701171875,0.03891420364379883,-0.027819454669952393,-0.040045738220214844
1701881294404136000,9.785135986328125,0.05304098129272461,-0.021501541137695312,-0.04201316833496094
1701881294413727200,9.794727294921875,0.04102659225463867,-0.017701804637908936,-0.041594505310058594
1701881294423319600,9.804319580078126,0.017611026763916016,-0.02820742130279541,-0.053071022033691406
1701881294432912600,9.81391259765625,0.015754222869873047,-0.03159213066101074,-0.05023002624511719
1701881294442505000,9.8235048828125,0.009398460388183594,-0.046750009059906006,-0.054617881774902344
1701881294452096500,9.833096435546874,-0.0014748573303222656,-0.01943308115005493,-0.054291725158691406
1701881294461688800,9.842688720703125,0.004199028015136719,-0.016419708728790283,-0.05628681182861328
1701881294471282000,9.852281982421875,-0.01858663558959961,-0.025439560413360596,-0.051138877868652344
1701881294480874200,9.861874267578125,-0.005774497985839844,-0.013215959072113037,-0.04602622985839844
1701881294490465500,9.871465576171875,-0.0002384185791015625,-0.00373995304107666,-0.038664817810058594
1701881294500058000,9.88105810546875,-0.004505634307861328,0.0007164478302001953,-0.021843910217285156
1701881294509651200,9.890651123046876,0.0004210472106933594,0.016621410846710205,-0.012210845947265625
1701881294519243300,9.9002431640625,0.021555423736572266,0.020300745964050293,-0.004993438720703125
1701881294528834800,9.909834716796874,0.006854534149169922,0.037971675395965576,0.013971328735351562
1701881294538427100,9.91942724609375,0.030001163482666016,0.06239676475524902,0.027950286865234375
1701881294548020200,9.929020263671875,0.017288684844970703,0.08197712898254395,0.025343894958496094
1701881294557612500,9.938612548828125,0.014225006103515625,0.08496344089508057,0.032207489013671875
1701881294567204000,9.9482041015625,-0.0074024200439453125,0.1000361442565918,0.03885936737060547
1701881294576796400,9.95779638671875,-0.023845672607421875,0.08239489793777466,0.05244255065917969
1701881294586389500,9.967389404296876,-0.03766012191772461,0.08887386322021484,0.06112384796142578
1701881294595981800,9.97698193359375,-0.06529474258422852,0.06942099332809448,0.06020355224609375
1701881294605573000,9.986572998046874,-0.06895780563354492,0.07149374485015869,0.06638050079345703
1701881294615165400,9.99616552734375,-0.06306695938110352,0.04751867055892944,0.05356311798095703
1701881294624758500,10.005758544921875,-0.057464599609375,0.024037957191467285,0.04814910888671875
1701881294634350800,10.015350830078125,-0.056758880615234375,0.019687294960021973,0.04522895812988281
1701881294643942400,10.0249423828125,-0.03985881805419922,-0.01052325963973999,0.023688316345214844
1701881294653534700,10.03453466796875,-0.03257274627685547,-0.023904144763946533,0.03304481506347656
1701881294663127800,10.0441279296875,-0.01864004135131836,-0.041923701763153076,0.0235748291015625
1701881294672720100,10.05372021484375,-0.012095928192138672,-0.054934561252593994,0.016678810119628906
1701881294682311400,10.0633115234375,-0.012743949890136719,-0.06784570217132568,0.016959190368652344
1701881294691904000,10.072904052734375,-0.0017342567443847656,-0.06904107332229614,0.014927864074707031
1701881294701496800,10.082496826171875,0.0016951560974121094,-0.0775718092918396,0.006043434143066406
1701881294711089200,10.092089111328125,0.0002899169921875,-0.07233965396881104,-0.0027027130126953125
1701881294720680700,10.1016806640625,0.0033483505249023438,-0.0865907073020935,-0.02767467498779297
1701881294730273000,10.11127294921875,0.013043880462646484,-0.08013206720352173,-0.059139251708984375
1701881294739866000,10.1208662109375,0.04101705551147461,-0.08384037017822266,-0.09225845336914062
1701881294749458400,10.13045849609375,0.08236932754516602,-0.09027040004730225,-0.09880352020263672
1701881294759050000,10.140050048828124,0.10394763946533203,-0.03328251838684082,-0.12865638732910156
1701881294768642300,10.149642333984374,0.09911203384399414,0.04585576057434082,-0.10852527618408203
1701881294778235400,10.1592353515625,0.07740259170532227,0.08991086483001709,-0.08852863311767578
1701881294787827500,10.168827392578125,-0.00040531158447265625,0.18835222721099854,-0.11848258972167969
1701881294797419000,10.1784189453125,0.02160358428955078,-0.009086966514587402,-0.034722328186035156
1701881294807011300,10.18801123046875,-0.02750396728515625,-0.00756913423538208,-0.0323028564453125
1701881294816604400,10.1976044921875,-0.05675554275512695,0.022863924503326416,-0.020563125610351562
1701881294826196700,10.20719677734375,-0.06377887725830078,0.0280267596244812,-0.018652915954589844
1701881294835788300,10.216788330078124,-0.043612003326416016,0.020210683345794678,-0.0055904388427734375
1701881294845380600,10.226380615234374,-0.050628662109375,0.028339684009552002,0.0183563232421875
1701881294854973700,10.2359736328125,-0.039433956146240234,0.017235517501831055,0.08116817474365234
1701881294864565800,10.245565673828125,-0.06891345977783203,0.0031638145446777344,0.10545921325683594
1701881294874157300,10.2551572265625,0.09166812896728516,-0.3222629427909851,0.4538583755493164
1701881294883749600,10.26474951171875,0.005452632904052734,0.120414137840271,-0.04160308837890625
1701881294893342700,10.2743427734375,-0.19197463989257812,0.1264292597770691,0.11736297607421875
1701881294902935000,10.28393505859375,-0.11428976058959961,0.07043302059173584,0.1425313949584961
1701881294912526600,10.293526611328126,-0.08854007720947266,0.0404396653175354,0.16791915893554688
1701881294922119000,10.303118896484374,-0.09942770004272461,0.07125711441040039,0.11093330383300781
1701881294931712000,10.3127119140625,-0.13438081741333008,0.06290197372436523,0.1635150909423828
1701881294941304300,10.32230419921875,-0.17942047119140625,0.03420054912567139,0.12636184692382812
1701881294950895900,10.331895751953125,-0.1717662811279297,-0.018557369709014893,0.16261005401611328
1701881294960488200,10.34148828125,-0.15226125717163086,-0.038117408752441406,0.10859966278076172
1701881294970081300,10.351081298828126,-0.1937999725341797,-0.08576834201812744,0.19170665740966797
1701881294979673300,10.36067333984375,-0.1522064208984375,-0.09250062704086304,0.14627742767333984
1701881294989265000,10.370264892578126,-0.1211700439453125,-0.03350037336349487,0.09714412689208984
1701881294998857200,10.379857177734374,-0.07726526260375977,-0.011056482791900635,0.04926013946533203
1701881295008450300,10.3894501953125,-0.030020713806152344,0.041227757930755615,-0.028075218200683594
1701881295018042600,10.399042724609375,0.018247604370117188,0.08518719673156738,-0.08969879150390625
1701881295027634200,10.40863427734375,0.041428565979003906,0.13521569967269897,-0.08394432067871094
1701881295037226500,10.4182265625,0.07052755355834961,0.14165645837783813,-0.08726882934570312
1701881295046819600,10.427819580078125,0.07963323593139648,0.12645858526229858,-0.0689687728881836
1701881295056411600,10.43741162109375,0.09497642517089844,0.09723407030105591,-0.045866966247558594
1701881295066003200,10.447003173828126,0.11661434173583984,0.04462367296218872,-0.025224685668945312
1701881295075595500,10.456595458984374,0.09979724884033203,0.025460422039031982,-0.011769294738769531
1701881295085188600,10.466188720703125,0.09702873229980469,0.005958497524261475,-0.0030927658081054688
1701881295094781000,10.475781005859375,0.09883880615234375,0.009892940521240234,-0.0062713623046875
1701881295104372500,10.48537255859375,0.11478424072265625,0.00634998083114624,-0.009461402893066406
1701881295113964800,10.49496484375,0.1377730369567871,0.028720378875732422,-0.015114784240722656
1701881295123558000,10.504557861328125,0.16073942184448242,0.05079317092895508,-0.053852081298828125
1701881295133150200,10.514150146484376,0.19114398956298828,0.06082350015640259,-0.08298969268798828
1701881295142741500,10.523741455078126,0.19364547729492188,0.077750563621521,-0.10745620727539062
1701881295152333800,10.533333740234376,0.19001007080078125,0.07106572389602661,-0.11560726165771484
1701881295161927000,10.542927001953124,0.1802535057067871,0.057508766651153564,-0.13121509552001953
1701881295171519200,10.552519287109375,0.16194486618041992,0.01606351137161255,-0.1187276840209961
1701881295181110800,10.56211083984375,0.13748407363891602,-0.008076131343841553,-0.09973907470703125
1701881295190703000,10.571703125,0.10697317123413086,-0.045898616313934326,-0.060242652893066406
1701881295200296200,10.581296142578125,0.08472681045532227,-0.08075428009033203,-0.059493064880371094
1701881295209888500,10.590888427734376,0.04921913146972656,-0.13845616579055786,-0.06139850616455078
1701881295219479800,10.600479736328126,0.03144073486328125,-0.2069295048713684,-0.030707359313964844
1701881295229072400,10.610072265625,-0.011097908020019531,-0.24848014116287231,-0.026945114135742188
1701881295238665200,10.619665283203124,-0.028806209564208984,-0.27722322940826416,-0.030631065368652344
1701881295248257500,10.629257568359375,-0.06710672378540039,-0.26506441831588745,-0.06265735626220703
1701881295257849000,10.63884912109375,-0.0857381820678711,-0.2551184296607971,-0.06834793090820312
1701881295267441400,10.64844140625,-0.07817268371582031,-0.278067946434021,-0.06450748443603516
1701881295277034500,10.658034423828125,-0.09193086624145508,-0.24861353635787964,-0.05129432678222656
1701881295286626800,10.667626708984375,-0.0918436050415039,-0.2453014850616455,-0.03562450408935547
1701881295296218400,10.67721826171875,-0.10161161422729492,-0.22097694873809814,-0.017612457275390625
1701881295305810700,10.686810791015626,-0.11166048049926758,-0.17623883485794067,-0.00437164306640625
1701881295315403800,10.69640380859375,-0.11520671844482422,-0.1444823145866394,0.025528907775878906
1701881295324996000,10.70599609375,-0.11679506301879883,-0.09990257024765015,0.03160381317138672
1701881295334587400,10.71558740234375,-0.10486984252929688,-0.05423605442047119,0.05204963684082031
1701881295344179700,10.7251796875,-0.10034465789794922,-0.052056312561035156,0.06279468536376953
1701881295353772800,10.734772705078125,-0.06520271301269531,-0.04027003049850464,0.06625938415527344
1701881295363365000,10.744365234375,-0.04929542541503906,-0.03071349859237671,0.0766439437866211
1701881295372956700,10.753956787109376,-0.01933002471923828,-0.004399716854095459,0.05380725860595703
1701881295382549000,10.763549072265626,0.007973194122314453,0.035694777965545654,0.057137489318847656
1701881295392142000,10.77314208984375,0.016061782836914062,0.05130791664123535,0.03915596008300781
1701881295401734400,10.782734375,0.019285202026367188,0.08041977882385254,0.04735565185546875
1701881295411325700,10.79232568359375,0.04833555221557617,0.10403013229370117,0.041278839111328125
1701881295420918300,10.801918212890625,0.07709980010986328,0.09669989347457886,0.04460430145263672
1701881295430511000,10.811510986328125,0.07252740859985352,0.08964455127716064,0.040760040283203125
1701881295440103400,10.821103515625,0.08297538757324219,0.05539661645889282,0.04831981658935547
1701881295449695000,10.830695068359375,0.07619094848632812,0.04230844974517822,-0.011118888854980469
1701881295459287300,10.840287353515626,0.05655527114868164,0.010322153568267822,-0.006564140319824219
1701881295468880400,10.84988037109375,0.012478828430175781,-0.0030028223991394043,-0.07329082489013672
1701881295478472700,10.85947265625,0.026348114013671875,0.015950500965118408,-0.1157073974609375
1701881295488064300,10.869064208984375,-0.040421485900878906,-0.026317059993743896,-0.15012550354003906
1701881295497656600,10.878656494140625,-0.02426004409790039,-0.03542059659957886,-0.18131065368652344
1701881295507249700,10.888249755859375,0.00521087646484375,0.002255856990814209,-0.19756126403808594
1701881295516841700,10.897841796875,0.04770183563232422,0.062339186668395996,-0.21085453033447266
1701881295526433300,10.907433349609375,0.058956146240234375,0.10212594270706177,-0.19341182708740234
1701881295536025600,10.917025634765626,0.06765365600585938,0.12920725345611572,-0.20217037200927734
1701881295545618700,10.92661865234375,0.07616949081420898,0.14578235149383545,-0.2202291488647461
1701881295555211000,10.9362109375,0.10875129699707031,0.14305651187896729,-0.19133472442626953
1701881295564802600,10.945802490234374,0.15569591522216797,0.11917316913604736,-0.18931007385253906
1701881295574395000,10.955394775390625,0.1460418701171875,0.056032001972198486,-0.13358211517333984
1701881295583988000,10.964988037109375,0.13302898406982422,0.04865419864654541,-0.12658214569091797
1701881295593580300,10.974580322265625,0.16851472854614258,0.035112977027893066,-0.08745288848876953
1701881295603171600,10.984171630859375,0.14778757095336914,0.029434382915496826,-0.03773689270019531
1701881295612764200,10.99376416015625,0.12640810012817383,0.01949208974838257,-0.017953872680664062
1701881295622357000,11.00335693359375,0.1161346435546875,0.01882997155189514,-0.015867233276367188
1701881295631949300,11.01294921875,0.07371091842651367,0.01239660382270813,-0.009607315063476562
1701881295641540900,11.022540771484374,0.08208417892456055,0.04491478204727173,-0.011034011840820312
1701881295651133200,11.03213330078125,0.22031354904174805,0.08334016799926758,0.1490945816040039
1701881295660726300,11.041726318359375,0.86309814453125,0.15093165636062622,0.4256591796875
1701881295670318600,11.051318603515625,0.2591099739074707,0.09883353114128113,-0.1249074935913086
1701881295679910100,11.06091015625,-0.11251211166381836,-0.07246702909469604,0.06332778930664062
1701881295689502200,11.070502197265625,-0.23672914505004883,-0.1709395945072174,0.024538040161132812
1701881295699095600,11.080095458984376,-0.2632308006286621,-0.21437761187553406,0.016533851623535156
1701881295708687600,11.0896875,-0.29108190536499023,-0.1910070776939392,0.0049762725830078125
1701881295718279200,11.099279052734374,-0.23689603805541992,-0.09166249632835388,0.07880783081054688
1701881295727871500,11.10887158203125,-0.20334291458129883,-0.06577563285827637,0.0601043701171875
1701881295737464600,11.118464599609375,-0.13843202590942383,-0.1372479796409607,0.030591964721679688
1701881295747057000,11.128056884765625,-0.09569406509399414,-0.10571169853210449,0.06273460388183594
1701881295756648400,11.1376484375,-0.0917215347290039,0.18317508697509766,0.21550655364990234
1701881295766240800,11.14724072265625,-0.009958744049072266,0.1456785500049591,0.16868114471435547
1701881295775833900,11.156833740234376,-0.011517047882080078,0.334154337644577,0.25501537322998047
1701881295785426200,11.16642626953125,0.11226654052734375,0.29384762048721313,0.4416465759277344
1701881295795017500,11.176017578125,0.0807805061340332,0.40986257791519165,-0.05041217803955078
1701881295804610000,11.185610107421875,0.05441856384277344,0.4414311945438385,-0.05710411071777344
1701881295814203000,11.195202880859375,-0.015674114227294922,0.4514560103416443,-0.07190608978271484
1701881295823795200,11.204795166015625,-0.0971522331237793,0.4687645435333252,-0.02237081527709961
1701881295833386800,11.21438671875,-0.16648483276367188,0.39900392293930054,0.003460407257080078
1701881295842979000,11.22397900390625,-0.07112360000610352,0.21624916791915894,0.032876014709472656
1701881295852572200,11.233572265625,-0.1076350212097168,0.44899672269821167,-0.2595205307006836
1701881295862164500,11.24316455078125,-0.2771286964416504,0.2550664246082306,0.25054073333740234
1701881295871756000,11.252756103515624,-0.29131650924682617,0.12524428963661194,0.3004488945007324
1701881295881348400,11.262348388671874,-0.1885228157043457,0.24742603302001953,0.21130895614624023
1701881295890941400,11.27194140625,-0.1287827491760254,0.22120442986488342,0.21486520767211914
1701881295900533500,11.281533447265625,-0.0693516731262207,0.19374001026153564,0.2109975814819336
1701881295910125000,11.291125,-0.024295330047607422,0.2134958803653717,0.1196904182434082
1701881295919717400,11.30071728515625,-0.03177642822265625,0.31807753443717957,0.07700443267822266
1701881295929310500,11.310310546875,-0.057641029357910156,0.14750638604164124,0.18309926986694336
1701881295938902800,11.31990283203125,-0.058284759521484375,0.09258231520652771,0.1547093391418457
1701881295948494300,11.329494384765624,-0.22627019882202148,0.0639510452747345,-0.031034469604492188
1701881295958086700,11.339086669921874,0.22548532485961914,0.06676307320594788,0.13863086700439453
1701881295967679700,11.3486796875,0.22017288208007812,0.013179302215576172,0.0372314453125
1701881295977272000,11.35827197265625,0.039316654205322266,-0.20874708890914917,0.060939788818359375
1701881295986863400,11.36786328125,-0.2035694122314453,-0.38244640827178955,0.13071012496948242
1701881295996456000,11.3774560546875,-0.39621686935424805,-0.419592022895813,0.17471885681152344
1701881296006048800,11.387048828125,-0.2795882225036621,-0.43095308542251587,0.12847232818603516
1701881296015641000,11.39664111328125,-0.32752180099487305,-0.4925272464752197,0.0830678939819336
1701881296025232600,11.406232666015624,-0.2720780372619629,-0.5254629850387573,0.08617210388183594
1701881296034825000,11.415824951171874,-0.10749197006225586,-0.3185337781906128,-0.013994216918945312
1701881296044418000,11.42541796875,0.021576404571533203,-0.2544339895248413,-0.08439350128173828
1701881296054010400,11.43501025390625,0.21097755432128906,-0.17270517349243164,-0.05399274826049805
1701881296063602000,11.444601806640625,0.20344924926757812,-0.08820775151252747,-0.10601091384887695
1701881296073194200,11.4541943359375,0.3042607307434082,0.011248975992202759,-0.11002922058105469
1701881296082787300,11.463787353515626,0.3768763542175293,0.06913238763809204,-0.13002538681030273
1701881296092379400,11.47337939453125,0.2457437515258789,0.050692230463027954,-0.15434741973876953
1701881296101971000,11.482970947265626,0.21434974670410156,-0.023682594299316406,-0.07303619384765625
1701881296111563300,11.492563232421874,0.23303651809692383,-0.0939575731754303,-0.0708322525024414
1701881296121156400,11.50215625,0.09330320358276367,-0.12289682030677795,-0.09429502487182617
1701881296130748700,11.511748779296875,0.0029354095458984375,-0.13047444820404053,-0.02789020538330078
1701881296140340200,11.52134033203125,-0.07629013061523438,-0.06770524382591248,-0.07340812683105469
1701881296149932500,11.5309326171875,-0.046233177185058594,-0.11042910814285278,-0.14151525497436523
1701881296159525600,11.540525634765626,0.0647735595703125,-0.14145416021347046,-0.1796116828918457
1701881296169118000,11.550117919921876,0.08859443664550781,-0.11640128493309021,-0.19552040100097656
1701881296178709200,11.559709228515626,0.09199142456054688,-0.12303438782691956,-0.1531381607055664
1701881296188301800,11.5693017578125,0.11272048950195312,-0.20131203532218933,-0.20792865753173828
1701881296197894700,11.578894775390625,0.06931591033935547,0.0434781014919281,-0.1839919090270996
1701881296207487200,11.5884873046875,-0.06828022003173828,0.006018996238708496,-0.11522245407104492
1701881296217078500,11.59807861328125,0.19095182418823242,-0.0588570237159729,-0.1928858757019043
1701881296226670800,11.6076708984375,0.26185131072998047,-0.006149470806121826,-0.1229848861694336
1701881296236264000,11.617263916015625,0.15592098236083984,-0.06615984439849854,-0.17652082443237305
1701881296245856300,11.626856201171876,0.24393272399902344,0.012270838022232056,-0.07242155075073242
1701881296255447800,11.63644775390625,0.06975460052490234,0.14632698893547058,-0.12744617462158203
1701881296265040100,11.6460400390625,0.08241701126098633,-0.003984928131103516,-0.011528968811035156
1701881296274633200,11.65563330078125,0.10631799697875977,0.13846269249916077,-0.04725217819213867
1701881296284225300,11.665225341796875,0.09172964096069336,0.20083031058311462,0.029261112213134766
1701881296293816800,11.67481689453125,0.25269460678100586,0.1463160514831543,0.026799678802490234
1701881296303409200,11.6844091796875,0.2014021873474121,0.06666353344917297,-0.07536172866821289
1701881296313002200,11.694002197265625,0.27089548110961914,0.3033951222896576,-0.2504572868347168
1701881296322594600,11.703594482421876,0.07659149169921875,0.7929552793502808,-0.46061038970947266
1701881296332186000,11.71318603515625,0.2491626739501953,0.19197708368301392,-0.14223814010620117
1701881296341778400,11.7227783203125,0.053911685943603516,-0.2492315024137497,-0.30144309997558594
1701881296351371500,11.73237158203125,-0.3566560745239258,-0.5165343284606934,-0.15859746932983398
1701881296360963800,11.7419638671875,-0.3411097526550293,-0.6139652729034424,0.0740971565246582
1701881296370555400,11.751555419921875,-0.2459573745727539,-0.2744489312171936,-0.07739543914794922
1701881296380147700,11.761147705078125,-0.48166656494140625,-0.20740017294883728,0.04983663558959961
1701881296389740800,11.77074072265625,-0.7240848541259766,-0.37184494733810425,-0.10208606719970703
1701881296399332900,11.780332763671876,-0.7606282234191895,-0.6766234636306763,-0.055737972259521484
1701881296408924400,11.78992431640625,-0.6621174812316895,-0.8572674989700317,-0.11873483657836914
1701881296418516700,11.799516845703126,-0.49720096588134766,-0.711880624294281,-0.12579870223999023
1701881296428109800,11.80910986328125,-0.4309053421020508,-0.5722421407699585,-0.08859586715698242
1701881296437702100,11.8187021484375,-0.2050623893737793,-0.5218935012817383,-0.18969964981079102
1701881296447293700,11.828293701171875,-0.11131954193115234,-0.4450538754463196,-0.22471332550048828
1701881296456886000,11.837885986328125,-0.07837772369384766,-0.4524913430213928,-0.1859278678894043
1701881296466479000,11.84747900390625,-0.0444488525390625,-0.43432289361953735,-0.15192174911499023
1701881296476071200,11.8570712890625,-0.08535289764404297,-0.35642337799072266,-0.15994834899902344
1701881296485662700,11.866662841796876,-0.19256925582885742,-0.4373108744621277,-0.054125308990478516
1701881296495255300,11.87625537109375,-0.22303104400634766,-0.5161709785461426,0.07130193710327148
1701881296504848400,11.885848388671874,-0.25969886779785156,-0.4982043504714966,0.20370769500732422
1701881296514440400,11.8954404296875,-0.20366811752319336,-0.4220384359359741,0.23004913330078125
1701881296524032000,11.905031982421875,-0.08803701400756836,-0.448394775390625,0.19286298751831055
1701881296533624300,11.914624267578125,0.14177799224853516,-0.5182958245277405,0.1810774803161621
1701881296543217400,11.924217529296875,0.17608213424682617,-0.47361260652542114,0.29564952850341797
1701881296552809700,11.933809814453125,0.08801937103271484,-0.45963725447654724,0.5243048667907715
1701881296562401300,11.9434013671875,0.3870072364807129,-0.23823300004005432,0.26515722274780273
