time,seconds_elapsed,z,y,x
1698072006693597200,0.08459716796875,0,0,0
1698072006703190000,0.09418994140625,0,0,0
1698072006712782000,0.103781982421875,-0.2319173812866211,-0.18589162826538086,-0.20675325393676758
1698072006722375000,0.113375,-0.5659799575805664,-0.32624244689941406,-0.39570116996765137
1698072006731968500,0.122968505859375,-1.0974483489990234,-0.49660587310791016,-0.5280783772468567
1698072006741561300,0.132561279296875,-1.6417574882507324,-0.6417241096496582,-0.6009595394134521
1698072006751153400,0.1421533203125,-2.0710959434509277,-0.704735279083252,-0.6656770706176758
1698072006760746500,0.15174658203125,-2.2762370109558105,-0.6978707313537598,-0.69528728723526
1698072006770340000,0.161340087890625,-2.257638931274414,-0.6610169410705566,-0.6535349488258362
1698072006779932700,0.1709326171875,-2.225564479827881,-0.5440478324890137,-0.5564593076705933
1698072006789525000,0.18052490234375,-2.2006983757019043,-0.4579896926879883,-0.3623605966567993
1698072006799117800,0.190117919921875,-2.170146942138672,-0.38854074478149414,-0.06619399785995483
1698072006808711400,0.19971142578125,-2.141186237335205,-0.26447105407714844,0.08059024810791016
1698072006818304300,0.20930419921875,-2.000074863433838,-0.11232328414916992,0.011614799499511719
1698072006827896300,0.218896240234375,-1.7597689628601074,0.025135517120361328,-0.09194648265838623
1698072006837489200,0.2284892578125,-1.446763038635254,0.1068425178527832,-0.08080291748046875
1698072006847082800,0.238082763671875,-1.125394344329834,0.12619304656982422,-0.09248745441436768
1698072006856675600,0.247675537109375,-0.8158626556396484,0.14801883697509766,-0.16388076543807983
1698072006866267600,0.257267578125,-0.4678316116333008,0.18194866180419922,-0.2828924059867859
1698072006875860500,0.266860595703125,-0.1836104393005371,0.23948144912719727,-0.47101375460624695
1698072006885454000,0.2764541015625,-0.018572330474853516,0.34793519973754883,-0.7293200492858887
1698072006895047000,0.286046875,0.25130224227905273,0.5225214958190918,-0.9083458185195923
1698072006904639000,0.295638916015625,0.3965625762939453,0.6803483963012695,-1.0183109045028687
1698072006914231800,0.305231689453125,0.3011054992675781,0.837125301361084,-1.0603580474853516
1698072006923825400,0.314825439453125,0.1637587547302246,1.0592536926269531,-1.102766752243042
1698072006933418200,0.324418212890625,0.0649118423461914,1.376476764678955,-1.2076565027236938
1698072006943010300,0.33401025390625,0.19038152694702148,1.6795721054077148,-1.2215304374694824
1698072006952603100,0.34360302734375,0.507023811340332,1.833653450012207,-1.2120037078857422
1698072006962197000,0.353197021484375,0.9920792579650879,1.892834186553955,-1.2588629722595215
1698072006971789800,0.362789794921875,1.4819941520690918,1.9448447227478027,-1.3698930740356445
1698072006981381600,0.372381591796875,1.8806252479553223,1.9111671447753906,-1.380104660987854
1698072006990974700,0.381974609375,1.9698266983032227,1.8662753105163574,-1.1695748567581177
1698072007000568300,0.391568359375,1.8159518241882324,1.8333687782287598,-0.8153647184371948
1698072007010161200,0.4011611328125,1.4039859771728516,1.7465004920959473,-0.38585007190704346
1698072007019753200,0.410753173828125,0.8780841827392578,1.6814656257629395,-0.12079435586929321
1698072007029346000,0.420345947265625,0.5948376655578613,1.6668128967285156,-0.19634246826171875
1698072007038939600,0.429939697265625,0.5905022621154785,1.6687722206115723,-0.5057002305984497
1698072007048532500,0.439532470703125,0.6735053062438965,1.6255083084106445,-0.8895953297615051
1698072007058124500,0.44912451171875,0.789341926574707,1.5662899017333984,-1.2792820930480957
1698072007067717400,0.45871728515625,1.1464424133300781,1.575638771057129,-1.6784906387329102
1698072007077311000,0.46831103515625,1.5122575759887695,1.5938572883605957,-1.886433482170105
1698072007086903800,0.47790380859375,1.5748958587646484,1.4683074951171875,-1.6203179359436035
1698072007096495900,0.487495849609375,1.5713024139404297,1.4241394996643066,-1.2177143096923828
1698072007106088700,0.497088623046875,1.6384243965148926,1.7428908348083496,-1.124058723449707
1698072007115682300,0.506682373046875,1.6876659393310547,2.019437789916992,-1.1313979625701904
1698072007125275100,0.516275146484375,1.551846981048584,2.0922694206237793,-1.2394715547561646
1698072007134867200,0.5258671875,1.4371271133422852,2.0911574363708496,-1.4020735025405884
1698072007144460300,0.535460205078125,1.3625860214233398,1.9789605140686035,-1.4823784828186035
1698072007154054000,0.545053955078125,1.1473779678344727,1.5975408554077148,-1.295097827911377
1698072007163646700,0.554646728515625,0.9103245735168457,1.1124029159545898,-0.9443789124488831
1698072007173238500,0.564238525390625,0.6772818565368652,0.616826057434082,-0.6246436834335327
1698072007182831600,0.57383154296875,0.5455255508422852,0.2338542938232422,-0.5102711319923401
1698072007192425200,0.58342529296875,0.5790529251098633,0.005631446838378906,-0.44619250297546387
1698072007202018000,0.59301806640625,0.7065019607543945,-0.25843334197998047,-0.34846389293670654
1698072007211610000,0.602610107421875,0.8884525299072266,-0.49172067642211914,-0.27944979071617126
1698072007221203000,0.612202880859375,1.0435643196105957,-0.6708598136901855,-0.24426989257335663
1698072007230796500,0.621796630859375,0.8747367858886719,-0.887303352355957,-0.1492534726858139
1698072007240389400,0.631389404296875,0.5420031547546387,-1.0951576232910156,-0.07134395092725754
1698072007249981400,0.6409814453125,0.276186466217041,-1.2029228210449219,-0.003493119031190872
1698072007259574300,0.65057421875,0.24617958068847656,-1.2577452659606934,0.07607845216989517
1698072007269167900,0.66016796875,0.1773819923400879,-1.4630517959594727,0.16491559147834778
1698072007278760700,0.6697607421875,0.03603315353393555,-1.6856355667114258,0.2268388271331787
1698072007288352800,0.679352783203125,-0.0738534927368164,-1.8846850395202637,0.27771511673927307
1698072007297945600,0.688945556640625,-0.11241531372070312,-2.0400257110595703,0.3552338182926178
1698072007307539200,0.698539306640625,-0.05426168441772461,-2.174467086791992,0.4720149040222168
1698072007317132000,0.708132080078125,-0.0968632698059082,-2.2010602951049805,0.6121849417686462
1698072007326724000,0.71772412109375,-0.3436894416809082,-2.2052950859069824,0.749188244342804
1698072007336317000,0.72731689453125,-0.6267962455749512,-2.1190643310546875,0.9389244914054871
1698072007345910500,0.73691064453125,-0.937687873840332,-2.0199923515319824,1.080461859703064
1698072007355503400,0.74650341796875,-1.138875961303711,-1.8280906677246094,1.0798437595367432
1698072007365095400,0.756095458984375,-1.361114501953125,-1.573291301727295,0.9403071403503418
1698072007374688500,0.7656884765625,-1.678821086883545,-1.3206868171691895,0.7550652623176575
1698072007384282000,0.7752822265625,-1.9365973472595215,-1.1248998641967773,0.6484962701797485
1698072007393875000,0.784875,-2.142882823944092,-0.9962353706359863,0.5941799283027649
1698072007403466800,0.794466796875,-2.2622218132019043,-0.9061646461486816,0.6646773219108582
1698072007413059800,0.804059814453125,-2.1942343711853027,-0.5495038032531738,0.6651763319969177
1698072007422653400,0.8136533203125,-1.9263463020324707,-0.08648300170898438,0.4711209237575531
1698072007432246300,0.823246337890625,-1.6592535972595215,0.2568168640136719,0.33182984590530396
1698072007441838000,0.832838134765625,-1.3932313919067383,0.5413742065429688,0.36689072847366333
1698072007451431200,0.84243115234375,-1.006147861480713,0.8325505256652832,0.391066312789917
1698072007461024800,0.852024658203125,-0.5349874496459961,1.0713129043579102,0.5127165913581848
1698072007470617600,0.86161767578125,-0.10311412811279297,1.2249107360839844,0.759552538394928
1698072007480209700,0.871209716796875,0.07526397705078125,1.289449691772461,1.1166269779205322
1698072007489802500,0.880802490234375,0.22484683990478516,1.368380069732666,1.488595724105835
1698072007499396000,0.89039599609375,0.4702110290527344,1.4979453086853027,1.748037338256836
1698072007508989000,0.899989013671875,0.8031039237976074,1.5141549110412598,1.8428751230239868
1698072007518581000,0.9095810546875,1.3224525451660156,1.7017364501953125,1.7159963846206665
1698072007528173800,0.919173828125,1.8397560119628906,1.885676383972168,1.3641605377197266
1698072007537767400,0.928767333984375,2.2700161933898926,1.966780185699463,1.0566340684890747
1698072007547360300,0.9383603515625,2.7848868370056152,2.1735496520996094,0.7628057599067688
1698072007556952300,0.947952392578125,3.223905086517334,2.422884941101074,0.5152813792228699
1698072007566545200,0.957545166015625,3.348273754119873,2.6863999366760254,0.34618961811065674
1698072007576138800,0.967138671875,3.129621982574463,2.7042627334594727,0.3843483328819275
1698072007585731600,0.976731689453125,2.910275936126709,2.5880208015441895,0.6219111680984497
1698072007595323600,0.98632373046875,2.7626023292541504,2.480043411254883,0.8614658117294312
1698072007604916500,0.99591650390625,2.442850112915039,2.286897659301758,1.1159900426864624
1698072007614510000,1.005510009765625,2.119760036468506,2.0935888290405273,1.2434803247451782
1698072007624103200,1.015103271484375,1.949277400970459,1.9124140739440918,1.1514689922332764
1698072007633695000,1.024695068359375,1.750345230102539,1.6596345901489258,1.0237157344818115
1698072007643288000,1.0342880859375,1.624194622039795,1.2088828086853027,0.9756397008895874
1698072007652881400,1.04388134765625,1.5573577880859375,0.6838054656982422,0.9551252126693726
1698072007662474500,1.053474609375,1.3726716041564941,0.15958547592163086,1.0157828330993652
1698072007672066300,1.06306640625,1.0860300064086914,-0.3266410827636719,1.0587091445922852
1698072007681659400,1.072659423828125,0.7569413185119629,-0.7154464721679688,1.0582611560821533
1698072007691253000,1.0822529296875,0.3913278579711914,-0.9446730613708496,1.0048266649246216
1698072007700845800,1.091845703125,0.025349140167236328,-1.0589094161987305,0.8561426401138306
1698072007710438000,1.10143798828125,-0.4068760871887207,-1.1286711692810059,0.7061304450035095
1698072007720030700,1.11103076171875,-0.7827272415161133,-1.1981401443481445,0.5971500277519226
1698072007729624300,1.120624267578125,-1.010667324066162,-1.2477288246154785,0.49360191822052
1698072007739217200,1.130217041015625,-1.0437140464782715,-1.2759203910827637,0.5238823890686035
1698072007748809200,1.139809326171875,-1.0931200981140137,-1.3462495803833008,0.7064530253410339
1698072007758402000,1.149402099609375,-1.154787540435791,-1.3603949546813965,0.9512004852294922
1698072007767995600,1.15899560546875,-1.1371865272521973,-1.301267147064209,1.1731436252593994
1698072007777588500,1.16858837890625,-1.1040716171264648,-1.2395925521850586,1.2841989994049072
1698072007787180500,1.1781806640625,-1.1380796432495117,-1.2096595764160156,1.3129229545593262
1698072007796773400,1.1877734375,-1.295802116394043,-1.2493953704833984,1.2540340423583984
1698072007806367000,1.197366943359375,-1.4554834365844727,-1.2559432983398438,1.0737099647521973
1698072007815959800,1.206959716796875,-1.5531697273254395,-1.2174663543701172,0.8267335295677185
1698072007825552000,1.2165517578125,-1.6458888053894043,-1.1963868141174316,0.5600460767745972
1698072007835144700,1.226144775390625,-1.7209110260009766,-1.202822208404541,0.3724067211151123
1698072007844738300,1.23573828125,-1.758082389831543,-1.2306013107299805,0.2617424726486206
1698072007854331100,1.2453310546875,-1.7636313438415527,-1.2259612083435059,0.10171449184417725
1698072007863923200,1.254923095703125,-1.7105698585510254,-1.109344482421875,-0.08418077230453491
1698072007873516000,1.26451611328125,-1.7391552925109863,-0.9886069297790527,-0.2936691343784332
1698072007883109600,1.274109619140625,-1.8591208457946777,-0.8222441673278809,-0.5506429672241211
1698072007892702500,1.283702392578125,-1.9717020988464355,-0.5397591590881348,-0.8505722284317017
1698072007902294500,1.29329443359375,-2.04580020904541,-0.1445636749267578,-1.211476445198059
1698072007911887400,1.302887451171875,-2.002786636352539,0.29309511184692383,-1.5672926902770996
1698072007921481000,1.31248095703125,-1.7663421630859375,0.6932487487792969,-1.7587552070617676
1698072007931073800,1.32207373046875,-1.4688210487365723,0.9494109153747559,-1.7312984466552734
1698072007940665900,1.331665771484375,-1.0572805404663086,1.1232151985168457,-1.5734100341796875
1698072007950258700,1.3412587890625,-0.5641021728515625,1.2824101448059082,-1.3758407831192017
1698072007959852500,1.3508525390625,-0.10728025436401367,1.309330940246582,-1.0534696578979492
1698072007969445000,1.360445068359375,0.25934362411499023,1.2093276977539062,-0.6815990805625916
1698072007979037200,1.370037109375,0.526158332824707,1.1648616790771484,-0.3269990086555481
1698072007988630000,1.379630126953125,0.6638517379760742,1.2246460914611816,0.018418654799461365
1698072007998224000,1.389223876953125,0.7923264503479004,1.3544602394104004,0.24932187795639038
1698072008007816400,1.39881640625,0.9259753227233887,1.5107483863830566,0.25189369916915894
1698072008017408500,1.408408447265625,1.0910801887512207,1.688093662261963,0.08359257876873016
1698072008027001600,1.418001708984375,1.240478515625,1.7926898002624512,-0.1809331178665161
1698072008036595200,1.42759521484375,1.3363637924194336,1.8627352714538574,-0.5145528316497803
1698072008046187800,1.437187744140625,1.3813567161560059,1.8749842643737793,-0.7514722347259521
1698072008055780000,1.446780029296875,1.332676887512207,1.887683391571045,-0.7870008945465088
1698072008065373000,1.456373046875,1.2443552017211914,1.914443016052246,-0.646131694316864
1698072008074966500,1.465966552734375,1.2864060401916504,2.030536651611328,-0.3924664556980133
1698072008084559400,1.475559326171875,1.2751564979553223,2.2777700424194336,-0.2019147276878357
1698072008094151400,1.4851513671875,1.146909236907959,2.433687210083008,-0.12632407248020172
1698072008103744300,1.494744140625,1.0366554260253906,2.4310083389282227,-0.24237559735774994
1698072008113337900,1.504337890625,0.8819165229797363,2.1856870651245117,-0.4740090072154999
1698072008122930700,1.5139306640625,0.8676977157592773,1.762174129486084,-0.7728483080863953
1698072008132522800,1.523522705078125,0.9704608917236328,1.158433437347412,-1.014540195465088
1698072008142115600,1.533115478515625,1.1088461875915527,0.4779806137084961,-1.155616283416748
1698072008151709200,1.542709228515625,1.4602060317993164,-0.2182292938232422,-1.1558303833007812
1698072008161302000,1.552302001953125,1.911564826965332,-0.8042521476745605,-1.1405812501907349
1698072008170894000,1.56189404296875,2.3216824531555176,-1.1429033279418945,-1.0962742567062378
1698072008180487000,1.57148681640625,2.5246920585632324,-1.2699556350708008,-1.0975786447525024
1698072008190080500,1.58108056640625,2.4012837409973145,-1.2831182479858398,-1.074007511138916
1698072008199673300,1.59067333984375,2.0069022178649902,-1.2629613876342773,-0.9037524461746216
1698072008209265400,1.600265380859375,1.5597004890441895,-1.216825008392334,-0.6231305599212646
1698072008218858200,1.609858154296875,1.0191450119018555,-1.2084574699401855,-0.35647687315940857
1698072008228451800,1.619451904296875,0.5324397087097168,-1.2339296340942383,-0.25747939944267273
1698072008238044700,1.629044677734375,0.1872386932373047,-1.2116680145263672,-0.2838054895401001
1698072008247636700,1.63863671875,-0.04208183288574219,-1.3049678802490234,-0.26188209652900696
1698072008257229600,1.6482294921875,-0.2202458381652832,-1.501554012298584,-0.24180307984352112
1698072008266823200,1.6578232421875,-0.37024354934692383,-1.688082218170166,-0.27664339542388916
1698072008276416000,1.667416015625,-0.5050740242004395,-1.892721176147461,-0.2881001830101013
1698072008286008000,1.677008056640625,-0.71636962890625,-2.0455918312072754,-0.30852365493774414
1698072008295601000,1.686600830078125,-0.9122104644775391,-2.119616985321045,-0.28846102952957153
1698072008305194500,1.696194580078125,-1.0818510055541992,-2.066649913787842,-0.2636449933052063
1698072008314787300,1.705787353515625,-1.202700138092041,-1.9198012351989746,-0.3465777635574341
1698072008324379400,1.71537939453125,-1.3024001121520996,-1.7190704345703125,-0.45282018184661865
1698072008333972200,1.72497216796875,-1.428419589996338,-1.4531702995300293,-0.5272392630577087
1698072008343565800,1.73456591796875,-1.456930160522461,-1.0770764350891113,-0.5939221382141113
1698072008353158700,1.74415869140625,-1.5583429336547852,-0.7545108795166016,-0.6350811719894409
1698072008362750700,1.753750732421875,-1.7096271514892578,-0.46218442916870117,-0.5442978143692017
1698072008372343600,1.763343505859375,-1.8099761009216309,-0.2239246368408203,-0.3205075263977051
1698072008381937200,1.772937255859375,-1.881052017211914,0.015485286712646484,-0.04321320354938507
1698072008391530000,1.782530029296875,-1.8632569313049316,0.22010231018066406,0.18573951721191406
1698072008401122000,1.7921220703125,-1.6868391036987305,0.36506032943725586,0.3199254870414734
1698072008410715000,1.80171484375,-1.2904410362243652,0.4169912338256836,0.3919638991355896
1698072008420308500,1.81130859375,-0.7882013320922852,0.45128536224365234,0.28848928213119507
1698072008429901300,1.8209013671875,-0.12585783004760742,0.5298881530761719,0.19887597858905792
1698072008439493400,1.830493408203125,0.4362053871154785,0.5906944274902344,0.29260510206222534
1698072008449086200,1.840086181640625,0.8644251823425293,0.6203465461730957,0.5980492830276489
1698072008458679800,1.8496796875,1.0816411972045898,0.6374754905700684,0.9764357805252075
1698072008468272600,1.859272705078125,1.222318172454834,0.7089476585388184,1.2594243288040161
1698072008477864700,1.86886474609375,1.2930293083190918,0.8141212463378906,1.4625120162963867
1698072008487457500,1.87845751953125,1.2829337120056152,0.8807063102722168,1.5747032165527344
1698072008497051100,1.888051025390625,1.2211198806762695,0.9801745414733887,1.589096188545227
1698072008506644000,1.89764404296875,1.245631217956543,1.1197800636291504,1.4748073816299438
1698072008516236000,1.907236083984375,1.4132843017578125,1.2610225677490234,1.1759001016616821
1698072008525828900,1.916828857421875,1.5311508178710938,1.467200756072998,0.7079623937606812
1698072008535422500,1.92642236328125,1.4580183029174805,1.6931533813476562,0.2829698920249939
1698072008545015600,1.936015625,1.134143352508545,1.7559871673583984,0.08414697647094727
1698072008554607400,1.945607421875,0.749657154083252,1.839022159576416,0.03209728002548218
1698072008564200200,1.9552001953125,0.43961286544799805,1.9148564338684082,-0.028889060020446777
1698072008573794000,1.9647939453125,0.19085216522216797,1.8611116409301758,-0.08858928084373474
1698072008583386600,1.97438671875,0.0578160285949707,1.7768473625183105,-0.2122480720281601
1698072008592978700,1.983978759765625,0.12882757186889648,1.7694687843322754,-0.4290563464164734
1698072008602571500,1.993571533203125,0.48543834686279297,1.678410530090332,-0.6200806498527527
1698072008612165000,2.0031650390625,0.931419849395752,1.2734222412109375,-0.5896965265274048
1698072008621758200,2.01275830078125,1.3151888847351074,0.7552738189697266,-0.42763492465019226
1698072008631350000,2.02235009765625,1.752690315246582,0.20420312881469727,-0.25843626260757446
1698072008640943000,2.031943115234375,2.2591233253479004,-0.35042762756347656,-0.021335601806640625
1698072008650536700,2.04153662109375,2.5843324661254883,-0.920074462890625,0.4082009196281433
1698072008660129300,2.05112939453125,2.707296848297119,-1.4233770370483398,0.9455769062042236
1698072008669721300,2.060721435546875,2.575084686279297,-1.7902021408081055,1.4269758462905884
1698072008679314200,2.070314208984375,2.3014235496520996,-1.9848265647888184,1.6674669981002808
1698072008688908000,2.079907958984375,1.9417848587036133,-1.9715056419372559,1.554765224456787
1698072008698500600,2.08950048828125,1.445634365081787,-1.81510591506958,1.2287023067474365
1698072008708092700,2.0990927734375,0.7259364128112793,-1.7223715782165527,1.0006358623504639
1698072008717685800,2.108685791015625,-0.08297252655029297,-1.651148796081543,0.8815253973007202
1698072008727279400,2.118279296875,-0.7570452690124512,-1.5594525337219238,0.7070446014404297
1698072008736872000,2.127871826171875,-1.337836742401123,-1.4820575714111328,0.5708520412445068
1698072008746464000,2.137464111328125,-1.7901544570922852,-1.3569836616516113,0.506258487701416
1698072008756056800,2.147056884765625,-2.1286725997924805,-1.2523202896118164,0.6382865905761719
1698072008765650700,2.156650634765625,-2.4127769470214844,-1.1677751541137695,0.8955260515213013
1698072008775243300,2.1662431640625,-2.6828174591064453,-1.1076273918151855,1.1376389265060425
1698072008784835300,2.17583544921875,-2.866183280944824,-1.0383305549621582,1.288953423500061
1698072008794428400,2.185428466796875,-2.900576591491699,-0.9660224914550781,1.2619634866714478
1698072008804022000,2.19502197265625,-2.7939372062683105,-0.8905253410339355,1.019036054611206
1698072008813614800,2.20461474609375,-2.6079745292663574,-0.7618885040283203,0.6623058319091797
1698072008823206700,2.21420654296875,-2.344543933868408,-0.6967406272888184,0.2836567163467407
1698072008832799500,2.223799560546875,-2.127504825592041,-0.663203239440918,-0.07745862007141113
1698072008842393300,2.233393310546875,-1.9403252601623535,-0.5504827499389648,-0.41639769077301025
1698072008851986000,2.24298583984375,-1.874605655670166,-0.378903865814209,-0.753342866897583
1698072008861578000,2.252577880859375,-1.8055648803710938,-0.16565990447998047,-1.0805256366729736
1698072008871171000,2.262171142578125,-1.8123860359191895,0.08464336395263672,-1.3857017755508423
1698072008880764700,2.2717646484375,-1.8837451934814453,0.3653278350830078,-1.6239793300628662
1698072008890357500,2.281357421875,-1.9277572631835938,0.6583690643310547,-1.7695339918136597
1698072008899949300,2.29094921875,-1.8619685173034668,0.9312710762023926,-1.851100206375122
1698072008909542100,2.300542236328125,-1.6612892150878906,1.1443862915039062,-1.7382826805114746
1698072008919136000,2.310135986328125,-1.4575915336608887,1.2720084190368652,-1.580263614654541
1698072008928728600,2.319728515625,-1.1199007034301758,1.3601560592651367,-1.472731351852417
1698072008938320600,2.329320556640625,-0.6125741004943848,1.432711124420166,-1.4369620084762573
1698072008947913700,2.338913818359375,0.0360264778137207,1.4270243644714355,-1.4440059661865234
1698072008957507300,2.34850732421875,0.5518298149108887,1.3975563049316406,-1.3754630088806152
1698072008967100000,2.358099853515625,0.9612751007080078,1.392225742340088,-1.2544655799865723
1698072008976692000,2.36769189453125,1.2278852462768555,1.4093108177185059,-1.167541265487671
1698072008986284800,2.377284912109375,1.320930004119873,1.4390015602111816,-1.1681491136550903
1698072008995878700,2.386878662109375,1.3040452003479004,1.4821267127990723,-1.0996959209442139
1698072009005471200,2.39647119140625,1.2217345237731934,1.4724268913269043,-1.0221749544143677
1698072009015063300,2.406063232421875,1.0272321701049805,1.440112590789795,-1.0881813764572144
1698072009024656400,2.415656494140625,0.893369197845459,1.289928913116455,-1.304114818572998
1698072009034250000,2.42525,0.8362264633178711,1.2315750122070312,-1.5777380466461182
1698072009043842600,2.434842529296875,0.9390239715576172,1.3825945854187012,-2.0093994140625
1698072009053434600,2.4444345703125,1.2206292152404785,1.6204962730407715,-2.352651834487915
1698072009063027500,2.45402734375,1.467513084411621,1.895120620727539,-2.545640230178833
1698072009072621000,2.46362109375,1.6512446403503418,2.1962943077087402,-2.6121487617492676
1698072009082214100,2.473214111328125,1.7298555374145508,2.370680809020996,-2.4079277515411377
1698072009091806000,2.482805908203125,1.6682143211364746,2.199796199798584,-1.8037222623825073
1698072009101398800,2.492398681640625,1.5056166648864746,1.816225528717041,-1.1512415409088135
1698072009110992600,2.50199267578125,1.4322967529296875,1.3077421188354492,-0.5452036261558533
1698072009120585200,2.511585205078125,1.5226426124572754,0.6686902046203613,-0.05641275644302368
1698072009130177300,2.52117724609375,1.766326904296875,0.11096000671386719,0.2706853151321411
1698072009139770000,2.53077001953125,2.094485282897949,-0.34867286682128906,0.3839915990829468
1698072009149363700,2.54036376953125,2.4509153366088867,-0.6150045394897461,0.2515999674797058
1698072009158956500,2.54995654296875,2.7362451553344727,-0.599571704864502,0.017167508602142334
1698072009168548600,2.559548583984375,2.8192453384399414,-0.47751474380493164,-0.12377101182937622
1698072009178141400,2.569141357421875,2.507200241088867,-0.43013858795166016,-0.08260637521743774
1698072009187735000,2.578735107421875,1.9643335342407227,-0.3833889961242676,0.03344130516052246
1698072009197328000,2.588327880859375,1.3842778205871582,-0.3289036750793457,0.12045085430145264
1698072009206920000,2.597919921875,0.8288521766662598,-0.31561803817749023,0.22817498445510864
1698072009216512800,2.6075126953125,0.31484556198120117,-0.3956584930419922,0.2741577625274658
1698072009226106400,2.6171064453125,-0.11595678329467773,-0.6634383201599121,0.20543736219406128
1698072009235699200,2.62669921875,-0.5118651390075684,-1.0375466346740723,0.1557554006576538
1698072009245291300,2.636291259765625,-0.8511824607849121,-1.325629711151123,0.2031216025352478
1698072009254884000,2.645884033203125,-1.1641411781311035,-1.5225324630737305,0.36082780361175537
1698072009264477700,2.655477783203125,-1.5280838012695312,-1.6638174057006836,0.49164360761642456
1698072009274070500,2.665070556640625,-1.8360810279846191,-1.6201224327087402,0.4637954533100128
1698072009283662600,2.67466259765625,-2.010092258453369,-1.4102144241333008,0.23119017481803894
1698072009293255400,2.68425537109375,-2.0609211921691895,-1.1599678993225098,-0.04478102922439575
1698072009302849000,2.69384912109375,-2.0786566734313965,-0.954094409942627,-0.29290419816970825
1698072009312441900,2.70344189453125,-2.0556297302246094,-0.7530560493469238,-0.4960561990737915
1698072009322034000,2.713033935546875,-2.0253944396972656,-0.5620880126953125,-0.5597808957099915
1698072009331626800,2.722626708984375,-1.973525047302246,-0.5081882476806641,-0.5134449005126953
1698072009341220400,2.732220458984375,-1.9645652770996094,-0.48598289489746094,-0.41732659935951233
1698072009350813200,2.741813232421875,-1.8508315086364746,-0.45180749893188477,-0.27600520849227905
1698072009360405200,2.7514052734375,-1.6855006217956543,-0.4026017189025879,-0.10318350046873093
1698072009369998000,2.760998046875,-1.5652246475219727,-0.40102720260620117,0.13925692439079285
1698072009379591700,2.770591796875,-1.3527774810791016,-0.43285512924194336,0.40626436471939087
1698072009389184500,2.7801845703125,-1.1138033866882324,-0.4081597328186035,0.622199296951294
1698072009398776600,2.789776611328125,-0.9756579399108887,-0.32825660705566406,0.786078691482544
1698072009408369400,2.799369384765625,-0.8442625999450684,-0.2674446105957031,0.9586842060089111
1698072009417963000,2.808962890625,-0.6486215591430664,-0.2005443572998047,1.2708988189697266
1698072009427555800,2.818555908203125,-0.5066690444946289,-0.1359710693359375,1.5850064754486084
1698072009437148000,2.82814794921875,-0.38716983795166016,-0.07159900665283203,1.7735034227371216
1698072009446740700,2.83774072265625,-0.13789844512939453,-0.0004253387451171875,1.7687156200408936
1698072009456334300,2.847334228515625,0.25359153747558594,-0.029117107391357422,1.6630916595458984
1698072009465927200,2.85692724609375,0.6115713119506836,-0.21376466751098633,1.554287075996399
1698072009475519200,2.866519287109375,0.843625545501709,-0.4442415237426758,1.3941556215286255
1698072009485112000,2.876112060546875,0.925778865814209,-0.4234647750854492,1.1691608428955078
1698072009494705700,2.88570556640625,0.7790279388427734,-0.21544408798217773,0.8297803401947021
1698072009504298500,2.895298583984375,0.5152034759521484,0.037680625915527344,0.5044196844100952
1698072009513890600,2.904890625,0.22091341018676758,0.312286376953125,0.22179946303367615
1698072009523483400,2.9144833984375,-0.07730770111083984,0.728057861328125,-0.16057658195495605
1698072009533077000,2.924076904296875,-0.21811819076538086,1.231337070465088,-0.5881403684616089
1698072009542669800,2.933669921875,-0.14081287384033203,1.7782001495361328,-0.9265749454498291
1698072009552262000,2.943261962890625,0.2551088333129883,2.154029369354248,-1.0616031885147095
1698072009561854700,2.952854736328125,0.7557992935180664,2.208876609802246,-1.0027821063995361
1698072009571448300,2.9624482421875,1.4373741149902344,1.9071550369262695,-0.7946798205375671
1698072009581041200,2.972041259765625,2.4016618728637695,1.4319796562194824,-0.6130927801132202
1698072009590633200,2.98163330078125,3.5101375579833984,0.8411850929260254,-0.3782138526439667
1698072009600226000,2.99122607421875,4.562592506408691,0.3476066589355469,-0.08007187396287918
1698072009609819600,3.000819580078125,5.329099655151367,-0.08242082595825195,0.5148283243179321
1698072009619412500,3.01041259765625,5.620540618896484,-0.5081334114074707,1.1998369693756104
1698072009629004300,3.02000439453125,5.535085678100586,-0.7491669654846191,1.8091453313827515
1698072009638597400,3.029597412109375,5.254825592041016,-0.8510785102844238,2.1758453845977783
1698072009648191000,3.03919091796875,4.989397048950195,-0.8283321857452393,2.1651716232299805
1698072009657783600,3.048783447265625,4.5655317306518555,-0.6959052085876465,1.961425542831421
1698072009667375600,3.058375732421875,3.6837921142578125,-0.6110777854919434,1.7672760486602783
1698072009676968700,3.06796875,2.467243194580078,-0.688239574432373,1.7949973344802856
1698072009686562300,3.077562255859375,1.2119169235229492,-0.8296356201171875,2.029897451400757
1698072009696155000,3.08715478515625,-0.05481243133544922,-0.9085826873779297,2.3199069499969482
1698072009705747000,3.096746826171875,-1.2506957054138184,-0.9233078956604004,2.518467426300049
1698072009715340000,3.106340087890625,-2.2840185165405273,-0.7988018989562988,2.566866397857666
1698072009724933600,3.11593359375,-3.1033120155334473,-0.7315163612365723,2.6528148651123047
1698072009734526200,3.125526123046875,-3.615406036376953,-0.6882896423339844,2.5891921520233154
1698072009744118300,3.1351181640625,-3.8548130989074707,-0.6458673477172852,2.407712459564209
1698072009753711000,3.144711181640625,-3.9072365760803223,-0.6354494094848633,2.140347480773926
1698072009763304700,3.1543046875,-3.678549289703369,-0.647606372833252,1.778414249420166
1698072009772897500,3.1638974609375,-3.3560843467712402,-0.711359977722168,1.3373267650604248
1698072009782489600,3.173489501953125,-3.0983781814575195,-0.8502311706542969,0.9387193322181702
1698072009792082400,3.18308251953125,-2.97086238861084,-1.008286476135254,0.5262526273727417
1698072009801676000,3.192676025390625,-2.8724255561828613,-1.116612434387207,0.1029510498046875
1698072009811268900,3.202268798828125,-2.88389253616333,-1.1969647407531738,-0.2531166076660156
1698072009820861000,3.21186083984375,-2.9162631034851074,-1.2736854553222656,-0.5251410007476807
1698072009830453800,3.221453857421875,-2.9595236778259277,-1.3424744606018066,-0.6981848478317261
1698072009840047400,3.23104736328125,-3.02536678314209,-1.3676424026489258,-0.8817867636680603
1698072009849640200,3.24064013671875,-3.1070427894592285,-1.3029632568359375,-1.0238583087921143
1698072009859232300,3.250232177734375,-3.1408495903015137,-1.1472702026367188,-1.1617201566696167
1698072009868825000,3.2598251953125,-3.177952289581299,-0.8946576118469238,-1.307426929473877
1698072009878418700,3.269418701171875,-3.185788631439209,-0.570378303527832,-1.456864833831787
1698072009888011500,3.279011474609375,-3.014554023742676,-0.26462507247924805,-1.608046531677246
1698072009897603600,3.288603515625,-2.7918505668640137,0.025722026824951172,-1.730761170387268
1698072009907196400,3.298196533203125,-2.530534267425537,0.37312936782836914,-1.9264180660247803
1698072009916790000,3.3077900390625,-2.0051374435424805,0.7332944869995117,-2.3149595260620117
1698072009926382800,3.3173828125,-1.3292632102966309,1.089928150177002,-2.907811403274536
1698072009935975000,3.326974853515625,-0.8520455360412598,1.4597458839416504,-3.522615909576416
1698072009945567700,3.336567626953125,-0.538672924041748,1.734703540802002,-3.907212257385254
1698072009955161300,3.346161376953125,-0.3422055244445801,1.9575529098510742,-4.046622276306152
1698072009964754200,3.355754150390625,-0.18824148178100586,2.2127156257629395,-4.0727925300598145
1698072009974346200,3.36534619140625,-0.034261226654052734,2.5180039405822754,-4.109698295593262
1698072009983939000,3.37493896484375,0.18342351913452148,2.8292789459228516,-4.176371097564697
1698072009993532700,3.38453271484375,0.6711888313293457,2.904635429382324,-3.9990596771240234
1698072010003125500,3.39412548828125,1.5613946914672852,3.4922099113464355,-4.44658088684082
1698072010012717300,3.40371728515625,2.539760112762451,4.155346393585205,-4.680207252502441
1698072010022310400,3.413310302734375,3.679332733154297,4.566108703613281,-4.39934778213501
1698072010031904000,3.422904052734375,4.629372596740723,4.666459083557129,-3.6155927181243896
1698072010041496600,3.43249658203125,5.536861419677734,4.494328022003174,-2.930952787399292
1698072010051088600,3.442088623046875,6.313770294189453,4.047969341278076,-2.424375057220459
1698072010060681500,3.451681396484375,6.931939125061035,3.311081886291504,-1.9198744297027588
1698072010070275000,3.461275146484375,7.101397514343262,2.170440673828125,-1.1803101301193237
1698072010079868200,3.4708681640625,6.750782012939453,1.0174474716186523,-0.395205557346344
1698072010089460000,3.4804599609375,6.18990421295166,0.08279561996459961,0.26677051186561584
1698072010099052800,3.490052734375,5.550508499145508,-0.5212540626525879,0.6898025870323181
1698072010108646400,3.499646484375,4.929832458496094,-0.7873721122741699,0.6197593808174133
1698072010118239200,3.5092392578125,4.3032732009887695,-0.8293671607971191,0.13340413570404053
1698072010127831300,3.518831298828125,3.6536359786987305,-0.8301949501037598,-0.42022019624710083
1698072010137424100,3.528424072265625,2.8584461212158203,-0.9434366226196289,-0.7170448899269104
1698072010147017700,3.538017822265625,1.8062286376953125,-1.1533331871032715,-0.7542895078659058
1698072010156610600,3.547610595703125,0.8001852035522461,-1.3089656829833984,-0.5592964887619019
1698072010166202600,3.55720263671875,-0.05094337463378906,-1.4840426445007324,0.042437002062797546
1698072010175795500,3.56679541015625,-0.8477115631103516,-1.639296054840088,0.778862714767456
1698072010185389000,3.57638916015625,-1.4550423622131348,-1.6851720809936523,1.2661874294281006
1698072010194982000,3.58598193359375,-1.9155149459838867,-1.691514015197754,1.6975916624069214
1698072010204574000,3.595573974609375,-2.353092670440674,-1.4602317810058594,1.8786194324493408
1698072010214166800,3.605166748046875,-2.52081298828125,-1.4152441024780273,1.8888959884643555
1698072010223760400,3.614760498046875,-2.835494041442871,-0.8508925437927246,0.925091028213501
1698072010233353200,3.624353271484375,-3.732783317565918,0.07949304580688477,-0.7095256447792053
1698072010242945300,3.6339453125,-4.78438138961792,0.2102065086364746,-1.725071907043457
1698072010252538000,3.6435380859375,-5.493756294250488,-0.5060443878173828,-1.8756760358810425
1698072010262131700,3.653131591796875,-5.598689079284668,-1.1373043060302734,-1.34573233127594
1698072010271724500,3.662724609375,-5.1849470138549805,-1.7657175064086914,-0.734317421913147
1698072010281316400,3.67231640625,-5.070808410644531,-2.7222375869750977,-0.2807930111885071
1698072010290909400,3.681909423828125,-4.578886032104492,-3.0104005336761475,0.2572764754295349
1698072010300503000,3.6915029296875,-3.8324499130249023,-2.7331719398498535,0.5928724408149719
1698072010310096000,3.701095947265625,-3.559227466583252,-2.517559766769409,0.8369548320770264
1698072010319687700,3.710687744140625,-2.862490177154541,-2.2909739017486572,1.4349451065063477
1698072010329280800,3.72028076171875,-1.8903722763061523,-2.11763858795166,2.1472911834716797
1698072010338874400,3.729874267578125,-1.0259747505187988,-1.9299287796020508,2.698009490966797
1698072010348467000,3.739467041015625,-0.14523983001708984,-1.4964089393615723,2.5935916900634766
1698072010358059000,3.74905908203125,0.10911846160888672,-1.0301618576049805,2.1173899173736572
1698072010367651800,3.75865185546875,-0.08478260040283203,-0.854011058807373,1.7517616748809814
1698072010377245400,3.768245361328125,-0.805778980255127,-0.6218571662902832,1.3987268209457397
1698072010386838300,3.77783837890625,-1.3156781196594238,-0.23597240447998047,0.970851719379425
1698072010396430300,3.787430419921875,-1.7114005088806152,-0.012735843658447266,0.6384751796722412
1698072010406023200,3.797023193359375,-1.7451157569885254,0.09081697463989258,0.470563679933548
1698072010415616800,3.80661669921875,-1.5624823570251465,0.07590293884277344,0.5152745246887207
1698072010425209600,3.816209716796875,-1.1239986419677734,-0.08860397338867188,0.6648859977722168
1698072010434801700,3.8258017578125,0.7819900512695312,-0.42410755157470703,1.0660755634307861
1698072010444394500,3.83539453125,2.943675994873047,-0.31517744064331055,1.3111844062805176
1698072010453988000,3.844988037109375,4.573287010192871,0.09401130676269531,0.7744945287704468
1698072010463581000,3.854580810546875,5.385383605957031,0.4363517761230469,0.5859441161155701
1698072010473173000,3.864173095703125,5.519610404968262,0.757077693939209,0.44134360551834106
1698072010482765800,3.873765869140625,5.287604331970215,1.0981779098510742,-0.3831676244735718
1698072010492359400,3.883359375,3.422342300415039,1.7364201545715332,-1.5184407234191895
1698072010501952300,3.8929521484375,1.506521224975586,1.2312302589416504,-0.5572394132614136
1698072010511544000,3.9025439453125,0.2161855697631836,0.9312357902526855,-0.12008820474147797
1698072010521137200,3.91213720703125,-0.8469233512878418,1.1942663192749023,0.09945058822631836
1698072010530730800,3.921730712890625,-0.5217127799987793,1.6097679138183594,0.1424630880355835
1698072010540323600,3.931323486328125,0.005894660949707031,1.5968427658081055,0.27683478593826294
1698072010549915400,3.940915283203125,0.7577552795410156,1.230463981628418,0.6117073893547058
1698072010559508500,3.950508544921875,1.4491186141967773,0.7572317123413086,0.9529343843460083
1698072010569101800,3.960101806640625,2.0292062759399414,0.2636723518371582,1.342628002166748
1698072010578694700,3.969694580078125,2.4540319442749023,-0.15904855728149414,1.8950762748718262
1698072010588286700,3.97928662109375,2.839303970336914,-0.24312829971313477,2.1895010471343994
1698072010597879600,3.988879638671875,2.920877456665039,-0.7808065414428711,2.5239789485931396
1698072010607473200,3.99847314453125,2.8351926803588867,-0.9365301132202148,2.234881639480591
1698072010617066000,4.00806591796875,2.0808963775634766,-1.3277349472045898,2.0837302207946777
1698072010626658000,4.017657958984375,0.9871559143066406,-2.194411039352417,2.4785614013671875
1698072010636251000,4.0272509765625,0.1177835464477539,-2.391153573989868,2.376192331314087
1698072010645844500,4.036844482421875,-0.6959929466247559,-2.3029093742370605,2.020289182662964
1698072010655437300,4.046437255859375,-1.3841967582702637,-2.1361074447631836,1.5723482370376587
1698072010665029400,4.056029296875,-1.9189152717590332,-2.0006909370422363,1.096378207206726
1698072010674622200,4.065622314453125,-2.256345272064209,-2.018746852874756,0.9220155477523804
1698072010684215800,4.0752158203125,-2.561917304992676,-2.18257999420166,1.1476564407348633
1698072010693808600,4.08480859375,-2.658360004425049,-2.366445541381836,1.5013067722320557
1698072010703400700,4.094400634765625,-2.659815788269043,-2.6126866340637207,1.8270046710968018
1698072010712993500,4.10399365234375,-2.7456040382385254,-2.8853533267974854,1.9446277618408203
1698072010722587100,4.113587158203125,-2.980600357055664,-3.013685941696167,1.8739469051361084
1698072010732180000,4.123179931640625,-3.178009510040283,-2.9646921157836914,1.616259217262268
1698072010741771800,4.132771728515625,-3.298238754272461,-2.932250738143921,1.2706186771392822
1698072010751364900,4.14236474609375,-3.445239543914795,-2.9473888874053955,0.7903770804405212
1698072010760958500,4.15195849609375,-3.639906883239746,-2.9779021739959717,0.306613028049469
1698072010770551000,4.161551025390625,-3.630985736846924,-2.857762575149536,-0.14341455698013306
1698072010780143000,4.17114306640625,-3.2769007682800293,-2.4726381301879883,-0.5955026149749756
1698072010789736000,4.18073583984375,-2.849506378173828,-1.9446823596954346,-0.8649513721466064
1698072010799329500,4.19032958984375,-2.6570234298706055,-1.4224567413330078,-0.9476636648178101
1698072010808922400,4.19992236328125,-2.633726119995117,-1.17289400100708,-0.8767260313034058
1698072010818514400,4.209514404296875,-2.626732349395752,-1.0569262504577637,-0.875144898891449
1698072010828107300,4.219107177734375,-2.603026866912842,-0.9718608856201172,-1.1754345893859863
1698072010837700900,4.228700927734375,-2.3273682594299316,-0.8745265007019043,-2.1428000926971436
1698072010847293700,4.238293701171875,-1.3976655006408691,0.39880800247192383,-2.3214774131774902
1698072010856885800,4.2478857421875,-0.26663875579833984,2.0224766731262207,-2.687373161315918
1698072010866478600,4.257478515625,0.2522721290588379,2.681394577026367,-3.2392215728759766
1698072010876072200,4.267072265625,0.6465845108032227,2.970798969268799,-3.5178744792938232
1698072010885665000,4.2766650390625,1.3094291687011719,3.769540309906006,-4.034782886505127
1698072010895257000,4.286257080078125,1.768442153930664,4.599671363830566,-4.649394989013672
1698072010904850000,4.295849853515625,1.9305191040039062,4.902889251708984,-4.769507884979248
1698072010914443500,4.305443603515625,1.8241853713989258,5.193401336669922,-4.487264156341553
1698072010924036000,4.3150361328125,2.0028347969055176,5.588251113891602,-4.248974323272705
1698072010933628200,4.324628173828125,2.3717041015625,5.965986251831055,-3.9843664169311523
1698072010943221000,4.334220947265625,2.6735429763793945,5.952192306518555,-3.456434726715088
1698072010952814600,4.343814697265625,2.9694480895996094,5.549823760986328,-2.283426523208618
1698072010962407400,4.353407470703125,3.8027849197387695,5.2256879806518555,-1.4793485403060913
1698072010971999500,4.36299951171875,4.495901107788086,5.120571613311768,-1.3710048198699951
1698072010981592300,4.37259228515625,5.846105575561523,5.4808502197265625,-1.866890788078308
1698072010991186000,4.38218603515625,7.481786727905273,5.528356552124023,-1.6199074983596802
1698072011000778800,4.39177880859375,8.51320743560791,4.759523868560791,-0.24051691591739655
1698072011010370800,4.401370849609375,8.659786224365234,3.8620781898498535,0.9643927216529846
1698072011019963600,4.410963623046875,8.052221298217773,3.1750264167785645,1.601638674736023
1698072011029557200,4.42055712890625,7.436142921447754,2.4766464233398438,1.8497824668884277
1698072011039150000,4.430150146484375,6.668087005615234,1.7276878356933594,1.8956003189086914
1698072011048742100,4.4397421875,5.525146484375,1.1391282081604004,1.4530161619186401
1698072011058335000,4.4493349609375,4.106813430786133,0.4549107551574707,1.0996334552764893
1698072011067928600,4.458928466796875,3.0166311264038086,-0.23543977737426758,0.918115496635437
1698072011077521400,4.468521484375,2.178879737854004,-0.6300582885742188,0.7726720571517944
1698072011087113500,4.478113525390625,1.6813583374023438,-0.40790510177612305,0.38662105798721313
1698072011096706300,4.487706298828125,1.1004829406738281,-0.41443777084350586,0.28737518191337585
1698072011106300000,4.4972998046875,0.30152225494384766,-0.4670138359069824,0.1358022689819336
1698072011115892500,4.506892578125,-0.38924312591552734,-0.3118934631347656,-0.02088940143585205
1698072011125484500,4.516484619140625,-0.9495911598205566,-0.3346271514892578,0.07555276155471802
1698072011135077400,4.526077392578125,-1.5297951698303223,-0.9079184532165527,0.5024288892745972
1698072011144671000,4.5356708984375,-1.9646835327148438,-1.6991703510284424,0.8717746734619141
1698072011154263800,4.545263916015625,-2.442452907562256,-2.315452814102173,0.8021181225776672
1698072011163856000,4.55485595703125,-3.014378547668457,-2.787236452102661,0.5573824048042297
1698072011173448700,4.56444873046875,-3.4681482315063477,-3.135429859161377,0.29261183738708496
1698072011183042300,4.574042236328125,-3.762396812438965,-3.389431953430176,0.04274308681488037
1698072011192635100,4.58363525390625,-3.8337082862854004,-3.5314154624938965,-0.3232605755329132
1698072011202227200,4.593227294921875,-3.8796186447143555,-3.636345148086548,-0.6853398084640503
1698072011211820000,4.602820068359375,-3.83884859085083,-3.7205071449279785,-0.9534821510314941
1698072011221413600,4.61241357421875,-3.606823444366455,-3.6390180587768555,-0.9072299003601074
1698072011231006500,4.62200634765625,-3.4550342559814453,-3.9698309898376465,-0.9662383198738098
1698072011240598500,4.6315986328125,-3.311321258544922,-4.206262588500977,-0.8715071678161621
1698072011250191400,4.64119140625,-3.3592662811279297,-3.8999366760253906,-0.8372476100921631
1698072011259785000,4.650784912109375,-3.4503021240234375,-3.78491473197937,-0.9461773633956909
1698072011269377500,4.66037744140625,-3.709627151489258,-3.8178694248199463,-0.7365164160728455
1698072011278969600,4.669969482421875,-4.136779308319092,-3.7866220474243164,-0.36810505390167236
1698072011288562400,4.6795625,-4.342357635498047,-3.5558178424835205,-0.08133476972579956
1698072011298156000,4.689156005859375,-4.376158714294434,-3.176269769668579,0.28137487173080444
1698072011307748900,4.698748779296875,-3.547182083129883,-3.1598565578460693,0.7148092985153198
1698072011317341000,4.7083408203125,-2.075883388519287,-3.2578537464141846,1.2067991495132446
1698072011326933800,4.717933837890625,-0.7150673866271973,-3.1602375507354736,1.4261184930801392
1698072011336527400,4.72752734375,0.1838688850402832,-2.7810869216918945,1.1810214519500732
1698072011346120200,4.7371201171875,0.5995745658874512,-2.293898582458496,0.9798554182052612
1698072011355712300,4.746712158203125,0.869452953338623,-1.927947998046875,0.8153675198554993
1698072011365305000,4.75630517578125,1.1141247749328613,-1.4829139709472656,0.4395897388458252
1698072011374898700,4.765898681640625,1.2430667877197266,-0.8917942047119141,0.12941068410873413
1698072011384491500,4.775491455078125,1.532808780670166,-0.27159833908081055,-0.06083214282989502
1698072011394083600,4.78508349609375,1.9407424926757812,0.34914684295654297,-0.14002126455307007
1698072011403676400,4.794676513671875,2.0887136459350586,0.8949127197265625,0.12656675279140472
1698072011413270000,4.80427001953125,1.9891810417175293,1.4326863288879395,0.6466529965400696
1698072011422862600,4.813862548828125,1.6745805740356445,1.8942480087280273,1.178195595741272
1698072011432454700,4.82345458984375,1.5406312942504883,2.5429887771606445,1.506859540939331
1698072011442047500,4.833047607421875,1.5947270393371582,3.26530122756958,1.5140546560287476
1698072011451641000,4.84264111328125,1.8738021850585938,3.945157051086426,1.4263612031936646
1698072011461234000,4.85223388671875,2.35475492477417,4.38859748840332,1.3202439546585083
1698072011470826000,4.861825927734375,2.713343620300293,4.438287734985352,0.9997311234474182
1698072011480418800,4.871418701171875,3.0426478385925293,4.203558921813965,0.466242253780365
1698072011490012400,4.881012451171875,3.5900187492370605,3.8004188537597656,0.070111945271492
1698072011499605200,4.890605224609375,4.242513179779053,3.148808479309082,0.24119852483272552
1698072011509196800,4.90019677734375,4.726923942565918,2.3855013847351074,0.6978940963745117
1698072011518789600,4.90978955078125,5.003870964050293,1.7881746292114258,1.1931308507919312
1698072011528383200,4.91938330078125,5.046740531921387,1.4714288711547852,1.4564805030822754
1698072011537976000,4.92897607421875,4.750126838684082,1.2597970962524414,1.5748357772827148
1698072011547568000,4.938568115234375,4.1117095947265625,1.0536246299743652,1.5567882061004639
1698072011557161000,4.948160888671875,3.222921371459961,0.8089933395385742,1.3600152730941772
1698072011566754600,4.957754638671875,2.2383604049682617,0.5435175895690918,1.1985039710998535
1698072011576347100,4.96734716796875,1.3721933364868164,0.2768893241882324,1.2520439624786377
1698072011585939200,4.976939208984375,0.6548709869384766,0.08747673034667969,1.516917109489441
1698072011595532000,4.986531982421875,0.1054072380065918,-0.011876583099365234,1.7267009019851685
1698072011605125600,4.996125732421875,-0.5008835792541504,-0.18768882751464844,1.9453747272491455
1698072011614718500,5.005718505859375,-0.9815888404846191,-0.526059627532959,2.806328058242798
1698072011624310500,5.015310546875,-1.119682788848877,-1.2662649154663086,3.3478400707244873
1698072011633903400,5.0249033203125,-2.041508197784424,-1.3881397247314453,2.9202287197113037
1698072011643497000,5.0344970703125,-2.4576597213745117,-1.108036994934082,2.8751323223114014
1698072011653089800,5.04408984375,-2.6509194374084473,-1.4438152313232422,2.921086311340332
1698072011662681900,5.053681884765625,-3.2380642890930176,-1.835404396057129,2.659944772720337
1698072011672274700,5.063274658203125,-3.570220470428467,-1.8461813926696777,2.2852978706359863
1698072011681868300,5.072868408203125,-3.6147284507751465,-1.8150067329406738,1.700980544090271
1698072011691461000,5.082461181640625,-3.587728977203369,-1.8600292205810547,1.0292727947235107
1698072011701053000,5.092052978515625,-3.6495518684387207,-1.9901838302612305,0.550965428352356
1698072011710646000,5.10164599609375,-3.653658151626587,-2.050767421722412,0.12829124927520752
1698072011720239600,5.111239501953125,-3.519915819168091,-1.9386496543884277,-0.41751235723495483
1698072011729832200,5.120832275390625,-3.286956787109375,-1.742959976196289,-1.0463016033172607
1698072011739424300,5.13042431640625,-3.1889524459838867,-1.5216517448425293,-1.5750700235366821
1698072011749017000,5.14001708984375,-3.2376227378845215,-1.551928997039795,-1.5944883823394775
1698072011758610700,5.149610595703125,-3.326821804046631,-1.7339859008789062,-1.7223330736160278
1698072011768203500,5.15920361328125,-3.078942060470581,-1.4237279891967773,-2.1036534309387207
1698072011777795600,5.168795654296875,-2.9380860328674316,-1.06341552734375,-2.2893118858337402
1698072011787388400,5.178388427734375,-2.7870020866394043,-0.7845282554626465,-2.5276737213134766
1698072011796982000,5.18798193359375,-2.4992270469665527,-0.8206958770751953,-2.1353325843811035
1698072011806574800,5.197574951171875,-2.1653385162353516,-1.0207366943359375,-1.6032005548477173
1698072011816167000,5.2071669921875,-1.901735782623291,-0.9570450782775879,-1.4147099256515503
1698072011825759700,5.216759765625,-1.6522560119628906,-0.765129566192627,-1.5063159465789795
1698072011835353300,5.226353271484375,-1.630772590637207,-0.4874110221862793,-1.6663044691085815
1698072011844946200,5.2359462890625,-1.5892972946166992,-0.05007648468017578,-1.6758754253387451
1698072011854538000,5.2455380859375,-1.583693504333496,0.41027259826660156,-1.6620672941207886
1698072011864131000,5.255131103515625,-1.7008037567138672,0.8223719596862793,-1.7684686183929443
1698072011873724400,5.264724365234375,-1.9378318786621094,1.0665044784545898,-1.8904309272766113
1698072011883317200,5.274317138671875,-1.9805660247802734,1.087122917175293,-1.7674036026000977
1698072011892909300,5.283909423828125,-1.571718692779541,1.026829719543457,-1.692853331565857
1698072011902502100,5.293502197265625,-0.827704906463623,1.0694704055786133,-1.7865750789642334
1698072011912095700,5.303095703125,0.07721710205078125,1.3105182647705078,-2.073084592819214
1698072011921688600,5.3126884765625,1.0212554931640625,1.5443944931030273,-2.4967470169067383
1698072011931280600,5.32228076171875,1.8118414878845215,1.6514348983764648,-2.8378007411956787
1698072011940873500,5.33187353515625,2.435811996459961,1.6247434616088867,-2.901667833328247
1698072011950467000,5.341467041015625,2.99714994430542,1.4645042419433594,-2.643003463745117
1698072011960060000,5.351059814453125,3.453960418701172,1.134922981262207,-2.091050624847412
1698072011969651700,5.360651611328125,3.6338820457458496,0.7616147994995117,-1.4703547954559326
1698072011979244800,5.370244873046875,3.539802074432373,0.40227413177490234,-1.0231974124908447
1698072011988838400,5.37983837890625,3.2903504371643066,0.13242626190185547,-0.8339583277702332
1698072011998431000,5.389430908203125,3.173773765563965,-0.061371803283691406,-0.9988299608230591
1698072012008023000,5.39902294921875,3.28184175491333,-0.15004634857177734,-1.3079657554626465
1698072012017616000,5.408615966796875,3.838200092315674,-0.20430278778076172,-1.4073681831359863
1698072012027209500,5.41820947265625,4.47006893157959,-0.10584163665771484,-1.3744560480117798
1698072012036802300,5.42780224609375,4.871438026428223,0.017887115478515625,-1.2437703609466553
1698072012046394400,5.437394287109375,5.031516075134277,0.23258256912231445,-0.7671492695808411
1698072012055987200,5.4469873046875,4.953988075256348,0.47563743591308594,-0.11195152997970581
1698072012065580800,5.456580810546875,4.580500602722168,0.5881662368774414,0.4592891335487366
1698072012075173600,5.466173583984375,3.67897891998291,0.6300992965698242,0.7318397760391235
1698072012084765700,5.475765625,2.482661247253418,0.6200242042541504,0.6601397395133972
1698072012094358500,5.485358642578125,1.23162841796875,0.54754638671875,0.45227599143981934
1698072012103952000,5.494951904296875,0.08758831024169922,0.3195815086364746,0.44050121307373047
1698072012113545000,5.504544921875,-0.7673101425170898,0.055787086486816406,0.6054568886756897
1698072012123136800,5.51413671875,-1.328989028930664,-0.20758724212646484,0.7976051568984985
1698072012132729600,5.5237294921875,-1.7984538078308105,-0.4728550910949707,0.8785660862922668
1698072012142323200,5.5333232421875,-2.1374058723449707,-0.720890998840332,0.8362743854522705
1698072012151916000,5.542916015625,-2.333660125732422,-0.9427857398986816,0.7446432113647461
1698072012161508000,5.552508056640625,-2.4107437133789062,-1.153958797454834,0.6455099582672119
1698072012171101000,5.562100830078125,-2.416102409362793,-1.3148183822631836,0.5921890735626221
1698072012180694500,5.571694580078125,-2.471325397491455,-1.404590129852295,0.42281419038772583
1698072012190287400,5.581287353515625,-2.5119338035583496,-1.528337001800537,0.32081907987594604
1698072012199879200,5.590879150390625,-2.581526279449463,-1.5513367652893066,0.3059024214744568
1698072012209472300,5.60047216796875,-2.6334495544433594,-1.467419147491455,0.2801978588104248
1698072012219065900,5.61006591796875,-2.6017980575561523,-1.3854484558105469,0.30341923236846924
1698072012228658400,5.619658447265625,-2.5364270210266113,-1.358046054840088,0.36279433965682983
1698072012238250500,5.62925048828125,-2.319662094116211,-1.2685356140136719,0.34780654311180115
1698072012247843300,5.63884326171875,-1.9643750190734863,-1.1927485466003418,0.4496460556983948
1698072012257437000,5.64843701171875,-1.4706149101257324,-1.1260619163513184,0.6978799700737
1698072012267029800,5.65802978515625,-0.8790173530578613,-1.0329070091247559,0.8915961980819702
1698072012276621800,5.667621826171875,-0.2950711250305176,-0.8988332748413086,1.126157283782959
1698072012286214700,5.677214599609375,0.12276744842529297,-0.7254610061645508,1.3209030628204346
1698072012295808300,5.686808349609375,0.378018856048584,-0.5543007850646973,1.3785443305969238
1698072012305401000,5.696401123046875,0.5159273147583008,-0.35639142990112305,1.4017428159713745
1698072012314993200,5.7059931640625,0.5285129547119141,-0.10241174697875977,1.4749698638916016
1698072012324586000,5.7155859375,0.5566573143005371,0.13815641403198242,1.4694801568984985
1698072012334179600,5.7251796875,0.6615738868713379,0.36825084686279297,1.3528101444244385
1698072012343772200,5.734772216796875,0.9230470657348633,0.6821112632751465,1.116923213005066
1698072012353364200,5.7443642578125,1.3079743385314941,0.9785385131835938,0.8571827411651611
1698072012362957000,5.75395703125,1.502180576324463,1.0605316162109375,0.7931633591651917
1698072012372550700,5.763550537109375,1.5986981391906738,1.2279071807861328,0.555198609828949
1698072012382143500,5.7731435546875,1.4690837860107422,1.702406406402588,0.039176248013973236
1698072012391735600,5.782735595703125,1.175368309020996,2.1137747764587402,-0.15952137112617493
1698072012401330000,5.792329833984375,1.0195674896240234,2.342012405395508,0.031125366687774658
1698072012410923500,5.801923583984375,0.9086794853210449,2.540008068084717,0.37724822759628296
1698072012420516400,5.811516357421875,0.8938250541687012,2.6904263496398926,0.7168828248977661
1698072012430108400,5.8211083984375,0.9548110961914062,2.510796546936035,0.8141539096832275
1698072012439701200,5.830701171875,1.0851545333862305,2.068889617919922,0.5962126851081848
1698072012449294800,5.840294921875,1.5342698097229004,1.5175318717956543,0.376102089881897
1698072012458887700,5.8498876953125,2.0654635429382324,0.8728675842285156,0.2600059509277344
1698072012468479500,5.8594794921875,2.452104091644287,0.21465253829956055,0.1825159341096878
1698072012478072600,5.869072509765625,2.6845340728759766,-0.36043882369995117,0.20826281607151031
1698072012487666200,5.878666259765625,2.771089553833008,-0.8168067932128906,0.2510661482810974
1698072012497258800,5.8882587890625,2.687950611114502,-1.1914310455322266,0.28531190752983093
1698072012506850800,5.897850830078125,2.3048219680786133,-1.4809956550598145,0.26878413558006287
1698072012516443600,5.907443603515625,1.549952507019043,-1.7494559288024902,0.28002575039863586
1698072012526037200,5.917037353515625,0.8213653564453125,-2.0188064575195312,0.36791032552719116
1698072012535630000,5.926630126953125,0.09480905532836914,-2.204594135284424,0.5010871887207031
1698072012545222100,5.93622216796875,-0.7213096618652344,-2.293400287628174,0.6462937593460083
1698072012554815000,5.94581494140625,-1.4321670532226562,-2.290296792984009,0.7149705290794373
1698072012564408600,5.95540869140625,-2.0511069297790527,-2.279099941253662,0.7505046129226685
1698072012574001200,5.965001220703125,-2.533230781555176,-2.2441859245300293,0.7475041151046753
1698072012583593200,5.97459326171875,-2.939932346343994,-2.22428560256958,0.8445954918861389
1698072012593186000,5.98418603515625,-3.1690540313720703,-2.209555149078369,1.1486512422561646
1698072012602779600,5.993779541015625,-3.318821430206299,-2.195864200592041,1.376664161682129
1698072012612372500,6.00337255859375,-3.4255008697509766,-2.1451616287231445,1.4560050964355469
1698072012621964500,6.012964599609375,-3.48679256439209,-2.0554261207580566,1.4229497909545898
1698072012631557400,6.022557373046875,-3.427745819091797,-1.949538230895996,1.2756091356277466
1698072012641151000,6.03215087890625,-3.2704176902770996,-1.8061933517456055,1.1285518407821655
1698072012650743800,6.041743896484375,-3.106205940246582,-1.6516432762145996,0.9396407604217529
1698072012660335900,6.0513359375,-2.9573917388916016,-1.4256696701049805,0.7550120949745178
1698072012669928400,6.060928466796875,-2.7941370010375977,-1.0963420867919922,0.49223363399505615
1698072012679522300,6.070522216796875,-2.6418137550354004,-0.6961178779602051,0.21830084919929504
1698072012689115000,6.080114990234375,-2.574711322784424,-0.33465576171875,-0.030330464243888855
1698072012698707000,6.08970703125,-2.562551498413086,0.0753936767578125,-0.34937965869903564
1698072012708299800,6.0992998046875,-2.3692398071289062,0.5536422729492188,-0.6004274487495422
1698072012717893400,6.108893310546875,-1.9906692504882812,1.057274341583252,-0.7697988748550415
1698072012727486200,6.118486328125,-1.460792064666748,1.512366771697998,-0.8926140069961548
1698072012737078300,6.128078369140625,-0.8791275024414062,1.9343485832214355,-0.9805155396461487
1698072012746671000,6.137671142578125,-0.2682948112487793,2.3001351356506348,-1.0065269470214844
1698072012756264700,6.1472646484375,0.5372657775878906,2.5661120414733887,-1.032087802886963
1698072012765857500,6.156857421875,1.2967915534973145,2.817605495452881,-1.1584051847457886
1698072012775449600,6.16644970703125,1.8487305641174316,2.970177173614502,-1.1429332494735718
1698072012785042200,6.176042236328125,2.3533968925476074,3.0792508125305176,-0.9150859117507935
1698072012794635800,6.1856357421875,2.7335476875305176,3.3180508613586426,-0.7621190547943115
1698072012804228600,6.195228515625,2.7836289405822754,3.493669033050537,-0.6469151973724365
1698072012813820700,6.204820556640625,2.5577473640441895,3.5625128746032715,-0.41412553191185
1698072012823413500,6.21441357421875,2.10455322265625,3.540928840637207,-0.2958339750766754
1698072012833007000,6.224007080078125,1.5041799545288086,3.4735302925109863,-0.46734461188316345
1698072012842600000,6.233599853515625,0.885871410369873,3.332400321960449,-0.7198851704597473
1698072012852192000,6.24319189453125,0.6146984100341797,3.271960735321045,-0.9853484630584717
1698072012861784800,6.252784912109375,0.6801166534423828,3.4028754234313965,-1.3495848178863525
1698072012871378400,6.26237841796875,0.911959171295166,3.553039073944092,-1.5835140943527222
1698072012880971000,6.271970947265625,1.3584537506103516,3.6763381958007812,-1.5630393028259277
1698072012890563000,6.28156298828125,1.963850975036621,3.6751174926757812,-1.3969868421554565
1698072012900156000,6.291156005859375,2.6065526008605957,3.419982433319092,-1.189848780632019
1698072012909749500,6.30074951171875,2.9899396896362305,2.8186564445495605,-1.0278133153915405
1698072012919342300,6.31034228515625,3.5121378898620605,2.0399627685546875,-0.8071232438087463
1698072012928934400,6.319934326171875,3.9572768211364746,1.1122932434082031,-0.47593504190444946
1698072012938527200,6.32952734375,4.078001499176025,0.2413015365600586,-0.11906357109546661
1698072012948120800,6.339120849609375,3.922266960144043,-0.3970346450805664,0.1949964463710785
1698072012957713700,6.348713623046875,3.6995697021484375,-0.7974481582641602,0.3494768440723419
1698072012967305500,6.358305419921875,3.479752540588379,-1.0297002792358398,0.2826201915740967
1698072012976898600,6.367898681640625,3.186953544616699,-1.1373786926269531,0.1332988739013672
1698072012986492200,6.3774921875,2.702482223510742,-1.2955694198608398,0.00821647047996521
1698072012996084700,6.387084716796875,2.2179837226867676,-1.5184245109558105,0.021094471216201782
1698072013005676800,6.3966767578125,1.7304396629333496,-1.7569794654846191,0.24813321232795715
1698072013015269600,6.40626953125,0.9603190422058105,-1.926605224609375,0.43217891454696655
1698072013024863200,6.41586328125,0.16440820693969727,-2.0268373489379883,0.4888645112514496
1698072013034456000,6.4254560546875,-0.5446357727050781,-2.136138916015625,0.5659279823303223
1698072013044048100,6.435048095703125,-1.2329635620117188,-2.276674747467041,0.6901482939720154
1698072013053641000,6.444640869140625,-1.8629212379455566,-2.4673404693603516,0.9091019034385681
1698072013063234600,6.454234619140625,-2.2904887199401855,-2.657057285308838,1.153012752532959
1698072013072827100,6.4638271484375,-2.523049831390381,-2.825390338897705,1.343333125114441
1698072013082419200,6.473419189453125,-2.7560181617736816,-2.9975733757019043,1.4397308826446533
1698072013092012000,6.483011962890625,-2.825136184692383,-3.122732162475586,1.3412206172943115
1698072013101605600,6.492605712890625,-2.8021650314331055,-3.117142677307129,0.9598889946937561
1698072013111198500,6.502198486328125,-2.6962060928344727,-3.0552825927734375,0.4401014447212219
1698072013120790500,6.51179052734375,-2.55405855178833,-2.9191009998321533,-0.07675473392009735
1698072013130383400,6.52138330078125,-2.231367588043213,-2.705288887023926,-0.3664664030075073
1698072013139977000,6.53097705078125,-1.9507246017456055,-2.4645557403564453,-0.560882031917572
1698072013149569800,6.54056982421875,-1.698812484741211,-2.2489724159240723,-0.7027359008789062
1698072013159161900,6.550161865234375,-1.571275234222412,-2.018221855163574,-0.7974860668182373
1698072013168754700,6.559754638671875,-1.4377350807189941,-1.7523102760314941,-0.8638111352920532
1698072013178348000,6.56934814453125,-1.244859218597412,-1.4927945137023926,-0.8370422124862671
1698072013187940900,6.57894091796875,-1.0065150260925293,-1.2422771453857422,-0.6943092346191406
1698072013197533000,6.588532958984375,-0.8110666275024414,-0.9357080459594727,-0.43673211336135864
1698072013207125800,6.598125732421875,-0.5049614906311035,-0.5684242248535156,-0.330471932888031
1698072013216719400,6.60771923828125,0.13901424407958984,-0.13104009628295898,-0.18647059798240662
1698072013226312200,6.617312255859375,0.9678330421447754,0.22345781326293945,0.22371971607208252
1698072013235904000,6.626904052734375,1.666250228881836,0.49787378311157227,0.8634052872657776
1698072013245497000,6.6364970703125,2.021982192993164,0.7692489624023438,1.3964283466339111
1698072013255090700,6.646090576171875,1.9029827117919922,1.1439647674560547,1.7450683116912842
1698072013264683300,6.655683349609375,1.3864860534667969,1.5971674919128418,1.7602002620697021
1698072013274275300,6.665275390625,0.6937384605407715,1.9566993713378906,1.598458170890808
1698072013283868200,6.6748681640625,0.12994718551635742,2.1427440643310547,1.3558050394058228
1698072013293461800,6.684461669921875,0.03956890106201172,2.208247184753418,1.1376093626022339
1698072013303054600,6.6940546875,0.5960178375244141,2.2701516151428223,0.9147999286651611
1698072013312646700,6.703646728515625,1.4935660362243652,2.2971243858337402,0.9811393618583679
1698072013322239500,6.713239501953125,2.1673755645751953,2.1815743446350098,1.1594442129135132
1698072013331833000,6.7228330078125,2.6581921577453613,2.1575779914855957,1.0186240673065186
1698072013341425700,6.73242578125,2.797905921936035,2.382418632507324,0.4600012004375458
1698072013351017700,6.742017822265625,2.6157307624816895,2.5308289527893066,-0.1435939371585846
1698072013360610600,6.751610595703125,2.269974708557129,2.5091047286987305,-0.4781954884529114
1698072013370204200,6.7612041015625,1.9307856559753418,2.3788552284240723,-0.6813045740127563
1698072013379797000,6.770796875,1.7003254890441895,2.1479225158691406,-0.7710910439491272
1698072013389389000,6.78038916015625,1.4690499305725098,1.6778006553649902,-0.5678670406341553
1698072013398982000,6.78998193359375,1.3264341354370117,1.0830268859863281,-0.2414480745792389
1698072013408575500,6.799575439453125,1.3115081787109375,0.5494604110717773,0.06700807064771652
1698072013418168000,6.80916796875,1.272061824798584,-0.021693706512451172,0.30846652388572693
1698072013427760000,6.818760009765625,1.2329516410827637,-0.5355672836303711,0.5862095355987549
1698072013437353000,6.82835302734375,1.0295867919921875,-0.9041228294372559,0.8021047115325928
1698072013446946600,6.837946533203125,0.6945919990539551,-1.2676410675048828,0.88746577501297
1698072013456539400,6.847539306640625,0.15842866897583008,-1.5855083465576172,0.8708584308624268
1698072013466131500,6.85713134765625,-0.5459465980529785,-1.80979585647583,0.8064582943916321
1698072013475724300,6.866724365234375,-1.1682319641113281,-2.0719375610351562,0.8173294067382812
1698072013485318000,6.87631787109375,-1.6678142547607422,-2.2913999557495117,0.8547918796539307
1698072013494910700,6.88591064453125,-1.940941333770752,-2.453188896179199,0.93108069896698
1698072013504502800,6.895502685546875,-1.9038548469543457,-2.562783718109131,0.9414944052696228
1698072013514095600,6.905095703125,-1.7385854721069336,-2.6104674339294434,0.9922575950622559
1698072013523689000,6.91468896484375,-1.4706578254699707,-2.7018818855285645,1.1385788917541504
1698072013533281800,6.92428173828125,-1.2833271026611328,-2.7775678634643555,1.3509708642959595
1698072013542873900,6.933873779296875,-1.21929931640625,-2.801424980163574,1.5293349027633667
1698072013552466700,6.943466796875,-1.2456002235412598,-2.777256488800049,1.6691937446594238
1698072013562060300,6.953060302734375,-1.2969965934753418,-2.667245864868164,1.7869868278503418
1698072013571653000,6.962653076171875,-1.385688304901123,-2.5858373641967773,1.7609847784042358
1698072013581245200,6.9722451171875,-1.7110590934753418,-2.541414260864258,1.6077587604522705
1698072013590838000,6.981838134765625,-2.061541795730591,-2.487180709838867,1.353474497795105
1698072013600431600,6.991431640625,-2.3974993228912354,-2.4127449989318848,1.13551926612854
1698072013610024200,7.001024169921875,-2.7344601154327393,-2.2980685234069824,0.9647743105888367
1698072013619616300,7.0106162109375,-3.0637855529785156,-2.108999729156494,0.774868905544281
1698072013629209000,7.020208984375,-3.305175542831421,-1.847318172454834,0.6406747102737427
1698072013638802700,7.029802734375,-3.397800922393799,-1.5004243850708008,0.5081790089607239
1698072013648395500,7.0393955078125,-3.526984691619873,-1.1179609298706055,0.14119428396224976
1698072013657987600,7.048987548828125,-3.5392444133758545,-0.7060871124267578,-0.45734137296676636
1698072013667580200,7.058580078125,-3.2106082439422607,-0.28664159774780273,-0.9957290887832642
1698072013677174000,7.068174072265625,-2.498664140701294,0.059191226959228516,-1.335402488708496
1698072013686766600,7.0777666015625,-1.751634120941162,0.38121795654296875,-1.632348895072937
1698072013696358700,7.087358642578125,-1.1808509826660156,0.6554989814758301,-1.7100768089294434
1698072013705951500,7.096951416015625,-0.5826029777526855,0.8733630180358887,-1.4631417989730835
1698072013715545000,7.106545166015625,-0.1253976821899414,1.170590877532959,-1.2032451629638672
1698072013725138000,7.116137939453125,0.3313150405883789,1.4594225883483887,-0.9750415086746216
1698072013734730000,7.12572998046875,0.6079883575439453,1.8449149131774902,-0.9794565439224243
1698072013744322800,7.13532275390625,0.574063777923584,2.261033535003662,-1.2971588373184204
1698072013753916400,7.14491650390625,0.44268035888671875,2.5848121643066406,-1.796809196472168
1698072013763509000,7.154509033203125,0.27521657943725586,2.837812900543213,-2.2497870922088623
1698072013773101000,7.16410107421875,0.13448810577392578,2.93979549407959,-2.5075135231018066
1698072013782694000,7.17369384765625,0.256777286529541,2.9981088638305664,-2.5009353160858154
1698072013792287500,7.18328759765625,0.8208584785461426,3.032139778137207,-2.1350560188293457
1698072013801880300,7.19288037109375,1.3846731185913086,3.111257553100586,-1.8119925260543823
1698072013811472400,7.202472412109375,1.6805520057678223,3.2982521057128906,-1.6762582063674927
1698072013821065200,7.212065185546875,1.7349648475646973,3.6513242721557617,-1.6517391204833984
1698072013830658800,7.221658935546875,1.8455090522766113,3.876138687133789,-1.6093635559082031
1698072013840251400,7.23125146484375,1.726315975189209,3.984166145324707,-1.539970874786377
1698072013849843500,7.240843505859375,1.415085792541504,3.942694664001465,-1.433028221130371
1698072013859436300,7.250436279296875,1.1116762161254883,3.597026824951172,-1.2500674724578857
1698072013869030000,7.26002978515625,0.8061327934265137,2.978034019470215,-0.8270863890647888
1698072013878622700,7.269622802734375,0.5844407081604004,2.187629222869873,-0.32393378019332886
1698072013888214800,7.27921484375,0.24071264266967773,1.3947105407714844,-0.014554262161254883
1698072013897807600,7.2888076171875,-0.004724025726318359,0.6105728149414062,0.08318835496902466
1698072013907401200,7.298401123046875,-0.027512073516845703,0.0032701492309570312,-0.15561920404434204
1698072013916993800,7.307993896484375,0.43260765075683594,-0.4158358573913574,-0.4768896996974945
1698072013926585900,7.3175859375,1.17087984085083,-0.6866679191589355,-0.6601576805114746
1698072013936178700,7.3271787109375,1.8708009719848633,-0.9310312271118164,-0.6087399125099182
1698072013945772300,7.336772216796875,2.3457283973693848,-1.0758752822875977,-0.4573453962802887
1698072013955365000,7.346365234375,2.442540168762207,-1.1827545166015625,-0.11133116483688354
1698072013964957200,7.355957275390625,2.184478759765625,-1.2485933303833008,0.32522255182266235
1698072013974550000,7.365550048828125,1.5599122047424316,-1.3433666229248047,0.7110499739646912
1698072013984143600,7.3751435546875,0.6472139358520508,-1.4262828826904297,0.904478907585144
1698072013993736200,7.384736083984375,-0.3477945327758789,-1.4552597999572754,0.8192137479782104
1698072014003328300,7.394328369140625,-1.127108097076416,-1.588240623474121,0.6976065039634705
1698072014012921000,7.403921142578125,-1.6126980781555176,-1.8158721923828125,0.7450563907623291
1698072014022514700,7.4135146484375,-1.8844561576843262,-2.0114269256591797,0.8469433188438416
1698072014032107500,7.423107421875,-1.9652771949768066,-2.1620497703552246,0.9627375602722168
1698072014041699600,7.432699462890625,-1.8648896217346191,-2.339146137237549,0.993476927280426
1698072014051292400,7.44229248046875,-1.7214455604553223,-2.4948902130126953,0.8984435200691223
1698072014060886000,7.451885986328125,-1.6057658195495605,-2.672464370727539,0.6617506742477417
1698072014070478600,7.461478515625,-1.5459117889404297,-2.673536777496338,0.2212802767753601
1698072014080070700,7.471070556640625,-1.3738274574279785,-2.6160106658935547,-0.20300421118736267
1698072014089663500,7.48066357421875,-1.107750415802002,-2.388965129852295,-0.8268160223960876
1698072014099257000,7.490257080078125,-1.032468318939209,-2.4367122650146484,-0.7295607328414917
1698072014108850000,7.499849853515625,-0.8318228721618652,-2.462911605834961,-0.888104259967804
1698072014118442000,7.50944189453125,-0.8813071250915527,-2.1473331451416016,-1.2697622776031494
1698072014128034800,7.519034912109375,-0.8626503944396973,-2.0446996688842773,-1.2454215288162231
1698072014137628400,7.52862841796875,-0.9056534767150879,-1.9935474395751953,-0.97967928647995
1698072014147221000,7.538220947265625,-0.8383212089538574,-1.7855019569396973,-0.7303173542022705
1698072014156813000,7.54781298828125,-0.6771798133850098,-1.595323085784912,-0.38731276988983154
1698072014166406000,7.557406005859375,-0.579833984375,-1.4372739791870117,-0.020182490348815918
1698072014175999500,7.56699951171875,-0.4170842170715332,-1.2564702033996582,0.33615073561668396
1698072014185592300,7.57659228515625,-0.21547317504882812,-0.9650616645812988,0.841840922832489
1698072014195184400,7.586184326171875,0.006144046783447266,-0.7008600234985352,1.3089467287063599
1698072014204777200,7.595777099609375,0.3703770637512207,-0.4299955368041992,1.6138836145401
1698072014214370800,7.605370849609375,0.46373891830444336,-0.2089090347290039,1.8454136848449707
1698072014223963400,7.61496337890625,0.17523622512817383,0.019904136657714844,2.0758538246154785
1698072014233555500,7.624555419921875,-0.16927623748779297,0.4270315170288086,2.082900047302246
1698072014243148300,7.634148193359375,-0.3580899238586426,0.9479670524597168,1.7621179819107056
1698072014252742000,7.643741943359375,-0.6176295280456543,1.5980334281921387,1.258232593536377
1698072014262334700,7.653334716796875,-0.7516250610351562,2.20523738861084,0.6736870408058167
1698072014271926800,7.6629267578125,-0.4758791923522949,2.5966172218322754,0.3204832077026367
1698072014281519600,7.67251953125,-0.06707382202148438,2.8661580085754395,0.33024972677230835
1698072014291113200,7.68211328125,0.3299751281738281,3.152945041656494,0.5181651711463928
1698072014300705800,7.691705810546875,0.8521237373352051,3.3047547340393066,0.8642482161521912
1698072014310297900,7.7012978515625,1.322251796722412,3.2775192260742188,1.322344422340393
1698072014319890700,7.710890625,1.8142337799072266,3.1585159301757812,1.6760064363479614
1698072014329484300,7.720484375,2.404873847961426,2.859656810760498,1.7999987602233887
1698072014339077000,7.7300771484375,3.1357741355895996,2.456663131713867,1.7304205894470215
1698072014348669200,7.739669189453125,3.927745819091797,1.8941397666931152,1.5085618495941162
1698072014358261800,7.74926171875,4.563328266143799,1.2998032569885254,1.215392827987671
1698072014367855600,7.758855712890625,4.908015251159668,0.7114138603210449,0.9292188882827759
1698072014377448200,7.7684482421875,4.806215286254883,0.40834474563598633,0.7078595161437988
1698072014387040300,7.778040283203125,4.173952579498291,0.14972257614135742,0.5931380987167358
1698072014396633000,7.787633056640625,3.010952949523926,-0.03914928436279297,-0.017461419105529785
1698072014406226700,7.797226806640625,1.5460176467895508,-0.24603986740112305,-0.563008189201355
1698072014415819500,7.806819580078125,0.32944822311401367,-1.0422983169555664,-0.12193942070007324
1698072014425411600,7.81641162109375,-0.6740627288818359,-1.454643726348877,-0.01239168643951416
1698072014435004400,7.82600439453125,-1.4351420402526855,-1.8009228706359863,0.11578953266143799
1698072014444598000,7.835597900390625,-1.824817180633545,-1.9317383766174316,0.3051334619522095
1698072014454190600,7.845190673828125,-1.9671010971069336,-2.164341926574707,0.8947283029556274
1698072014463782700,7.85478271484375,-1.9871368408203125,-1.6297497749328613,0.8827883005142212
1698072014473375500,7.86437548828125,-1.9183135032653809,-1.14213228225708,0.9893723726272583
1698072014482969000,7.873968994140625,-2.9568138122558594,-0.5328278541564941,0.5770615339279175
1698072014492562000,7.88356201171875,-2.9259228706359863,-0.9293375015258789,0.9727529287338257
1698072014502154000,7.893154052734375,-3.0294365882873535,-1.1876182556152344,1.392098069190979
1698072014511746800,7.902746826171875,-2.9097900390625,-1.5845060348510742,1.9528226852416992
1698072014521340200,7.912340087890625,-2.4201536178588867,-1.704172134399414,1.8852055072784424
1698072014530933000,7.92193310546875,-1.4809412956237793,-1.260972499847412,1.0373417139053345
1698072014540525000,7.931525146484375,-1.1568422317504883,-0.5549993515014648,0.11136901378631592
1698072014550118000,7.941117919921875,-1.1635117530822754,-0.16130733489990234,-0.6332390904426575
1698072014559711500,7.95071142578125,-1.2500872611999512,-0.15396356582641602,-0.9675049781799316
1698072014569304300,7.96030419921875,-1.4442687034606934,-0.011018753051757812,-1.348848819732666
1698072014578896400,7.969896484375,-1.7580351829528809,0.16541099548339844,-1.6128815412521362
1698072014588489000,7.979489013671875,-2.567190170288086,0.25888729095458984,-1.629101037979126
1698072014598082600,7.98908251953125,-2.311227321624756,0.28246307373046875,-1.4157136678695679
1698072014607675400,7.99867529296875,-0.689063549041748,0.21438169479370117,-1.26730215549469
1698072014617267500,8.008267333984374,0.41945695877075195,0.4008975028991699,-1.1281006336212158
1698072014626860300,8.0178603515625,0.4465508460998535,0.7778935432434082,-0.8773810267448425
1698072014636454000,8.027453857421875,0.530825138092041,1.1188139915466309,-0.5342811942100525
1698072014646046700,8.037046630859376,0.7734804153442383,1.2205662727355957,-0.2473185658454895
1698072014655638500,8.046638427734376,1.1297483444213867,1.3138952255249023,-0.30539804697036743
1698072014665231400,8.0562314453125,1.343367099761963,0.9198579788208008,-0.34905195236206055
1698072014674825000,8.065824951171875,1.3367323875427246,0.13561391830444336,-0.18722647428512573
1698072014684417800,8.075417724609375,1.210458755493164,-0.059205055236816406,-0.7594455480575562
1698072014694009900,8.085009765625,0.9098415374755859,0.09469318389892578,-1.608011245727539
1698072014703602700,8.094602783203126,0.6634097099304199,0.4175381660461426,-2.286097288131714
1698072014713196300,8.1041962890625,0.7834954261779785,0.720970630645752,-2.4960548877716064
1698072014722788900,8.113788818359374,0.5011153221130371,0.725830078125,-2.2463579177856445
1698072014732381000,8.123380859375,-0.10473442077636719,0.6803898811340332,-2.1231422424316406
1698072014741973800,8.132973876953125,-0.09392547607421875,0.8316798210144043,-2.442870616912842
1698072014751567400,8.1425673828125,0.309600830078125,1.1582770347595215,-2.8485114574432373
1698072014761160200,8.15216015625,0.5820522308349609,1.3687291145324707,-3.0066206455230713
1698072014770752300,8.161752197265624,1.005105972290039,1.5311899185180664,-2.7741246223449707
1698072014780344800,8.1713447265625,1.5908761024475098,1.7720441818237305,-2.415353775024414
1698072014789938700,8.180938720703125,2.047264575958252,2.14859676361084,-2.238675117492676
1698072014799531300,8.19053125,2.2767534255981445,2.4861831665039062,-2.0941238403320312
1698072014809123300,8.200123291015625,2.4552178382873535,2.536125659942627,-1.8156962394714355
1698072014818716200,8.209716064453126,2.2696828842163086,2.1757302284240723,-1.3478572368621826
1698072014828309800,8.219309814453124,1.660782814025879,1.4969825744628906,-0.7863625884056091
1698072014837902600,8.228902587890625,1.5091328620910645,0.7759356498718262,-0.30819177627563477
1698072014847494700,8.23849462890625,1.3887286186218262,0.10650253295898438,0.03511554002761841
1698072014857087500,8.24808740234375,1.1590495109558105,-0.3412446975708008,0.015643417835235596
1698072014866681000,8.25768115234375,0.9668374061584473,-0.9058647155761719,-0.03412872552871704
1698072014876273700,8.267273681640624,0.8587493896484375,-1.0005507469177246,-0.423522412776947
1698072014885865700,8.27686572265625,0.750452995300293,-1.1146841049194336,-0.8164291977882385
1698072014895458600,8.28645849609375,0.6458230018615723,-1.0242071151733398,-1.137151837348938
1698072014905052200,8.29605224609375,0.4378480911254883,-0.884528636932373,-1.2578390836715698
1698072014914645000,8.30564501953125,0.010911941528320312,-0.9900941848754883,-0.9368892908096313
1698072014924237000,8.315237060546876,-0.44561052322387695,-1.2539339065551758,-0.38462767004966736
1698072014933829600,8.32482958984375,-0.8290500640869141,-1.426858901977539,0.03783446550369263
1698072014943423200,8.33442333984375,-1.249396800994873,-1.6167540550231934,0.33149951696395874
1698072014953016000,8.34401611328125,-1.6986689567565918,-1.808126449584961,0.5312827229499817
1698072014962608000,8.353608154296875,-2.1490321159362793,-1.5296225547790527,0.043670058250427246
1698072014972201000,8.363200927734376,-2.593350887298584,-2.009352684020996,-0.02732241153717041
1698072014981794600,8.372794677734374,-2.91571044921875,-2.778211832046509,0.4521881937980652
1698072014991387100,8.38238720703125,-3.155700206756592,-3.168426036834717,0.6803465485572815
1698072015000979200,8.391979248046875,-3.368506908416748,-3.2772719860076904,0.6261871457099915
1698072015010572000,8.401572021484375,-3.358731746673584,-3.2204442024230957,0.5291556715965271
1698072015020165600,8.41116552734375,-3.022881507873535,-2.94539213180542,0.3399931490421295
1698072015029758500,8.420758544921876,-2.469053268432617,-2.2221193313598633,-0.057875826954841614
1698072015039350500,8.4303505859375,-2.0549063682556152,-1.5867362022399902,-0.37884408235549927
1698072015048943400,8.439943359375,-1.820573329925537,-1.2005457878112793,-0.49818944931030273
1698072015058537000,8.449536865234375,-1.8624086380004883,-0.9619522094726562,-0.40321865677833557
1698072015068129500,8.459129638671875,-1.8858652114868164,-0.7248063087463379,-0.18907682597637177
1698072015077721600,8.4687216796875,-2.0646796226501465,-0.6576638221740723,0.16006684303283691
1698072015087314400,8.478314453125,-1.7040414810180664,-0.5722970962524414,0.3865834176540375
1698072015096908000,8.487907958984374,-1.2837367057800293,-0.34741830825805664,0.39958322048187256
1698072015106500900,8.4975009765625,-1.0095338821411133,-0.21934843063354492,0.5000676512718201
1698072015116093000,8.507093017578125,-0.7844333648681641,-0.058879852294921875,0.6042925715446472
1698072015125685800,8.516685791015625,-0.7119569778442383,0.37363624572753906,0.8458572030067444
1698072015135279400,8.526279296875,-0.6544451713562012,0.04362058639526367,1.7107473611831665
1698072015144872000,8.535871826171874,-0.5121221542358398,-0.1517324447631836,2.480928421020508
1698072015154464000,8.545464111328124,-0.8885951042175293,0.016991138458251953,2.996974229812622
1698072015164056800,8.555056884765625,-1.0105814933776855,0.023180484771728516,3.1675150394439697
1698072015173650400,8.564650390625,-0.7996916770935059,0.24542951583862305,2.923927068710327
1698072015183243300,8.5742431640625,-0.32015466690063477,0.7952537536621094,2.360790967941284
1698072015192835300,8.58383544921875,0.6494026184082031,1.2972970008850098,1.67343008518219
1698072015202428000,8.593427978515624,1.5905342102050781,1.640615463256836,1.0225780010223389
1698072015212021500,8.603021484375,2.283236503601074,1.9277305603027344,0.3772660195827484
1698072015221614300,8.6126142578125,2.692049980163574,2.191140651702881,-0.005092248320579529
1698072015231206400,8.622206298828125,2.985812187194824,2.35976505279541,0.07401740550994873
1698072015240799200,8.63179931640625,2.9799118041992188,2.358668327331543,0.4732501208782196
1698072015250392800,8.641392822265624,2.954770088195801,2.4662599563598633,0.9572767019271851
1698072015259985400,8.6509853515625,3.0631608963012695,2.693845272064209,1.355014681816101
1698072015269577500,8.660577392578125,3.2045068740844727,2.911799907684326,1.5479822158813477
1698072015279170300,8.67017041015625,3.380192756652832,2.9600276947021484,1.3437726497650146
1698072015288764000,8.679763916015625,3.4816665649414062,2.696526527404785,0.9103348255157471
1698072015298356700,8.689356689453126,3.93343448638916,2.161280632019043,0.497107595205307
1698072015307948800,8.69894873046875,4.570343971252441,1.474804401397705,0.28776249289512634
1698072015317541600,8.708541748046875,4.9740142822265625,0.714148998260498,0.19157683849334717
1698072015327135200,8.71813525390625,5.069700241088867,0.06044769287109375,0.15336105227470398
1698072015336727800,8.727727783203125,4.803292274475098,-0.3991208076477051,0.19154000282287598
1698072015346320000,8.73731982421875,4.305270195007324,-0.7068228721618652,0.24246937036514282
1698072015355912700,8.74691259765625,3.548686981201172,-0.9100556373596191,0.3937046527862549
1698072015365506300,8.75650634765625,2.583859443664551,-0.9359645843505859,0.4719260632991791
1698072015375099100,8.76609912109375,1.5773544311523438,-0.909273624420166,0.4278690814971924
1698072015384691200,8.775691162109375,0.7122974395751953,-0.9720559120178223,0.3269056975841522
1698072015394284000,8.785283935546875,-0.009599685668945312,-1.164741039276123,0.289221853017807
1698072015403877600,8.794877685546876,-0.6812624931335449,-1.3839147090911865,0.250253289937973
1698072015413470200,8.80447021484375,-1.2632818222045898,-1.585251808166504,0.2302825152873993
1698072015423062300,8.814062255859374,-1.7753801345825195,-1.766240119934082,0.3329494595527649
1698072015432655000,8.823655029296875,-2.1629223823547363,-1.9294681549072266,0.5094835758209229
1698072015442248700,8.833248779296875,-2.457096576690674,-2.0419721603393555,0.6587319374084473
1698072015451841500,8.842841552734376,-2.65029239654541,-2.0213816165924072,0.7070204019546509
1698072015461433600,8.85243359375,-2.861452102661133,-1.9908766746520996,0.6596986055374146
1698072015471026200,8.862026123046874,-3.0612664222717285,-1.910616159439087,0.5099920630455017
1698072015480620000,8.8716201171875,-3.077267646789551,-1.7240371704101562,0.21634413301944733
1698072015490212600,8.881212646484375,-2.9210400581359863,-1.5090734958648682,-0.1743188351392746
1698072015499804700,8.8908046875,-2.7928781509399414,-1.3506736755371094,-0.4765128493309021
1698072015509397500,8.9003974609375,-2.7107057571411133,-1.2768640518188477,-0.752836287021637
1698072015518991000,8.9099912109375,-2.551457405090332,-1.2009644508361816,-1.0080584287643433
1698072015528584000,8.919583984375,-2.4912004470825195,-1.071725845336914,-1.140541434288025
1698072015538175700,8.92917578125,-2.4648079872131348,-0.8563170433044434,-1.1675995588302612
1698072015547768800,8.938768798828125,-2.525320529937744,-0.5634059906005859,-1.1354315280914307
1698072015557362200,8.948362060546875,-2.5401124954223633,-0.19341516494750977,-1.08025324344635
1698072015566955000,8.957955078125,-2.515451431274414,0.2770872116088867,-1.0747201442718506
1698072015576547000,8.967547119140624,-2.3736729621887207,0.7729592323303223,-1.1753461360931396
1698072015586140000,8.977139892578125,-2.0824594497680664,1.1782422065734863,-1.313433289527893
1698072015595733500,8.9867333984375,-1.6329054832458496,1.4433751106262207,-1.3955185413360596
1698072015605326000,8.996326171875,-1.1584229469299316,1.5630135536193848,-1.4044747352600098
1698072015614918100,9.005918212890625,-0.653590202331543,1.6035842895507812,-1.3024076223373413
1698072015624511000,9.015510986328126,-0.1872119903564453,1.6196784973144531,-1.1491775512695312
1698072015634104600,9.0251044921875,0.27959251403808594,1.6584858894348145,-1.0709424018859863
1698072015643697400,9.034697509765625,0.6727004051208496,1.6795268058776855,-1.0020751953125
1698072015653289500,9.04428955078125,0.9386954307556152,1.636406421661377,-0.9080466032028198
1698072015662882300,9.05388232421875,1.1117730140686035,1.5673918724060059,-0.8117460012435913
1698072015672476000,9.063475830078126,1.2898039817810059,1.540116310119629,-0.8785601258277893
1698072015682068500,9.073068359375,1.425018310546875,1.5785527229309082,-1.119886875152588
1698072015691660500,9.08266064453125,1.4656786918640137,1.626842975616455,-1.3636796474456787
1698072015701253400,9.09225341796875,1.4544644355773926,1.6112370491027832,-1.6340289115905762
1698072015710847000,9.101846923828125,1.5530095100402832,1.6495108604431152,-2.0499515533447266
1698072015720439800,9.111439697265626,1.7422137260437012,1.7482895851135254,-2.397806167602539
1698072015730031600,9.121031494140626,1.913933277130127,1.7813634872436523,-2.4566855430603027
1698072015739624700,9.130624755859374,2.1152210235595703,1.8425512313842773,-2.3507943153381348
1698072015749218300,9.14021826171875,2.323221206665039,2.001852035522461,-2.246569871902466
1698072015758811000,9.149810791015625,2.5878939628601074,2.1419081687927246,-2.0654854774475098
1698072015768403000,9.15940283203125,2.8196310997009277,2.1351704597473145,-1.7842295169830322
1698072015777995800,9.168995849609376,2.762035369873047,1.7997636795043945,-1.428452968597412
1698072015787589400,9.17858935546875,2.539997100830078,1.1991181373596191,-1.047698736190796
1698072015797182200,9.18818212890625,2.3264970779418945,0.5361661911010742,-0.8194013237953186
1698072015806774000,9.19777392578125,2.141695976257324,-0.16692352294921875,-0.6429988741874695
1698072015816366800,9.207366943359375,1.8862333297729492,-0.823822021484375,-0.4975614547729492
1698072015825960400,9.21696044921875,1.5704779624938965,-1.326279640197754,-0.44167864322662354
1698072015835553300,9.22655322265625,1.4128093719482422,-1.5062880516052246,-0.5500352382659912
1698072015845145300,9.236145263671874,1.3663153648376465,-1.4159388542175293,-0.7898406982421875
1698072015854738200,9.24573828125,1.224174976348877,-1.2075390815734863,-0.9999948740005493
1698072015864331800,9.255331787109375,1.0186095237731934,-0.9825654029846191,-1.0587799549102783
1698072015873924400,9.26492431640625,0.9198989868164062,-0.9372844696044922,-0.778516411781311
1698072015883516400,9.274516357421875,0.6128926277160645,-0.9760241508483887,-0.22631414234638214
1698072015893109200,9.284109130859376,0.40645694732666016,-1.093977928161621,0.3556607663631439
1698072015902702800,9.293702880859374,0.14168691635131836,-1.2346954345703125,0.9801815748214722
1698072015912295700,9.303295654296875,-0.3510160446166992,-1.388181209564209,1.375175952911377
1698072015921887700,9.3128876953125,-0.9793519973754883,-1.48832368850708,1.3808013200759888
1698072015931480300,9.322480224609375,-1.6341667175292969,-1.6059575080871582,1.1895173788070679
1698072015941074200,9.33207421875,-2.253355026245117,-1.7745461463928223,1.0120184421539307
1698072015950666800,9.341666748046874,-2.771775245666504,-1.8893799781799316,0.785146176815033
1698072015960258800,9.3512587890625,-3.1610732078552246,-1.8592796325683594,0.5381386280059814
1698072015969851600,9.3608515625,-3.367748737335205,-1.7950596809387207,0.2685805559158325
1698072015979445200,9.3704453125,-3.337324619293213,-1.770287036895752,0.1605919897556305
1698072015989038000,9.3800380859375,-3.1633057594299316,-1.6487579345703125,0.12083840370178223
1698072015998630000,9.3896298828125,-3.011596202850342,-1.4036483764648438,-0.01447722315788269
1698072016008222700,9.39922265625,-2.812105655670166,-1.0767531394958496,-0.19751222431659698
1698072016017816300,9.40881640625,-2.5527734756469727,-0.6808376312255859,-0.353280246257782
1698072016027409200,9.4184091796875,-2.2568626403808594,-0.3083767890930176,-0.4930376708507538
1698072016037001200,9.428001220703125,-1.6886940002441406,-0.029007911682128906,-0.5356576442718506
1698072016046594000,9.437593994140625,-1.0039582252502441,0.08920717239379883,-0.4815557599067688
1698072016056187600,9.447187744140624,-0.40096044540405273,0.05271625518798828,-0.33733296394348145
1698072016065780200,9.4567802734375,-0.05265998840332031,-0.04631233215332031,0.0694747045636177
1698072016075372300,9.466372314453125,0.13619661331176758,-0.10116386413574219,0.4606113135814667
1698072016084965000,9.475965087890625,0.25960254669189453,-0.04226827621459961,0.7312586307525635
1698072016094558700,9.485558837890625,0.21236753463745117,0.08121824264526367,0.8726434111595154
1698072016104151600,9.495151611328126,0.2100515365600586,0.18606042861938477,0.9551551342010498
1698072016113743600,9.50474365234375,0.08793354034423828,0.201019287109375,1.1381003856658936
1698072016123336200,9.514336181640624,-0.03433418273925781,0.18410491943359375,1.2893186807632446
1698072016132930000,9.523929931640625,0.024804115295410156,0.3314852714538574,1.1858550310134888
1698072016142522600,9.533522705078125,0.16951417922973633,0.5903711318969727,0.9506319761276245
1698072016152114700,9.54311474609375,0.6280646324157715,0.8276190757751465,0.7127016186714172
1698072016161707500,9.55270751953125,1.3081226348876953,0.9268355369567871,0.5119031071662903
1698072016171301000,9.562301025390624,1.9901776313781738,0.8178853988647461,0.4160095453262329
1698072016180894000,9.57189404296875,2.5895586013793945,0.8001489639282227,0.2744852304458618
1698072016190486000,9.581486083984375,2.875692844390869,0.9001898765563965,0.023924171924591064
1698072016200078600,9.59107861328125,2.731226921081543,1.1348075866699219,-0.10567361116409302
1698072016209672200,9.600672119140626,2.3732147216796875,1.407149314880371,-0.013653039932250977
1698072016219265000,9.61026513671875,1.9781031608581543,1.6925225257873535,0.16356980800628662
1698072016228857000,9.619857177734374,1.7002816200256348,2.086183547973633,0.4049285054206848
1698072016238450000,9.629449951171875,1.6516976356506348,2.383547782897949,0.8357875347137451
1698072016248043500,9.63904345703125,1.804595947265625,2.3214049339294434,1.4994162321090698
1698072016257636000,9.648635986328125,1.9106154441833496,1.957709789276123,2.1337006092071533
1698072016267228200,9.658228271484376,2.0049495697021484,1.3795599937438965,2.352090358734131
1698072016276821000,9.667821044921874,2.1350197792053223,0.7706689834594727,2.1390440464019775
1698072016286414600,9.67741455078125,2.1669135093688965,0.11502504348754883,1.7661845684051514
1698072016296007400,9.68700732421875,2.143775463104248,-0.5677509307861328,1.3846092224121094
1698072016305599500,9.696599609375,2.084918975830078,-1.1503214836120605,0.9872693419456482
1698072016315192300,9.7061923828125,2.0023140907287598,-1.5185861587524414,0.6165515184402466
1698072016324786000,9.715785888671874,1.7234344482421875,-1.7005677223205566,0.33545172214508057
1698072016334378500,9.72537841796875,1.3931498527526855,-1.7660160064697266,0.2098630666732788
1698072016343970600,9.734970458984375,0.9964852333068848,-1.85837984085083,0.3069019317626953
1698072016353563400,9.7445634765625,0.3354148864746094,-1.9166388511657715,0.4906345009803772
1698072016363157000,9.754156982421875,-0.3201899528503418,-1.884425163269043,0.6500319242477417
1698072016372749800,9.763749755859376,-0.9792804718017578,-1.8095521926879883,0.6964882612228394
1698072016382341600,9.773341552734376,-1.4934449195861816,-1.5724740028381348,0.5731809139251709
1698072016391934500,9.7829345703125,-1.7727975845336914,-1.2949376106262207,0.4424598217010498
1698072016401528000,9.792528076171875,-2.285653591156006,-1.1703405380249023,0.495596706867218
1698072016411121000,9.802120849609375,-2.685746669769287,-1.1375222206115723,0.6909816265106201
1698072016420713000,9.811712890625,-2.658644676208496,-1.243635654449463,1.1642673015594482
1698072016430305800,9.821305908203126,-2.9177451133728027,-1.4250311851501465,1.4441900253295898
1698072016439899400,9.8308994140625,-2.836068630218506,-1.4227633476257324,1.2475930452346802
1698072016449492000,9.840491943359375,-2.949319362640381,-1.3743562698364258,0.9028403162956238
1698072016459084000,9.850083984375,-2.9222378730773926,-1.2363190650939941,0.2501843571662903
1698072016468676900,9.8596767578125,-2.665597438812256,-0.9647669792175293,-0.46830669045448303
1698072016478270500,9.8692705078125,-2.5808138847351074,-0.7692584991455078,-0.8822029829025269
1698072016487863300,9.87886328125,-2.490190029144287,-0.45801305770874023,-1.2144067287445068
1698072016497455400,9.888455322265624,-2.4801883697509766,-0.3038921356201172,-0.987055242061615
1698072016507048000,9.8980478515625,-2.6020150184631348,-0.22669649124145508,-0.8245023488998413
1698072016516641800,9.907641845703125,-2.8284926414489746,-0.006922721862792969,-0.7609856128692627
1698072016526234400,9.917234375,-2.92366361618042,0.16712331771850586,-0.734489917755127
1698072016535826400,9.926826416015626,-2.3397202491760254,0.10985040664672852,-0.6200959086418152
1698072016545419300,9.936419189453124,-1.1627836227416992,0.05617475509643555,-0.292537659406662
1698072016555012900,9.946012939453125,-0.35263490676879883,0.30278539657592773,-0.2370741367340088
1698072016564605700,9.955605712890625,-0.033426761627197266,0.5873889923095703,-0.438301146030426
1698072016574197500,9.965197509765625,0.20336294174194336,0.6820249557495117,-0.5697795152664185
1698072016583790300,9.974790283203125,0.3913140296936035,0.6807088851928711,-0.6539714932441711
1698072016593384000,9.984384033203124,0.5914158821105957,0.6640710830688477,-0.6605007648468018
1698072016602976800,9.993976806640624,0.7104482650756836,0.7902336120605469,-0.6998788714408875
1698072016612568800,10.00356884765625,0.7665925025939941,1.0054726600646973,-0.8529052734375
1698072016622161700,10.01316162109375,0.7162017822265625,1.2127676010131836,-1.0753060579299927
1698072016631755300,10.02275537109375,0.5897970199584961,1.3581609725952148,-1.347758173942566
1698072016641347800,10.032347900390626,0.47089338302612305,1.525639533996582,-1.5868539810180664
1698072016650940000,10.04193994140625,0.35060977935791016,1.6713838577270508,-1.9272985458374023
1698072016660532700,10.05153271484375,0.26993846893310547,1.8069024085998535,-2.4211061000823975
1698072016670126300,10.061126220703125,0.48826169967651367,2.0427422523498535,-2.9781906604766846
1698072016679719200,10.07071923828125,0.877622127532959,2.2309322357177734,-3.3153138160705566
1698072016689311000,10.08031103515625,1.2097892761230469,2.2622265815734863,-3.205629825592041
1698072016698903800,10.08990380859375,1.468982219696045,2.3172430992126465,-2.8578598499298096
1698072016708497400,10.099497314453124,1.726722240447998,2.553494453430176,-2.5266170501708984
1698072016718090200,10.10909033203125,2.031802177429199,2.756894111633301,-2.326733112335205
1698072016727682300,10.118682373046875,2.150963306427002,2.595224380493164,-2.1163489818573
1698072016737275100,10.128275146484375,1.9480533599853516,2.0040488243103027,-1.8049603700637817
1698072016746868700,10.13786865234375,2.0386757850646973,1.4211993217468262,-1.5572437047958374
1698072016756461300,10.14746142578125,2.276703357696533,0.7940912246704102,-1.3533446788787842
1698072016766053400,10.157053466796874,2.4313316345214844,0.16180896759033203,-1.1225882768630981
1698072016775646200,10.166646240234375,2.4678874015808105,-0.393892765045166,-0.9240314960479736
1698072016785239800,10.17623974609375,2.432182788848877,-0.9052996635437012,-0.7169135212898254
1698072016794832600,10.18583251953125,2.3185153007507324,-1.231008529663086,-0.6905426383018494
1698072016804424700,10.1954248046875,2.1204171180725098,-1.2716937065124512,-0.8691051006317139
1698072016814017300,10.205017333984374,1.782618522644043,-1.160940170288086,-1.0894839763641357
1698072016823611000,10.21461083984375,1.2295732498168945,-1.0855011940002441,-1.139293909072876
1698072016833203700,10.22420361328125,0.5374283790588379,-1.079805850982666,-1.0623382329940796
1698072016842795800,10.233795654296875,-0.10539913177490234,-1.1951689720153809,-0.8746832609176636
1698072016852388600,10.243388671875,-0.5889286994934082,-1.3858294486999512,-0.5511466264724731
1698072016861982200,10.252982177734374,-0.8879714012145996,-1.619832992553711,-0.20443178713321686
1698072016871574800,10.26257470703125,-1.0693588256835938,-1.8884286880493164,0.09863921999931335
1698072016881166800,10.272166748046875,-1.3788881301879883,-2.1164469718933105,0.3565976023674011
1698072016890759700,10.281759765625,-1.8333148956298828,-2.3570799827575684,0.5662751197814941
1698072016900353300,10.291353271484375,-2.3972697257995605,-2.6027441024780273,0.80267733335495
1698072016909946000,10.300946044921876,-2.9088258743286133,-2.70196533203125,0.9631940126419067
1698072016919538200,10.3105380859375,-3.267768621444702,-2.6566619873046875,0.9421989917755127
1698072016929130800,10.320130859375,-3.4474854469299316,-2.5528969764709473,0.7799824476242065
1698072016938724600,10.329724609375,-3.5234904289245605,-2.4511771202087402,0.5318182706832886
1698072016948317200,10.339317138671875,-3.4970688819885254,-2.2402753829956055,0.20943307876586914
1698072016957909200,10.3489091796875,-3.326648473739624,-1.912238597869873,-0.09410116076469421
1698072016967502000,10.358502197265626,-3.0978636741638184,-1.4852056503295898,-0.3936448097229004
1698072016977095700,10.368095703125,-2.942697048187256,-0.9976129531860352,-0.6825466156005859
1698072016986688300,10.377688232421875,-2.847921848297119,-0.5442042350769043,-0.8258333206176758
1698072016996280300,10.3872802734375,-2.678513526916504,-0.14772748947143555,-0.7945866584777832
1698072017005873200,10.396873046875,-2.4092845916748047,0.21904230117797852,-0.6453322172164917
1698072017015466800,10.406466796875,-2.039945602416992,0.40511083602905273,-0.4430709481239319
1698072017025059600,10.4160595703125,-1.4257488250732422,0.37795162200927734,-0.0963006317615509
1698072017034651400,10.4256513671875,-0.6509890556335449,0.2931361198425293,0.2615969181060791
1698072017044244500,10.435244384765625,-0.050750732421875,0.25373220443725586,0.562360405921936
1698072017053837800,10.444837890625,0.4817023277282715,0.20833253860473633,0.8638606071472168
1698072017063430700,10.4544306640625,0.8795318603515625,0.09999990463256836,1.1325538158416748
1698072017073022700,10.464022705078126,1.049264907836914,-0.003345966339111328,1.1495903730392456
1698072017082615600,10.473615478515624,1.2199487686157227,-0.06256675720214844,0.9548683166503906
1698072017092209200,10.483209228515625,1.4775300025939941,-0.23552370071411133,0.9062463045120239
1698072017101801700,10.4928017578125,2.292576313018799,-0.25754642486572266,0.8902468681335449
1698072017111393800,10.502393798828125,2.6752634048461914,0.004401206970214844,0.7419474720954895
1698072017120986600,10.511986572265625,2.4304494857788086,0.23006439208984375,0.7231427431106567
1698072017130580200,10.521580322265624,2.370936870574951,0.4346470832824707,0.5562433004379272
1698072017140173000,10.531173095703124,1.7903995513916016,0.9856429100036621,0.06559255719184875
1698072017149765000,10.54076513671875,0.9357342720031738,1.6352357864379883,-0.2638772130012512
1698072017159357700,10.550357666015625,0.050841331481933594,2.1147689819335938,-0.1162310242652893
1698072017168951300,10.559951416015625,-0.5283393859863281,2.4025630950927734,0.2364991158246994
1698072017178544000,10.569544189453126,-0.38857316970825195,2.3914337158203125,0.79730224609375
1698072017188136200,10.57913623046875,0.3094043731689453,2.539813995361328,1.2379307746887207
1698072017197729000,10.58872900390625,0.9550223350524902,2.748955726623535,1.8142205476760864
1698072017207322600,10.598322509765625,1.4879097938537598,2.591099739074707,2.6383042335510254
1698072017216915200,10.607915283203125,2.224001884460449,1.9110198020935059,3.402622938156128
1698072017226507300,10.61750732421875,2.6669931411743164,1.3747334480285645,3.7112269401550293
1698072017236100000,10.62710009765625,2.897028923034668,0.9420781135559082,3.5057578086853027
1698072017245693700,10.636693603515624,3.0326266288757324,0.41753339767456055,3.056187152862549
1698072017255286500,10.64628662109375,3.0215072631835938,-0.06818580627441406,2.4473392963409424
1698072017264878300,10.65587841796875,2.9186596870422363,-0.4708418846130371,2.0544426441192627
1698072017274471400,10.665471435546875,2.4532413482666016,-1.0107836723327637,1.896144986152649
1698072017284064800,10.675064697265626,1.8577852249145508,-1.5186777114868164,1.7714052200317383
1698072017293657600,10.68465771484375,1.426168441772461,-1.8600764274597168,1.5826911926269531
1698072017303249700,10.694249755859374,0.8068523406982422,-2.031820774078369,1.3534660339355469
1698072017312842500,10.703842529296875,0.1413097381591797,-2.1403391361236572,1.288740634918213
1698072017322436000,10.71343603515625,-0.40956974029541016,-2.235084295272827,1.3780356645584106
1698072017332028700,10.723028564453125,-0.8563189506530762,-2.3191277980804443,1.4997674226760864
1698072017341620700,10.732620849609376,-1.215684413909912,-2.2848284244537354,1.4956079721450806
1698072017351213600,10.742213623046876,-1.4659066200256348,-2.175901412963867,1.412609577178955
1698072017360807200,10.75180712890625,-1.6377944946289062,-2.038501739501953,1.2199375629425049
1698072017370400000,10.76139990234375,-1.7838082313537598,-1.875450611114502,0.9168381094932556
1698072017379992000,10.770991943359375,-1.8368430137634277,-1.6848797798156738,0.6088260412216187
1698072017389584600,10.780584716796875,-1.7555603981018066,-1.525773525238037,0.4182627201080322
1698072017399178200,10.79017822265625,-1.8165249824523926,-1.485738754272461,0.41636404395103455
1698072017408771000,10.79977099609375,-2.0121350288391113,-1.4888105392456055,0.4638620615005493
1698072017418363100,10.809363037109375,-2.1057510375976562,-1.4203834533691406,0.3797774314880371
1698072017427956000,10.8189560546875,-2.157315731048584,-1.2210016250610352,0.15790346264839172
1698072017437549600,10.828549560546875,-2.16416072845459,-0.9964127540588379,-0.09560638666152954
1698072017447142100,10.83814208984375,-2.121023178100586,-0.7686667442321777,-0.2837691605091095
1698072017456734200,10.847734130859376,-2.1663970947265625,-0.5710878372192383,-0.4362422227859497
1698072017466327000,10.8573271484375,-2.161248207092285,-0.35840797424316406,-0.5706071853637695
1698072017475920600,10.866920654296875,-2.0742063522338867,-0.1860790252685547,-0.6176696419715881
1698072017485513200,10.87651318359375,-2.050900459289551,-0.028079986572265625,-0.5205718874931335
1698072017495105300,10.886105224609375,-2.0818471908569336,0.12072229385375977,-0.45373278856277466
1698072017504698000,10.895697998046876,-1.9954218864440918,0.30646848678588867,-0.5546071529388428
1698072017514291700,10.905291748046874,-1.811532974243164,0.5060315132141113,-0.6648509502410889
1698072017523884500,10.914884521484375,-1.6030187606811523,0.5774526596069336,-0.7012664675712585
1698072017533476600,10.9244765625,-1.4641470909118652,0.5462627410888672,-0.6249465942382812
1698072017543069200,10.934069091796875,-1.3955798149108887,0.5497183799743652,-0.6315884590148926
1698072017552663000,10.9436630859375,-1.2546181678771973,0.5718193054199219,-0.6979460716247559
1698072017562255600,10.953255615234376,-0.9108037948608398,0.5776023864746094,-0.9099479913711548
1698072017571847700,10.96284765625,-0.4872145652770996,0.6088109016418457,-1.2601040601730347
1698072017581440500,10.9724404296875,-0.08065319061279297,0.6716451644897461,-1.7147696018218994
1698072017591034000,10.9820341796875,0.30815792083740234,0.8196344375610352,-2.2404985427856445
1698072017600626700,10.991626708984375,0.6668567657470703,1.0507926940917969,-2.7640552520751953
1698072017610218800,11.00121875,0.9638595581054688,1.31312894821167,-3.102698802947998
1698072017619811600,11.0108115234375,1.206162929534912,1.5090117454528809,-3.1989986896514893
1698072017629405200,11.0204052734375,1.4226007461547852,1.6409010887145996,-3.1788508892059326
1698072017638998000,11.029998046875,1.5541486740112305,1.7368440628051758,-3.2257890701293945
1698072017648590000,11.039590087890625,1.5923900604248047,1.724245548248291,-3.135979652404785
1698072017658182700,11.0491826171875,1.8165922164916992,1.720411777496338,-2.9186558723449707
1698072017667776300,11.0587763671875,2.3546271324157715,1.7342567443847656,-2.6400680541992188
1698072017677369000,11.068369140625,2.760207176208496,1.844602108001709,-2.2748405933380127
1698072017686961200,11.077961181640624,2.939878463745117,1.9699697494506836,-2.2826390266418457
1698072017696554000,11.087553955078125,2.7771358489990234,1.8081307411193848,-2.347888231277466
1698072017706147600,11.097147705078125,2.7990903854370117,2.31831693649292,-3.1379590034484863
1698072017715740200,11.106740234375,2.6913681030273438,2.216280937194824,-3.705096960067749
1698072017725332200,11.116332275390626,1.0361700057983398,1.770768165588379,-3.5636510848999023
1698072017734925000,11.125925048828124,-0.49631834030151367,0.2804865837097168,-2.5710339546203613
1698072017744518700,11.1355185546875,-0.17153453826904297,-0.8699769973754883,-1.2572482824325562
1698072017754111500,11.145111572265625,0.593379020690918,-0.8467521667480469,-0.9453582167625427
1698072017763703300,11.154703369140625,1.1280336380004883,-0.49112939834594727,-1.2570769786834717
1698072017773296000,11.164296142578126,1.281895637512207,-0.45232105255126953,-1.2772176265716553
1698072017782889700,11.1738896484375,1.4517288208007812,-0.7942705154418945,-0.974102258682251
1698072017792482600,11.183482666015625,2.004103660583496,-1.1172475814819336,-0.6020822525024414
1698072017802074600,11.19307470703125,2.558450698852539,-0.8892552852630615,-0.6782274842262268
1698072017811667200,11.202667236328125,2.7460107803344727,-0.8073537349700928,-1.2500550746917725
1698072017821261000,11.212260986328126,2.5500593185424805,-1.0607402324676514,-1.551696538925171
1698072017830853600,11.221853515625,2.209104537963867,-0.745553731918335,-0.6321494579315186
1698072017840445700,11.23144580078125,1.9763574600219727,-0.6936802864074707,-0.0649598240852356
1698072017850038500,11.24103857421875,1.6742439270019531,-0.9860415458679199,0.5836700797080994
1698072017859632000,11.250632080078125,1.3948945999145508,-1.1494183540344238,1.260544776916504
1698072017869224700,11.260224609375,0.8599758148193359,-0.9743478298187256,1.7055342197418213
1698072017878816800,11.269816650390625,0.10027217864990234,-0.6925456523895264,1.8879517316818237
1698072017888409600,11.27940966796875,-0.5814170837402344,-0.5199387073516846,2.0395731925964355
1698072017898003200,11.289003173828124,-1.2223076820373535,-0.4744536876678467,2.2756876945495605
1698072017907596000,11.298595947265625,-1.6848902702331543,-0.4735252857208252,2.107449531555176
1698072017917188000,11.30818798828125,-2.091923713684082,-0.37140464782714844,1.595297932624817
1698072017926780700,11.31778076171875,-2.5995097160339355,-0.18488597869873047,0.9218999743461609
1698072017936374300,11.327374267578126,-2.9480457305908203,-0.044997453689575195,0.2808499038219452
1698072017945967000,11.336967041015624,-3.138413906097412,0.0950314998626709,-0.23663292825222015
1698072017955559200,11.34655908203125,-2.9796581268310547,0.3510713577270508,-0.615270733833313
1698072017965152000,11.356152099609375,-2.560286045074463,0.6486589908599854,-0.7606650590896606
1698072017974745600,11.36574560546875,-1.9569334983825684,0.8662083148956299,-0.6243361234664917
1698072017984338200,11.375338134765625,-1.2775564193725586,0.974440336227417,-0.33723026514053345
1698072017993930200,11.38493017578125,-0.4310140609741211,1.0031285285949707,0.0865633636713028
1698072018003523000,11.394523193359374,0.4335603713989258,1.0400004386901855,0.5242425203323364
1698072018013116700,11.40411669921875,1.1512670516967773,1.114579200744629,0.8830103874206543
1698072018022709500,11.41370947265625,1.786142349243164,1.066812515258789,1.2240045070648193
1698072018032301300,11.42330126953125,2.3179092407226562,0.9890809059143066,1.581615924835205
1698072018041894100,11.43289404296875,2.650979995727539,0.8164401054382324,1.9869036674499512
1698072018051487700,11.44248779296875,2.3028221130371094,0.6709408760070801,2.522472858428955
1698072018061080600,11.45208056640625,2.5362157821655273,0.6385989189147949,2.6701998710632324
1698072018070672400,11.46167236328125,2.5297117233276367,0.8476877212524414,2.4166316986083984
1698072018080265500,11.471265380859375,2.1825037002563477,1.0821151733398438,2.280451774597168
1698072018089858800,11.48085888671875,2.032841682434082,1.1642637252807617,2.194000005722046
1698072018099451600,11.49045166015625,1.8420982360839844,1.1282057762145996,2.295745611190796
1698072018109043700,11.500043701171874,1.6113901138305664,1.0453715324401855,2.404634714126587
1698072018118636500,11.509636474609374,1.3306894302368164,1.1239361763000488,2.3505771160125732
1698072018128230100,11.519230224609375,1.0833721160888672,1.3250732421875,2.1887166500091553
1698072018137822700,11.52882275390625,0.9022130966186523,1.4744830131530762,2.0323853492736816
1698072018147414800,11.538414794921875,0.6335716247558594,1.606348991394043,1.87926185131073
1698072018157007600,11.548007568359376,0.39178466796875,1.8334712982177734,1.6377432346343994
1698072018166601200,11.557601318359374,0.30713844299316406,1.9489164352416992,1.386668086051941
1698072018176194000,11.567194091796875,0.4020214080810547,1.9993891716003418,1.1607263088226318
1698072018185785900,11.576785888671875,0.5407524108886719,1.9571080207824707,1.3022634983062744
1698072018195378700,11.586378662109375,1.0249719619750977,1.6072382926940918,1.4681508541107178
1698072018204972300,11.59597216796875,1.482100486755371,1.1583185195922852,1.5140669345855713
1698072018214565000,11.605565185546874,1.760361671447754,0.7728281021118164,1.4615278244018555
1698072018224157200,11.6151572265625,2.047077178955078,0.23360538482666016,1.3690035343170166
1698072018233749800,11.624749755859375,2.260735511779785,-0.33795881271362305,1.2908751964569092
1698072018243343600,11.634343505859375,2.2768993377685547,-0.8850078582763672,1.2520577907562256
1698072018252936200,11.643936279296875,2.1113853454589844,-1.4018406867980957,1.2499158382415771
1698072018262528300,11.6535283203125,1.7735185623168945,-1.8538298606872559,1.24006187915802
1698072018272121000,11.66312109375,1.2642183303833008,-2.2259790897369385,1.201170563697815
1698072018281714700,11.672714599609375,0.6153545379638672,-2.52473521232605,1.1806061267852783
1698072018291307300,11.682307373046875,-0.08619308471679688,-2.7831904888153076,1.2346820831298828
1698072018300899300,11.6918994140625,-0.7720322608947754,-2.983212947845459,1.4088051319122314
1698072018310492200,11.7014921875,-1.335585594177246,-3.1523492336273193,1.7414125204086304
1698072018320085800,11.711085693359376,-1.8428783416748047,-3.329509973526001,2.0804436206817627
1698072018329678600,11.7206787109375,-2.3049893379211426,-3.4554619789123535,2.3021183013916016
1698072018339270400,11.7302705078125,-2.730841636657715,-3.444626569747925,2.341313362121582
1698072018348863200,11.73986328125,-3.0837526321411133,-3.343385696411133,2.1099979877471924
1698072018358456800,11.749456787109375,-3.3676061630249023,-3.214994192123413,1.757737159729004
1698072018368049700,11.759049560546876,-3.5667524337768555,-3.1112282276153564,1.3272818326950073
1698072018377641700,11.768641845703126,-3.6527132987976074,-3.0181097984313965,0.8980690240859985
1698072018387234600,11.778234619140624,-3.6873626708984375,-2.986746072769165,0.5546262264251709
1698072018396828000,11.787827880859375,-3.7203574180603027,-3.0180206298828125,0.2711917757987976
1698072018406420700,11.797420654296875,-3.732558012008667,-3.0067787170410156,-0.001290440559387207
1698072018416012800,11.8070126953125,-3.73803973197937,-2.986800193786621,-0.2893047332763672
1698072018425605600,11.816605712890626,-3.6934499740600586,-2.7983126640319824,-0.6315779685974121
1698072018435199200,11.82619921875,-3.5788488388061523,-2.177480459213257,-1.3440603017807007
1698072018444791800,11.835791748046875,-3.336071491241455,-1.663656234741211,-1.9112187623977661
1698072018454383900,11.8453837890625,-2.97119140625,-1.2033486366271973,-2.349698305130005
1698072018463976700,11.854976806640625,-2.3703393936157227,-0.653439998626709,-2.8237743377685547
1698072018473570300,11.8645703125,-1.5958352088928223,0.008108139038085938,-3.298222064971924
1698072018483163100,11.8741630859375,-0.8391847610473633,0.4956803321838379,-3.522620439529419
1698072018492755000,11.8837548828125,-0.2275528907775879,0.7570152282714844,-3.4184160232543945
1698072018502347800,11.89334765625,0.3745150566101074,0.8697547912597656,-3.073652744293213
1698072018511941400,11.90294140625,0.7776374816894531,1.0449609756469727,-2.7329368591308594
1698072018521534200,11.9125341796875,1.0947823524475098,1.201395034790039,-2.3811681270599365
1698072018531126300,11.922126220703126,1.176734447479248,1.3484935760498047,-2.104919672012329
1698072018540719000,11.931718994140626,1.092909812927246,1.5260944366455078,-1.984453558921814
1698072018550312400,11.9413125,1.0233545303344727,1.7469172477722168,-2.1564791202545166
1698072018559905300,11.9509052734375,0.8628425598144531,1.9644484519958496,-2.6080923080444336
1698072018569497300,11.960497314453125,0.688812255859375,2.1786141395568848,-3.102980613708496
1698072018579090200,11.970090087890625,0.6535773277282715,2.3495912551879883,-3.4748761653900146
1698072018588683800,11.979683837890626,0.5281100273132324,2.4313411712646484,-3.7461671829223633
1698072018598276400,11.9892763671875,0.4749417304992676,2.56472110748291,-3.9945850372314453
1698072018607868400,11.998868408203125,0.6691875457763672,2.5432333946228027,-4.016609191894531
1698072018617461200,12.008461181640625,0.8969540596008301,2.2176995277404785,-3.6727616786956787
1698072018627054800,12.018054931640625,0.9392881393432617,2.196918487548828,-3.563735246658325
1698072018636647700,12.027647705078126,1.0807514190673828,2.389275550842285,-3.518329381942749
1698072018646239500,12.037239501953126,1.4950041770935059,2.4789810180664062,-3.1942710876464844
1698072018655832300,12.046832275390624,1.960174560546875,2.5555381774902344,-2.684760093688965
1698072018665426000,12.056426025390625,2.4034299850463867,2.467043399810791,-2.2193992137908936
1698072018675018800,12.066018798828125,2.822854518890381,2.178130626678467,-1.9770729541778564
1698072018684610600,12.075610595703125,3.242682933807373,1.6894474029541016,-1.9638118743896484
1698072018694203600,12.08520361328125,3.5538101196289062,0.9744586944580078,-1.9792228937149048
1698072018703797000,12.094796875,3.6881136894226074,0.0034842491149902344,-1.790277123451233
1698072018713389800,12.104389892578125,3.6923327445983887,-0.9720416069030762,-1.5742096900939941
1698072018722982000,12.11398193359375,3.5860137939453125,-1.724459171295166,-1.4005744457244873
1698072018732574700,12.12357470703125,3.3134889602661133,-2.1732029914855957,-1.3531019687652588
1698072018742168300,12.133168212890626,2.8657350540161133,-2.291022300720215,-1.393096685409546
1698072018751761000,12.142760986328126,2.222933769226074,-2.180269479751587,-1.4918367862701416
1698072018761353000,12.15235302734375,1.4650259017944336,-2.0495948791503906,-1.4611135721206665
1698072018770945800,12.16194580078125,0.7314720153808594,-1.9326543807983398,-1.2817271947860718
