time,seconds_elapsed,z,y,x
1697732984826790100,0.0597900390625,0.210099995136261,-0.4452250003814697,-0.791450023651123
1697732984836207600,0.06920751953125,0.3016749918460846,-0.654087483882904,-0.8586875200271606
1697732984845625600,0.07862548828125,0.43367499113082886,-0.8129000067710876,-0.9222124814987183
1697732984855043300,0.088043212890625,0.6498249769210815,-0.8189499974250793,-0.9429749846458435
1697732984864460800,0.097460693359375,0.9699249863624573,-0.7053750157356262,-0.9649749994277954
1697732984873878800,0.106878662109375,1.227737545967102,-0.3694624900817871,-0.9784500002861023
1697732984883296500,0.116296630859375,1.3255000114440918,0.15592500567436218,-0.9477875232696533
1697732984892714200,0.12571435546875,1.1764500141143799,0.7728874683380127,-0.8086374998092651
1697732984902132000,0.135132080078125,0.888112485408783,1.1405625343322754,-0.6313999891281128
1697732984911549700,0.1445498046875,0.492249995470047,1.2260874509811401,-0.4885374903678894
1697732984920967400,0.153967529296875,0.07686249911785126,1.1052249670028687,-0.3932499885559082
1697732984930385200,0.16338525390625,-0.24557499587535858,0.9365124702453613,-0.3517250120639801
1697732984939803000,0.172802978515625,-0.3702875077724457,0.8339374661445618,-0.3517250120639801
1697732984949220600,0.182220703125,-0.31652501225471497,0.783887505531311,-0.37482500076293945
1697732984958638300,0.191638427734375,-0.19552500545978546,0.937749981880188,-0.42253750562667847
1697732984968056000,0.20105615234375,-0.08071249723434448,1.2553750276565552,-0.4665375053882599
1697732984977474000,0.21047412109375,-0.025712499395012856,1.6732374429702759,-0.47753748297691345
1697732984986891800,0.219891845703125,-0.029424998909235,2.1106250286102295,-0.4030124843120575
1697732984996309500,0.2293095703125,0.002337499987334013,2.455199956893921,-0.2441999912261963
1697732985005727200,0.238727294921875,0.28462499380111694,2.149674892425537,-0.09748750180006027
1697732985015144700,0.248144775390625,0.7110124826431274,1.5951374769210815,0.018562499433755875
1697732985024562700,0.257562744140625,1.2449250221252441,1.0257500410079956,0.08813749998807907
1697732985033980400,0.26698046875,1.7029374837875366,1.0000375509262085,0.1896124929189682
1697732985043398100,0.276398193359375,1.693174958229065,0.8974624872207642,0.27994999289512634
1697732985052816000,0.28581591796875,1.118975043296814,-0.010312499478459358,0.07837499678134918
1697732985062233600,0.295233642578125,0.4092000126838684,-1.2515250444412231,-0.25148749351501465
1697732985071651300,0.3046513671875,-0.09047500044107437,-2.160399913787842,-0.28929999470710754
1697732985081069000,0.314069091796875,-0.404387503862381,-2.6870250701904297,-0.1574375033378601
1697732985090486800,0.32348681640625,-0.6146249771118164,-2.6980249881744385,-0.005912499967962503
1697732985099904500,0.332904541015625,-0.6732000112533569,-2.4414498805999756,0.09542500227689743
1697732985109322200,0.342322265625,-0.507099986076355,-2.239875078201294,0.08442500233650208
1697732985118740000,0.351739990234375,-0.233474999666214,-2.114062547683716,0.042899999767541885
1697732985128157700,0.36115771484375,-0.02694999985396862,-1.8977749347686768,-0.014437500387430191
1697732985137575400,0.370575439453125,0.06710000336170197,-1.8392000198364258,-0.1073874980211258
1697732985146993200,0.3799931640625,0.07686249911785126,-1.8477250337600708,-0.16967499256134033
1697732985156411000,0.389410888671875,-0.052662499248981476,-1.9210125207901,-0.26372501254081726
1697732985165828600,0.39882861328125,-0.19923749566078186,-1.9967750310897827,-0.45801249146461487
1697732985175246300,0.408246337890625,-0.305525004863739,-2.116537570953369,-0.6498249769210815
1697732985184664000,0.4176640625,-0.36781248450279236,-2.3204500675201416,-0.7548750042915344
1697732985194081800,0.427081787109375,-0.3482874929904938,-2.6039750576019287,-0.726687490940094
1697732985203499500,0.43649951171875,-0.2675749957561493,-2.84336256980896,-0.6191624999046326
1697732985212917200,0.445917236328125,-0.06476250290870667,-1.2270499467849731,-0.9662125110626221
1697732985222335000,0.4553349609375,0.004812499973922968,0.06311249732971191,-0.6901124715805054
1697732985231752700,0.464752685546875,0.23086249828338623,0.7789375185966492,-0.5752999782562256
1697732985241170400,0.47417041015625,0.24062499403953552,0.8034124970436096,-0.5055875182151794
1697732985250588200,0.483588134765625,0.15633749961853027,0.2316875010728836,-0.4493499994277954
1697732985260006000,0.493005859375,0.0170499999076128,-0.4525125026702881,-0.32477501034736633
1697732985269423600,0.502423583984375,-0.13199999928474426,-0.8886625170707703,-0.14396250247955322
1697732985278841000,0.511841064453125,-0.25423750281333923,-1.0755250453948975,0.033137500286102295
1697732985288259000,0.521259033203125,-0.38362500071525574,-1.2465749979019165,0.0943249985575676
1697732985297676800,0.5306767578125,-0.4398624897003174,-1.6839624643325806,0.0943249985575676
1697732985307094500,0.540094482421875,-0.41909998655319214,-2.109112501144409,0.18342499434947968
1697732985316512300,0.54951220703125,-0.42157500982284546,-2.4414498805999756,0.3764750063419342
1697732985325930000,0.558929931640625,-0.4643374979496002,-2.641787528991699,0.6465250253677368
1697732985335347700,0.56834765625,-0.4838624894618988,-2.5782625675201416,1.0129624605178833
1697732985344765400,0.577765380859375,-0.4996750056743622,-2.2251625061035156,1.3525874614715576
1697732985354183000,0.587182861328125,-0.4142875075340271,-1.9943000078201294,1.5713499784469604
1697732985363601000,0.596600830078125,-0.28476250171661377,-1.9637750387191772,1.6372125148773193
1697732985373018600,0.6060185546875,-0.1882375031709671,-2.0933001041412354,1.4870624542236328
1697732985382436600,0.6154365234375,-0.15523749589920044,-2.3583998680114746,1.2207249402999878
1697732985391854000,0.62485400390625,-0.15152500569820404,-2.586787462234497,0.948199987411499
1697732985401271800,0.634271728515625,-0.1942874938249588,-2.6613125801086426,0.764912486076355
1697732985410689500,0.643689453125,-0.2639999985694885,-2.7163124084472656,0.6268625259399414
1697732985420107300,0.653107177734375,-0.23100000619888306,-2.760312557220459,0.5622375011444092
1697732985429525200,0.662525146484375,-0.06599999964237213,-2.7395498752593994,0.6575250029563904
1697732985438942700,0.671942626953125,0.14781250059604645,-2.7333624362945557,0.9164375066757202
1697732985448360400,0.6813603515625,0.25891250371932983,-2.695549964904785,1.1657249927520752
1697732985457778200,0.690778076171875,0.3102000057697296,-2.5196874141693115,1.2255375385284424
1697732985467196000,0.70019580078125,0.3713875114917755,-2.239875078201294,1.1156749725341797
1697732985476613600,0.709613525390625,0.33467498421669006,-2.1055374145507812,0.9139624834060669
1697732985486031400,0.71903125,0.6180624961853027,-2.2423501014709473,0.7833374738693237
1697732985495449000,0.728448974609375,1.713937520980835,-2.9899375438690186,0.9359624981880188
1697732985504866800,0.73786669921875,1.9827499389648438,-2.2093498706817627,1.03496253490448
1697732985514284500,0.747284423828125,2.0645625591278076,-0.9301875233650208,1.171774983406067
1697732985523702300,0.756702392578125,2.0340375900268555,0.5993624925613403,1.3782999515533447
1697732985533120000,0.7661201171875,1.9729875326156616,1.6512374877929688,1.7764999866485596
1697732985542537700,0.775537841796875,1.8154125213623047,0.9487500190734863,1.7142125368118286
1697732985551955500,0.78495556640625,1.8691749572753906,-2.6332623958587646,1.4663000106811523
1697732985561373400,0.79437353515625,2.266274929046631,-5.2526373863220215,1.9292625188827515
1697732985570791200,0.803791259765625,2.5203750133514404,-5.633787631988525,2.8100874423980713
1697732985580208600,0.813208740234375,2.404325008392334,-4.502437591552734,3.3745250701904297
1697732985589626400,0.82262646484375,2.0340375900268555,-3.9734749794006348,3.5248124599456787
1697732985599044000,0.832044189453125,1.610124945640564,-4.018712520599365,3.3391873836517334
1697732985608461800,0.8414619140625,1.4134999513626099,-4.271574974060059,3.0336625576019287
1697732985617879600,0.850879638671875,1.4415500164031982,-4.726012706756592,2.5779874324798584
1697732985627297500,0.860297607421875,1.622362494468689,-5.179349899291992,2.343412399291992
1697732985636715300,0.86971533203125,1.831225037574768,-5.885412693023682,2.380125045776367
1697732985646133000,0.879133056640625,1.7494125366210938,-6.89947509765625,2.6072750091552734
1697732985655550500,0.888550537109375,1.469599962234497,-7.407674789428711,2.96408748626709
1697732985664968200,0.89796826171875,1.1251624822616577,-7.261099815368652,3.322000026702881
1697732985674386200,0.90738623046875,0.905162513256073,-6.667375087738037,3.6128125190734863
1697732985683803600,0.9168037109375,0.830637514591217,-5.979462623596191,3.640862464904785
1697732985693221600,0.9262216796875,0.8416374921798706,-5.4982123374938965,3.282949924468994
1697732985702639400,0.935639404296875,0.9626374840736389,-5.168349742889404,2.679462432861328
1697732985712056800,0.945056884765625,1.153212547302246,-4.760250091552734,1.9915499687194824
1697732985721474800,0.954474853515625,1.2339249849319458,-4.392574787139893,1.3343000411987305
1697732985730892300,0.963892333984375,1.105637550354004,-3.991762399673462,0.8931999802589417
1697732985740310300,0.973310302734375,0.8636375069618225,-3.4335124492645264,0.7320500016212463
1697732985749728000,0.98272802734375,0.6377249956130981,-2.5892624855041504,0.7698624730110168
1697732985759145500,0.9921455078125,0.5081999897956848,-1.6216750144958496,0.7673875093460083
1697732985768563500,1.0015634765625,0.5302000045776367,-0.7836124897003174,0.7002875208854675
1697732985777981200,1.010981201171875,0.7365875244140625,-0.023649999871850014,0.510812520980835
1697732985787399000,1.02039892578125,1.1666874885559082,0.7386500239372253,0.23237499594688416
1697732985796816600,1.029816650390625,1.7689374685287476,1.020937442779541,0.22618749737739563
1697732985806234000,1.039234130859375,2.3529000282287598,0.8094624876976013,0.35199999809265137
1697732985815652000,1.048652099609375,2.8087124824523926,0.1999250054359436,0.5817624926567078
1697732985825069800,1.05806982421875,3.1886250972747803,-0.5087500214576721,0.88714998960495
1697732985834487300,1.0674873046875,3.586824893951416,-0.9582374691963196,1.0667250156402588
1697732985843905300,1.0769052734375,3.9484500885009766,-0.9766625165939331,1.2120624780654907
1697732985853323000,1.086322998046875,3.468437433242798,-0.2582249939441681,1.4210624694824219
1697732985862740700,1.09574072265625,2.4836626052856445,0.9927499890327454,1.4783999919891357
1697732985872158500,1.105158447265625,1.4793624877929688,2.185149908065796,1.3208249807357788
1697732985881576200,1.114576171875,0.6804875135421753,2.9853999614715576,1.0203875303268433
1697732985890994000,1.123993896484375,-0.08676250278949738,3.3067374229431152,0.7038624882698059
1697732985900411600,1.13341162109375,-0.6781499981880188,2.991450071334839,0.5878124833106995
1697732985909829400,1.142829345703125,-0.6256250143051147,2.7495875358581543,0.6159999966621399
1697732985919247000,1.1522470703125,-0.23828749358654022,2.6848249435424805,0.7198125123977661
1697732985928664800,1.161664794921875,0.27719998359680176,2.3171498775482178,0.7930999994277954
1697732985938082300,1.171082275390625,0.7195374965667725,1.5951374769210815,0.729574978351593
1697732985947500300,1.180500244140625,1.219212532043457,1.4680874347686768,0.7771499752998352
1697732985956918000,1.18991796875,1.2717374563217163,1.7869499921798706,0.9494374990463257
1697732985966335500,1.19933544921875,1.1116875410079956,1.8235249519348145,1.1791999340057373
1697732985975753500,1.20875341796875,1.04087495803833,1.8932374715805054,1.314774990081787
1697732985985171200,1.218171142578125,1.0884499549865723,1.9725749492645264,1.2414875030517578
1697732985994589000,1.2275888671875,1.1642124652862549,1.9555250406265259,1.0679625272750854
1697732986004006700,1.237006591796875,1.140974998474121,2.2486748695373535,0.951912522315979
1697732986013424000,1.246424072265625,1.0249249935150146,2.3964874744415283,0.738099992275238
1697732986022842000,1.255842041015625,0.9113500118255615,2.334199905395508,0.33742499351501465
1697732986032259800,1.265259765625,0.944350004196167,2.4099624156951904,-0.014437500387430191
1697732986041677600,1.274677490234375,1.0664499998092651,2.598062515258789,-0.2502500116825104
1697732986051095300,1.28409521484375,1.2509750127792358,2.702012538909912,-0.4787749946117401
1697732986060513000,1.293512939453125,1.456262469291687,2.705587387084961,-0.6399250030517578
1697732986069930800,1.3029306640625,1.7861249446868896,2.6310625076293945,-0.6876375079154968
1697732986079348500,1.312348388671875,2.1807498931884766,2.3867249488830566,-0.5458750128746033
1697732986088766200,1.32176611328125,2.587475061416626,1.9237624406814575,-0.24296249449253082
1697732986098184000,1.331183837890625,2.8929998874664307,1.2505625486373901,0.16513749957084656
1697732986107601700,1.3406015625,3.0883874893188477,0.648312509059906,0.6280999779701233
1697732986117019400,1.350019287109375,3.204437494277954,0.16073749959468842,1.044724941253662
1697732986126437000,1.35943701171875,3.2802000045776367,-0.22522500157356262,1.3880624771118164
1697732986135854800,1.368854736328125,3.354724884033203,-0.3180375099182129,1.5933499336242676
1697732986145272600,1.3782724609375,3.319387435913086,-0.0518375001847744,1.6409250497817993
1697732986154690300,1.387690185546875,3.14338755607605,0.4259749948978424,1.5969250202178955
1697732986164108000,1.39710791015625,2.8562874794006348,0.7778375148773193,1.5969250202178955
1697732986173526000,1.406526123046875,2.5789499282836914,1.0282249450683594,1.6373499631881714
1697732986182943500,1.415943603515625,2.409137487411499,1.2115124464035034,1.647112488746643
1697732986192361500,1.425361572265625,2.312612533569336,1.3641375303268433,1.5529249906539917
1697732986201779000,1.434779052734375,2.283324956893921,1.4631375074386597,1.450350046157837
1697732986211196700,1.44419677734375,2.355375051498413,1.5841374397277832,1.4943499565124512
1697732986220614700,1.45361474609375,2.527662515640259,1.8748124837875366,1.55058753490448
1697732986230032400,1.463032470703125,2.5777125358581543,1.8895249366760254,1.4991624355316162
1697732986239449900,1.472449951171875,2.559424877166748,1.7881875038146973,1.5236375331878662
1697732986248867600,1.48186767578125,2.395662546157837,1.5853749513626099,1.612874984741211
1697732986258285300,1.491285400390625,2.164799928665161,1.2665125131607056,2.1833624839782715
1697732986267703300,1.500703369140625,2.0352749824523926,0.6848874688148499,2.9970874786376953
1697732986277120800,1.510120849609375,1.9119374752044678,0.2157374918460846,3.4344749450683594
1697732986286538500,1.51953857421875,1.9461749792099,0.4320249855518341,2.5804624557495117
1697732986295956500,1.52895654296875,2.1428000926971436,1.4801875352859497,1.1791999340057373
1697732986305374000,1.5383740234375,2.139087438583374,2.1240999698638916,0.2494249939918518
1697732986314792000,1.5477919921875,1.9582749605178833,1.8357625007629395,0.05156249925494194
1697732986324209700,1.557209716796875,1.6785999536514282,0.9805124998092651,0.17861250042915344
1697732986333627100,1.566627197265625,1.3292125463485718,-0.026124998927116394,0.48399999737739563
1697732986343045000,1.576045166015625,1.1471624374389648,-0.4402749836444855,0.5792874693870544
1697732986352462800,1.585462890625,1.0298750400543213,-0.038362499326467514,0.5377625226974487
1697732986361880600,1.594880615234375,0.8098750114440918,0.4357374906539917,0.4399999976158142
1697732986371298300,1.60429833984375,0.3431999981403351,0.8046500086784363,0.23594999313354492
1697732986380716000,1.613716064453125,-0.1845249980688095,0.810699999332428,0.2934249937534332
1697732986390133800,1.6231337890625,-0.5791500210762024,0.5663625001907349,0.34966251254081726
1697732986399551500,1.632551513671875,-0.8442500233650208,0.5187875032424927,0.19442500174045563
1697732986408969200,1.64196923828125,-1.0202499628067017,0.5773624777793884,-0.06338749825954437
1697732986418387000,1.651386962890625,-1.231587529182434,0.3330250084400177,-0.2624875009059906
1697732986427805000,1.660804931640625,-1.5247374773025513,-0.14093749225139618,-0.33701249957084656
1697732986437222400,1.670222412109375,-1.9254125356674194,-0.9362375140190125,-0.18548749387264252
1697732986446640000,1.67964013671875,-2.236987590789795,-1.8757749795913696,-0.1671999990940094
1697732986456057900,1.689057861328125,-2.1771750450134277,-2.2068750858306885,-0.5971624851226807
1697732986465475600,1.6984755859375,-1.5234999656677246,-2.2129249572753906,-1.4341249465942383
1697732986474893300,1.707893310546875,-1.0971125364303589,-2.297212600708008,-2.3271875381469727
1697732986484311000,1.71731103515625,-1.3829749822616577,-2.9008374214172363,-2.3845250606536865
1697732986493728800,1.726728759765625,-2.0501248836517334,-4.1921000480651855,-2.011899948120117
1697732986503146500,1.736146484375,-3.1142375469207764,-5.540975093841553,-1.7602750062942505
1697732986512564500,1.745564453125,-3.8570125102996826,-5.279449939727783,-1.241075038909912
1697732986521982000,1.75498193359375,-3.4868624210357666,-3.4982750415802,-1.4096499681472778
1697732986531400000,1.76439990234375,-2.5766124725341797,-1.3810499906539917,-2.46771240234375
1697732986540817400,1.7738173828125,-1.6102625131607056,0.3745499849319458,-3.344825029373169
1697732986550235400,1.7832353515625,-1.0005874633789062,1.840712547302246,-3.0492000579833984
1697732986559653000,1.792653076171875,-0.6732000112533569,2.036099910736084,-2.5592875480651855
1697732986569070800,1.80207080078125,-0.808775007724762,1.1602250337600708,-2.495762586593628
1697732986578488600,1.811488525390625,-2.1161251068115234,0.04592499881982803,-1.893512487411499
1697732986587906300,1.82090625,-2.703662395477295,-0.8996624946594238,-1.2533124685287476
1697732986597323800,1.83032373046875,-2.159987449645996,-1.6484874486923218,-0.4750624895095825
1697732986606741800,1.83974169921875,-0.8930624723434448,-2.0993499755859375,0.353237509727478
1697732986616159500,1.849159423828125,0.5081999897956848,-2.2178750038146973,2.049025058746338
1697732986625577500,1.858577392578125,0.9479249715805054,-2.4707374572753906,3.282949924468994
1697732986634995000,1.867994873046875,1.0628750324249268,-1.004712462425232,3.6800498962402344
1697732986644412400,1.877412353515625,1.4488375186920166,-1.1610499620437622,2.760037422180176
1697732986653830400,1.886830322265625,1.5465999841690063,-1.0230000019073486,1.4821125268936157
1697732986663248100,1.896248046875,1.4574999809265137,0.3392125070095062,0.4179999828338623
1697732986672665900,1.905665771484375,1.4415500164031982,1.6171374320983887,-0.7964000105857849
1697732986682083800,1.915083740234375,1.3292125463485718,2.7410624027252197,-2.0156126022338867
1697732986691501300,1.924501220703125,1.1569249629974365,3.04411244392395,-2.926962375640869
1697732986700919000,1.9339189453125,0.8771125078201294,3.0611624717712402,-3.4145374298095703
1697732986710336800,1.943336669921875,0.6290624737739563,3.0904500484466553,-3.662450075149536
1697732986719754500,1.95275439453125,0.5887749791145325,3.030637502670288,-3.8812124729156494
1697732986729172200,1.962172119140625,0.8331124782562256,3.124687433242798,-4.057075023651123
1697732986738590000,1.97158984375,1.2497375011444092,3.849174976348877,-4.134075164794922
1697732986748007400,1.98100732421875,1.6088874340057373,4.49171257019043,-3.997262477874756
1697732986757425400,1.99042529296875,2.1147499084472656,4.95852518081665,-3.3008248805999756
1697732986766843100,1.999843017578125,2.4971375465393066,4.7141876220703125,-2.796337366104126
1697732986776260900,2.0092607421875,2.1073250770568848,3.724600076675415,-2.9819624423980713
1697732986785678800,2.018678955078125,1.696887493133545,3.389787435531616,-2.837862491607666
1697732986795096600,2.0280966796875,1.7873624563217163,3.460599899291992,-1.9496124982833862
1697732986804514300,2.037514404296875,1.6651250123977661,3.0366873741149902,-1.0125499963760376
1697732986813931800,2.046931884765625,1.2742124795913696,2.6738250255584717,-0.6155874729156494
1697732986823349800,2.056349853515625,1.0823999643325806,2.9829249382019043,-0.682687520980835
1697732986832767500,2.065767578125,1.5881249904632568,3.9909374713897705,-0.6338750123977661
1697732986842185200,2.075185302734375,1.5893625020980835,4.619999885559082,-0.7548750042915344
1697732986851603000,2.08460302734375,0.7537750005722046,4.191275119781494,-1.1530749797821045
1697732986861020700,2.094020751953125,0.29067498445510864,4.0495123863220215,-0.9149249792098999
1697732986870438400,2.1034384765625,-0.06971249729394913,3.6683623790740967,-0.4787749946117401
1697732986879856000,2.112856201171875,-0.31776249408721924,2.855875015258789,-0.21972499787807465
1697732986889273900,2.12227392578125,-0.5876749753952026,1.9262374639511108,-0.15867500007152557
1697732986898691600,2.131691650390625,-0.9139624834060669,1.037987470626831,-0.258774995803833
1697732986908109300,2.141109375,-1.1753499507904053,0.2572624981403351,-0.36024999618530273
1697732986917527300,2.15052734375,-1.3329249620437622,-0.23622499406337738,-0.3040125072002411
1697732986926944800,2.15994482421875,-1.3158749341964722,-0.47203749418258667,-0.14396250247955322
1697732986936362800,2.16936279296875,-1.1045374870300293,-0.7224249839782715,0.03932499885559082
1697732986945780200,2.1787802734375,-0.8234875202178955,-0.8898999691009521,0.13708749413490295
1697732986955198200,2.1881982421875,-0.5876749753952026,-1.059712529182434,0.13337500393390656
1697732986964616000,2.197615966796875,-0.4460499882698059,-1.2233375310897827,-0.12196250259876251
1697732986974033400,2.207033447265625,-0.38609999418258667,-1.4030499458312988,-0.2782999873161316
1697732986983451400,2.216451416015625,-0.3568125069141388,-1.5166250467300415,-0.24172499775886536
1697732986992868900,2.225868896484375,-0.2750000059604645,-1.720674991607666,-0.13667500019073486
1697732987002286800,2.235286865234375,-0.16981250047683716,-2.144587516784668,-0.014437500387430191
1697732987011704600,2.24470458984375,0.020762499421834946,-2.542787551879883,0.10037499666213989
1697732987021122300,2.254122314453125,0.2956250011920929,-2.9361748695373535,0.047849997878074646
1697732987030539800,2.263539794921875,0.5667750239372253,-3.4676125049591064,0.060087498277425766
1697732987039957800,2.272957763671875,0.7365875244140625,-4.146999835968018,0.25189998745918274
1697732987049375500,2.28237548828125,1.0346875190734863,-4.53543758392334,0.4339500069618225
1697732987058793200,2.291793212890625,1.3670250177383423,-4.596487522125244,0.49623748660087585
1697732987068211000,2.3012109375,1.2204500436782837,-4.7247748374938965,0.43271249532699585
1697732987077628700,2.310628662109375,0.603487491607666,-4.562387466430664,0.7771499752998352
1697732987087046400,2.32004638671875,0.16609999537467957,-4.297150135040283,1.1632499694824219
1697732987096464100,2.329464111328125,0.234437495470047,-3.8708999156951904,1.2878249883651733
1697732987105881600,2.338881591796875,0.6755374670028687,-3.11822509765625,0.987387478351593
1697732987115299600,2.348299560546875,1.1996874809265137,-2.359637498855591,0.5340499877929688
1697732987124717300,2.35771728515625,1.4867874383926392,-2.1128249168395996,0.32394999265670776
1697732987134134800,2.367134765625,1.5710749626159668,-2.2654500007629395,0.28971248865127563
1697732987143552800,2.376552734375,1.5087875127792358,-2.569737434387207,0.2652375102043152
1697732987152970200,2.38597021484375,1.2742124795913696,-2.7565999031066895,0.3129499852657318
1697732987162388200,2.39538818359375,1.0139249563217163,-2.9484124183654785,0.4998124837875366
1697732987171806000,2.404805908203125,0.9076374769210815,-2.788362503051758,0.733287513256073
1697732987181223700,2.4142236328125,0.878350019454956,-2.5062124729156494,0.8566250205039978
1697732987190641400,2.423641357421875,0.866112470626831,-2.203162431716919,0.9861499667167664
1697732987200059100,2.43305908203125,0.8588249683380127,-2.1555874347686768,1.0777250528335571
1697732987209477000,2.44247705078125,0.8820624947547913,-2.062774896621704,1.1742500066757202
1697732987218894800,2.451894775390625,0.9613999724388123,-2.0297749042510986,1.302537441253662
1697732987228312600,2.4613125,1.031112551689148,-1.8317749500274658,1.2915375232696533
1697732987237730000,2.47072998046875,0.9040625095367432,-1.2440999746322632,0.956725001335144
1697732987247147800,2.480147705078125,0.5790125131607056,-0.5685625076293945,0.4815250039100647
1697732987256565800,2.489565673828125,0.020762499421834946,-0.2069374918937683,0.1699499934911728
1697732987265983500,2.4989833984375,-0.6964374780654907,-0.36079999804496765,0.33371248841285706
1697732987275401200,2.508401123046875,-1.3402124643325806,-0.8606125116348267,0.8481000065803528
1697732987284819000,2.51781884765625,-1.6750249862670898,-0.8714749813079834,0.9751499891281128
1697732987294236700,2.527236572265625,-1.905887484550476,-1.0755250453948975,0.8553875088691711
1697732987303654400,2.536654296875,-2.442275047302246,-1.7316750288009644,0.9446250200271606
1697732987313072000,2.546072021484375,-3.083712577819824,-2.514737367630005,1.092437505722046
1697732987322489900,2.55548974609375,-3.571150064468384,-3.2660374641418457,1.1742500066757202
1697732987331907600,2.564907470703125,-3.8447749614715576,-3.3442749977111816,0.9811999797821045
1697732987341325300,2.5743251953125,-3.6774375438690186,-3.405324935913086,0.8089125156402588
1697732987350743000,2.583742919921875,-3.767775058746338,-3.360224962234497,0.943387508392334
1697732987360160800,2.593160888671875,-4.395737648010254,-2.7248375415802,1.5126374959945679
1697732987369578500,2.60257861328125,-4.576550006866455,-1.9172999858856201,1.6801124811172485
1697732987378996500,2.61199658203125,-3.5747249126434326,0.5945500135421753,0.8626750111579895
1697732987388414000,2.6214140625,-3.136237382888794,1.5853749513626099,0.2909500002861023
1697732987397832000,2.63083203125,-1.975600004196167,1.1320375204086304,0.5842375159263611
1697732987407249700,2.640249755859375,-1.5357375144958496,-0.22165000438690186,0.860337495803833
1697732987416667100,2.649667236328125,-1.3243999481201172,-0.784850001335144,0.9811999797821045
1697732987426085000,2.659085205078125,-1.1911624670028687,-0.7921375036239624,0.6660500168800354
1697732987435502600,2.668502685546875,-0.8784874677658081,-0.42198750376701355,0.19318750500679016
1697732987444920300,2.67792041015625,-0.5779125094413757,-0.13612499833106995,-0.19277499616146088
1697732987454338000,2.687338134765625,-0.4300999939441681,-0.18741250038146973,-0.3895374834537506
1697732987463755800,2.696755859375,-0.5131499767303467,-0.5220875144004822,-0.39448750019073486
1697732987473173800,2.706173828125,-0.7954375147819519,-1.0414249897003174,-0.3199625015258789
1697732987482591200,2.71559130859375,-1.0825375318527222,-1.4946249723434448,-0.3492499887943268
1697732987492009000,2.725009033203125,-1.1545875072479248,-1.8134875297546387,-0.809737503528595
1697732987501427000,2.734427001953125,-1.0690624713897705,-1.3100999593734741,-1.6992249488830566
1697732987510844700,2.7438447265625,-0.3310999870300293,-0.41827499866485596,-2.78410005569458
1697732987520262400,2.753262451171875,1.1666874885559082,0.7911750078201294,-3.9165499210357666
1697732987529680100,2.76268017578125,2.5654749870300293,1.698949933052063,-4.933087348937988
1697732987539097900,2.772097900390625,3.2667250633239746,2.0275750160217285,-5.563525199890137
1697732987548515600,2.781515625,3.6968250274658203,1.9640499353408813,-5.7088623046875
1697732987557933300,2.790933349609375,3.724874973297119,0.5505499839782715,-4.10726261138916
1697732987567350800,2.800350830078125,3.5355374813079834,-1.100000023841858,-1.1933624744415283
1697732987576768800,2.809768798828125,3.4231998920440674,-2.067587375640869,1.3562999963760376
1697732987586186500,2.8191865234375,3.5612499713897705,-1.6669124364852905,3.562762498855591
1697732987595604200,2.828604248046875,3.582012414932251,-0.9241374731063843,4.867499828338623
1697732987605022000,2.83802197265625,3.293674945831299,-0.04936249926686287,5.291412353515625
1697732987614439400,2.847439453125,2.8184750080108643,0.3807374835014343,4.483874797821045
1697732987623857700,2.856857666015625,2.1953248977661133,0.7338374853134155,3.160712480545044
1697732987633275100,2.866275146484375,1.356024980545044,1.4313750267028809,1.355062484741211
1697732987642692900,2.87569287109375,0.559487521648407,2.3256750106811523,0.006324999965727329
1697732987652110600,2.885110595703125,-0.26881250739097595,3.0819249153137207,-0.37482500076293945
1697732987661528600,2.894528564453125,-0.720912516117096,1.7782875299453735,-0.8744999766349792
1697732987670946300,2.9039462890625,-0.9860125184059143,1.353137493133545,-1.0040249824523926
1697732987680364000,2.913364013671875,-0.9468249678611755,2.1546249389648438,-0.7853999733924866
1697732987689781800,2.92278173828125,-0.39338749647140503,2.3916749954223633,-0.8501625061035156
1697732987699199200,2.93219921875,0.36643749475479126,2.0923373699188232,-1.0505000352859497
1697732987708617000,2.941616943359375,1.0114500522613525,2.0092875957489014,-1.1042624711990356
1697732987718034700,2.95103466796875,1.5576000213623047,2.120387554168701,-1.006500005722046
1697732987727452400,2.960452392578125,2.0952250957489014,2.0801000595092773,-0.7376874685287476
1697732987736870100,2.9698701171875,2.857524871826172,1.444849967956543,-0.3797749876976013
1697732987746288000,2.9792880859375,3.623537540435791,0.6311249732971191,0.09542500227689743
1697732987755705900,2.988705810546875,3.7518250942230225,0.2634499967098236,0.7528125047683716
1697732987765123600,2.99812353515625,2.9565250873565674,0.4295499920845032,1.2817749977111816
1697732987774541300,3.007541259765625,2.0732250213623047,0.29768750071525574,1.4613499641418457
1697732987783959000,3.016958984375,1.1483999490737915,0.09363749623298645,1.2390124797821045
1697732987793376800,3.026376708984375,0.0658624991774559,-0.005362499970942736,0.6171000003814697
1697732987802794500,3.03579443359375,-0.45691248774528503,-0.2129874974489212,-0.14396250247955322
1697732987812212500,3.04521240234375,-0.4618625044822693,-0.5587999820709229,-0.7596874833106995
1697732987821630000,3.0546298828125,-0.0952875018119812,-1.0242375135421753,-1.054075002670288
1697732987831047700,3.064047607421875,0.4507249891757965,-1.3956249952316284,-1.1213124990463257
1697732987840465400,3.07346533203125,1.0091124773025513,-1.616724967956543,-1.0749750137329102
1697732987849883100,3.082883056640625,1.4170750379562378,-1.7927249670028687,-1.006500005722046
1697732987859301000,3.092301025390625,1.6076500415802002,-1.978350043296814,-0.8892124891281128
1697732987868718600,3.101718505859375,1.5978875160217285,-2.2753500938415527,-0.5971624851226807
1697732987878136300,3.11113623046875,1.639412522315979,-2.641787528991699,-0.15001249313354492
1697732987887554300,3.12055419921875,1.7421250343322754,-2.775024890899658,0.35942500829696655
1697732987896972000,3.129971923828125,1.8129374980926514,-2.58555006980896,0.8590999841690063
1697732987906389800,3.1393896484375,1.6638875007629395,-1.5984375476837158,1.2964874505996704
1697732987915807500,3.148807373046875,1.1629749536514282,0.1046374961733818,1.6861624717712402
1697732987925225200,3.15822509765625,0.6792500019073486,0.6030749678611755,1.5846874713897705
1697732987934643000,3.167642822265625,0.45801249146461487,0.07411249727010727,1.2304874658584595
1697732987944060400,3.177060302734375,0.4702500104904175,-0.40974998474121094,0.9922000169754028
1697732987953478400,3.186478515625,0.6510624885559082,-0.3254624903202057,0.9666249752044678
1697732987962896100,3.195896240234375,0.988349974155426,0.2634499967098236,1.0874874591827393
1697732987972313900,3.20531396484375,1.3255000114440918,0.9207000136375427,1.1999624967575073
1697732987981731800,3.21473193359375,1.386549949645996,1.1002750396728516,1.140012502670288
1697732987991149300,3.2241494140625,1.1727374792099,0.6556000113487244,0.8969125151634216
1697732988000567000,3.233567138671875,0.8623999953269958,-0.07369999587535858,0.5523374676704407
1697732988009984800,3.24298486328125,0.612012505531311,-0.6626124978065491,0.2591874897480011
1697732988019402500,3.252402587890625,0.5325375199317932,-1.021762490272522,0.16885000467300415
1697732988028820500,3.261820556640625,0.5240125060081482,-1.2649999856948853,0.1993750035762787
1697732988038238000,3.271238037109375,0.5570124983787537,-1.450624942779541,0.2616625130176544
1697732988047655700,3.28065576171875,0.608299970626831,-1.541100025177002,0.2579500079154968
1697732988057073400,3.290073486328125,0.638824999332428,-1.38833749294281,0.11013749986886978
1697732988066491100,3.2994912109375,0.6474875211715698,-1.043762445449829,-0.13048750162124634
1697732988075909000,3.3089091796875,0.6890124678611755,-0.6393749713897705,-0.525112509727478
1697732988085326600,3.31832666015625,0.6510624885559082,-0.34498751163482666,-1.1615999937057495
1697732988094744600,3.32774462890625,0.5545374751091003,-0.14464999735355377,-1.9215624332427979
1697732988104162300,3.337162353515625,0.41772499680519104,-0.009074999950826168,-2.608099937438965
1697732988113580000,3.346580078125,0.16362500190734863,0.29878750443458557,-3.2568249702453613
1697732988122997800,3.355997802734375,-0.2040500044822693,0.7569375038146973,-3.752924919128418
1697732988132415500,3.36541552734375,0.44591251015663147,1.911525011062622,-4.129125118255615
1697732988141833000,3.3748330078125,0.4984374940395355,1.9933375120162964,-3.992312431335449
1697732988151251000,3.3842509765625,-0.28228750824928284,2.2413876056671143,-3.8042125701904297
1697732988268972800,3.501972900390625,-0.5644375085830688,-3.5776124000549316,0.21037499606609344
1697732988278390300,3.511390380859375,-0.5461499691009521,-3.347987413406372,0.2994749844074249
1697732988287808000,3.52080810546875,-0.6316750049591064,-2.886125087738037,0.36176249384880066
1697732988297226000,3.53022607421875,-0.9432500004768372,-2.131112575531006,0.01484999991953373
1697732988306643700,3.539643798828125,-1.4379750490188599,-0.7138999700546265,-1.269124984741211
1697732988316061400,3.5490615234375,-1.634737491607666,0.4197874963283539,-1.818987488746643
1697732988325479200,3.558479248046875,-1.6273125410079956,1.0049874782562256,-1.5746500492095947
1697732988334896600,3.567896728515625,-1.5907374620437622,0.9279875159263611,-1.028499960899353
1697732988344314600,3.577314697265625,-1.6457375288009644,0.2512125074863434,-0.5325375199317932
1697732988353732400,3.586732421875,-1.7483124732971191,-0.6393749713897705,-0.20143750309944153
1697732988363150000,3.596150146484375,-1.8411250114440918,-1.357812523841858,-0.13667500019073486
1697732988372567800,3.60556787109375,-1.958412528038025,-1.820775032043457,-0.22220000624656677
1697732988381985500,3.614985595703125,-2.029362440109253,-2.172637462615967,-0.3040125072002411
1697732988391403500,3.624403564453125,-2.028125047683716,-2.2753500938415527,-0.36629998683929443
1697732988400821000,3.633821044921875,-2.010937452316284,-2.3143999576568604,-0.30896249413490295
1697732988410238700,3.64323876953125,-2.0684125423431396,-1.7584874629974365,-0.7303999662399292
1697732988419656700,3.65265673828125,-2.3359875679016113,-0.20446249842643738,-2.035137414932251
1697732988429074200,3.66207421875,-2.255275011062622,-0.3499374985694885,-1.3631750345230103
1697732988438492000,3.671491943359375,-1.9878374338150024,-0.19593749940395355,-0.643637478351593
1697732988447909600,3.68090966796875,-1.7165499925613403,-0.5416125059127808,-0.22220000624656677
1697732988457327600,3.69032763671875,-1.4904999732971191,-1.1855249404907227,-0.02914999984204769
1697732988466745300,3.699745361328125,-1.29868745803833,-1.803725004196167,0.1284250020980835
1697732988476162800,3.709162841796875,-1.1558250188827515,-2.2263998985290527,0.3129499852657318
1697732988485580800,3.718580810546875,-1.1203500032424927,-2.336400032043457,0.45100000500679016
1697732988494998500,3.72799853515625,-1.0470625162124634,-2.2544500827789307,0.5512375235557556
1697732988504416500,3.73741650390625,-0.8674874901771545,-2.241112470626831,0.768625020980835
1697732988513834000,3.746833984375,-0.6084374785423279,-2.3168749809265137,1.0362000465393066
1697732988523252000,3.756251953125,-0.30428749322891235,-2.4144999980926514,1.26829993724823
1697732988532669400,3.76566943359375,-0.006187499966472387,-2.4817373752593994,1.4943499565124512
1697732988542087200,3.775087158203125,0.2601499855518341,-2.4133999347686768,1.709399938583374
1697732988551505000,3.7845048828125,0.47891250252723694,-2.2386374473571777,1.9305000305175781
1697732988560922600,3.793922607421875,0.6707249879837036,-2.0590624809265137,2.104024887084961
1697732988570340400,3.80334033203125,0.8575875163078308,-1.9307750463485718,2.2065999507904053
1697732988579758300,3.81275830078125,1.018875002861023,-1.8990124464035034,2.1833624839782715
1697732988589176000,3.822176025390625,1.1386375427246094,-1.987012505531311,1.9903124570846558
1697732988598593800,3.83159375,1.1727374792099,-2.1885874271392822,1.6396875381469727
1697732988608011300,3.84101123046875,1.0421124696731567,-2.3509750366210938,1.1449625492095947
1697732988617429000,3.850428955078125,0.8636375069618225,-2.7993624210357666,0.8456249833106995
1697732988626847000,3.859846923828125,0.4422000050544739,-2.80183744430542,0.5205749869346619
1697732988636264700,3.8692646484375,-0.018424998968839645,-2.3436875343322754,0.37894999980926514
1697732988645682400,3.878682373046875,-0.3372874855995178,-1.5691499710083008,0.29589998722076416
1697732988655100200,3.88810009765625,-0.5326749682426453,-0.9350000023841858,0.281187504529953
1697732988664518000,3.897517822265625,-0.6231499910354614,-0.8483750224113464,0.3349500000476837
1697732988673935600,3.906935546875,-0.6683874726295471,-0.9802374839782715,0.41071251034736633
1697732988683353300,3.916353271484375,-0.8234875202178955,-1.3198624849319458,0.6159999966621399
1697732988692770800,3.925770751953125,-0.9615374803543091,-1.7304375171661377,0.8260999917984009
1697732988702189000,3.93518896484375,-0.9602999687194824,-2.104300022125244,0.8944374918937683
1697732988711606500,3.9446064453125,-0.781962513923645,-1.5532000064849854,0.6415749788284302
1697732988721024500,3.9540244140625,-0.4008125066757202,-0.8507124781608582,0.2774749994277954
1697732988730442000,3.96344189453125,0.1648624986410141,-0.6173750162124634,-0.07067500054836273
1697732988739860000,3.97285986328125,0.734250009059906,-0.72861248254776,-0.28325000405311584
1697732988749277700,3.982277587890625,1.105637550354004,-0.7774249911308289,-0.5691124796867371
1697732988758695200,3.991695068359375,1.101925015449524,-0.549037516117096,-0.7193999886512756
1697732988768113200,4.001113037109375,0.7598249912261963,-0.47574999928474426,-0.42253750562667847
1697732988777530600,4.010530517578125,0.44948750734329224,-0.5220875144004822,0.025849999859929085
1697732988786948400,4.0199482421875,0.24791249632835388,-0.6283749938011169,0.4179999828338623
1697732988796366300,4.029366455078125,0.14409999549388885,-0.9326624870300293,0.8003875017166138
1697732988805783800,4.03878369140625,0.13557499647140503,-1.5239125490188599,1.3367749452590942
1697732988815201800,4.048201904296875,0.2381500005722046,-1.7792500257492065,1.6801124811172485
1697732988824619500,4.05761962890625,0.35667499899864197,-1.7987749576568604,1.8437374830245972
1697732988834037000,4.067037109375,0.33467498421669006,-1.5409624576568604,1.7729250192642212
1697732988843455000,4.076455078125,0.24791249632835388,-1.5324374437332153,1.6898750066757202
1697732988852872700,4.085872802734375,0.09638749808073044,-1.7621999979019165,1.6226375102996826
1697732988862290700,4.095290771484375,-0.07947500050067902,-2.161637544631958,1.572587490081787
1697732988871708200,4.104708251953125,-0.24681249260902405,-2.5489749908447266,1.5419249534606934
1697732988881126000,4.1141259765625,-0.33233749866485596,-2.68331241607666,1.5786374807357788
1697732988890543600,4.123543701171875,-0.31652501225471497,-2.443924903869629,1.7154500484466553
1697732988899961300,4.13296142578125,-0.2737624943256378,-1.9135874509811401,1.8865000009536743
1697732988909379000,4.142379150390625,-0.2761000096797943,-1.2868624925613403,1.9635000228881836
1697732988918797000,4.151797119140625,-0.29809999465942383,-0.7176125049591064,1.8902125358581543
1697732988928214500,4.161214599609375,-0.3091000020503998,-0.5526124835014343,1.6801124811172485
1697732988937632000,4.170632080078125,-0.2870999872684479,-0.5660874843597412,1.4613499641418457
1697732988947050000,4.180050048828125,-0.15523749589920044,-0.6271374821662903,1.4247750043869019
1697732988956467700,4.1894677734375,0.12333749979734421,-0.9582374691963196,1.521162509918213
1697732988965885400,4.198885498046875,0.43367499113082886,-1.4103374481201172,1.730162501335144
1697732988975303200,4.20830322265625,0.5289624929428101,-1.8402999639511108,1.9817874431610107
1697732988984721200,4.21772119140625,0.42996248602867126,-2.239875078201294,2.199312448501587
1697732988994138600,4.227138671875,0.30662500858306885,-2.503737449645996,2.3226499557495117
1697732989003556400,4.236556396484375,0.22110000252723694,-2.58555006980896,2.3726999759674072
1697732989012974300,4.245974365234375,0.18809999525547028,-2.298449993133545,2.2786500453948975
1697732989022392000,4.25539208984375,0.30291250348091125,-1.0462374687194824,1.8034499883651733
1697732989031809800,4.264809814453125,1.0994499921798706,3.2676875591278076,0.27390000224113464
1697732989041227500,4.2742275390625,1.6198874711990356,4.348849773406982,-0.44811248779296875
1697732989050645000,4.28364501953125,1.6468374729156494,2.8241124153137207,-0.36877501010894775
1697732989060063000,4.29306298828125,1.3340250253677368,1.366612434387207,-0.2209624946117401
1697732989069480700,4.302480712890625,0.9150624871253967,0.38321250677108765,-0.09872499853372574
1697732989078898400,4.3118984375,0.4641999900341034,-0.4232249855995178,0.12718750536441803
1697732989088316200,4.321316162109375,0.06710000336170197,-1.2160500288009644,0.48276248574256897
1697732989097734000,4.33073388671875,-0.13323749601840973,-1.8489625453948975,0.8395749926567078
1697732989107151600,4.340151611328125,-0.032999999821186066,-2.1811625957489014,1.143725037574768
1697732989116569300,4.3495693359375,0.2381500005722046,-2.3339250087738037,1.3880624771118164
1697732989125987300,4.3589873046875,0.4824874997138977,-2.287450075149536,1.446637511253357
1697732989135404800,4.36840478515625,0.6144874691963196,-2.0443499088287354,1.3293499946594238
1697732989144822800,4.37782275390625,0.6327750086784363,-1.4653375148773193,1.0032000541687012
1697732989154240500,4.387240478515625,0.5631999969482422,-0.9447624683380127,0.7308124899864197
1697732989163658200,4.396658203125,0.4996750056743622,-0.6040375232696533,0.6183375120162964
1697732989173076200,4.406076171875,0.5081999897956848,-0.37674999237060547,0.6708624958992004
1697732989182493700,4.41549365234375,0.5314375162124634,-0.22522500157356262,0.8358625173568726
1697732989191911400,4.424911376953125,0.5545374751091003,-0.09817499667406082,1.0459624528884888
1697732989201329400,4.434329345703125,0.5887749791145325,0.025162499397993088,1.2500125169754028
1697732989210747000,4.443746826171875,0.5863000154495239,0.012924999929964542,1.4478750228881836
1697732989220164900,4.453164794921875,0.5765374898910522,-0.1494625061750412,1.6153500080108643
1697732989229582300,4.462582275390625,0.5522000193595886,-0.38046249747276306,1.7106374502182007
1697732989239000000,4.472,0.5424374938011169,-0.5966125130653381,1.704450011253357
1697732989248417800,4.481417724609375,0.5399624705314636,-0.7969499826431274,1.5578750371932983
1697732989257835500,4.49083544921875,0.5264874696731567,-0.9216625094413757,1.2915375232696533
1697732989267253200,4.500253173828125,0.5325375199317932,-0.894712507724762,0.9897249937057495
1697732989276671200,4.509671142578125,0.5729625225067139,-0.7566624879837036,0.7343875169754028
1697732989286088700,4.519088623046875,0.5985375046730042,-0.6247999668121338,0.554812490940094
1697732989295506400,4.52850634765625,0.6095374822616577,-0.562375009059906,0.44123750925064087
1697732989304924200,4.537924072265625,0.6022499799728394,-0.6283749938011169,0.3044250011444092
1697732989314342000,4.547341796875,0.5522000193595886,-0.7188500165939331,0.1480875015258789
1697732989323759900,4.556759765625,0.49101248383522034,-0.6553249955177307,0.033137500286102295
1697732989333177600,4.566177490234375,0.46543750166893005,-0.426800012588501,-0.008387500420212746
1697732989342595300,4.57559521484375,0.42748749256134033,-0.17270000278949738,-0.03162499889731407
1697732989352013000,4.585012939453125,0.37991249561309814,-0.035887498408555984,-0.05719999969005585
1697732989361430800,4.5944306640625,0.3554374873638153,-0.030937500298023224,-0.04743750020861626
1697732989370848500,4.6038486328125,0.3236750066280365,-0.1274625062942505,0.030799999833106995
1697732989380266200,4.613266357421875,0.33467498421669006,-0.38403749465942383,0.14190000295639038
1697732989389684000,4.62268408203125,0.45925000309944153,-0.7444249987602234,0.2653749883174896
1697732989399101400,4.632101318359375,0.5863000154495239,-1.3528624773025513,0.3068999946117401
1697732989408519400,4.64151953125,0.6450124979019165,-2.006537437438965,0.281187504529953
1697732989417937400,4.6509375,0.5680124759674072,-2.491499900817871,0.20913749933242798
1697732989427355100,4.660355224609375,0.39214998483657837,-2.6478374004364014,0.028324998915195465
1697732989436772400,4.6697724609375,0.1611499935388565,-2.5880250930786133,-0.31501248478889465
1697732989446190300,4.6791904296875,0.0035749999806284904,-2.530550003051758,-0.765874981880188
1697732989455608000,4.688608154296875,-0.13571250438690186,-2.517212390899658,-1.291124939918518
1697732989465025800,4.69802587890625,-0.3091000020503998,-2.68331241607666,-1.7957500219345093
1697732989474443800,4.70744384765625,-0.4899125099182129,-2.8238375186920166,-2.2061874866485596
1697732989483861500,4.716861572265625,-0.6059625148773193,-2.765125036239624,-2.500575065612793
1697732989493279200,4.726279296875,-0.6549124717712402,-2.5000250339508057,-2.633812427520752
1697732989502697000,4.735697021484375,-0.6756749749183655,-2.1689250469207764,-2.5837624073028564
1697732989512114700,4.74511474609375,-0.7404375076293945,-1.8635374307632446,-2.430999994277954
1697732989521532400,4.754532470703125,-0.8381999731063843,-1.6986750364303589,-2.3002374172210693
1697732989530950100,4.7639501953125,-0.9407749772071838,-1.6571500301361084,-2.214712381362915
1697732989540368000,4.773367919921875,-1.0348249673843384,-1.599674940109253,-2.167137384414673
1697732989549785600,4.78278564453125,-1.02753746509552,-1.4933874607086182,-2.0986623764038086
1697732989559203600,4.79220361328125,-0.9725375175476074,-1.4163874387741089,-1.968037486076355
1697732989568621000,4.80162109375,-0.9395374655723572,-1.350387454032898,-1.8653249740600586
1697732989578038800,4.811038818359375,-0.9102500081062317,-1.3833874464035034,-1.8165124654769897
1697732989587456500,4.82045654296875,-0.8284375071525574,-1.4383875131607056,-1.8420875072479248
1697732989596874200,4.829874267578125,-0.7587249875068665,-1.4774374961853027,-1.9288499355316162
1697732989606292200,4.839292236328125,-0.708674967288971,-1.537387490272522,-2.0448999404907227
1697732989615709700,4.848709716796875,-0.6048625111579895,-1.5324374437332153,-2.1401875019073486
1697732989625127700,4.858127685546875,-0.5376250147819519,-1.424912452697754,-2.20989990234375
1697732989634545400,4.86754541015625,-0.5033875107765198,-1.2368124723434448,-2.3124749660491943
1697732989643963000,4.876962890625,-0.5229125022888184,-0.947237491607666,-2.400475025177002
1697732989653380900,4.886380859375,-0.6366249918937683,-0.5868499875068665,-2.4041874408721924
1697732989662798600,4.895798583984375,-0.7367249727249146,-0.44632500410079956,-2.3271875381469727
1697732989672216300,4.90521630859375,-0.7306749820709229,-0.45980000495910645,-2.197662591934204
1697732989681634000,4.914634033203125,-0.8442500233650208,-0.4842749834060669,-2.0669000148773193
1697732989691051800,4.9240517578125,-1.0385375022888184,-0.6736124753952026,-1.9350374937057495
1697732989700469500,4.933469482421875,-1.2755874395370483,-1.3150500059127808,-1.5647499561309814
1697732989709887200,4.94288720703125,-1.6200250387191772,-2.514737367630005,-0.9185000061988831
1697732989719305000,4.952304931640625,-2.0976998805999756,-2.928887367248535,-0.43834999203681946
1697732989728723000,4.961722900390625,-2.691425085067749,-2.479262590408325,-0.3614875078201294
1697732989738140400,4.971140380859375,-3.291337490081787,-1.7804875373840332,-0.564300000667572
1697732989747558100,4.98055810546875,-3.616387367248535,-1.3358124494552612,-0.9039250016212463
1697732989756975900,4.989975830078125,-3.6236748695373535,-1.3076249361038208,-1.1140249967575073
1697732989766393900,4.999393798828125,-3.3903374671936035,-1.7682499885559082,-1.057787537574768
1697732989775811300,5.008811279296875,-3.0799999237060547,-2.2361624240875244,-0.8586875200271606
1697732989785229000,5.01822900390625,-2.849137544631958,-2.4132626056671143,-0.7096375226974487
1697732989794646800,5.027646728515625,-2.7561874389648438,-2.287450075149536,-0.6619250178337097
1697732989804064800,5.037064697265625,-2.7599000930786133,-2.0748748779296875,-0.591112494468689
1697732989813482500,5.046482421875,-2.8514750003814697,-2.1811625957489014,-0.381012499332428
1697732989822900200,5.055900146484375,-2.849137544631958,-2.68331241607666,-0.12072499841451645
1697732989832318000,5.06531787109375,-2.745187520980835,-3.4028499126434326,0.052662499248981476
1697732989841735400,5.0747353515625,-2.6670875549316406,-3.7376625537872314,0.1601874977350235
1697732989851153400,5.0841533203125,-2.6059000492095947,-3.4553749561309814,0.2274249941110611
1697732989860571000,5.09357080078125,-2.5106124877929688,-3.024174928665161,0.3104749917984009
1697732989869988900,5.10298876953125,-2.3665125370025635,-2.8115999698638916,0.44123750925064087
1697732989879406600,5.112406494140625,-2.219937562942505,-2.7835500240325928,0.5535749793052673
1697732989888824000,5.121823974609375,-2.010937452316284,-2.58555006980896,0.6916249990463257
1697732989898242000,5.131241943359375,-1.81431245803833,-2.42549991607666,0.8639125227928162
1697732989907659800,5.14065966796875,-1.6383124589920044,-2.3607375621795654,0.9799624681472778
1697732989917077500,5.150077392578125,-1.4881625175476074,-2.2618749141693115,1.026437520980835
1697732989926495200,5.1594951171875,-1.3622125387191772,-2.1555874347686768,0.995912492275238
1697732989935913200,5.168913330078125,-1.3048750162124634,-2.15063738822937,0.8859124779701233
1697732989945331000,5.1783310546875,-1.3096874952316284,-2.19958758354187,0.7308124899864197
1697732989954748400,5.18774853515625,-1.3488750457763672,-2.1885874271392822,0.5389999747276306
1697732989964166400,5.19716650390625,-1.385450005531311,-2.1433498859405518,0.3227125108242035
1697732989973584100,5.206584228515625,-1.3756874799728394,-2.1103498935699463,0.1381874978542328
1697732989983001600,5.216001708984375,-1.2951124906539917,-2.0933001041412354,0.020899999886751175
1697732989992419600,5.225419677734375,-1.2351624965667725,-2.190924882888794,-0.03891250118613243
1697732990001837300,5.23483740234375,-1.2131625413894653,-2.299687385559082,-0.11219999939203262
1697732990011255000,5.244255126953125,-1.2449250221252441,-2.282637596130371,-0.21848750114440918
1697732990020672800,5.2536728515625,-1.2608749866485596,-2.3082125186920166,-0.3675374984741211
1697732990030090500,5.263090576171875,-1.215637445449829,-2.4462625980377197,-0.47382500767707825
1697732990039508200,5.27250830078125,-1.2621124982833862,-2.4659249782562256,-0.5092999935150146
1697732990048926000,5.281926025390625,-1.4221625328063965,-2.3986876010894775,-0.5850625038146973
1697732990058343700,5.29134375,-1.5674999952316284,-2.3021624088287354,-0.6289250254631042
1697732990067761400,5.300761474609375,-1.6482124328613281,-2.0638749599456787,-0.6313999891281128
1697732990077179100,5.31017919921875,-1.6615500450134277,-1.2319999933242798,-0.5763999819755554
1697732990086597000,5.31959716796875,-1.5662624835968018,-0.4232249855995178,-0.08772499859333038
1697732990096014600,5.3290146484375,-1.1338249444961548,-1.1990000009536743,0.527999997138977
1697732990105432300,5.338432373046875,-0.45938751101493835,-2.179924964904785,0.5817624926567078
1697732990114850300,5.347850341796875,-0.12952500581741333,-2.0993499755859375,0.4339500069618225
1697732990124267800,5.357267822265625,-0.16871249675750732,-1.4298624992370605,0.3544749915599823
1697732990133685800,5.366685791015625,-0.0989999994635582,-0.6699000000953674,0.12484999746084213
1697732990143103200,5.376103271484375,0.1270499974489212,-0.22398750483989716,0.1601874977350235
1697732990152521200,5.385521240234375,0.3139125108718872,0.5370749831199646,0.4692874848842621
1697732990161939000,5.39493896484375,0.22357499599456787,2.0043375492095947,1.0679625272750854
1697732990171356700,5.404356689453125,0.11728750169277191,3.124687433242798,1.866974949836731
1697732990180774400,5.4137744140625,0.09033749997615814,3.3910250663757324,2.340937376022339
1697732990190192000,5.423192138671875,0.10257499665021896,3.276212453842163,2.2676498889923096
1697732990199609600,5.432609619140625,0.15262499451637268,2.9536375999450684,1.7191624641418457
1697732990209027600,5.442027587890625,0.31638750433921814,2.2999625205993652,1.1204874515533447
1697732990218445300,5.4514453125,0.5631999969482422,1.5046625137329102,1.026437520980835
1697732990227863000,5.460863037109375,0.8245875239372253,0.8193625211715698,1.2537250518798828
1697732990237280800,5.47028076171875,0.988349974155426,0.41126251220703125,1.417349934577942
1697732990350293800,5.583293701171875,1.3499749898910522,0.055687498301267624,1.9817874431610107
1697732990359711500,5.59271142578125,1.4403125047683716,-0.09088750183582306,2.0636000633239746
1697732990369129500,5.60212939453125,1.4342625141143799,-0.23017500340938568,2.067312479019165
1697732990378547000,5.611546875,1.3279750347137451,-0.2924624979496002,2.019737482070923
1697732990387964400,5.62096435546875,1.101925015449524,-0.3499374985694885,1.9024499654769897
1697732990397382700,5.630382568359375,0.8416374921798706,-0.4610374867916107,1.721637487411499
1697732990406800100,5.639800048828125,0.5741999745368958,-0.6345624923706055,1.4821125268936157
1697732990416217900,5.6492177734375,0.3676750063896179,-0.9081875085830688,1.2500125169754028
1697732990425635600,5.658635498046875,0.2540999948978424,-1.1672375202178955,1.1070125102996826
1697732990435053300,5.66805322265625,0.1966249942779541,-1.3003374338150024,1.0911999940872192
1697732990444471300,5.67747119140625,0.16238750517368317,-1.3235750198364258,1.1547249555587769
1697732990453888800,5.686888671875,0.13805000483989716,-1.3076249361038208,1.2377749681472778
1697732990463306500,5.696306396484375,0.07933750003576279,-1.2405250072479248,1.306249976158142
1697732990472724500,5.705724365234375,-0.0037124999798834324,-1.0852874517440796,1.363587498664856
1697732990482142200,5.71514208984375,-0.09652499854564667,-0.8483750224113464,1.4038749933242798
1697732990491559700,5.7245595703125,-0.12347500026226044,-0.6040375232696533,1.4565374851226807
1697732990500977700,5.733977783203125,-0.0952875018119812,-0.36822500824928284,1.4833500385284424
1697732990510395100,5.74339501953125,-0.06476250290870667,-0.10064999759197235,1.5016374588012695
1697732990519813000,5.752813232421875,-0.03423750028014183,0.12168750166893005,1.5566375255584717
1697732990529230600,5.762230712890625,-0.01966249942779541,0.31968748569488525,1.634874939918518
1697732990538648600,5.771648681640625,0,0.46626248955726624,1.7239749431610107
1697732990548066300,5.78106640625,0.0658624991774559,0.5053125023841858,1.8192625045776367
1697732990557484000,5.790484130859375,0.15138749778270721,0.4259749948978424,1.8827874660491943
1697732990566901800,5.79990185546875,0.22591249644756317,0.2475000023841858,1.891450047492981
1697732990576319500,5.809319580078125,0.3053874969482422,0.017875000834465027,1.8205000162124634
1697732990585737200,5.8187373046875,0.3713875114917755,-0.2129874974489212,1.6812125444412231
1697732990595155000,5.828155029296875,0.42143750190734863,-0.4133250117301941,1.5151125192642212
1697732990604572700,5.83757275390625,0.4324375092983246,-0.5587999820709229,1.3282500505447388
1697732990613990700,5.84699072265625,0.40796250104904175,-0.6051374673843384,1.1730124950408936
1697732990623408000,5.856408203125,0.3639625012874603,-0.5843750238418579,1.0949125289916992
1697732990632826000,5.865826171875,0.3371500074863434,-0.5843750238418579,1.0936750173568726
1697732990642243800,5.875243896484375,0.3371500074863434,-0.4867500066757202,1.119249939918518
1697732990651661300,5.884661376953125,0.33096250891685486,-0.2521750032901764,1.1167750358581543
1697732990661079300,5.894079345703125,0.2881999909877777,0.03492499887943268,1.0544874668121338
1697732990670496800,5.903496826171875,0.2283875048160553,0.23539999127388,0.9176750183105469
1697732990679914800,5.912914794921875,0.1588124930858612,0.26221248507499695,0.7356249690055847
1697732990689332500,5.92233251953125,0.07933750003576279,0.18273749947547913,0.5524749755859375
1697732990698750000,5.93175,-0.030662499368190765,0.08387500047683716,0.41923749446868896
1697732990708168000,5.94116796875,-0.12594999372959137,0.0019249999895691872,0.34966251254081726
1697732990717585700,5.950585693359375,-0.14423750340938568,-0.052937500178813934,0.328900009393692
1697732990727003100,5.960003173828125,-0.08442500233650208,-0.09212499856948853,0.3349500000476837
1697732990736421000,5.969421142578125,0.0170499999076128,-0.16046249866485596,0.33371248841285706
1697732990745838800,5.9788388671875,0.10628750175237656,-0.35103750228881836,0.27390000224113464
1697732990755256600,5.988256591796875,0.12086249887943268,-0.6051374673843384,0.1321374922990799
1697732990764674300,5.99767431640625,0.05252499878406525,-0.8129000067710876,-0.03272499889135361
1697732990774092000,6.007092041015625,-0.023237500339746475,-0.8361374735832214,-0.19043749570846558
1697732990783509800,6.016509765625,-0.028187500312924385,-0.7261375188827515,-0.3590124845504761
1697732990792927500,6.025927490234375,0.006049999967217445,-0.5233250260353088,-0.5678749680519104
1697732990802345500,6.035345458984375,0.04386249929666519,-0.26922500133514404,-0.8256874680519104
1697732990811763200,6.04476318359375,0.01209999993443489,-0.13612499833106995,-1.289887547492981
1697732990821180700,6.0541806640625,-0.09047500044107437,-0.24722500145435333,-1.9703749418258667
1697732990830598700,6.0635986328125,-0.24076250195503235,-0.3792249858379364,-2.6533374786376953
1697732990840016400,6.073016357421875,-0.4166249930858612,-0.32903748750686646,-3.165250062942505
1697732990849434000,6.08243408203125,-0.5926250219345093,0.0789249986410141,-3.412062406539917
1697732990858851800,6.091851806640625,-0.7269625067710876,0.6910749673843384,-3.4035375118255615
1697732990868269300,6.101269287109375,-0.8442500233650208,1.3153250217437744,-3.2654874324798584
1697732990877687300,6.110687255859375,-0.856487512588501,1.9750499725341797,-3.1579625606536865
1697732990887105000,6.12010498046875,-0.7942000031471252,2.521199941635132,-3.166487455368042
1697732990896522800,6.129522705078125,-0.7550125122070312,2.8583500385284424,-3.15301251411438
1697732990905940500,6.1389404296875,-0.7074375152587891,2.987874984741211,-3.0271999835968018
1697732990915358200,6.148358154296875,-0.7159624695777893,2.748349905014038,-2.74257493019104
1697732990924776000,6.15777587890625,-0.8357250094413757,1.9787625074386597,-2.2294249534606934
1697732990934193700,6.167193603515625,-0.9810624718666077,0.8388875126838684,-1.573412537574768
1697732990943611400,6.176611328125,-1.0262999534606934,-0.518512487411499,-0.9637374877929688
1697732990953029400,6.186029296875,-0.966487467288971,-1.8818249702453613,-0.5581125020980835
1697732990962446800,6.19544677734375,-0.8711999654769897,-2.915412425994873,-0.4030124843120575
1697732990971864600,6.204864501953125,-0.7832000255584717,-3.393087387084961,-0.4030124843120575
1697732990981282600,6.214282470703125,-0.7856749892234802,-3.3492250442504883,-0.40053749084472656
1697732990990700000,6.223699951171875,-0.8809624910354614,-2.5612125396728516,-0.5300624966621399
1697732991000117800,6.23311767578125,-1.0410125255584717,-1.1903375387191772,-0.9869750142097473
1697732991009535500,6.242535400390625,-1.227874994277954,-0.24598750472068787,-1.469462513923645
1697732991018953200,6.251953125,-1.4074499607086182,-0.048124998807907104,-1.6797000169754028
1697732991028371200,6.26137109375,-1.6187875270843506,-0.3596999943256378,-1.5867500305175781
1697732991037788700,6.27078857421875,-1.8375500440597534,-0.8104249835014343,-1.4084124565124512
1697732991047206400,6.280206298828125,-1.9388874769210815,-1.021762490272522,-1.3180749416351318
1697732991056624000,6.2896240234375,-1.9168875217437744,-0.9876624941825867,-1.2935999631881714
1697732991066041900,6.299041748046875,-1.8423625230789185,-0.9546625018119812,-1.272837519645691
1697732991075459800,6.3084599609375,-1.7678375244140625,-1.0181875228881836,-1.2458875179290771
1697732991084877300,6.317877197265625,-1.6799750328063965,-1.1477124691009521,-1.1787874698638916
1697732991094295000,6.327294921875,-1.5674999952316284,-1.379812479019165,-1.0102125406265259
1697732991103713000,6.336713134765625,-1.4257375001907349,-1.5569125413894653,-0.8317375183105469
1697732991113130800,6.346130859375,-1.2645875215530396,-1.7059625387191772,-0.7144500017166138
1697732991122548500,6.355548583984375,-1.0983500480651855,-1.952775001525879,-0.643637478351593
1697732991131966200,6.36496630859375,-0.8967750072479248,-2.1286375522613525,-0.49211248755455017
1697732991141384200,6.37438427734375,-0.7024874687194824,-2.204400062561035,-0.2942500114440918
1697732991150801700,6.3838017578125,-0.5583875179290771,-2.160399913787842,-0.07067500054836273
1697732991160219400,6.393219482421875,-0.5021499991416931,-2.001587390899658,0.17737500369548798
1697732991169637000,6.40263720703125,-0.47891250252723694,-1.5984375476837158,0.403425008058548
1697732991179055000,6.41205517578125,-0.47657498717308044,-1.1610499620437622,0.6159999966621399
1697732991188472800,6.421472900390625,-0.4606249928474426,-0.8421875238418579,0.7991499900817871
1697732991197890300,6.430890380859375,-0.38362500071525574,-0.6478999853134155,0.9556249976158142
1697732991207308300,6.440308349609375,-0.2578125,-0.5220875144004822,1.0874874591827393
1697732991216726000,6.44972607421875,-0.17599999904632568,-0.28022500872612,1.1877249479293823
1697732991226144000,6.45914404296875,-0.19923749566078186,0.23526249825954437,1.1412500143051147
1697732991235561500,6.4685615234375,-0.32257500290870667,0.941462516784668,0.9006249904632568
1697732991244979200,6.477979248046875,-0.2932874858379364,1.3886125087738037,0.5340499877929688
1697732991254397000,6.48739697265625,0.02433750033378601,1.0660375356674194,0.4351874887943268
1697732991263814700,6.496814697265625,0.4629625082015991,0.45526251196861267,1.01419997215271
1697732991273232400,6.506232421875,0.8233500123023987,0.5603125095367432,1.830262541770935
1697732991282650400,6.515650390625,1.081162452697754,0.6360750198364258,1.9524999856948853
1697732991292067800,6.52506787109375,0.8428750038146973,1.2835625410079956,1.4613499641418457
1697732991301485800,6.53448583984375,0.5106750130653381,1.7782875299453735,1.3208249807357788
1697732991310903600,6.543903564453125,0.6242499947547913,1.3323750495910645,1.4210624694824219
1697732991320321000,6.553321044921875,0.8478249907493591,0.8657000064849854,1.0422500371932983
1697732991329738800,6.56273876953125,0.8343499898910522,0.534600019454956,0.5267624855041504
1697732991339156700,6.57215673828125,0.944350004196167,0.3404499888420105,0.6305750012397766
1697732991348574500,6.581574462890625,1.1519750356674194,0.4235000014305115,1.043487548828125
1697732991357992200,6.5909921875,1.3450249433517456,0.3684999942779541,1.2658250331878662
1697732991367410000,6.600409912109375,1.4916000366210938,0.29397499561309814,1.2120624780654907
1697732991376827600,6.60982763671875,1.5747874975204468,0.3012624979019165,1.039912462234497
1697732991386245000,6.6192451171875,1.5906000137329102,0.3306874930858612,0.8969125151634216
1697732991395663000,6.6286630859375,1.5771249532699585,0.36973750591278076,0.8468624949455261
1697732991405080800,6.638080810546875,1.5625499486923218,0.3269749879837036,0.8419125080108643
1697732991414498300,6.647498291015625,1.5747874975204468,0.19868749380111694,0.8431500196456909
1697732991423916300,6.656916259765625,1.5856499671936035,0.16073749959468842,0.9116249680519104
1697732991433334000,6.666333984375,1.5210249423980713,0.08868750184774399,0.9861499667167664
1697732991442752000,6.675751953125,1.3963124752044678,-0.0518375001847744,1.0667250156402588
1697732991452169500,6.68516943359375,1.2387374639511108,-0.1434125006198883,1.1584374904632568
1697732991461587200,6.694587158203125,1.0689250230789185,-0.12388750165700912,1.2255375385284424
1697732991471005200,6.704005126953125,0.9333499670028687,-0.04441250115633011,1.2597750425338745
1697732991480422700,6.713422607421875,0.8551124930381775,0.0056374999694526196,1.2462999820709229
1697732991489840400,6.72284033203125,0.8001124858856201,0.03258749842643738,1.192537546157837
1697732991499258000,6.732258056640625,0.7182999849319458,-0.008937500417232513,1.148537516593933
1697732991508675800,6.74167578125,0.5997750163078308,-0.13846249878406525,1.1547249555587769
1697732991518093800,6.75109375,0.4800125062465668,-0.39022499322891235,1.1754875183105469
1697732991527511600,6.760511474609375,0.4189625084400177,-0.657800018787384,1.1694375276565552
1697732991536929000,6.769928955078125,0.37619999051094055,-0.903237521648407,1.1632499694824219
1697732991546347000,6.779346923828125,0.28338751196861267,-1.0779999494552612,1.1962499618530273
1697732991555764700,6.7887646484375,0.17710000276565552,-1.139050006866455,1.2524875402450562
1697732991565182500,6.798182373046875,0.09157499670982361,-1.084049940109253,1.314774990081787
1697732991574600200,6.80760009765625,0.030524998903274536,-0.9912375211715698,1.3831125497817993
1697732991584018000,6.817017822265625,0,-0.9229000210762024,1.441825032234192
1697732991593435600,6.826435546875,-0.042762499302625656,-0.864187479019165,1.480875015258789
1697732991602853400,6.835853271484375,-0.11371249705553055,-0.8153749704360962,1.5310624837875366
1697732991612271000,6.84527099609375,-0.19181250035762787,-0.767662525177002,1.6103999614715576
1697732991621688800,6.854688720703125,-0.2675749957561493,-0.7028999924659729,1.7056875228881836
1697732991631106600,6.8641064453125,-0.3188624978065491,-0.6125624775886536,1.7764999866485596
1697732991640524300,6.873524169921875,-0.3385249972343445,-0.5318499803543091,1.8229750394821167
1697732991649942000,6.88294189453125,-0.3372874855995178,-0.4525125026702881,1.8352124691009521
1697732991659359700,6.89235986328125,-0.3188624978065491,-0.34251248836517334,1.8071625232696533
1697732991668777500,6.901777587890625,-0.2737624943256378,-0.21546250581741333,1.7362124919891357
1697732991678195200,6.9111953125,-0.18205000460147858,-0.1274625062942505,1.617687463760376
1697732991687612700,6.92061279296875,-0.032999999821186066,-0.11769999563694,1.4345375299453735
1697732991697030700,6.93003076171875,0.1746249943971634,-0.1714625060558319,1.1987249851226807
1697732991706448400,6.939448486328125,0.3726249933242798,-0.23622499406337738,0.9261999726295471
1697732991715866400,6.948866455078125,0.4996750056743622,-0.33274999260902405,0.6978124976158142
1697732991725283800,6.958283935546875,0.5777750015258789,-0.3119874894618988,0.5597624778747559
1697732991734701600,6.96770166015625,0.5961999893188477,-0.14217500388622284,0.4974749982357025
1697732991744119600,6.97711962890625,0.620537519454956,-0.09336250275373459,0.5242875218391418
1697732991753537000,6.986537109375,0.6498249769210815,-0.1849374920129776,0.5720000267028809
1697732991762955000,6.995955078125,0.6657750010490417,-0.38403749465942383,0.5365250110626221
1697732991772372700,7.005372802734375,0.678012490272522,-0.5966125130653381,0.41552498936653137
1697732991781790200,7.014790283203125,0.6657750010490417,-0.7298499941825867,0.233474999666214
1697732991791208200,7.024208251953125,0.5790125131607056,-0.7016624808311462,0.030799999833106995
1697732991800626000,7.0336259765625,0.40191251039505005,-0.4842749834060669,-0.13791249692440033
1697732991810043600,7.043043701171875,0.1746249943971634,-0.09212499856948853,-0.2539624869823456
1697732991819461400,7.05246142578125,-0.023237500339746475,0.3306874930858612,-0.3394874930381775
1697732991828879000,7.061879150390625,-0.1344749927520752,0.600600004196167,-0.4298250079154968
1697732991838296800,7.071296875,-0.16499999165534973,0.6958875060081482,-0.5190625190734863
1697732991847714600,7.080714599609375,-0.12828749418258667,0.6703125238418579,-0.608162522315979
1697732991857132500,7.090132568359375,-0.052662499248981476,0.595787525177002,-0.7193999886512756
1697732991866550000,7.099550048828125,0.028049999848008156,0.4515500068664551,-0.8452125191688538
1697732991875967700,7.1089677734375,0.08428750187158585,0.23539999127388,-0.9454500079154968
1697732991885385500,7.118385498046875,0.10628750175237656,0.03135000169277191,-1.011312484741211
1697732991894803200,7.12780322265625,0.13186250627040863,-0.1434125006198883,-1.0443124771118164
1697732991904221200,7.13722119140625,0.18081249296665192,-0.2387000024318695,-1.028499960899353
1697732991913639000,7.146638916015625,0.22357499599456787,-0.2484624981880188,-0.957687497138977
1697732991923056400,7.156056396484375,0.23086249828338623,-0.1714625060558319,-0.8757374882698059
1697732991932474400,7.165474365234375,0.1966249942779541,-0.03217500075697899,-0.809737503528595
1697732991941892000,7.17489208984375,0.14533749222755432,0.15468749403953552,-0.7646374702453613
1697732991951309600,7.1843095703125,0.06710000336170197,0.27816250920295715,-0.7584499716758728
1697732991960727600,7.1937275390625,-0.16747500002384186,-0.5172749757766724,-1.181262493133545
1697732991970145000,7.20314501953125,-0.6671500205993652,-2.324162483215332,-2.3076624870300293
1697732991979562800,7.212562744140625,-1.005537509918213,-2.2923998832702637,-2.868387460708618
1697732991988980700,7.221980712890625,-1.176587462425232,-0.5990874767303467,-3.1029624938964844
1697732991998398500,7.2313984375,-1.1900625228881836,1.8748124837875366,-3.287487506866455
1697732992007816200,7.240816162109375,-1.1093499660491943,4.146037578582764,-3.3620123863220215
1697732992017234000,7.25023388671875,-1.0128250122070312,5.442249774932861,-3.2654874324798584
1697732992026651600,7.259651611328125,-0.852774977684021,5.553487300872803,-3.0809624195098877
1697732992036069400,7.2690693359375,-0.7379624843597412,4.461187362670898,-2.664337396621704
1697732992045487000,7.278487060546875,-0.781962513923645,2.2976250648498535,-1.9997999668121338
1697732992054904800,7.28790478515625,-0.8394374847412109,-0.30098751187324524,-1.4146000146865845
1697732992064322600,7.297322509765625,-0.7550125122070312,-2.1054000854492188,-1.1396000385284424
1697732992073740300,7.306740234375,-0.563337504863739,-2.765125036239624,-1.0883125066757202
1697732992083158000,7.316157958984375,-0.42281249165534973,-2.6893625259399414,-1.054075002670288
1697732992092576000,7.325575927734375,-0.3788124918937683,-2.3619749546051025,-0.9222124814987183
1697732992101993700,7.33499365234375,-0.4118124842643738,-2.114062547683716,-0.6766374707221985
1697732992111411200,7.3444111328125,-0.5803874731063843,-1.2392874956130981,-0.7621625065803528
1697732992120829000,7.353828857421875,-0.8357250094413757,0.5285499691963196,-1.732224941253662
1697732992130247000,7.363246826171875,-0.9982500076293945,1.1809874773025513,-2.372425079345703
1697732992139664600,7.37266455078125,-1.0873500108718872,0.780174970626831,-2.4897124767303467
1697732992149082400,7.382082275390625,-1.1521124839782715,0.20363749563694,-2.388237476348877
1697732992158500000,7.3915,-1.2083499431610107,-0.22398750483989716,-2.281949996948242
1697732992167917800,7.400917724609375,-1.227874994277954,-0.5306124687194824,-2.20989990234375
1697732992177335600,7.41033544921875,-1.2218250036239624,-0.654087483882904,-2.1389498710632324
1697732992186753000,7.4197529296875,-1.193637490272522,-0.7090874910354614,-2.046137571334839
1697732992196171000,7.4291708984375,-1.251112461090088,-0.8714749813079834,-1.9045125246047974
1697732992205588700,7.438588623046875,-1.368399977684021,-0.7420874834060669,-1.7590374946594238
1697732992215006500,7.44800634765625,-1.373212456703186,-0.7236624956130981,-1.5281749963760376
1697732992224424200,7.457424072265625,-1.2621124982833862,-1.2575750350952148,-1.3008874654769897
1697732992233842000,7.466842041015625,-1.0385375022888184,-1.808537483215332,-1.2056000232696533
1697732992243259600,7.476259765625,-0.7917249798774719,-1.9380625486373901,-1.1495000123977661
1697732992252677600,7.485677734375,-0.6036249995231628,-1.987012505531311,-1.0650750398635864
1697732992262095000,7.49509521484375,-0.46309998631477356,-1.870824933052063,-0.9600250124931335
1697732992271513000,7.50451318359375,-0.3726249933242798,-1.5019124746322632,-0.8379250168800354
1697732992280930600,7.5139306640625,-0.34581249952316284,-1.0034749507904053,-0.6973999738693237
1697732992290348300,7.523348388671875,-0.40562498569488525,-0.5440874695777893,-0.5568749904632568
1697732992299766300,7.532766357421875,-0.5620999932289124,-0.20569999516010284,-0.4175874888896942
1697732992309183700,7.542183837890625,-0.7232499718666077,-0.12870000302791595,-0.267300009727478
1697732992318601700,7.551601806640625,-0.7977749705314636,-0.335224986076355,-0.11948750168085098
1697732992328019500,7.56101953125,-0.7464874982833862,-0.6271374821662903,0.01979999989271164
1697732992337437200,7.570437255859375,-0.6036249995231628,-0.8544250130653381,0.15289999544620514
1697732992346855000,7.57985498046875,-0.46309998631477356,-0.8812375068664551,0.2946625053882599
1697732992356272600,7.589272705078125,-0.34952500462532043,-0.7420874834060669,0.4351874887943268
1697732992365690000,7.598690185546875,-0.24928750097751617,-0.4035624861717224,0.6050000190734863
1697732992375107800,7.60810791015625,-0.15152500569820404,0.09844999760389328,0.7906249761581421
1697732992384525800,7.61752587890625,-0.08195000141859055,0.7338374853134155,0.9799624681472778
1697732992393943600,7.626943603515625,-0.07576250284910202,1.4168000221252441,1.1022000312805176
1697732992403361300,7.636361328125,-0.10752499848604202,2.0873875617980957,1.1327250003814697
1697732992412779300,7.645779296875,-0.054999999701976776,2.4112000465393066,1.043487548828125
1697732992422196700,7.65519677734375,0.2381500005722046,1.6293749809265137,0.8493375182151794
1697732992431614500,7.664614501953125,0.6217749714851379,0.13392500579357147,0.7271000146865845
1697732992441032400,7.674032470703125,0.8918250203132629,-0.12870000302791595,1.1657249927520752
1697732992450450000,7.683449951171875,1.0604000091552734,0.7998374700546265,1.6984000205993652
1697732992563463000,7.796462890625,1.6113624572753906,0.9866999983787537,1.3623499870300293
1697732992572880600,7.805880615234375,1.544124960899353,0.7728874683380127,1.2744874954223633
1697732992582298400,7.81529833984375,1.5112625360488892,0.7496500015258789,1.2402499914169312
1697732992591716000,7.824716064453125,1.4830750226974487,0.6153125166893005,1.2035374641418457
1697732992601134000,7.834134033203125,1.4537874460220337,0.36726251244544983,1.1657249927520752
1697732992610551600,7.843551513671875,1.4464999437332153,0.1266375035047531,1.122962474822998
1697732992619969300,7.85296923828125,1.4355000257492065,-0.035887498408555984,1.1022000312805176
1697732992629387300,7.86238720703125,1.4073125123977661,-0.1311749964952469,1.0960124731063843
1697732992638804700,7.8718046875,1.3413125276565552,-0.1568875014781952,1.0814374685287476
1697732992648222500,7.881222412109375,1.2374999523162842,-0.11522500216960907,1.085012435913086
1697732992657640400,7.890640380859375,1.0652124881744385,-0.08112499862909317,1.1070125102996826
1697732992667058000,7.900057861328125,0.8941624760627747,-0.07246249914169312,1.1364375352859497
1697732992676476000,7.909475830078125,0.7647749781608582,-0.10546249896287918,1.1632499694824219
1697732992685893400,7.918893310546875,0.6487249732017517,-0.17641249299049377,1.1999624967575073
1697732992695311000,7.92831103515625,0.5582500100135803,-0.2839374840259552,1.226775050163269
1697732992704728800,7.937728759765625,0.5044875144958496,-0.4035624861717224,1.26829993724823
1697732992714146800,7.947146728515625,0.45196250081062317,-0.5526124835014343,1.342824935913086
1697732992723564500,7.956564453125,0.3334375023841858,-0.6931374669075012,1.397825002670288
1697732992732982300,7.965982177734375,0.12457499653100967,-0.8544250130653381,1.4003000259399414
1697732992742400000,7.97539990234375,-0.057475000619888306,-1.025475025177002,1.3745875358581543
1697732992751817700,7.984817626953125,-0.16376249492168427,-1.1195249557495117,1.3172500133514404
1697732992761235500,7.9942353515625,-0.2162874937057495,-1.0804749727249146,1.2622499465942383
1697732992770653200,8.003653076171876,-0.25052499771118164,-0.9204249978065491,1.2390124797821045
1697732992780071000,8.01307080078125,-0.2835249900817871,-0.7176125049591064,1.2427250146865845
1697732992789488600,8.022488525390624,-0.2932874858379364,-0.5416125059127808,1.2548249959945679
1697732992798906400,8.03190625,-0.26633748412132263,-0.42803749442100525,1.2439625263214111
1697732992808324000,8.041323974609375,-0.25905001163482666,-0.36822500824928284,1.223062515258789
1697732992817741800,8.050741943359375,-0.2870999872684479,-0.31075000762939453,1.1877249479293823
1697732992827159600,8.06015966796875,-0.305525004863739,-0.2204124927520752,1.135200023651123
1697732992836577500,8.06957763671875,-0.2675749957561493,-0.14464999735355377,1.0862499475479126
1697732992845995300,8.078995361328126,-0.1662375032901764,-0.14464999735355377,1.0386749505996704
1697732992855412700,8.088412841796876,-0.08195000141859055,-0.16169999539852142,0.9677249789237976
1697732992864830700,8.097830810546874,-0.03918749839067459,-0.12622499465942383,0.860337495803833
1697732992874248400,8.10724853515625,0.03657500073313713,0.03863750025629997,0.738099992275238
1697732992883666000,8.116666015625,0.1428624987602234,0.1779250055551529,0.5755749940872192
1697732992893084000,8.126083984375,0.19910000264644623,0.22316250205039978,0.3899500072002411
1697732992902501600,8.135501708984375,0.20886249840259552,0.1779250055551529,0.2677125036716461
1697732992911919000,8.144919189453125,0.20391249656677246,0.0789249986410141,0.2554749846458435
1697732992921337000,8.154337158203125,0.2063875049352646,-0.040699999779462814,0.35199999809265137
1697732992930754600,8.163754638671875,0.2283875048160553,-0.19717499613761902,0.5084750056266785
1697732992940172500,8.173172607421876,0.2601499855518341,-0.3815625011920929,0.6550499796867371
1697732992949590300,8.18259033203125,0.3004375100135803,-0.5220875144004822,0.768625020980835
1697732992959008000,8.192008056640624,0.3371500074863434,-0.6003249883651733,0.8333874940872192
1697732992968425700,8.20142578125,0.3786749839782715,-0.645562469959259,0.8101499676704407
1697732992977843500,8.210843505859375,0.36038750410079956,-0.6333249807357788,0.6550499796867371
1697732992987261200,8.22026123046875,0.2956250011920929,-0.5233250260353088,0.3606624901294708
1697732992996679000,8.229678955078125,0.2125750035047531,-0.26922500133514404,-0.03162499889731407
1697732993006096600,8.2390966796875,0.12815000116825104,0.1106875017285347,-0.41635000705718994
1697732993015514400,8.248514404296875,0.06462500244379044,0.4918375015258789,-0.6924499869346619
1697732993024932000,8.25793212890625,0.007287499960511923,0.8303624987602234,-0.8366875052452087
1697732993034349800,8.267349853515626,-0.04166249930858612,1.0770374536514282,-0.8744999766349792
1697732993043767600,8.276767578125,-0.052662499248981476,1.2139874696731567,-0.8427374958992004
1697732993053185500,8.286185546875,-0.01223750039935112,1.2627999782562256,-0.7596874833106995
1697732993062603300,8.295603271484374,0.1013374999165535,1.1149874925613403,-0.6168249845504761
1697732993072021000,8.30502099609375,0.2320999950170517,0.780174970626831,-0.5092999935150146
1697732993081438700,8.314438720703125,0.36643749475479126,0.3330250084400177,-0.4628250002861023
1697732993090856200,8.323856201171875,0.5240125060081482,-0.14698749780654907,-0.4493499994277954
1697732993100274000,8.33327392578125,0.6547750234603882,-0.5000874996185303,-0.4493499994277954
1697732993109691600,8.342691650390625,0.7280625104904175,-0.676087498664856,-0.45058751106262207
1697732993119109600,8.352109619140625,0.7415375113487244,-0.7028999924659729,-0.43834999203681946
1697732993128527000,8.361527099609376,0.678012490272522,-0.6003249883651733,-0.3870624899864197
1697732993137945000,8.370945068359376,0.5240125060081482,-0.3474625051021576,-0.34677499532699585
1697732993147362800,8.38036279296875,0.2881999909877777,-0.06270000338554382,-0.5983999967575073
1697732993156780500,8.389780517578124,-0.00494999997317791,0.03135000169277191,-1.3583624362945557
1697732993166198300,8.3991982421875,-0.2798124849796295,0.16940000653266907,-2.2037124633789062
1697732993175616000,8.408615966796875,-0.4581499993801117,0.6690750122070312,-2.758387565612793
1697732993185033700,8.41803369140625,-0.5779125094413757,1.4326125383377075,-2.985675096511841
1697732993194451500,8.427451416015625,-0.6829624772071838,2.4392499923706055,-3.131012439727783
1697732993203869200,8.436869140625,-0.717199981212616,3.4997875690460205,-3.225062370300293
1697732993213287000,8.446286865234375,-0.7452499866485596,4.298799991607666,-3.194537401199341
1697732993222704600,8.45570458984375,-0.7367249727249146,4.585899829864502,-3.0199124813079834
1697732993232122600,8.46512255859375,-0.6609625220298767,4.149749755859375,-2.746150016784668
1697732993241540000,8.4745400390625,-0.6194375157356262,2.9853999614715576,-2.3540000915527344
1697732993250957800,8.483957763671874,-0.6133875250816345,1.3923250436782837,-1.8995624780654907
1697732993260375600,8.49337548828125,-0.5816249847412109,-0.09693749994039536,-1.557462453842163
1697732993269793300,8.502793212890625,-0.5449125170707703,-1.1122374534606934,-1.3876500129699707
1697732993279211000,8.5122109375,-0.5461499691009521,-1.6900124549865723,-1.2716000080108643
1697732993288628700,8.521628662109375,-0.5583875179290771,-2.0285375118255615,-1.1262625455856323
1697732993298046500,8.53104638671875,-0.6402000188827515,-2.3619749546051025,-0.936787486076355
1697732993307464200,8.540464111328125,-0.8332499861717224,-2.2923998832702637,-0.909974992275238
1697732993316882000,8.5498818359375,-1.0983500480651855,-1.6644375324249268,-1.1495000123977661
1697732993326299600,8.559299560546876,-1.3292125463485718,-0.955762505531311,-1.5001250505447388
1697732993335717400,8.56871728515625,-1.4904999732971191,-0.5257999897003174,-1.7419874668121338
1697732993345135000,8.578135009765624,-1.6322624683380127,-0.26317501068115234,-1.8825124502182007
1697732993354553000,8.587552978515625,-1.726312518119812,-0.33646249771118164,-2.0083250999450684
1697732993363970800,8.596970703125,-1.7507874965667725,-0.7213249802589417,-2.065662384033203
1697732993373388300,8.60638818359375,-1.7275500297546387,-1.1292874813079834,-2.0400874614715576
1697732993382806300,8.61580615234375,-1.6677374839782715,-1.357812523841858,-1.9826124906539917
1697732993392223700,8.6252236328125,-1.621262550354004,-1.4653375148773193,-1.8922749757766724
1697732993401641700,8.634641845703126,-1.5919749736785889,-1.4346749782562256,-1.7700375318527222
1697732993411059500,8.6440595703125,-1.5577374696731567,-1.2245750427246094,-1.6417499780654907
1697732993420477200,8.653477294921874,-1.4294500350952148,-1.0059499740600586,-1.5074124336242676
1697732993429895000,8.66289501953125,-1.2876875400543213,-0.8959500193595886,-1.3351249694824219
1697732993439312600,8.672312744140624,-1.1692999601364136,-0.9106624722480774,-1.1653125286102295
1697732993448730600,8.681730712890625,-1.0080125331878662,-0.8654249906539917,-0.9917874932289124
1697732993458148000,8.691148193359375,-0.8197749853134155,-0.7761874794960022,-0.8452125191688538
1697732993467566000,8.700566162109375,-0.6804875135421753,-0.8581374883651733,-0.7206375002861023
1697732993476983800,8.70998388671875,-0.5803874731063843,-1.1695749759674072,-0.6509249806404114
1697732993486401300,8.7194013671875,-0.5046250224113464,-1.4115749597549438,-0.5874000191688538
1697732993495819300,8.7288193359375,-0.4288625121116638,-1.4641000032424927,-0.46406251192092896
1697732993505236700,8.73823681640625,-0.41909998655319214,-1.271049976348877,-0.234437495470047
1697732993514654700,8.74765478515625,-0.36162498593330383,-1.1232374906539917,-0.0034374999813735485
1697732993524072400,8.757072509765624,-0.3188624978065491,-1.2025749683380127,0.15661250054836273
1697732993533490000,8.766489990234374,-0.29809999465942383,-1.3198624849319458,0.29589998722076416
1697732993542908000,8.775907958984375,-0.25533750653266907,-1.3113374710083008,0.46447500586509705
1697732993552325600,8.78532568359375,-0.15771250426769257,-1.1892374753952026,0.6928625106811523
1697732993561743000,8.7947431640625,-0.04166249930858612,-0.9021375179290771,0.9506750106811523
1697732993571161000,8.8041611328125,0.07452499866485596,-0.3339875042438507,1.143725037574768
1697732993580578800,8.813578857421875,0.17586250603199005,0.41126251220703125,1.1376750469207764
1697732993589996500,8.82299658203125,0.2723875045776367,1.0489875078201294,0.9653875231742859
1697732993599414300,8.832414306640626,0.40796250104904175,1.0392249822616577,0.8626750111579895
1697732993608832000,8.84183203125,0.5839625000953674,0.5310249924659729,1.060675024986267
1697732993618249700,8.851249755859374,0.7683500051498413,0.48454999923706055,1.651924967765808
1697732993627667500,8.86066748046875,0.9809250235557556,0.9512249827384949,2.229837417602539
1697732993637085200,8.870085205078125,1.0041625499725342,1.9995249509811401,2.091787576675415
1697732993646503000,8.8795029296875,0.620537519454956,3.001349925994873,1.8082624673843384
1697732993655920600,8.888920654296875,0.4054875075817108,2.3806750774383545,1.8327374458312988
1697732993665338600,8.898338623046875,0.467912495136261,1.0147500038146973,1.6801124811172485
1697732993674756000,8.907756103515625,0.48124998807907104,0.1522125005722046,1.2450624704360962
1697732993684173800,8.917173828125,0.5424374938011169,-0.10917499661445618,0.939674973487854
1697732993693591800,8.926591796875,0.7550125122070312,0.4735499918460846,1.0729124546051025
1697732993703009300,8.93600927734375,0.9773499965667725,1.0795124769210815,1.4588749408721924
1697732993712427000,8.945427001953124,1.1825000047683716,1.2260874509811401,1.7594499588012695
1697732993721845000,8.954844970703125,1.3829749822616577,1.0624624490737915,1.8412624597549438
1697732993731262500,8.964262451171875,1.601599931716919,0.8694124817848206,1.7729250192642212
1697732993740680200,8.97368017578125,1.7763625383377075,0.7581750154495239,1.643399953842163
1697732993750098000,8.983097900390625,1.876462459564209,0.7056499719619751,1.5053499937057495
1697732993759515600,8.992515625,1.9131749868392944,0.644599974155426,1.3648250102996826
1697732993768933400,9.001933349609375,1.9106999635696411,0.46502500772476196,1.2207249402999878
1697732993778351000,9.01135107421875,1.888700008392334,0.18645000457763672,1.1327250003814697
1697732993787768800,9.020768798828126,1.8336999416351318,-0.09446249902248383,1.118012547492981
1697732993797186800,9.030186767578124,1.7958874702453613,-0.35227498412132263,1.1387749910354614
1697732993806604500,9.0396044921875,1.7701749801635742,-0.549037516117096,1.1534874439239502
1697732993816022300,9.049022216796875,1.6993625164031982,-0.6430875062942505,1.171774983406067
1697732993825440000,9.05843994140625,1.5710749626159668,-0.7761874794960022,1.188962459564209
1697732993834857500,9.067857421875,1.3572624921798706,-0.8971874713897705,1.2317249774932861
1697732993844275500,9.077275390625,1.101925015449524,-0.9374749660491943,1.2732499837875366
1697732993853693200,9.086693115234375,0.8575875163078308,-0.9448999762535095,1.3098249435424805
1697732993863111000,9.09611083984375,0.6474875211715698,-1.0034749507904053,1.346537470817566
1697732993872528600,9.105528564453126,0.4959625005722046,-0.9802374839782715,1.358775019645691
1697732993881946400,9.1149462890625,0.3689124882221222,-0.9142374992370605,1.338012456893921
1697732993891364000,9.124364013671874,0.2149125039577484,-0.9216625094413757,1.3135374784469604
1697732993900781800,9.13378173828125,0.07562500238418579,-0.9289500117301941,1.2707749605178833
1697732993910199800,9.14319970703125,-0.002474999986588955,-0.8727124929428101,1.201200008392334
1697732993919617300,9.1526171875,-0.04647500067949295,-0.8189499974250793,1.126675009727478
1697732993929035000,9.162034912109375,-0.08318749815225601,-0.8141375184059143,1.085012435913086
1697732993938453000,9.171452880859375,-0.10395000129938126,-0.8079500198364258,1.0814374685287476
1697732993947870700,9.18087060546875,-0.10876250267028809,-0.8238999843597412,1.0997250080108643
1697732993957288200,9.1902880859375,-0.10271249711513519,-0.867900013923645,1.131487488746643
1697732993966706000,9.199705810546876,-0.10271249711513519,-0.9264749884605408,1.1694375276565552
1697732993976124000,9.2091240234375,-0.15152500569820404,-0.9484750032424927,1.1999624967575073
1697732993985541400,9.218541259765624,-0.21147499978542328,-0.9204249978065491,1.2170125246047974
1697732993994959000,9.227958984375,-0.28228750824928284,-0.8629499673843384,1.1999624967575073
1697732994004377000,9.237377197265625,-0.3115749955177307,-0.806850016117096,1.1461999416351318
1697732994013794600,9.246794677734375,-0.26028749346733093,-0.7958499789237976,1.0960124731063843
1697732994023212300,9.25621240234375,-0.20528750121593475,-0.7640874981880188,1.03125
1697732994032630300,9.26563037109375,-0.15028749406337738,-0.6161375045776367,0.9886249899864197
1697732994042048000,9.275048095703125,-0.09171249717473984,-0.34251248836517334,0.9506750106811523
1697732994051465700,9.2844658203125,-0.01966249942779541,-0.11288750171661377,0.9079124927520752
1697732994060883500,9.293883544921876,0.07809999585151672,0.0008249999955296516,0.8358625173568726
1697732994070301200,9.30330126953125,0.202674999833107,-0.012649999931454659,0.7418124675750732
1697732994079719000,9.312718994140624,0.2956250011920929,-0.2167000025510788,0.6452875137329102
1697732994089136600,9.32213671875,0.3396250009536743,-0.5832750201225281,0.593999981880188
1697732994098554400,9.331554443359375,0.4409624934196472,-1.008424997329712,0.607337474822998
1697732994107972000,9.34097216796875,0.5227749943733215,-1.3773374557495117,0.6733375191688538
1697732994117389800,9.350389892578125,0.5289624929428101,-1.6154874563217163,0.7173374891281128
1697732994126807800,9.359807861328125,0.48372501134872437,-1.6924874782562256,0.7271000146865845
1697732994136225500,9.3692255859375,0.4031499922275543,-1.5984375476837158,0.7063375115394592
1697732994145643000,9.37864306640625,0.27719998359680176,-1.3785749673843384,0.6708624958992004
1697732994155060700,9.388060791015626,0.10009999573230743,-1.0059499740600586,0.6147624850273132
1697732994164478700,9.397478759765624,-0.07576250284910202,-0.5648499727249146,0.49252501130104065
1697732994173896400,9.406896484375,-0.16747500002384186,-0.2129874974489212,0.30799999833106995
1697732994183314200,9.416314208984375,-0.18700000643730164,0.030112499371170998,0.09913749992847443
1697732994192732000,9.42573193359375,-0.1467124968767166,0.23045000433921814,-0.08538749814033508
1697732994202149400,9.4351494140625,-0.03423750028014183,0.34773749113082886,-0.20996250212192535
1697732994211567400,9.4445673828125,0.12333749979734421,0.3782624900341034,-0.27101248502731323
1697732994220985000,9.453985107421875,0.24667499959468842,0.406312495470047,-0.3137750029563904
1697732994230402800,9.46340283203125,0.3199625015258789,0.4992625117301941,-0.39806249737739563
1697732994239820500,9.472820556640626,0.428725004196167,0.5615500211715698,-0.5313000082969666
1697732994249238300,9.48223828125,0.5130124688148499,0.5542625188827515,-0.7059249877929688
1697732994258655700,9.49165576171875,0.5985375046730042,0.4797374904155731,-0.9062625169754028
1697732994268073700,9.50107373046875,0.669487476348877,0.3147374987602234,-1.106737494468689
1697732994277491500,9.510491455078125,0.7122499942779541,0.06668750196695328,-1.299649953842163
1697732994286909200,9.5199091796875,0.7378249764442444,-0.2447499930858612,-1.5012249946594238
1697732994296327000,9.529326904296875,0.7561125159263611,-0.6137999892234802,-1.6857500076293945
1697732994305744600,9.53874462890625,0.7220125198364258,-1.0157124996185303,-1.9435625076293945
1697732994315162600,9.54816259765625,0.6400625109672546,-1.4786750078201294,-2.3540000915527344
1697732994324580000,9.557580078125,0.5655375123023987,-1.6594874858856201,-2.854912519454956
1697732994333997800,9.566997802734376,0.5044875144958496,-1.459149956703186,-3.3350625038146973
1697732994343415600,9.57641552734375,0.5447750091552734,-0.9839500188827515,-3.712637424468994
1697732994352833300,9.585833251953124,0.4776749908924103,-0.19346250593662262,-3.9715499877929688
1697732994362251000,9.5952509765625,0.26510000228881836,1.1845624446868896,-3.903212547302246
1697732994371668700,9.604668701171875,0.1270499974489212,2.90482497215271,-3.5415875911712646
1697732994381086700,9.614086669921875,0.09157499670982361,4.389137268066406,-3.0859124660491943
1697732994390504200,9.623504150390625,0.06228749826550484,5.366487503051758,-2.7083375453948975
1697732994399922000,9.632921875,-0.11247500032186508,5.34448766708374,-2.521475076675415
1697732994409340000,9.64233984375,-0.45086249709129333,4.49171257019043,-2.405287504196167
1697732994418757400,9.65175732421875,-1.1753499507904053,2.2438623905181885,-2.1488499641418457
1697732994428175000,9.661175048828126,-1.8081250190734863,-0.1274625062942505,-1.8310874700546265
1697732994437592800,9.6705927734375,-1.8387874364852905,-1.7854374647140503,-1.6002249717712402
1697732994447010600,9.680010498046874,-1.5199249982833862,-2.5709750652313232,-1.6039375066757202
1697732994456428300,9.68942822265625,-1.1570625305175781,-3.488374948501587,-1.5599374771118164
1697732994465846300,9.69884619140625,-0.7501999735832214,-4.397387504577637,-1.7688000202178955
1697732994475263700,9.708263671875,-0.32010000944137573,-5.384500026702881,-3.0907249450683594
1697732994484681700,9.717681640625,0.16238750517368317,-5.042399883270264,-4.379650115966797
1697732994494099500,9.727099365234375,0.5961999893188477,-3.839137554168701,-4.919612407684326
1697732994503517200,9.73651708984375,0.7585874795913696,-2.4952125549316406,-4.765749931335449
1697732994512935000,9.745934814453125,0.5875374674797058,-1.3590500354766846,-4.070549964904785
1697732994522352600,9.7553525390625,0.1611499935388565,0.09239999949932098,-3.113962411880493
1697732994531770400,9.764770263671876,-0.3605250120162964,1.2725625038146973,-2.281949996948242
1697732994541188000,9.77418798828125,-0.9444875121116638,1.614662528038025,-1.7554625272750854
1697732994550605600,9.78360546875,-1.4966875314712524,1.178512454032898,-1.6002249717712402
1697732994560023600,9.7930234375,-1.9596500396728516,0.26221248507499695,-1.9606125354766846
1697732994569441300,9.802441162109375,-2.118462562561035,-0.8788999915122986,-2.7878124713897705
1697732994649492000,9.882491943359375,-0.5656750202178955,-0.6210874915122986,-1.0650750398635864
1697732994658909700,9.89190966796875,-0.5326749682426453,-0.4012250006198883,-0.6021124720573425
1697732994668327400,9.901327392578125,-0.4361499845981598,-0.24722500145435333,-0.19043749570846558
1697732994677745200,9.9107451171875,-0.38733750581741333,-0.2129874974489212,0.11508750170469284
1697732994687163100,9.9201630859375,-0.4081000089645386,-0.4683249890804291,0.29589998722076416
1697732994696580600,9.92958056640625,-0.47891250252723694,-0.7346624732017517,0.34595000743865967
1697732994705998300,9.938998291015626,-0.5486249923706055,-0.9191874861717224,0.3227125108242035
1697732994715416000,9.948416015625,-0.6158624887466431,-1.1855249404907227,0.3190000057220459
1697732994724833800,9.957833740234374,-0.7221499681472778,-1.4066250324249268,0.4045250117778778
1697732994734251800,9.967251708984374,-0.8772500157356262,-1.4933874607086182,0.5560500025749207
1697732994743669500,9.97666943359375,-1.0507750511169434,-1.471387505531311,0.7148625254631042
1697732994753087200,9.986087158203125,-1.2388750314712524,-1.4078625440597534,0.8786249756813049
1697732994762505000,9.9955048828125,-1.3536875247955322,-1.354099988937378,1.0289125442504883
1697732994771922400,10.00492236328125,-1.385450005531311,-1.4030499458312988,1.044724941253662
1697732994781340400,10.01434033203125,-1.4794999361038208,-1.296762466430664,0.9421499967575073
1697732994790758000,10.0237578125,-1.473449945449829,-0.806850016117096,0.7123875021934509
1697732994800175900,10.03317578125,-1.3464000225067139,-0.09569999575614929,0.40700000524520874
1697732994809593600,10.042593505859376,-1.0005874633789062,-0.10793749988079071,0.45704999566078186
1697732994819011600,10.052011474609374,-0.40562498569488525,-0.6333249807357788,0.6721000075340271
1697732994828429000,10.061428955078124,-0.08923749625682831,-0.867900013923645,0.4998124837875366
1697732994837846800,10.0708466796875,-0.06847500056028366,-1.1708124876022339,0.7796249985694885
1697732994847264500,10.080264404296875,0.520437479019165,-1.545912504196167,1.105774998664856
1697732994856682200,10.08968212890625,0.6962999701499939,-1.004712462425232,1.3098249435424805
1697732994866100200,10.099100341796875,0.21738749742507935,-0.49898749589920044,1.2573000192642212
1697732994875517700,10.108517578125,-0.16376249492168427,-0.2704625129699707,1.3085875511169434
1697732994884935400,10.117935302734375,-0.2773374915122986,-0.25341248512268066,1.6531624794006348
1697732994894353400,10.127353515625,-0.15152500569820404,-0.2862749993801117,1.8364499807357788
1697732994903771100,10.136771240234374,0.1073874980211258,-0.006599999964237213,1.8022124767303467
1697732994913188600,10.146188720703124,0.428725004196167,0.39902499318122864,1.896262526512146
1697732994922606600,10.155606689453125,0.761062502861023,0.7655999660491943,2.1235499382019043
1697732994932024000,10.165024169921875,1.018875002861023,1.050225019454956,2.259124994277954
1697732994941442000,10.174442138671875,1.144687533378601,1.3092750310897827,2.391124963760376
1697732994950859500,10.183859619140625,1.1569249629974365,1.5731375217437744,2.582937479019165
1697732994960277200,10.19327734375,1.1434500217437744,1.8675249814987183,2.8065125942230225
1697732994969695000,10.202695068359375,1.1471624374389648,2.1228625774383545,3.0031375885009766
1697732994979113000,10.212113037109376,1.153212547302246,2.3854875564575195,3.159475088119507
1697732994988530700,10.22153076171875,1.2302124500274658,2.660487413406372,3.2902374267578125
1697732994997948400,10.230948486328124,1.3255000114440918,2.797300100326538,3.39528751373291
1697732995007366000,10.240365966796874,1.442787528038025,2.772825002670288,3.417287588119507
1697732995016784000,10.249783935546875,1.5698374509811401,2.78629994392395,3.3159499168395996
1697732995026201600,10.25920166015625,1.6516499519348145,2.6958250999450684,3.1949498653411865
1697732995035619300,10.268619384765625,1.727412462234497,2.453962564468384,3.0434250831604004
1697732995045037000,10.278037109375,1.7641249895095825,1.9835749864578247,2.8663249015808105
1697732995054454800,10.287454833984375,1.8374124765396118,1.1552749872207642,2.6024625301361084
1697732995063872500,10.29687255859375,1.9314625263214111,0.07163749635219574,2.1687874794006348
1697732995073290200,10.306290283203126,1.9705125093460083,-0.9594749808311462,1.6691124439239502
1697732995082708000,10.3157080078125,2.027987480163574,-1.5691499710083008,1.2670625448226929
1697732995092125700,10.325125732421874,2.049987554550171,-1.9967750310897827,0.8834375143051147
1697732995101543400,10.33454345703125,2.012037515640259,-2.437737464904785,0.5658124685287476
1697732995110961400,10.34396142578125,1.8984625339508057,-2.887362480163574,0.3324750065803528
1697732995120379000,10.35337890625,1.6113624572753906,-3.4090375900268555,0.14190000295639038
1697732995129796900,10.362796875,1.2362624406814575,-3.8634750843048096,0.023375000804662704
1697732995139214600,10.372214599609375,0.9686874747276306,-4.110287666320801,0.018562499433755875
1697732995148632000,10.381632080078125,0.9040625095367432,-4.210525035858154,0.07466249912977219
1697732995158049800,10.3910498046875,0.9906874895095825,-4.242287635803223,0.1676124930381775
1697732995167467500,10.400467529296876,1.1177375316619873,-4.050475120544434,0.33371248841285706
1697732995176885200,10.40988525390625,1.1679250001907349,-3.7388999462127686,0.5072374939918518
1697732995186303000,10.419302978515624,1.1141624450683594,-3.328462600708008,0.6550499796867371
1697732995195720700,10.428720703125,0.9321125149726868,-2.926412582397461,0.7343875169754028
1697732995205138700,10.438138671875,0.6487249732017517,-2.640549898147583,0.7601000070571899
1697732995214556200,10.44755615234375,0.28943750262260437,-2.5880250930786133,0.7148625254631042
1697732995223974000,10.456973876953125,-0.08318749815225601,-2.776124954223633,0.5853375196456909
1697732995233391600,10.4663916015625,-0.3848625123500824,-3.075462579727173,0.45223748683929443
1697732995242809600,10.4758095703125,-0.5669124722480774,-3.2844624519348145,0.35571250319480896
1697732995252227300,10.485227294921875,-0.6573874950408936,-3.3320374488830566,0.2946625053882599
1697732995261645000,10.49464501953125,-0.6707249879837036,-3.3125123977661133,0.2616625130176544
1697732995271062800,10.504062744140626,-0.6096749901771545,-3.1927499771118164,0.2909500002861023
1697732995280480500,10.51348046875,-0.5314375162124634,-2.9838874340057373,0.3727625012397766
1697732995289898200,10.522898193359374,-0.4643374979496002,-2.678499937057495,0.5084750056266785
1697732995299316000,10.53231591796875,-0.4606249928474426,-2.353450059890747,0.6733375191688538
1697732995308733700,10.541733642578125,-0.4899125099182129,-2.0883500576019287,0.8163374662399292
1697732995318151400,10.5511513671875,-0.5046250224113464,-1.8990124464035034,0.9238625168800354
1697732995327569200,10.560569091796875,-0.4838624894618988,-1.7511999607086182,0.9884874820709229
1697732995336987100,10.569987060546875,-0.43505001068115234,-1.5972000360488892,1.0019625425338745
1697732995346404900,10.57940478515625,-0.3568125069141388,-1.4200999736785889,0.9776250123977661
1697732995355822300,10.588822265625,-0.2652375102043152,-1.2368124723434448,0.9238625168800354
1697732995365240000,10.598239990234376,-0.15523749589920044,-1.0462374687194824,0.8529124855995178
1697732995374658000,10.607657958984374,-0.052662499248981476,-0.8421875238418579,0.7881500124931335
1697732995384075500,10.617075439453124,0.0035749999806284904,-0.7078499794006348,0.7148625254631042
1697732995393493500,10.626493408203125,0.025575000792741776,-0.6687999963760376,0.6465250253677368
1697732995402911000,10.635910888671875,0.02433750033378601,-0.7041375041007996,0.593999981880188
1697732995412329000,10.645328857421875,0.028049999848008156,-0.7811374664306641,0.5707625150680542
1697732995421746700,10.65474658203125,0.05857500061392784,-0.8849499821662903,0.5853375196456909
1697732995431164200,10.6641640625,0.09638749808073044,-1.0449999570846558,0.6257625222206116
1697732995440582100,10.67358203125,0.14409999549388885,-1.2612874507904053,0.6623374819755554
1697732995450000000,10.682999755859376,0.20391249656677246,-1.5056250095367432,0.685575008392334
1697732995459417300,10.692417236328126,0.27114999294281006,-1.7646750211715698,0.6965749859809875
1697732995468835300,10.70183544921875,0.3591499924659729,-2.0883500576019287,0.677049994468689
1697732995478253000,10.711253173828124,0.4507249891757965,-2.5012624263763428,0.6147624850273132
1697732995487670500,10.72067041015625,0.5154874920845032,-2.9203624725341797,0.48399999737739563
1697732995497088500,10.730088623046875,0.5154874920845032,-3.1805124282836914,0.2579500079154968
1697732995506506200,10.73950634765625,0.47148749232292175,-3.0864624977111816,-0.02667500078678131
1697732995515923700,10.748923828125,0.4189625084400177,-2.5770249366760254,-0.28806251287460327
1697732995525341700,10.758341796875,0.35791251063346863,-1.8134875297546387,-0.49953749775886536
1697732995534759200,10.76775927734375,0.3016749918460846,-1.108525037765503,-0.7071624994277954
1697732995544177000,10.777177001953126,0.3273875117301941,-0.5685625076293945,-0.8929250240325928
1697732995553595000,10.786594970703124,0.42996248602867126,-0.260699987411499,-1.0602624416351318
1697732995563012400,10.796012451171874,0.5545374751091003,-0.1849374920129776,-1.1922625303268433
1697732995572430300,10.805430419921874,0.6474875211715698,-0.2106499969959259,-1.2935999631881714
1697732995581848000,10.81484814453125,0.7220125198364258,-0.13488750159740448,-1.4059374332427979
1697732995591265800,10.824265869140625,0.8075374960899353,0.04592499881982803,-1.5636500120162964
1697732995600683500,10.83368359375,0.8636375069618225,0.20239999890327454,-1.827512502670288
1697732995610101200,10.843101318359375,0.8318749666213989,0.3330250084400177,-2.1573750972747803
1697732995619518700,10.852518798828125,0.7402999997138977,0.4100250005722046,-2.460287570953369
1697732995628936700,10.861936767578126,0.6157249808311462,0.534600019454956,-2.7083375453948975
1697732995638354400,10.8713544921875,0.4996750056743622,0.5895999670028687,-2.896437406539917
1697732995647772200,10.880772216796874,0.3909125030040741,0.6177874803543091,-3.118774890899658
1697732995657189600,10.890189697265624,0.3004375100135803,0.6298875212669373,-3.481637477874756
1697732995666607400,10.899607421875,0.26633748412132263,0.6078875064849854,-3.746737480163574
1697732995676025300,10.909025390625,0.2638624906539917,0.5310249924659729,-3.754162549972534
1697732995685443000,10.918443115234375,0.2223374992609024,0.4320249855518341,-3.6221625804901123
1697732995694860500,10.927860595703125,0.14657500386238098,0.3550249934196472,-3.4498748779296875
1697732995704278500,10.937278564453125,0.05362499877810478,0.35378751158714294,-3.2153000831604004
1697732995713696000,10.946696044921875,-0.04895000159740448,0.39297500252723694,-2.9477250576019287
1697732995723114000,10.956114013671876,-0.14176249504089355,0.35144999623298645,-2.746150016784668
1697732995732531700,10.96553173828125,-0.233474999666214,0.20239999890327454,-2.5947625637054443
1697732995741949400,10.974949462890624,-0.29809999465942383,0.027637500315904617,-2.4347124099731445
1697732995751367200,10.9843671875,-0.329862505197525,-0.23498749732971191,-2.277137517929077
1697732995760785000,10.993784912109374,-0.3592875003814697,-0.6150375008583069,-2.139087438583374
1697732995770203000,11.003202880859375,-0.4288625121116638,-1.0401874780654907,-2.0253748893737793
1697732995779620400,11.012620361328125,-0.524150013923645,-1.5190999507904053,-1.9313249588012695
1697732995789037800,11.022037841796875,-0.6158624887466431,-1.949062466621399,-1.8458000421524048
1697732995798456000,11.0314560546875,-0.6854375004768372,-2.084637403488159,-1.880037546157837
1697732995807873500,11.04087353515625,-0.9065374732017517,-0.8654249906539917,-2.788912534713745
1697732995817291300,11.050291259765626,-0.9468249678611755,0.08744999766349792,-3.3130624294281006
1697732995826709000,11.059708984375,-0.8674874901771545,-0.1629374921321869,-3.248300075531006
1697732995836126700,11.069126708984374,-0.8833000063896179,-1.079237461090088,-2.9539124965667725
1697732995845544400,11.07854443359375,-1.0665874481201172,-2.131112575531006,-2.567812442779541
1697732995854962200,11.087962158203124,-1.3341624736785889,-2.8238375186920166,-2.2037124633789062
1697732995864380200,11.097380126953125,-1.5467374324798584,-3.0694124698638916,-1.9142749309539795
1697732995873797600,11.106797607421875,-1.6530250310897827,-3.0401248931884766,-1.706512451171875
1697732995883215600,11.116215576171875,-1.6457375288009644,-3.0376498699188232,-1.6259374618530273
1697732995892633300,11.12563330078125,-1.551687479019165,-3.105987548828125,-1.5501749515533447
1697732995902050800,11.13505078125,-1.3611124753952026,-3.719374895095825,-1.6576999425888062
1697732995911468800,11.14446875,-1.0813000202178955,-4.26428747177124,-1.8409874439239502
1697732995920886500,11.153886474609376,-0.8467249870300293,-4.4254374504089355,-1.988800048828125
1697732995930304000,11.163303955078124,-0.6756749749183655,-4.482912540435791,-2.1621875762939453
1697732995939722000,11.172721923828124,-0.4778124988079071,-4.2458624839782715,-2.3369500637054443
1697732995949139700,11.1821396484375,-0.3030500113964081,-3.907474994659424,-2.537287473678589
1697732995958557400,11.191557373046875,-0.2297624945640564,-3.6056625843048096,-2.7328124046325684
1697732995967975200,11.20097509765625,-0.305525004863739,-3.0974624156951904,-2.839099884033203
1697732995977393000,11.210392822265625,-0.5033875107765198,-2.3607375621795654,-2.7938625812530518
1697732995986810600,11.219810546875,-0.7660124897956848,-1.7682499885559082,-2.6191000938415527
1697732995996228400,11.229228271484375,-1.0287749767303467,-1.5471500158309937,-2.305187463760376
1697732996005646000,11.23864599609375,-1.1985875368118286,-1.6559125185012817,-1.855562448501587
1697732996015063800,11.248063720703126,-1.2523499727249146,-1.940537452697754,-1.2935999631881714
1697732996024481500,11.2574814453125,-1.1985875368118286,-2.1885874271392822,-0.6338750123977661
1697732996033899300,11.266899169921874,-1.0861124992370605,-2.5184500217437744,0.12718750536441803
1697732996043317000,11.27631689453125,-0.9884874820709229,-2.945937395095825,0.9311500191688538
1697732996052734700,11.285734619140625,-0.9798250198364258,-3.1781749725341797,1.5981625318527222
1697732996062152400,11.29515234375,-0.992062509059906,-2.7285499572753906,1.8229750394821167
1697732996071570200,11.304570068359375,-0.8320124745368958,-0.9692375063896179,1.043487548828125
1697732996080988200,11.31398828125,-0.3335750102996826,-0.23141250014305115,0.04166249930858612
1697732996090405600,11.323405517578125,0.1611499935388565,-1.9808249473571777,-0.44811248779296875
1697732996099823400,11.3328232421875,0.3078624904155731,-3.5055625438690186,-1.3668874502182007
1697732996109241000,11.342240966796876,-0.029424998909235,-3.925762414932251,-2.1206624507904053
1697732996118658800,11.351658935546874,-0.48633748292922974,-3.3822250366210938,-1.9288499355316162
1697732996128076500,11.36107666015625,-0.8552500009536743,-2.201925039291382,-1.2788875102996826
1697732996137494300,11.370494384765625,-1.03125,-0.8813750147819519,-0.8232125043869019
1697732996146912300,11.379912353515625,-0.966487467288971,0.31597501039505005,-1.0247875452041626
1697732996156329700,11.389329833984375,-0.7306749820709229,1.1797499656677246,-1.543987512588501
1697732996165747500,11.39874755859375,-0.5363875031471252,0.858412504196167,-1.4059374332427979
1697732996175165400,11.40816552734375,-0.369049996137619,-0.4940375089645386,-0.4885374903678894
1697732996184583200,11.417583251953126,-0.08552499860525131,-0.806850016117096,0.5097125172615051
1697732996194000600,11.427000732421876,0.19415000081062317,0.39902499318122864,0.7808625102043152
1697732996203418600,11.436418701171876,0.47148749232292175,2.0398125648498535,0.31418749690055847
1697732996212836000,11.445836181640624,0.6327750086784363,3.197974920272827,-0.3077250123023987
1697732996222253800,11.45525390625,0.6474875211715698,2.4001998901367188,-0.027912499383091927
1697732996231671800,11.464671875,0.6620625257492065,0.2414499968290329,0.9726749658584595
1697732996241089300,11.47408935546875,0.6059625148773193,-0.6443250179290771,1.8376874923706055
1697732996250507300,11.48350732421875,0.35667499899864197,-0.34498751163482666,2.3153624534606934
1697732996259925000,11.492925048828125,0.14781250059604645,0.16940000653266907,2.492462396621704
1697732996269342700,11.5023427734375,0.006049999967217445,0.49431249499320984,2.461937427520752
1697732996278760400,11.511760498046876,-0.12952500581741333,0.5285499691963196,2.257887601852417
1697732996288178200,11.52117822265625,-0.2773374915122986,0.2964499890804291,1.9365500211715698
1697732996297596000,11.530595947265626,-0.4142875075340271,-0.10670000314712524,1.5615874528884888
1697732996307013600,11.540013671875,-0.5291000008583069,-0.5343250036239624,1.2207249402999878
1697732996316431600,11.549431640625,-0.5876749753952026,-0.9619500041007996,0.8529124855995178
1697732996325849000,11.55884912109375,-0.6158624887466431,-1.4909124374389648,0.5304750204086304
1697732996335266600,11.5682666015625,-0.6879125237464905,-1.8525375127792358,0.35694998502731323
1697732996344684300,11.577684326171875,-0.720912516117096,-2.1775875091552734,0.25437501072883606
1697732996354102300,11.587102294921875,-0.7282000184059143,-2.42549991607666,0.24447499215602875
1697732996363519700,11.596519775390625,-0.7660124897956848,-2.7016000747680664,0.3386625051498413
1697732996372937700,11.605937744140626,-0.8186749815940857,-3.2429375648498535,0.6220499873161316
1697732996382355500,11.61535546875,-0.7672500014305115,-3.443274974822998,0.8639125227928162
1697732996391773200,11.624773193359376,-0.6939625144004822,-3.213512420654297,1.005674958229065
1697732996401191000,11.63419091796875,-0.65972501039505,-2.82631254196167,1.060675024986267
1697732996410608600,11.643608642578124,-0.6781499981880188,-2.447499990463257,1.0679625272750854
1697732996420026400,11.6530263671875,-0.7416750192642212,-2.2129249572753906,1.0642499923706055
1697732996429444000,11.662444091796875,-0.8210124969482422,-2.0981125831604004,1.0532499551773071
1697732996438861600,11.671861572265625,-0.8833000063896179,-2.049299955368042,1.01419997215271
1697732996448279600,11.681279541015625,-0.9162999987602234,-2.0272998809814453,0.939674973487854
1697733003356175400,18.58917529296875,-1.0630124807357788,-2.19958758354187,1.114437460899353
1697733003365593300,18.59859326171875,-1.0715374946594238,-2.0565874576568604,1.127774953842163
1697733003375010800,18.6080107421875,-1.0630124807357788,-1.9650124311447144,1.1571999788284302
1697733003384428500,18.617428466796873,-1.0947749614715576,-1.9283000230789185,1.1692999601364136
1697733003393846300,18.62684619140625,-1.1375374794006348,-1.8501999378204346,1.1852500438690186
1697733003403263700,18.636263671875,-1.1716375350952148,-1.7194374799728394,1.1962499618530273
1697733003412681700,18.645681640625,-1.1863499879837036,-1.525149941444397,1.2072499990463257
1697733003422099200,18.65509912109375,-1.1655875444412231,-1.279574990272522,1.1999624967575073
1697733003431517200,18.66451708984375,-1.0873500108718872,-1.012137532234192,1.202299952507019
1697733003440935000,18.673934814453126,-0.9432500004768372,-0.7469000220298767,1.1999624967575073
1697733003450352400,18.683352294921875,-0.7721999883651733,-0.5002250075340271,1.184012532234192
1697733003459770000,18.69277001953125,-0.6182000041007996,-0.29493749141693115,1.1644874811172485
1697733003469187800,18.702187744140623,-0.5193374752998352,-0.20817500352859497,1.1364375352859497
1697733003478605300,18.711605224609375,-0.4496249854564667,-0.2484624981880188,1.118012547492981
1697733003488023000,18.72102294921875,-0.35186249017715454,-0.3389374911785126,1.1131999492645264
1697733003497441000,18.73044091796875,-0.28228750824928284,-0.44151249527931213,1.0947749614715576
1697733003506858500,18.7398583984375,-0.24681249260902405,-0.5197499990463257,1.0422500371932983
1697733003516276200,18.749276123046876,-0.24323749542236328,-0.4965125024318695,0.9641500115394592
1697733003525694000,18.75869384765625,-0.26881250739097595,-0.3559874892234802,0.8601999878883362
1697733003535111400,18.768111328125,-0.3018124997615814,-0.13488750159740448,0.7588624954223633
1697733003544529400,18.777529296875,-0.3250499963760376,0.09597499668598175,0.6928625106811523
1697733003553947000,18.78694677734375,-0.3348124921321869,0.2975499927997589,0.6721000075340271
1697733003563364600,18.796364501953125,-0.3335750102996826,0.4515500068664551,0.6708624958992004
1697733003572782600,18.805782470703125,-0.31652501225471497,0.5981249809265137,0.6843374967575073
1697733003582200000,18.815199951171873,-0.30057498812675476,0.7764624953269958,0.694100022315979
1697733003591618000,18.8246181640625,-0.29809999465942383,0.9682750105857849,0.6733375191688538
1697733003601035500,18.834035400390626,-0.2639999985694885,1.0880374908447266,0.6012874841690063
1697733003610453500,18.84345361328125,-0.1527625024318695,1.0525624752044678,0.4729999899864197
1697733003619871000,18.85287109375,0.028049999848008156,0.8266500234603882,0.27390000224113464
1697733003629288700,18.862288818359374,0.25286251306533813,0.4503124952316284,-0.018149999901652336
1697733003638706400,18.87170654296875,0.46543750166893005,0.19497500360012054,-0.42006251215934753
1697733003648124200,18.881124267578127,0.5960624814033508,0.2853125035762787,-0.8757374882698059
1697733003657541600,18.890541748046875,0.6535375118255615,0.6763625144958496,-1.3008874654769897
1697733003666959400,18.89995947265625,0.6804875135421753,1.2383249998092651,-1.6539875268936157
1697733003676377000,18.909377197265623,0.6938250064849854,1.7000499963760376,-1.9423249959945679
1697733003685794800,18.918794921875,0.7280625104904175,1.8002874851226807,-2.2123749256134033
1697733003695212500,18.928212646484376,0.7878749966621399,1.5889500379562378,-2.490949869155884
1697733003704630000,18.937630126953124,0.8746374845504761,1.3299000263214111,-2.8036248683929443
1697733003714047700,18.9470478515625,1.0126874446868896,1.195562481880188,-3.1200125217437744
1697733003723465700,18.9564658203125,1.101925015449524,1.3458499908447266,-3.359537363052368
1697733003732883200,18.96588330078125,1.0652124881744385,1.724524974822998,-3.4267749786376953
1697733003742301000,18.975301025390625,0.9675874710083008,2.3549625873565674,-3.395012378692627
1697733003751718700,18.98471875,0.8856375217437744,3.1882123947143555,-3.2349624633789062
1697733003761136400,18.994136474609373,0.8160625100135803,4.127612590789795,-2.9721999168395996
1697733003770554000,19.00355419921875,0.8062999844551086,4.95838737487793,-2.537287473678589
1697733003779971800,19.012971923828125,0.8368250131607056,5.068387508392334,-2.1488499641418457
1697733003789389300,19.022389404296874,0.8318749666213989,4.285187244415283,-1.8202250003814697
1697733003798807000,19.03180712890625,0.7745375037193298,3.087975025177002,-1.530650019645691
1697733003808225000,19.04122509765625,0.7073000073432922,1.9468624591827393,-1.2093124389648438
1697733003817642500,19.050642578125,0.5790125131607056,0.44536250829696655,-0.8366875052452087
1697733003827060500,19.060060546875,0.45567500591278076,-0.9851874709129333,-0.5495874881744385
1697733003836478000,19.06947802734375,0.2626250088214874,-0.9106624722480774,-0.8733999729156494
1697733003845895400,19.0788955078125,-0.02199999988079071,0.7752249836921692,-1.789562463760376
1697733003855313400,19.0883134765625,-0.21271249651908875,2.3011999130249023,-2.5862374305725098
1697733003864731000,19.09773095703125,-0.42762500047683716,2.733637571334839,-3.226300001144409
1697733003874148600,19.107148681640624,-0.5816249847412109,2.243725061416626,-3.729687452316284
1697733003883566300,19.11656640625,-0.6549124717712402,1.0880374908447266,-3.8946874141693115
1697733003892984000,19.125984130859376,-0.6939625144004822,-0.11288750171661377,-3.7076873779296875
1697733003902401800,19.13540185546875,-0.6927250027656555,-0.8544250130653381,-3.3497750759124756
1697733003911819500,19.144819580078124,-0.6914874911308289,-1.1757625341415405,-2.973437547683716
