time,seconds_elapsed,z,y,x
1701881936676340000,0.153340087890625,-2.2466163635253906,-0.5728168487548828,-0.26407796144485474
1701881936685932500,0.1629326171875,-2.7624497413635254,-0.43987369537353516,-0.08987975120544434
1701881936695526100,0.172526123046875,-3.0851635932922363,-0.3563666343688965,0.11796492338180542
1701881936705118500,0.182118408203125,-3.012910842895508,-0.33130717277526855,0.41603630781173706
1701881936714710500,0.19171044921875,-2.2150864601135254,-0.3151838779449463,0.8135812878608704
1701881936724303000,0.20130322265625,-1.187427043914795,-0.23678016662597656,1.2563648223876953
1701881936733896400,0.210896484375,-0.43784236907958984,-0.2877767086029053,1.507184624671936
1701881936743489000,0.220489013671875,0.5869045257568359,-0.5212719440460205,1.5297410488128662
1701881936753080800,0.230080810546875,1.8521385192871094,-0.6049189567565918,1.4705073833465576
1701881936762673400,0.23967333984375,2.4813432693481445,-0.10447430610656738,1.9146664142608643
1701881936772267000,0.24926708984375,2.6530208587646484,0.2448713779449463,2.307934284210205
1701881936781859600,0.258859619140625,2.2285823822021484,0.06161355972290039,1.6737911701202393
1701881936791451400,0.268451416015625,1.5967388153076172,-0.1486501693725586,0.8903446197509766
1701881936801044000,0.2780439453125,1.5633859634399414,-0.2895665168762207,0.08228659629821777
1701881936810637300,0.28763720703125,1.9450082778930664,-0.35161495208740234,-0.6045733094215393
1701881936820230000,0.29722998046875,2.4944725036621094,-0.42513251304626465,-1.0098930597305298
1701881936829821700,0.30682177734375,2.762528419494629,-0.5286526679992676,-1.1664484739303589
1701881936839414300,0.316414306640625,2.7452173233032227,-0.6203653812408447,-1.0140694379806519
1701881936849007900,0.3260078125,2.548935890197754,-0.6628420352935791,-0.5445161461830139
1701881936858600200,0.33560009765625,1.8131961822509766,-0.8707941770553589,-0.2916561961174011
1701881936868192300,0.345192138671875,0.4729795455932617,-0.7887104749679565,-0.47055375576019287
1701881936877784800,0.354784912109375,-0.33446502685546875,-0.6679577827453613,-0.5189585089683533
1701881936887378200,0.364378173828125,-0.2568044662475586,-0.570868730545044,-0.4516383409500122
1701881936896970800,0.373970703125,0.4039897918701172,-0.4102010726928711,-0.5533099174499512
1701881936906562600,0.3835625,1.0866098403930664,-0.3946061134338379,-0.7403668761253357
1701881936916155100,0.393155029296875,1.4480924606323242,-0.5701799392700195,-0.8107913136482239
1701881936925748700,0.402748779296875,1.50897216796875,-0.5566971302032471,-1.1367696523666382
1701881936935341300,0.41234130859375,1.338958740234375,-0.5224790573120117,-1.4180777072906494
1701881936944933000,0.42193310546875,1.2239465713500977,-0.6289150714874268,-1.425241231918335
1701881936954525700,0.431525634765625,1.2775640487670898,-0.7820584774017334,-1.135788083076477
1701881936964119000,0.441119140625,1.1986799240112305,-0.9560592174530029,-0.9865168929100037
1701881936973711600,0.450711669921875,0.9730329513549805,-1.100334644317627,-1.0354266166687012
1701881936983303400,0.460303466796875,0.5289478302001953,-1.071089267730713,-1.2940213680267334
1701881936992896000,0.46989599609375,-1.8677220344543457,-1.182309627532959,-1.322267770767212
1701881937002489600,0.479489501953125,-1.3931760787963867,-1.5907421112060547,-1.2614660263061523
1701881937012082200,0.489082275390625,-2.7909436225891113,-1.5638821125030518,-1.5919322967529297
1701881937021674000,0.498674072265625,-1.9551291465759277,-0.9108610153198242,-2.1109607219696045
1701881937031266600,0.5082666015625,-1.5351805686950684,-0.5349552631378174,-2.250544309616089
1701881937040860000,0.51785986328125,-1.367218017578125,-0.5340969562530518,-2.0298261642456055
1701881937050452500,0.527452392578125,-1.1669368743896484,-0.5460608005523682,-1.3630824089050293
1701881937060044300,0.537044189453125,-0.7144250869750977,-0.25241637229919434,-1.0676058530807495
1701881937069636900,0.546636962890625,-0.19647884368896484,-0.05457448959350586,-1.0508785247802734
1701881937079230500,0.55623046875,0.292083740234375,0.015026092529296875,-1.1045324802398682
1701881937088822800,0.56582275390625,0.7459278106689453,-0.0774545669555664,-0.8019387722015381
1701881937098414800,0.575414794921875,0.8638696670532227,0.18251824378967285,-1.4831956624984741
1701881937108007400,0.58500732421875,0.30358028411865234,-0.13555693626403809,-1.3691258430480957
1701881937117600800,0.594600830078125,-0.11711406707763672,-0.31275129318237305,-1.5035803318023682
1701881937127193300,0.604193359375,-0.5667791366577148,-0.2974231243133545,-1.5527141094207764
1701881937136785200,0.61378515625,-0.8737392425537109,-0.11049795150756836,-1.3142383098602295
1701881937146377700,0.623377685546875,-1.079742431640625,0.2119760513305664,-0.9780058264732361
1701881937155971300,0.632971435546875,-1.0718870162963867,0.5185360908508301,-0.6046552658081055
1701881937165564000,0.64256396484375,-1.0320720672607422,0.6404118537902832,-0.44384270906448364
1701881937175155700,0.65215576171875,-1.0094003677368164,0.6773011684417725,-0.5449947118759155
1701881937184748300,0.661748291015625,-1.0073833465576172,0.6089050769805908,-0.7889086008071899
1701881937194341600,0.671341552734375,-0.8072938919067383,0.6215002536773682,-1.071094036102295
1701881937203934200,0.680934326171875,-0.3913545608520508,0.741734504699707,-1.331399917602539
1701881937213526000,0.690526123046875,0.010457038879394531,0.7757840156555176,-1.358681559562683
1701881937223118600,0.70011865234375,0.2554607391357422,0.7125301361083984,-1.1242854595184326
1701881937232712200,0.709712158203125,0.1282968521118164,0.6356301307678223,-0.8842769861221313
1701881937242304800,0.7193046875,-0.1056060791015625,0.6204733848571777,-0.813287079334259
1701881937251896600,0.728896484375,-0.3664531707763672,0.6107850074768066,-0.9566680192947388
1701881937261489200,0.7384892578125,-0.6415243148803711,0.6032567024230957,-1.1940577030181885
1701881937271082500,0.74808251953125,-0.9062271118164062,0.5654902458190918,-1.3994832038879395
1701881937280675000,0.757675048828125,-1.0694804191589355,0.5245137214660645,-1.5177854299545288
1701881937290267000,0.767266845703125,-0.9362053871154785,0.4617805480957031,-1.447702407836914
1701881937299859500,0.776859375,-0.7052326202392578,0.36980247497558594,-1.1578269004821777
1701881937309453000,0.786453125,-0.49278736114501953,0.2776622772216797,-0.9217950701713562
1701881937319045600,0.796045654296875,-0.4570178985595703,0.15159988403320312,-0.7931488752365112
1701881937328637400,0.805637451171875,-0.45916080474853516,0.04682445526123047,-0.7950730323791504
1701881937338230000,0.81522998046875,-0.4777212142944336,0.02055215835571289,-0.8796597719192505
1701881937347823400,0.8248232421875,-0.5076808929443359,0.06302928924560547,-1.015047311782837
1701881937357416000,0.834416015625,-0.6102199554443359,0.07266998291015625,-1.134802222251892
1701881937367007700,0.8440078125,-0.69927978515625,0.08888816833496094,-1.2538394927978516
1701881937376600300,0.853600341796875,-0.5829305648803711,0.08546686172485352,-1.3036742210388184
1701881937386194000,0.86319384765625,-0.3056459426879883,0.054009437561035156,-1.2346702814102173
1701881937395786500,0.872786376953125,0.13237380981445312,-0.02442789077758789,-1.023681402206421
1701881937405378300,0.88237841796875,0.5394010543823242,-0.14789676666259766,-0.8901139497756958
1701881937414971000,0.891970947265625,0.7996788024902344,-0.28713130950927734,-0.8820009231567383
1701881937424564200,0.901564208984375,0.8667392730712891,-0.3922109603881836,-0.9351609945297241
1701881937434156800,0.91115673828125,0.83447265625,-0.3771553039550781,-0.9305013418197632
1701881937443748600,0.92074853515625,0.7818841934204102,-0.2867307662963867,-0.8875364065170288
1701881937453341200,0.930341064453125,0.7044506072998047,-0.16283369064331055,-0.8782939910888672
1701881937462934800,0.939934814453125,0.4668693542480469,0.007309436798095703,-0.8786166906356812
1701881937472527400,0.94952734375,0.23124313354492188,0.13192272186279297,-0.8310796022415161
1701881937482119200,0.959119140625,0.2059316635131836,0.2049703598022461,-0.6522653102874756
1701881937491711700,0.968711669921875,0.2897052764892578,0.2264389991760254,-0.38472533226013184
1701881937501305000,0.97830517578125,0.3202066421508789,0.20563507080078125,-0.1978614330291748
1701881937510897700,0.987897705078125,0.27141284942626953,0.1617717742919922,-0.2067856788635254
1701881937520489500,0.997489501953125,0.2738685607910156,0.09586668014526367,-0.31638193130493164
1701881937530082300,1.007082275390625,0.3869781494140625,0.05995655059814453,-0.41888272762298584
1701881937539675600,1.016675537109375,0.6164369583129883,0.0633392333984375,-0.4021580219268799
1701881937549268200,1.026268310546875,0.7188053131103516,0.0799245834350586,-0.3463284969329834
1701881937558860000,1.035860107421875,0.7657489776611328,0.09154319763183594,-0.3949136734008789
1701881937568452600,1.04545263671875,0.7186222076416016,0.09807920455932617,-0.42208218574523926
1701881937578046200,1.055046142578125,0.4640359878540039,0.11291646957397461,-0.4278411865234375
1701881937587638500,1.064638427734375,0.21393203735351562,0.15403318405151367,-0.4244976043701172
1701881937597230300,1.074230224609375,-0.016625404357910156,0.1823725700378418,-0.3187217712402344
1701881937606823200,1.0838232421875,-0.29673290252685547,0.1545696258544922,-0.2617616653442383
1701881937616416500,1.09341650390625,-0.5857324600219727,0.12225484848022461,-0.28064441680908203
1701881937626009000,1.103009033203125,-0.6617903709411621,0.108245849609375,-0.3122243881225586
1701881937635601000,1.112600830078125,-0.6096854209899902,0.1320185661315918,-0.28270649909973145
1701881937645193500,1.122193359375,-0.49624156951904297,0.09528017044067383,-0.13490843772888184
1701881937654787000,1.131787109375,-0.36402416229248047,0.053630828857421875,0.13778376579284668
1701881937664379600,1.141379638671875,-0.3220405578613281,0.017873287200927734,0.26920199394226074
1701881937673971500,1.150971435546875,-0.23824214935302734,0.020904064178466797,0.29201197624206543
1701881937683564000,1.16056396484375,-0.09575748443603516,0.01775646209716797,0.12888550758361816
1701881937693157400,1.170157470703125,-0.03474617004394531,0.0009980201721191406,-0.017254114151000977
1701881937702750000,1.17975,0.033898353576660156,0.026901721954345703,-0.12090063095092773
1701881937712341800,1.189341796875,0.13956069946289062,0.04926490783691406,-0.11502265930175781
1701881937721934300,1.198934326171875,0.24722003936767578,0.01553201675415039,-0.028220653533935547
1701881937731528000,1.20852783203125,0.190032958984375,-0.04804420471191406,0.13407206535339355
1701881937741120500,1.21812060546875,0.018965721130371094,-0.10233259201049805,0.2626621723175049
1701881937750712300,1.22771240234375,-0.25146484375,-0.14806079864501953,0.236891508102417
1701881937760305000,1.237304931640625,-0.45186567306518555,-0.11426496505737305,0.18389391899108887
1701881937769898200,1.246898193359375,-0.6122198104858398,-0.09274482727050781,0.10853004455566406
1701881937779490800,1.25649072265625,-0.5844902992248535,-0.14316415786743164,0.12721538543701172
1701881937789082600,1.26608251953125,-0.30068063735961914,-0.2177581787109375,0.22340893745422363
1701881937798675500,1.275675537109375,-0.04531097412109375,0.023926734924316406,-0.006136894226074219
1701881937808268800,1.285268798828125,0.036197662353515625,-0.00836801528930664,-0.052824974060058594
1701881937817861400,1.294861328125,0.06228828430175781,-0.08259057998657227,-0.06152772903442383
1701881937827453200,1.304453125,-0.009865760803222656,-0.048193931579589844,-0.21253418922424316
1701881937837045800,1.314045654296875,-0.09523677825927734,-0.033283233642578125,-0.28458285331726074
1701881937846639000,1.32363916015625,-0.12139701843261719,-0.039502620697021484,-0.19532394409179688
1701881937856231700,1.333231689453125,-0.17542362213134766,-0.07348489761352539,-0.18634724617004395
1701881937865823700,1.34282373046875,-0.31981897354125977,-0.07002592086791992,-0.22511053085327148
1701881937875416300,1.352416259765625,-0.4018726348876953,-0.05051231384277344,-0.271160364151001
1701881937885009700,1.362009765625,-0.4695014953613281,-0.07460212707519531,-0.22945642471313477
1701881937894602200,1.371602294921875,-0.513127326965332,-0.109405517578125,-0.16447949409484863
1701881937904194000,1.381194091796875,-0.4564223289489746,-0.13923406600952148,-0.035916805267333984
1701881937913787000,1.390786865234375,-0.45027780532836914,-0.1695709228515625,0.10040593147277832
1701881937923380200,1.400380126953125,-0.4470047950744629,-0.15494656562805176,0.07589125633239746
1701881937932972800,1.409972900390625,-0.34862184524536133,-0.13969850540161133,-0.10811066627502441
1701881937942564600,1.419564697265625,-0.21668148040771484,-0.036826372146606445,-0.3944089412689209
1701881937952157200,1.4291572265625,-0.15826129913330078,0.2825603485107422,-0.8240618705749512
1701881937961750500,1.43875048828125,-0.1675710678100586,0.4254283905029297,-1.0603060722351074
1701881937971343000,1.448343017578125,-0.0025606155395507812,0.4708707332611084,-1.1427698135375977
1701881937980935000,1.457934814453125,0.26837730407714844,0.3815641403198242,-1.0502817630767822
1701881937990527500,1.467527587890625,0.5246696472167969,0.18615269660949707,-0.7887132167816162
1701881938000121000,1.47712109375,0.6814279556274414,0.008945226669311523,-0.5293483734130859
1701881938009713700,1.486713623046875,0.8058948516845703,-0.08537769317626953,-0.33224058151245117
1701881938019305500,1.496305419921875,0.7576723098754883,-0.09961438179016113,-0.23210906982421875
1701881938028898000,1.50589794921875,0.4845571517944336,-0.06977486610412598,-0.24756336212158203
1701881938038491400,1.515491455078125,0.16962337493896484,0.005064964294433594,-0.28763818740844727
1701881938048084000,1.525083984375,-0.03843212127685547,0.08153414726257324,-0.3130931854248047
1701881938057675800,1.53467578125,-0.11444377899169922,0.1893467903137207,-0.26178526878356934
1701881938067268600,1.5442685546875,-0.19933319091796875,0.23539018630981445,-0.2244095802307129
1701881938076862000,1.553862060546875,-0.2851591110229492,0.14833307266235352,-0.12715792655944824
1701881938086454500,1.56345458984375,-0.2925539016723633,0.104644775390625,-0.07310009002685547
1701881938096046300,1.57304638671875,-0.25881004333496094,0.06823444366455078,-0.012798786163330078
1701881938105639000,1.582638916015625,-0.13927268981933594,-0.028246641159057617,0.14084911346435547
1701881938115232500,1.592232421875,0.11569404602050781,-0.023041725158691406,0.17502260208129883
1701881938124824800,1.601824951171875,0.3387622833251953,0.09933209419250488,0.21362900733947754
1701881938134417000,1.6114169921875,0.6298151016235352,0.17995810508728027,0.223527193069458
1701881938144009500,1.621009521484375,0.8460826873779297,0.19178152084350586,0.19292831420898438
1701881938153602800,1.630602783203125,0.9141435623168945,0.04520583152770996,0.11255431175231934
1701881938163195400,1.6401953125,0.9028730392456055,-0.050199270248413086,-0.008468866348266602
1701881938172787200,1.649787109375,0.8585977554321289,-0.062456369400024414,-0.07603716850280762
1701881938182379800,1.6593798828125,0.8378486633300781,-0.10269594192504883,-0.018077850341796875
1701881938191973400,1.668973388671875,0.7906341552734375,-0.16105055809020996,0.132951021194458
1701881938201566000,1.67856591796875,0.6404228210449219,-0.16058945655822754,0.174835205078125
1701881938211157800,1.68815771484375,0.46550941467285156,-0.17365026473999023,0.16092681884765625
1701881938220750300,1.697750244140625,0.35511016845703125,-0.18893718719482422,0.07179474830627441
1701881938230343700,1.70734375,0.30800437927246094,-0.2059617042541504,0.1164863109588623
1701881938239936300,1.716936279296875,0.3856487274169922,-0.13040828704833984,0.19048380851745605
1701881938249528000,1.726528076171875,0.4662466049194336,-0.11098933219909668,0.25544118881225586
1701881938259121000,1.736120849609375,0.4327545166015625,-0.1070404052734375,0.3101675510406494
1701881938268714200,1.74571435546875,0.2614288330078125,-0.06962776184082031,0.300262451171875
1701881938278306800,1.755306884765625,0.11260223388671875,-0.004595756530761719,0.23404884338378906
1701881938287898600,1.764898681640625,-0.023122787475585938,0.04597210884094238,0.12699556350708008
1701881938297491200,1.7744912109375,-0.1935253143310547,0.09734463691711426,0.10003542900085449
1701881938307084800,1.784084716796875,-0.3218708038330078,0.14309453964233398,0.07492399215698242
1701881938316677400,1.793677490234375,-0.4608020782470703,0.18149280548095703,0.08437657356262207
1701881938326269200,1.803269287109375,-0.5846095085144043,0.20366382598876953,0.07404422760009766
1701881938335861800,1.81286181640625,-0.6273722648620605,0.19807863235473633,0.08333611488342285
1701881938345455000,1.822455078125,-0.6094985008239746,0.1553661823272705,0.05945849418640137
1701881938355047700,1.832047607421875,-0.5247464179992676,0.13002848625183105,0.028133869171142578
1701881938364639500,1.841639404296875,-0.40192604064941406,0.06433653831481934,-0.03662443161010742
1701881938374232000,1.851232177734375,-0.17119884490966797,0.0002722740173339844,-0.05726146697998047
1701881938383825700,1.86082568359375,0.08266639709472656,-0.04064750671386719,0.029093027114868164
1701881938393418200,1.870418212890625,0.2795143127441406,-0.050522565841674805,0.08331584930419922
1701881938403010000,1.880010009765625,0.39595699310302734,-0.12512636184692383,0.07257771492004395
1701881938412603000,1.889602783203125,0.3126983642578125,-0.1335010528564453,0.015407562255859375
1701881938422196200,1.8991962890625,0.1384143829345703,-0.0708928108215332,-0.09660744667053223
1701881938431788800,1.908788818359375,-0.0693063735961914,-0.05222797393798828,-0.15487027168273926
1701881938441380600,1.918380615234375,-0.1950674057006836,0.004065752029418945,-0.13162899017333984
1701881938450973200,1.92797314453125,-0.27858448028564453,0.012540578842163086,-0.10900235176086426
1701881938460566500,1.93756640625,-0.27626895904541016,-0.018978595733642578,-0.08361506462097168
1701881938470159000,1.9471591796875,-0.25342559814453125,-0.009874582290649414,-0.09476923942565918
1701881938479751000,1.9567509765625,-0.19365978240966797,-0.017641067504882812,-0.017351150512695312
1701881938489343700,1.96634375,-0.16080093383789062,-0.027858734130859375,0.016893863677978516
1701881938498937000,1.97593701171875,-0.1592426300048828,-0.021559476852416992,0.03477048873901367
1701881938508529700,1.98552978515625,-0.17429447174072266,-0.013369083404541016,0.043753623962402344
1701881938518121500,1.99512158203125,-0.18201255798339844,-0.0030345916748046875,0.03635573387145996
1701881938527714000,2.004714111328125,-0.2578558921813965,0.03820991516113281,-0.05598616600036621
1701881938537307600,2.0143076171875,-0.41257524490356445,0.06149864196777344,-0.1009206771850586
1701881938546900200,2.023900146484375,-0.47017383575439453,0.08405447006225586,-0.06302785873413086
1701881938556492000,2.033491943359375,-0.4937925338745117,0.06554126739501953,0.045552730560302734
1701881938566084600,2.043084716796875,-0.5012860298156738,-0.0007119178771972656,0.14794659614562988
1701881938575678000,2.052677978515625,-0.5057082176208496,0.0018405914306640625,0.1022942066192627
1701881938585270500,2.0622705078125,-0.5315470695495605,-0.045210838317871094,0.020652294158935547
1701881938594862600,2.071862548828125,-0.5246009826660156,-0.11003732681274414,-0.07743358612060547
1701881938604455200,2.081455078125,-0.371307373046875,-0.14394044876098633,-0.0987546443939209
1701881938614048500,2.091048583984375,-0.1427302360534668,-0.13240575790405273,-0.13191485404968262
1701881938623641000,2.10064111328125,0.032166481018066406,-0.12697553634643555,-0.1600632667541504
1701881938633233000,2.11023291015625,0.11289119720458984,-0.09038543701171875,-0.21767926216125488
1701881938642825500,2.119825439453125,0.0984945297241211,-0.046181678771972656,-0.29735589027404785
1701881938652419000,2.129419189453125,-0.07929468154907227,-0.002597332000732422,-0.3003361225128174
1701881938662011600,2.13901171875,-0.26633405685424805,0.01578664779663086,-0.21189618110656738
1701881938671603500,2.148603515625,-0.37189531326293945,-0.006079196929931641,-0.13809800148010254
1701881938681196000,2.158196044921875,-0.3412208557128906,0.033319950103759766,-0.023427486419677734
1701881938690789600,2.16778955078125,-0.27367353439331055,0.018917560577392578,0.19477605819702148
1701881938700382200,2.17738232421875,-0.21734333038330078,-0.09694290161132812,0.5711369514465332
1701881938709974000,2.18697412109375,0.0933370590209961,-0.11250019073486328,1.2080388069152832
1701881938719566600,2.196566650390625,0.14448118209838867,-0.01203155517578125,-0.1576707363128662
1701881938729160000,2.206159912109375,-0.5348281860351562,0.05951356887817383,0.1737966537475586
1701881938738752500,2.21575244140625,-0.29910945892333984,0.10216760635375977,-0.26560306549072266
1701881938748344600,2.225344482421875,-0.4583864212036133,0.09753990173339844,-0.24583935737609863
1701881938757937200,2.234937255859375,-0.22931337356567383,0.10730791091918945,-0.2776458263397217
1701881938767530500,2.244530517578125,-0.04303884506225586,0.07991266250610352,-0.23154640197753906
1701881938777123000,2.254123046875,0.19388341903686523,0.0725717544555664,-0.16247177124023438
1701881938786715000,2.26371484375,0.2995271682739258,-0.012586116790771484,-0.12430524826049805
1701881938796307700,2.2733076171875,0.2920866012573242,-0.060849666595458984,-0.1748979091644287
1701881938805901000,2.282901123046875,0.17668724060058594,-0.07348442077636719,-0.3092966079711914
1701881938815493600,2.29249365234375,0.0057430267333984375,-0.06862688064575195,-0.3744394779205322
1701881938825085400,2.30208544921875,-0.062283992767333984,-0.0787038803100586,-0.3601677417755127
1701881938834678300,2.31167822265625,-0.04262971878051758,-0.08509969711303711,-0.2732264995574951
1701881938844271600,2.321271728515625,0.07613658905029297,-0.05136251449584961,-0.13234376907348633
1701881938853864200,2.3308642578125,0.13034343719482422,-0.011859893798828125,-0.03502202033996582
1701881938863456000,2.3404560546875,0.09021854400634766,-0.0017681121826171875,0.019703149795532227
1701881938873048600,2.350048583984375,0.01317596435546875,0.03193378448486328,0.026029109954833984
1701881938882642200,2.35964208984375,-0.0323185920715332,0.058800697326660156,-0.00791025161743164
1701881938892234800,2.36923486328125,-0.05893087387084961,0.058358192443847656,-0.06719136238098145
1701881938901826600,2.37882666015625,-0.04831361770629883,0.03345680236816406,-0.1557910442352295
1701881938911419100,2.388419189453125,0.06752681732177734,-0.049103736877441406,-0.22378873825073242
1701881938921012500,2.398012451171875,0.22625255584716797,-0.08603048324584961,-0.19849276542663574
1701881938930605300,2.407605224609375,0.3221864700317383,-0.10740327835083008,-0.1929774284362793
1701881938940197000,2.417197021484375,0.36253929138183594,-0.10679101943969727,-0.1600666046142578
1701881938949789700,2.426789794921875,0.4009847640991211,-0.07107973098754883,-0.08268070220947266
1701881938959383000,2.436383056640625,0.34325599670410156,-0.05282735824584961,-0.05762124061584473
1701881938968975600,2.4459755859375,0.22109699249267578,-0.022788524627685547,-0.010795116424560547
1701881938978567400,2.4555673828125,0.03184223175048828,0.01798105239868164,0.06580877304077148
1701881938988160300,2.46516015625,-0.1590886116027832,0.03496503829956055,0.15514469146728516
1701881938997753600,2.474753662109375,-0.2709479331970215,0.036590576171875,0.2075796127319336
1701881939007346200,2.48434619140625,-0.3795475959777832,0.06169843673706055,0.23282241821289062
1701881939016938000,2.49393798828125,-0.5045456886291504,0.0826101303100586,0.182373046875
1701881939026530800,2.50353076171875,-0.4970388412475586,0.08803367614746094,0.10585451126098633
1701881939036124200,2.513124267578125,-0.3413424491882324,0.06299161911010742,0.06559944152832031
1701881939045716700,2.522716796875,-0.18705511093139648,0.025580883026123047,0.03640270233154297
1701881939055308500,2.53230859375,-0.07788991928100586,-0.0009508132934570312,-0.07752609252929688
1701881939064901400,2.5419013671875,0.02777099609375,-0.002978801727294922,-0.15369796752929688
1701881939074494700,2.55149462890625,0.14485836029052734,0.018396854400634766,-0.127608060836792
1701881939084087300,2.56108740234375,0.24779891967773438,-0.0017995834350585938,-0.029206275939941406
1701881939093679000,2.57067919921875,0.3395090103149414,-0.007396221160888672,0.07240152359008789
1701881939103272000,2.58027197265625,0.35425853729248047,-0.0011777877807617188,0.10200929641723633
1701881939112865300,2.589865234375,0.30722618103027344,0.010101795196533203,0.1149134635925293
1701881939122457900,2.599457763671875,0.21738815307617188,0.010153770446777344,0.11758613586425781
1701881939132049700,2.609049560546875,0.08904170989990234,0.023449420928955078,0.08578634262084961
1701881939141642200,2.618642333984375,-0.025899887084960938,0.03223896026611328,-0.01079559326171875
1701881939151235800,2.62823583984375,-0.07639074325561523,0.006602764129638672,-0.10239267349243164
1701881939160828400,2.637828369140625,-0.04232358932495117,-0.036540985107421875,-0.1489264965057373
1701881939170420200,2.647420166015625,0.05440711975097656,-0.05503225326538086,-0.1991128921508789
1701881939180012800,2.6570126953125,0.16402244567871094,-0.021581172943115234,-0.22547507286071777
1701881939189606400,2.6666064453125,0.22783184051513672,0.006023883819580078,-0.1934192180633545
1701881939199198700,2.67619873046875,0.2327136993408203,0.03215980529785156,-0.1251521110534668
1701881939208790800,2.685790771484375,0.18628978729248047,0.047568321228027344,-0.030001163482666016
1701881939218383400,2.69538330078125,0.1596660614013672,0.03142070770263672,0.007387638092041016
1701881939227976700,2.704976806640625,0.15943336486816406,0.03367424011230469,0.06123638153076172
1701881939237569300,2.7145693359375,0.16141128540039062,0.04672527313232422,0.09185028076171875
1701881939247161300,2.724161376953125,0.13491439819335938,0.04693794250488281,0.10197019577026367
1701881939256754000,2.73375390625,0.06389427185058594,0.05843496322631836,0.08695030212402344
1701881939266347300,2.74334716796875,0.024529457092285156,0.07448673248291016,0.008849620819091797
1701881939275939800,2.75293994140625,-0.023921489715576172,0.04134845733642578,-0.056038856506347656
1701881939285531600,2.76253173828125,-0.05085325241088867,0.002369403839111328,-0.13840246200561523
1701881939295124500,2.77212451171875,-0.030880451202392578,-0.03278350830078125,-0.16954278945922852
1701881939304717800,2.7817177734375,0.02137470245361328,-0.06440305709838867,-0.1906580924987793
1701881939314310400,2.791310302734375,0.10825061798095703,-0.08172130584716797,-0.08664894104003906
1701881939323902200,2.800902099609375,0.13053226470947266,-0.04778480529785156,-0.003204345703125
1701881939333495000,2.8104951171875,0.07738780975341797,-0.04571390151977539,0.022487640380859375
1701881939343088400,2.82008837890625,0.04420137405395508,-0.02526092529296875,0.05005979537963867
1701881939352681000,2.829680908203125,-0.012021541595458984,-0.04997062683105469,0.07029485702514648
1701881939362272800,2.839272705078125,-0.055531978607177734,-0.06239795684814453,0.05478811264038086
1701881939371865600,2.848865478515625,-0.06991147994995117,-0.05068778991699219,0.01770639419555664
1701881939381459000,2.858458984375,-0.08154487609863281,-0.03872823715209961,0.022925853729248047
1701881939391051500,2.868051513671875,-0.09528446197509766,-0.03844022750854492,0.04417085647583008
1701881939400643300,2.877643310546875,-0.14659929275512695,-0.025754451751708984,0.029426097869873047
1701881939410236000,2.88723583984375,-0.1639866828918457,-0.005392551422119141,-0.007225513458251953
1701881939419829500,2.89682958984375,-0.1690521240234375,-0.022202491760253906,-0.004486083984375
1701881939429422000,2.906422119140625,-0.14768314361572266,-0.007473468780517578,-0.026752471923828125
1701881939439014000,2.916013916015625,-0.12807798385620117,-0.03728628158569336,-0.04839611053466797
1701881939448606500,2.9256064453125,-0.0630331039428711,-0.06622505187988281,-0.08364343643188477
1701881939458200000,2.935199951171875,0.020775794982910156,-0.1139216423034668,-0.08440065383911133
1701881939467792600,2.944792724609375,0.01740550994873047,-0.0814361572265625,-0.009176254272460938
1701881939477384400,2.954384521484375,-0.03157758712768555,-0.01919698715209961,0.04850053787231445
1701881939486977000,2.96397705078125,-0.15700674057006836,0.0332179069519043,0.10165548324584961
1701881939496570600,2.973570556640625,-0.261995792388916,0.06966805458068848,0.1395554542541504
1701881939506163200,2.9831630859375,-0.29830265045166016,0.1003561019897461,0.11406707763671875
1701881939515755000,2.992755126953125,-0.28412389755249023,0.06185650825500488,0.10488271713256836
1701881939525347600,3.00234765625,-0.2701230049133301,0.05359148979187012,0.1599898338317871
1701881939534941200,3.011941162109375,-0.2726302146911621,0.08179783821105957,0.21710205078125
1701881939544533800,3.02153369140625,-0.22252511978149414,0.0680992603302002,0.20696306228637695
1701881939554125600,3.03112548828125,-0.1958165168762207,0.03229546546936035,0.11832857131958008
1701881939563718100,3.04071826171875,-0.09297037124633789,-0.01144099235534668,0.0488429069519043
1701881939573311500,3.0503115234375,0.026357173919677734,-0.06092548370361328,-0.018836498260498047
1701881939582904000,3.059904052734375,0.1222834587097168,-0.08062934875488281,-0.1985478401184082
1701881939592496000,3.06949609375,0.25209522247314453,-0.14617562294006348,-0.39038896560668945
1701881939602088700,3.079088623046875,0.4000082015991211,-0.1653127670288086,-0.5677766799926758
1701881939611682000,3.08868212890625,0.5364480018615723,-0.19060587882995605,-0.7708864212036133
1701881939621274600,3.098274658203125,0.7032451629638672,-0.2087101936340332,-0.8506119251251221
1701881939630866400,3.107866455078125,0.9158082008361816,-0.1979973316192627,-0.7822721004486084
1701881939640459300,3.117459228515625,1.1233067512512207,-0.1841268539428711,-0.7533998489379883
1701881939650052600,3.127052490234375,1.2586455345153809,-0.23453426361083984,-0.584834098815918
1701881939659645200,3.136645263671875,1.1770920753479004,-0.21886849403381348,-0.41022443771362305
1701881939669237000,3.146237060546875,1.018310546875,-0.23928165435791016,-0.6611266136169434
1701881939678829800,3.155829833984375,0.8756828308105469,-0.2802596092224121,-1.080822467803955
1701881939688423200,3.165423095703125,0.9105343818664551,-0.39249229431152344,-1.4332282543182373
1701881939698015700,3.175015625,1.2514214515686035,-0.6002075672149658,-1.7212936878204346
1701881939707607600,3.184607666015625,1.947120189666748,-0.8083298206329346,-1.827418565750122
1701881939717200400,3.194200439453125,2.2514829635620117,-0.8201079368591309,-1.782386064529419
1701881939726793700,3.203793701171875,2.2112650871276855,-0.7376174926757812,-2.0944876670837402
1701881939736386300,3.21338623046875,2.1384782791137695,-0.3260157108306885,-2.888888359069824
1701881939745978000,3.22297802734375,1.3769302368164062,-0.9979546070098877,-2.510225296020508
1701881939755570700,3.23257080078125,1.2315893173217773,-2.011930465698242,-1.9246563911437988
1701881939765164300,3.242164306640625,1.7678003311157227,-2.410141706466675,-1.7931756973266602
1701881939774756900,3.2517568359375,2.3869194984436035,-2.5475196838378906,-2.217160224914551
1701881939784348700,3.2613486328125,2.416515827178955,-2.9203457832336426,-2.6259665489196777
1701881939793941200,3.270941162109375,2.351195812225342,-3.3326921463012695,-3.1701927185058594
1701881939803534800,3.280534912109375,1.9368362426757812,-3.6002280712127686,-3.8032705783843994
1701881939813127400,3.29012744140625,0.7399721145629883,-3.8042192459106445,-4.010123252868652
1701881939822719200,3.29971923828125,-0.30718469619750977,-3.832026243209839,-3.962897300720215
1701881939832311800,3.309311767578125,-0.7353157997131348,-3.8570570945739746,-4.168069839477539
1701881939841905400,3.318905517578125,-0.6962039470672607,-4.28646993637085,-4.071318626403809
1701881939851498000,3.328498046875,-0.5059545040130615,-4.137360572814941,-3.8670105934143066
1701881939861089800,3.33808984375,-0.7180619239807129,-3.972548484802246,-3.0800442695617676
1701881939870682400,3.347682373046875,-0.6135499477386475,-4.229771614074707,-2.7081527709960938
1701881939880275700,3.357275634765625,-0.20316600799560547,-4.080463886260986,-3.3243627548217773
1701881939889868500,3.36686865234375,-0.25995302200317383,-3.725465774536133,-4.070994853973389
1701881939899460400,3.37646044921875,-0.6136375665664673,-3.578282356262207,-4.262220859527588
1701881939909053000,3.386052978515625,-1.0121862888336182,-3.517406463623047,-4.043694496154785
1701881939918646300,3.395646240234375,-1.847549319267273,-3.2047476768493652,-3.1706137657165527
1701881939928238800,3.40523876953125,-2.388355255126953,-2.1764583587646484,-2.385807991027832
1701881939937831000,3.414830810546875,-3.6544270515441895,-2.9756765365600586,-0.19079303741455078
1701881939947423500,3.424423583984375,-3.7629313468933105,-3.750140905380249,0.7975034713745117
1701881939957016800,3.434016845703125,-3.9526216983795166,-3.9322595596313477,0.5211629867553711
1701881939966609400,3.443609375,-4.291048049926758,-3.3282032012939453,0.2427206039428711
1701881939976201500,3.453201416015625,-4.650590896606445,-2.2695624828338623,0.5248870849609375
1701881939985794000,3.4627939453125,-4.738644123077393,-1.2833874225616455,1.5506629943847656
1701881939995387400,3.472387451171875,-5.009941577911377,-0.8215973377227783,2.213571548461914
1701881940004980000,3.48197998046875,-5.0836710929870605,-1.0500340461730957,2.104246139526367
1701881940014571800,3.49157177734375,-4.609659671783447,-1.3436965942382812,2.126829147338867
1701881940024164400,3.501164306640625,-3.882093667984009,-1.1978397369384766,2.818410873413086
1701881940033758000,3.510758056640625,-2.994049072265625,-1.0001049041748047,3.1444902420043945
1701881940043350500,3.5203505859375,-2.33091139793396,-0.7290306091308594,2.973801612854004
1701881940052942300,3.5299423828125,-2.311208724975586,-0.5259652137756348,2.575887680053711
1701881940062535200,3.53953515625,-2.3185231685638428,-0.49384021759033203,2.02911376953125
1701881940072128500,3.54912841796875,-2.2016406059265137,-0.5828886032104492,1.4477777481079102
1701881940081721000,3.55872119140625,-1.7387129068374634,-0.8476676940917969,1.422682285308838
1701881940091313000,3.56831298828125,-0.8022674322128296,-1.0779013633728027,1.8726892471313477
1701881940100905700,3.57790576171875,-0.00928865373134613,-1.2804207801818848,2.4888110160827637
1701881940110499000,3.5874990234375,0.3441479206085205,-1.276900291442871,3.117084503173828
1701881940120091600,3.597091552734375,0.16590920090675354,-1.1432194709777832,3.4022555351257324
1701881940129683500,3.606683349609375,-1.072200059890747,-1.2261528968811035,3.021167755126953
1701881940139276000,3.616276123046875,-3.1061952114105225,-1.291071891784668,2.2145700454711914
1701881940148869600,3.62586962890625,-2.9034340381622314,-1.0365920066833496,0.796607494354248
1701881940158462200,3.635462158203125,-2.0066049098968506,-1.0856108665466309,-0.32044124603271484
1701881940168054000,3.645053955078125,-1.0019882917404175,-1.099320411682129,-1.01145601272583
1701881940177646600,3.654646484375,-0.08875797688961029,-1.2752327919006348,-0.9839472770690918
1701881940187240000,3.664239990234375,1.51987886428833,-2.9367709159851074,7.467345237731934
1701881940196832800,3.673832763671875,2.7581396102905273,-0.8569331169128418,3.617274761199951
1701881940206424600,3.683424560546875,0.1278267204761505,-0.994513988494873,-0.33500146865844727
1701881940216017200,3.69301708984375,-2.994750499725342,-1.2558989524841309,-0.8006138801574707
1701881940225610500,3.702610595703125,-3.3459606170654297,-0.6502361297607422,-0.5961837768554688
1701881940235203000,3.712203125,-1.978611707687378,-0.07594633102416992,-0.6882481575012207
1701881940244795000,3.721794921875,-1.2408303022384644,0.010931968688964844,-0.6196436882019043
1701881940254387700,3.7313876953125,-0.7297397255897522,0.03534889221191406,-0.7835173606872559
1701881940263981000,3.74098095703125,-0.31532445549964905,-0.2285323143005371,-0.9613218307495117
1701881940273573600,3.75057373046875,0.8173034191131592,-0.34858179092407227,-0.7362127304077148
1701881940283165400,3.76016552734375,1.4221068620681763,-0.4478120803833008,-0.48995208740234375
1701881940292758300,3.76975830078125,1.6598219871520996,-0.39543628692626953,-0.1180419921875
1701881940302351600,3.7793515625,2.1305770874023438,-0.2710533142089844,0.0924234390258789
1701881940311944200,3.788944091796875,1.7564343214035034,0.15419435501098633,0.017827510833740234
1701881940321536000,3.798535888671875,0.8959930539131165,0.1994953155517578,-0.411862850189209
1701881940331128800,3.80812890625,0.7058579921722412,0.3704414367675781,-0.48169469833374023
1701881940340722200,3.81772216796875,1.5420808792114258,-0.08737754821777344,-0.0826268196105957
1701881940350314800,3.827314697265625,1.8950445652008057,0.773038387298584,-0.28318262100219727
1701881940359906600,3.836906494140625,-0.9864139556884766,3.1451759338378906,-1.9222486019134521
1701881940369499100,3.8464990234375,-3.0179829597473145,1.8290843963623047,-1.1780962944030762
1701881940379092700,3.8560927734375,-3.097701072692871,2.409914016723633,-0.5678424835205078
1701881940388685300,3.865685302734375,-1.9872978925704956,1.9544000625610352,0.3564291000366211
1701881940398277000,3.875277099609375,-0.04778820276260376,1.1288833618164062,-0.07638931274414062
1701881940407869700,3.88486962890625,0.357008159160614,0.5643854141235352,-0.8354141712188721
1701881940417463300,3.89446337890625,0.12912032008171082,-0.30791664123535156,-1.9631216526031494
1701881940427055900,3.904055908203125,0.2518141269683838,-0.891362190246582,-1.6294562816619873
1701881940436647700,3.913647705078125,0.425747275352478,-1.1363019943237305,-0.9984283447265625
1701881940446240300,3.923240234375,0.4866607189178467,-1.1279106140136719,-0.12268400192260742
1701881940455833600,3.93283349609375,0.17803585529327393,-0.9113740921020508,0.8096122741699219
1701881940465426200,3.94242626953125,-0.9391264915466309,-0.5170516967773438,1.535013198852539
1701881940475018200,3.952018310546875,-1.9797403812408447,-1.1213836669921875,1.1680798530578613
1701881940484610800,3.96161083984375,-1.789063572883606,-0.9825925827026367,0.5992398262023926
1701881940494204200,3.9712041015625,0.9556735754013062,-0.1207876205444336,-1.6290466785430908
1701881940503796700,3.980796630859375,1.8173669576644897,4.128532886505127,-4.7812700271606445
1701881940513388500,3.990388427734375,0.4915844202041626,4.451020240783691,-2.9822585582733154
1701881940522981400,3.9999814453125,-0.03723163157701492,3.7809500694274902,-1.412576675415039
1701881940532574700,4.00957470703125,1.3977408409118652,3.3063883781433105,-1.0184874534606934
1701881940542167300,4.019167236328125,1.1745591163635254,4.697303295135498,0.8100926876068115
1701881940551759000,4.028759033203125,1.1460049152374268,6.373376846313477,0.19319510459899902
1701881940561352000,4.03835205078125,-0.22809527814388275,6.918025970458984,-0.6307802200317383
1701881940570945300,4.0479453125,0.19381749629974365,6.387287139892578,-1.6187070608139038
1701881940580537900,4.057537841796875,0.45542851090431213,3.858637809753418,-2.187563896179199
1701881940590129700,4.067129638671875,1.170898199081421,4.319119453430176,-2.052050828933716
1701881940599722200,4.07672216796875,0.3007039725780487,4.1053147315979,-1.1818937063217163
1701881940609315800,4.08631591796875,-1.4946160316467285,4.230886936187744,-0.12139582633972168
1701881940618908400,4.095908447265625,-3.1508467197418213,2.6138391494750977,-0.1674189567565918
1701881940628500200,4.105500244140625,-6.333213806152344,1.1129074096679688,-0.8495417833328247
1701881940638092800,4.1150927734375,-6.157731533050537,-0.0067291259765625,-1.0598901510238647
1701881940647686400,4.124686279296875,-10.146183967590332,-2.674436569213867,-0.31045448780059814
1701881940657278700,4.13427880859375,-8.967097282409668,-4.000409126281738,-0.81181800365448
1701881940666870800,4.143870849609375,-5.292399883270264,-4.77890682220459,-3.5531086921691895
1701881940676463400,4.15346337890625,1.2810457944869995,-21.997209548950195,-3.69950795173645
1701881940686056700,4.163056640625,7.0526909828186035,-35.9244499206543,-0.18125557899475098
1701881940695649300,4.172649169921875,14.945707321166992,-28.202192306518555,7.272270202636719
1701881940705241300,4.182241455078125,8.96046257019043,-9.189586639404297,6.155800819396973
1701881940714834000,4.191833984375,1.6250423192977905,1.7230558395385742,1.8203465938568115
1701881940724427300,4.20142724609375,-2.7060232162475586,6.102537631988525,-0.9226588010787964
1701881940734019800,4.211019775390625,-3.788210868835449,6.1275482177734375,-1.8479267358779907
1701881940743611600,4.220611572265625,-3.119762897491455,2.2056117057800293,-0.8906608819961548
1701881940753204500,4.23020458984375,-1.5756181478500366,-0.26011180877685547,-0.43064022064208984
1701881940762797800,4.2397978515625,0.10363703966140747,-0.2510414123535156,0.08132362365722656
1701881940772390400,4.249390380859375,0.5691250562667847,0.20917797088623047,0.08351469039916992
1701881940781982200,4.258982177734375,0.25088125467300415,0.34814929962158203,-0.183616042137146
1701881940791575000,4.268574951171875,0.08489799499511719,0.2190694808959961,-0.3879605531692505
1701881940801168400,4.27816845703125,0.2404201626777649,-0.04830646514892578,-0.5129622220993042
1701881940810761000,4.287760986328125,0.5070359706878662,-0.32470226287841797,-0.533230185508728
1701881940820352800,4.297352783203125,0.4975910782814026,-0.4979982376098633,-0.4569031000137329
1701881940829945300,4.3069453125,0.20495599508285522,-0.5782461166381836,-0.33018577098846436
1701881940839539000,4.3165390625,-0.23057162761688232,-0.534855842590332,-0.17771565914154053
1701881940849131500,4.326131591796875,-0.7059468626976013,-0.46117401123046875,-0.1216045618057251
1701881940858723300,4.335723388671875,-0.9727717638015747,-0.3785676956176758,-0.16151022911071777
1701881940868316000,4.34531591796875,-0.6678230166435242,0.39080810546875,-0.08866429328918457
1701881940877909200,4.3549091796875,-0.06881767511367798,1.1711721420288086,-1.1074318885803223
1701881940887501800,4.364501708984375,-0.10512930154800415,1.848921298980713,-2.183156967163086
1701881940897093600,4.37409375,-0.11871868371963501,0.7009038925170898,-1.5811724662780762
1701881940906686500,4.3836865234375,-0.21137923002243042,-0.4621553421020508,-0.5568944215774536
1701881940916279800,4.39327978515625,0.7510987520217896,-1.0452756881713867,-0.14469623565673828
1701881940925872400,4.402872314453125,1.087541103363037,-1.7989225387573242,-0.05922508239746094
1701881940935464200,4.412464111328125,0.656406819820404,-0.7923507690429688,0.5121450424194336
1701881940945057000,4.42205712890625,0.17625951766967773,-0.6187992095947266,0.31758832931518555
1701881940954650400,4.431650390625,-0.48575425148010254,-0.36365795135498047,-0.12320423126220703
1701881940964243000,4.441242919921875,-0.4883004426956177,-0.10144996643066406,-0.14306426048278809
1701881940973834800,4.450834716796875,-0.14193278551101685,-0.08584880828857422,-0.22543025016784668
1701881940983427300,4.46042724609375,0.024857044219970703,-0.0679311752319336,-0.5200678110122681
1701881940993021000,4.47002099609375,0.08656889200210571,0.08152294158935547,-0.7663123607635498
1701881941002613500,4.479613525390625,0.03873157501220703,0.1999683380126953,-0.903826117515564
1701881941012205300,4.489205322265625,-0.01784491539001465,0.2493886947631836,-0.8998510837554932
1701881941021798000,4.4987978515625,-0.04314786195755005,0.1916646957397461,-0.7816221714019775
1701881941031391500,4.5083916015625,-0.09756368398666382,0.10803031921386719,-0.6008657217025757
1701881941040984000,4.517984130859375,-0.17864340543746948,0.04373359680175781,-0.4708237648010254
1701881941050576000,4.527575927734375,-0.22647804021835327,-0.04198265075683594,-0.3941986560821533
1701881941060168400,4.53716845703125,-0.25779080390930176,-0.07033061981201172,-0.30907225608825684
1701881941069761800,4.54676171875,-0.28213822841644287,-0.09880733489990234,-0.19889426231384277
1701881941079354400,4.556354248046875,-0.27108192443847656,-0.11549663543701172,-0.09259939193725586
1701881941088946200,4.5659462890625,-0.2750248312950134,-0.13701629638671875,-0.013531208038330078
1701881941098539000,4.5755390625,-0.2689177989959717,-0.17284297943115234,0.04629969596862793
1701881941108132400,4.58513232421875,-0.20750963687896729,-0.2180461883544922,0.10175776481628418
1701881941117725000,4.594724853515625,-0.09552276134490967,-0.2390575408935547,0.1988074779510498
1701881941127316700,4.604316650390625,-0.03349488973617554,-0.21669864654541016,0.28774189949035645
1701881941136909300,4.613909423828125,-0.02130180597305298,-0.12714767456054688,0.3305974006652832
1701881941146503000,4.6235029296875,-0.061511874198913574,-0.02550220489501953,0.3798842430114746
1701881941156095500,4.633095458984375,-0.09028589725494385,0.06419944763183594,0.45620250701904297
1701881941165687300,4.642687255859375,-0.07889872789382935,0.17286205291748047,0.5014374256134033
1701881941175279900,4.65227978515625,-0.1397818922996521,0.1976633071899414,0.49852585792541504
1701881941184873500,4.66187353515625,-0.13443368673324585,0.23904705047607422,0.4806485176086426
1701881941194466000,4.671466064453125,-0.13212299346923828,0.2276458740234375,0.4451937675476074
1701881941204057900,4.681057861328125,-0.10305511951446533,0.18739032745361328,0.387523889541626
1701881941213650400,4.690650390625,-0.08521860837936401,0.09918498992919922,0.34097766876220703
1701881941223243800,4.700243896484375,-0.04222339391708374,0.013249397277832031,0.2481842041015625
1701881941232836600,4.709836669921875,-0.04573535919189453,-0.07041263580322266,0.14039063453674316
1701881941242428400,4.719428466796875,-0.01775604486465454,-0.11589241027832031,-0.02056431770324707
1701881941252021000,4.72902099609375,0.02409529685974121,-0.10650157928466797,-0.160561203956604
1701881941261614300,4.7386142578125,0.015346765518188477,-0.06621932983398438,-0.27944278717041016
1701881941271207000,4.74820703125,-0.09633523225784302,-0.009390830993652344,-0.4342843294143677
1701881941280798700,4.757798828125,-0.10454046726226807,0.061659812927246094,-0.5095493793487549
1701881941290391600,4.7673916015625,-0.11170488595962524,0.08721351623535156,-0.5720006227493286
1701881941299985000,4.77698486328125,-0.16842329502105713,0.0794839859008789,-0.6951600313186646
1701881941309577500,4.786577392578125,-0.17098182439804077,0.05545234680175781,-0.7879557609558105
1701881941319169300,4.796169189453125,-0.1227232813835144,0.00324249267578125,-0.8650342226028442
1701881941328761900,4.805761962890625,-0.06535345315933228,-0.0627126693725586,-0.9028184413909912
1701881941338355500,4.81535546875,-0.00668942928314209,-0.11130142211914062,-0.9444907903671265
1701881941347948000,4.824947998046875,0.012466669082641602,-0.11867046356201172,-0.994813084602356
1701881941357539800,4.834539794921875,0.04947841167449951,-0.09449005126953125,-1.0466231107711792
1701881941367132400,4.84413232421875,0.05893951654434204,-0.03162956237792969,-1.0996180772781372
1701881941376726000,4.85372607421875,0.08190470933914185,0.03162956237792969,-1.1510413885116577
1701881941386318600,4.863318603515625,0.12362247705459595,0.10009479522705078,-1.209970235824585
1701881941395910400,4.872910400390625,0.14174014329910278,0.1761312484741211,-1.2330493927001953
1701881941405503000,4.8825029296875,0.1444028615951538,0.13823604583740234,-1.156031847000122
1701881941415096600,4.8920966796875,0.14164024591445923,0.08720016479492188,-1.0876491069793701
1701881941424689200,4.901689208984375,0.11568784713745117,-0.06639671325683594,-0.9481246471405029
1701881941434281000,4.911281005859375,0.0838860273361206,-0.13960742950439453,-0.8327863216400146
1701881941443873500,4.92087353515625,0.10790520906448364,-0.24451065063476562,-0.7227083444595337
1701881941453467100,4.930467041015625,0.08846008777618408,-0.35717201232910156,-0.564179539680481
1701881941463059500,4.9400595703125,0.07575231790542603,-0.41864585876464844,-0.44065046310424805
1701881941472651500,4.949651611328125,0.10959047079086304,-0.4415779113769531,-0.3752939701080322
1701881941482244000,4.959244140625,0.12086641788482666,-0.47609424591064453,-0.28505611419677734
1701881941491837400,4.96883740234375,0.16411399841308594,-0.5503578186035156,-0.15925073623657227
1701881941501430000,4.978429931640625,0.20112460851669312,-0.5059404373168945,-0.11607241630554199
1701881941511021800,4.988021728515625,0.23773011565208435,-0.46201133728027344,-0.060808539390563965
1701881941520614700,4.99761474609375,0.24980488419532776,-0.39934349060058594,-0.01578652858734131
1701881941530208000,5.0072080078125,0.25690287351608276,-0.3442554473876953,0.05966055393218994
1701881941539800600,5.016800537109375,0.26385122537612915,-0.2346630096435547,0.11033880710601807
1701881941549392400,5.026392333984375,0.2655038833618164,-0.13753795623779297,0.17693114280700684
1701881941558985200,5.035985107421875,0.2898125648498535,-0.0790863037109375,0.22587597370147705
1701881941568578600,5.04557861328125,0.2886558771133423,-0.03769111633300781,0.2500993013381958
1701881941578171100,5.055171142578125,0.2301982343196869,0.027311325073242188,0.29968035221099854
1701881941587763000,5.064762939453125,0.17594188451766968,0.07289409637451172,0.3242422342300415
1701881941597355800,5.074355712890625,0.11839404702186584,0.15886306762695312,0.3360276222229004
1701881941606949000,5.08394921875,0.0739976167678833,0.20636463165283203,0.3185983896255493
1701881941616541700,5.093541748046875,0.05398806929588318,0.2384204864501953,0.26879143714904785
1701881941626133500,5.103133544921875,0.014000177383422852,0.2205801010131836,0.20116984844207764
1701881941635726000,5.11272607421875,-0.02932298183441162,0.1795806884765625,0.16788244247436523
1701881941645319700,5.122319580078125,-0.06194886565208435,0.13936138153076172,0.11427497863769531
1701881941654912300,5.131912353515625,-0.08161970973014832,0.0904541015625,0.01698124408721924
1701881941664504000,5.141504150390625,-0.10189881920814514,-0.018831253051757812,-0.06916356086730957
1701881941674096600,5.1510966796875,-0.12878519296646118,-0.07923221588134766,-0.10893416404724121
1701881941683690000,5.16068994140625,-0.12158599495887756,-0.0892496109008789,-0.17854821681976318
1701881941693282800,5.17028271484375,-0.07142406702041626,-0.06852149963378906,-0.2560865879058838
1701881941702874600,5.17987451171875,-0.014919370412826538,-0.05050373077392578,-0.2849231958389282
1701881941712467200,5.18946728515625,0.032786011695861816,-0.03749561309814453,-0.32722365856170654
1701881941722060500,5.199060546875,0.05250254273414612,-0.05061149597167969,-0.32639414072036743
1701881941731653000,5.208653076171875,-0.014214575290679932,-0.06591033935546875,-0.3328397870063782
1701881941741245000,5.218244873046875,-0.07626357674598694,-0.06923961639404297,-0.3299635052680969
1701881941750837800,5.227837646484375,-0.1238476037979126,-0.10791397094726562,-0.29919350147247314
1701881941760431000,5.23743115234375,-0.1569880247116089,-0.10598564147949219,-0.27372342348098755
1701881941770023700,5.247023681640625,-0.16387468576431274,-0.12533283233642578,-0.2768821120262146
1701881941779615700,5.25661572265625,-0.15167663991451263,-0.11378860473632812,-0.2750038504600525
1701881941789208300,5.266208251953125,-0.14871881902217865,-0.13071441650390625,-0.28923797607421875
1701881941798801700,5.2758017578125,-0.17062661051750183,-0.10028934478759766,-0.2767036557197571
1701881941808394200,5.285394287109375,-0.1929042786359787,-0.10098075866699219,-0.30129891633987427
1701881941817986000,5.294986083984375,-0.2663199007511139,-0.11812686920166016,-0.3691173195838928
1701881941827579000,5.304578857421875,-0.30709248781204224,-0.061980247497558594,-0.40865349769592285
1701881941837172200,5.314172119140625,-0.048588648438453674,-0.08451366424560547,-0.26588350534439087
1701881941846764800,5.323764892578125,-0.054721370339393616,-0.13266468048095703,-0.21283364295959473
1701881941856356600,5.333356689453125,-0.09088242053985596,-0.1848430633544922,-0.1636054515838623
1701881941865949200,5.34294921875,-0.1427963227033615,-0.19392013549804688,-0.13730746507644653
1701881941875542800,5.352542724609375,-0.1890069842338562,-0.22655391693115234,-0.12683624029159546
1701881941885135400,5.36213525390625,-0.22756467759609222,-0.2753133773803711,-0.068722665309906
1701881941894727200,5.37172705078125,-0.2911190986633301,-0.31408023834228516,-0.03025376796722412
1701881941904319700,5.38131982421875,-0.3419835567474365,-0.33124732971191406,-0.011223077774047852
1701881941913913300,5.390913330078125,-0.38710838556289673,-0.32719898223876953,0.04249000549316406
1701881941923506000,5.400505859375,-0.44488853216171265,-0.3093395233154297,0.06449335813522339
1701881941933097700,5.41009765625,-0.4798124432563782,-0.3084878921508789,0.055425405502319336
1701881941942690300,5.419690185546875,-0.4641093611717224,-0.29609107971191406,0.06545275449752808
1701881941952284000,5.429283935546875,-0.39418625831604004,-0.2510824203491211,0.050240516662597656
1701881941961876200,5.438876220703125,-0.27477777004241943,-0.23048686981201172,0.13064509630203247
1701881941971468300,5.44846826171875,-0.26215773820877075,-0.13968658447265625,0.11012214422225952
1701881941981060900,5.458060791015625,-0.16918273270130157,-0.05509662628173828,0.09487026929855347
1701881941990654200,5.467654296875,-0.06079718470573425,-0.007153511047363281,0.09492146968841553
1701881942000246800,5.477246826171875,0.005791768431663513,0.01655292510986328,0.12673288583755493
1701881942009838800,5.4868388671875,0.02891622483730316,0.03999042510986328,0.1758784055709839
1701881942019431400,5.496431396484375,0.00008259713649749756,0.06548118591308594,0.21346837282180786
1701881942029024800,5.506024658203125,-0.053873807191848755,0.10474014282226562,0.22533255815505981
1701881942038617300,5.515617431640625,-0.11819995939731598,0.1386699676513672,0.24921691417694092
1701881942048209200,5.525209228515625,-0.1479935497045517,0.14852523803710938,0.2307732105255127
1701881942057802000,5.534802001953125,-0.16264261305332184,0.134674072265625,0.24099111557006836
1701881942067395300,5.544395263671875,-0.19098453223705292,0.08100700378417969,0.23667335510253906
1701881942076988000,5.55398779296875,-0.20485489070415497,0.03055572509765625,0.24853515625
1701881942086579700,5.563579833984375,-0.1960296332836151,-0.026166915893554688,0.21239173412322998
1701881942096172300,5.57317236328125,-0.11989563703536987,-0.04195976257324219,0.18333393335342407
1701881942105766000,5.582765869140625,-0.026448175311088562,-0.06931591033935547,0.18704688549041748
1701881942115358500,5.5923583984375,-0.05734345316886902,-0.08923149108886719,0.13562721014022827
1701881942124950300,5.6019501953125,-0.06211152672767639,-0.05947589874267578,0.13098758459091187
1701881942134542800,5.61154296875,-0.05991828441619873,-0.06565570831298828,0.13444864749908447
1701881942144136400,5.621136474609375,-0.05052562057971954,-0.07420825958251953,0.10832524299621582
1701881942153729000,5.63072900390625,-0.040854811668395996,-0.0709543228149414,0.07688868045806885
1701881942163320800,5.64032080078125,-0.06349252164363861,-0.06315803527832031,0.04258781671524048
1701881942172913400,5.649913330078125,-0.07279282808303833,-0.0791330337524414,0.02218419313430786
1701881942182507000,5.659507080078125,-0.05754086375236511,-0.08080196380615234,0.010853826999664307
1701881942192099600,5.669099609375,-0.032353222370147705,-0.07310867309570312,-0.008026182651519775
1701881942201691400,5.67869140625,-0.02106267213821411,-0.06092071533203125,-0.04610264301300049
1701881942211284000,5.688283935546875,-0.0003544539213180542,-0.023093223571777344,-0.06045031547546387
1701881942220877300,5.697877197265625,0.01724623143672943,0.004665374755859375,-0.10067600011825562
1701881942230470000,5.707469970703125,0.03178022801876068,0.024903297424316406,-0.11432540416717529
1701881942240062000,5.71706201171875,0.0598130077123642,0.033046722412109375,-0.13467741012573242
1701881942249654500,5.726654541015625,0.0747653990983963,0.04343128204345703,-0.1922493577003479
1701881942259247900,5.736247802734375,0.07230833172798157,0.06311607360839844,-0.24133610725402832
1701881942268840400,5.74584033203125,0.21124644577503204,0.054256439208984375,-0.19033533334732056
1701881942278432500,5.7554326171875,0.10337647795677185,0.03380107879638672,-0.2693184018135071
1701881942288025000,5.765025146484375,0.10620680451393127,-0.014591217041015625,-0.25057053565979004
1701881942297618400,5.774618408203125,0.06963518261909485,-0.05278778076171875,-0.2675682306289673
1701881942307211000,5.7842109375,0.07943731546401978,-0.09980106353759766,-0.2726263403892517
1701881942316802800,5.793802734375,0.11809802800416946,-0.12490558624267578,-0.28746020793914795
1701881942326395400,5.8033955078125,0.18249724805355072,-0.16144657135009766,-0.2673957943916321
1701881942335989000,5.812989013671875,0.22479021549224854,-0.13387775421142578,-0.26468950510025024
1701881942345581600,5.82258154296875,0.24502068758010864,-0.045571327209472656,-0.28802698850631714
1701881942355173400,5.83217333984375,0.28273656964302063,0.017728805541992188,-0.2851882576942444
1701881942364766000,5.841765869140625,0.3142320513725281,0.08001232147216797,-0.3363054394721985
1701881942374359600,5.851359619140625,0.3204079568386078,0.13666152954101562,-0.3881169557571411
1701881942383952100,5.8609521484375,0.3582104444503784,0.18778133392333984,-0.45461517572402954
1701881942393544000,5.8705439453125,0.384737104177475,0.22880172729492188,-0.4833049178123474
1701881942403136500,5.880136474609375,0.37416476011276245,0.24814701080322266,-0.5051941871643066
1701881942412730000,5.889730224609375,0.35996338725090027,0.2980489730834961,-0.5455103516578674
1701881942422322700,5.89932275390625,0.32138705253601074,0.3309049606323242,-0.5639199018478394
1701881942431914500,5.90891455078125,0.3648420572280884,0.10196876525878906,-0.4566575288772583
1701881942441507000,5.918507080078125,0.34576332569122314,0.004034996032714844,-0.4353518486022949
1701881942451100700,5.9281005859375,0.2915107011795044,0.03966331481933594,-0.45574289560317993
1701881942460693000,5.93769287109375,0.28307920694351196,-0.0005807876586914062,-0.39505988359451294
1701881942470285000,5.94728515625,0.21119487285614014,-0.04715919494628906,-0.4171077609062195
1701881942479877600,5.956877685546875,0.19245454668998718,-0.08350372314453125,-0.39820700883865356
1701881942489471000,5.966470947265625,0.17414867877960205,-0.09804725646972656,-0.3535110354423523
1701881942499063600,5.9760634765625,0.1590045541524887,-0.10059261322021484,-0.3166332244873047
1701881942508655600,5.985655517578125,0.16098174452781677,-0.08900642395019531,-0.26883769035339355
1701881942518248200,5.995248291015625,0.1723998337984085,-0.12001895904541016,-0.21972060203552246
1701881942527841500,6.004841552734375,0.1765187680721283,-0.10817909240722656,-0.20943838357925415
1701881942537434000,6.01443408203125,0.18029490113258362,-0.11774921417236328,-0.18072855472564697
1701881942547026000,6.02402587890625,0.22143259644508362,-0.09659194946289062,-0.18815690279006958
1701881942556618800,6.03361865234375,0.2310369461774826,-0.040482521057128906,-0.24960976839065552
1701881942566212000,6.043212158203125,0.2240089327096939,0.009995460510253906,-0.2909758687019348
1701881942575804700,6.0528046875,0.24066826701164246,0.024341583251953125,-0.3407261371612549
1701881942585396500,6.062396484375,0.2523687183856964,0.019641876220703125,-0.3585851788520813
1701881942594989000,6.071989013671875,0.2779000401496887,-0.00615692138671875,-0.392398476600647
1701881942604582700,6.081582763671875,0.29347893595695496,-0.059760093688964844,-0.41118091344833374
1701881942614175200,6.09117529296875,0.3063245117664337,-0.11248302459716797,-0.4155285358428955
1701881942623767000,6.10076708984375,0.32800400257110596,-0.14553546905517578,-0.3966091275215149
1701881942633359600,6.110359619140625,0.3278617262840271,-0.1592540740966797,-0.41613274812698364
1701881942642953200,6.119953125,0.33686649799346924,-0.16338729858398438,-0.4570934772491455
1701881942652545800,6.1295458984375,0.3199092745780945,-0.1533651351928711,-0.5047793388366699
1701881942662137600,6.1391376953125,0.33645495772361755,-0.14353084564208984,-0.5729781985282898
1701881942671730200,6.148730224609375,0.38610151410102844,-0.1691722869873047,-0.6281646490097046
1701881942681323800,6.15832373046875,0.44217565655708313,-0.19437503814697266,-0.6420782208442688
1701881942690916400,6.167916259765625,0.4480336606502533,-0.18617630004882812,-0.6576657891273499
1701881942700508200,6.177508056640625,0.4747413098812103,-0.17574691772460938,-0.6654757857322693
1701881942710100700,6.187100830078125,0.5028698444366455,-0.1442880630493164,-0.6678730249404907
1701881942719694300,6.1966943359375,0.5371121168136597,-0.13922882080078125,-0.6718963980674744
1701881942729286700,6.20628662109375,0.6125646233558655,-0.145965576171875,-0.6791816353797913
1701881942738878700,6.215878662109375,0.6766319274902344,-0.133697509765625,-0.7012143731117249
1701881942748471300,6.22547119140625,0.729379415512085,-0.09566497802734375,-0.6949073672294617
1701881942758064600,6.235064697265625,0.7376970052719116,-0.07704639434814453,-0.6912237405776978
1701881942767657200,6.2446572265625,0.7722665071487427,-0.05401897430419922,-0.6996572613716125
1701881942777249300,6.254249267578125,0.8990845680236816,-0.022019386291503906,-0.6515650153160095
1701881942786841900,6.263841796875,0.9202719926834106,0.05172920227050781,-0.6364372372627258
1701881942796435200,6.273435302734375,0.8903247117996216,0.14765262603759766,-0.6680089235305786
1701881942806027800,6.28302783203125,0.7385490536689758,0.20417404174804688,-0.7970572710037231
1701881942815619600,6.29261962890625,0.5768389701843262,0.18665695190429688,-0.8499535322189331
1701881942825212200,6.302212158203125,0.46045035123825073,0.03042888641357422,-0.9711854457855225
1701881942834805800,6.3118056640625,0.35668206214904785,-0.15622997283935547,-1.095172643661499
1701881942844398300,6.3213984375,0.26572465896606445,-0.3210439682006836,-1.2185916900634766
1701881942853990100,6.330990234375,0.2690991163253784,-0.47391605377197266,-1.1857565641403198
1701881942863582700,6.340582763671875,0.2518365979194641,-0.5563230514526367,-1.044869303703308
1701881942873176300,6.35017626953125,0.24038350582122803,-0.5883407592773438,-0.8343803286552429
1701881942882769000,6.359768798828125,0.20920711755752563,-0.6649684906005859,-0.47099733352661133
1701881942892360700,6.369360595703125,0.1196395754814148,-0.6676359176635742,-0.17521286010742188
1701881942901953300,6.378953369140625,0.0031341910362243652,-0.6163549423217773,-0.02638399600982666
1701881942911547000,6.388546875,0.1428648829460144,-0.5215158462524414,0.23339520394802094
1701881942921139500,6.398139404296875,0.26332396268844604,-0.2543458938598633,0.37861332297325134
1701881942930731300,6.407731201171875,0.09953266382217407,-0.0036134719848632812,0.45365768671035767
1701881942940323800,6.41732373046875,-0.17950034141540527,0.32294178009033203,0.4928097724914551
1701881942949917200,6.426917236328125,-0.505919873714447,0.5712289810180664,0.4712815284729004
1701881942959510000,6.436510009765625,-0.7104906439781189,0.6931982040405273,0.43794262409210205
1701881942969101800,6.446101806640625,-0.6791123747825623,0.7332077026367188,0.42841583490371704
1701881942978694400,6.4556943359375,-0.44625741243362427,0.6736764907836914,0.500070333480835
1701881942988287700,6.465287841796875,-0.13783442974090576,0.7139272689819336,0.5751334428787231
1701881942997880300,6.47488037109375,-0.06931889057159424,0.8452033996582031,0.505043625831604
1701881943007472000,6.48447216796875,-0.03033769130706787,0.7905435562133789,0.3859785199165344
1701881943017065000,6.49406494140625,-0.04629921913146973,0.6777219772338867,0.17090970277786255
1701881943026658300,6.503658203125,-0.19784003496170044,0.5265216827392578,0.03436833620071411
1701881943036251000,6.5132509765625,-0.25260788202285767,0.4860095977783203,0.050499796867370605
1701881943045842700,6.5228427734375,-0.5325598120689392,0.4957895278930664,0.22455483675003052
1701881943055435500,6.532435546875,-1.037983775138855,0.5301265716552734,0.5688267946243286
1701881943065028900,6.54202880859375,-1.202452301979065,0.9497585296630859,0.7211959362030029
1701881943074621400,6.551621337890625,-0.9947036504745483,0.6914520263671875,1.0771912336349487
1701881943084213200,6.561213134765625,-0.48744362592697144,-0.21663188934326172,1.4077805280685425
1701881943093806000,6.57080615234375,-0.012379229068756104,-1.0518999099731445,1.399163842201233
1701881943103399400,6.5803994140625,0.15882045030593872,-1.8961124420166016,1.3377549648284912
1701881943112992000,6.589991943359375,0.20219391584396362,-2.171605110168457,1.071229100227356
1701881943122583800,6.599583740234375,0.0030767321586608887,-1.3502473831176758,0.45624327659606934
1701881943132176400,6.60917626953125,-0.4104919731616974,0.34016895294189453,-0.053241729736328125
1701881943141770000,6.61877001953125,-0.6558287143707275,0.9175662994384766,-0.3025595545768738
1701881943151362600,6.628362548828125,-0.24005411565303802,1.2516965866088867,0.01200103759765625
1701881943160954400,6.637954345703125,-0.18361340463161469,1.293233871459961,0.20640802383422852
1701881943170547000,6.647546875,-0.05280230939388275,1.4178285598754883,0.23607134819030762
1701881943180140300,6.657140380859375,0.25817012786865234,1.651535987854004,0.4233400225639343
1701881943189732900,6.66673291015625,0.6560686826705933,1.5690622329711914,0.4586472511291504
1701881943199325000,6.676324951171875,1.2020878791809082,1.3385124206542969,0.4217243194580078
1701881943208917500,6.68591748046875,1.4238368272781372,0.9149074554443359,-0.07155108451843262
1701881943218510800,6.6955107421875,1.6327272653579712,0.3538093566894531,-0.3194020986557007
1701881943228103400,6.705103515625,1.4260491132736206,-0.32996654510498047,-0.672116219997406
1701881943237695200,6.7146953125,0.970235288143158,-0.9354763031005859,-0.9978712797164917
1701881943247288000,6.7242880859375,0.827129602432251,-1.2024459838867188,-0.8469161987304688
1701881943256881400,6.73388134765625,0.12131139636039734,-0.8498973846435547,-0.9601269364356995
1701881943266474000,6.743473876953125,-0.3867880702018738,0.10373878479003906,-1.037735104560852
1701881943276065800,6.753065673828125,-0.9935455322265625,1.0933074951171875,-0.9690552353858948
1701881943285658400,6.762658447265625,-1.350439429283142,1.5072441101074219,-1.0289397239685059
1701881943295252000,6.772251953125,-1.2995890378952026,1.229935646057129,-0.7346073389053345
1701881943304844500,6.781844482421875,-1.055626392364502,0.5495357513427734,-0.5730503797531128
1701881943314436400,6.791436279296875,-0.6808496117591858,-0.06988239288330078,-0.5553803443908691
1701881943324029000,6.80102880859375,-0.1336408108472824,0.21193599700927734,-0.3972209692001343
1701881943333622500,6.81062255859375,0.32188674807548523,1.1848936080932617,-0.1865290403366089
1701881943343215000,6.820215087890625,0.9812970757484436,1.9687824249267578,0.4821944236755371
1701881943352807000,6.829806884765625,1.0293097496032715,2.6406774520874023,0.8537346124649048
1701881943362399500,6.8393994140625,0.00023984909057617188,2.4127683639526367,1.1163629293441772
1701881943371993000,6.8489931640625,0.32472530007362366,1.8222885131835938,2.0127017498016357
1701881943381585700,6.858585693359375,-0.3824304938316345,1.3090181350708008,1.6262810230255127
1701881943391177500,6.868177490234375,-0.657985508441925,0.9774074554443359,1.4565742015838623
1701881943400770000,6.87777001953125,-1.2610197067260742,0.78411865234375,0.9959350824356079
1701881943410363400,6.88736328125,0.31457096338272095,0.920802116394043,1.8343640565872192
1701881943419956000,6.8969560546875,-0.7600848078727722,1.1592826843261719,0.3854566812515259
1701881943429548000,6.906548095703125,0.05404400825500488,1.4757251739501953,0.6196175813674927
1701881943439140600,6.916140625,-0.42701131105422974,1.2249784469604492,-0.08484792709350586
1701881943448734000,6.92573388671875,-0.5344240665435791,0.46787452697753906,-0.5511307716369629
1701881943458326500,6.935326416015625,-0.3224128484725952,0.23041915893554688,-0.714331328868866
1701881943467918300,6.94491845703125,0.7910988926887512,0.027523040771484375,-0.16652685403823853
1701881943477511200,6.95451123046875,0.5092275738716125,0.10254859924316406,-0.20282262563705444
1701881943487104500,6.9641044921875,0.16515600681304932,-0.3908109664916992,-0.2962193787097931
1701881943496697000,6.973697021484375,0.463594913482666,-0.41666126251220703,0.2343682497739792
1701881943506289000,6.983288818359375,0.38951945304870605,-0.0051422119140625,0.24585939943790436
1701881943515881700,6.9928818359375,0.34402287006378174,0.5630369186401367,0.6205028295516968
1701881943525475000,7.00247509765625,0.06486880779266357,0.5586585998535156,0.7898863554000854
1701881943535067600,7.012067626953125,-0.14436876773834229,0.8205289840698242,0.9890908002853394
1701881943544659500,7.021659423828125,-0.4244953393936157,-0.2383441925048828,0.5789334774017334
1701881943554252000,7.031251953125,0.06274163722991943,0.1528940200805664,0.7105616927146912
1701881943563845600,7.040845703125,0.029440999031066895,0.2591571807861328,0.36661767959594727
1701881943573438200,7.050438232421875,0.43522751331329346,0.7121973037719727,-0.05018921196460724
1701881943583030000,7.060030029296875,0.3792685270309448,0.8738813400268555,-0.5357521772384644
1701881943592622600,7.06962255859375,0.2154446840286255,0.5087432861328125,-1.1458637714385986
1701881943602216200,7.07921630859375,0.1375981569290161,0.045673370361328125,-1.4588038921356201
1701881943611808500,7.08880859375,-0.1873464584350586,0.13657760620117188,-1.3361117839813232
1701881943621400600,7.098400634765625,-0.5696444511413574,0.6001386642456055,-0.6965661644935608
1701881943630993200,7.1079931640625,-0.8445255756378174,0.8350105285644531,0.26929134130477905
1701881943640586500,7.11758642578125,-0.9711177349090576,0.3437681198120117,1.0686064958572388
1701881943650179000,7.127178955078125,-0.7918932437896729,-0.05812358856201172,2.0689377784729004
1701881943659771000,7.13677099609375,-0.6747329235076904,-0.4950990676879883,2.4358184337615967
1701881943669363700,7.14636376953125,-0.5651485919952393,-1.4778480529785156,2.5936403274536133
1701881943678957000,7.15595703125,-0.5356619358062744,-2.510159492492676,2.6146717071533203
1701881943688549600,7.165549560546875,-0.6254711151123047,-2.4857540130615234,2.3644063472747803
1701881943698141400,7.175141357421875,-0.9807500839233398,-2.1574811935424805,2.0731515884399414
1701881943707734300,7.184734375,-1.481611728668213,-1.8587064743041992,1.910011887550354
1701881943717327600,7.19432763671875,-1.9084410667419434,-1.8043441772460938,1.6765300035476685
1701881943726920200,7.203920166015625,-2.1002120971679688,-2.0869579315185547,1.6198110580444336
1701881943736512000,7.213511962890625,-2.1353700160980225,-2.1680479049682617,1.502939224243164
1701881943746104600,7.2231044921875,-2.00649356842041,-2.006744384765625,1.3294668197631836
1701881943755698200,7.2326982421875,-1.859403371810913,-1.8558425903320312,1.324275255203247
1701881943765290800,7.242290771484375,-1.7479968070983887,-1.6333551406860352,1.358323097229004
1701881943774882600,7.251882568359375,-1.6440033912658691,-1.3317193984985352,1.3295156955718994
1701881943784475100,7.26147509765625,-1.4905586242675781,-0.9959249496459961,1.2265493869781494
1701881943794068700,7.27106884765625,-1.316762924194336,-0.6898059844970703,1.1150593757629395
1701881943803661300,7.280661376953125,-1.1304268836975098,-0.3644685745239258,0.8507046699523926
1701881943813253000,7.290253173828125,-0.9732723236083984,-0.15754413604736328,0.6867170333862305
1701881943822845700,7.299845703125,-0.6534547805786133,0.054190635681152344,0.5886862277984619
1701881943832439000,7.30943896484375,-0.5083775520324707,0.17563343048095703,0.5654237270355225
1701881943842031600,7.319031494140625,-0.5475707054138184,0.2540879249572754,0.540346622467041
1701881943851623400,7.32862353515625,-0.5510554313659668,0.38927364349365234,0.6383156776428223
1701881943861216300,7.33821630859375,-0.5890731811523438,0.4541940689086914,0.6377468109130859
1701881943870809600,7.3478095703125,-0.6155867576599121,0.4417715072631836,0.7872507572174072
1701881943880402200,7.357402099609375,-0.6046638488769531,0.31665849685668945,0.7350435256958008
1701881943889994000,7.366993896484375,-0.4353351593017578,0.33248138427734375,0.7599029541015625
1701881943899586600,7.376586669921875,-0.3999652862548828,0.3331484794616699,0.811424970626831
1701881943909180200,7.38618017578125,-0.03252458572387695,0.39073991775512695,0.7157888412475586
1701881943918772700,7.395772705078125,0.12621688842773438,0.39089012145996094,0.3971405029296875
1701881943928364500,7.405364501953125,0.35817813873291016,0.4502859115600586,0.4879298210144043
1701881943937957000,7.41495703125,0.2179274559020996,0.5662150382995605,0.7303652763366699
1701881943947550700,7.42455078125,0.380523681640625,0.758265495300293,0.3974936008453369
1701881943957143300,7.434143310546875,0.25738048553466797,0.8700351715087891,0.0882577896118164
1701881943966735000,7.443735107421875,-0.09773111343383789,0.840512752532959,0.22056293487548828
1701881943976327700,7.45332763671875,0.17306184768676758,0.9083514213562012,0.236968994140625
1701881943985921000,7.462921142578125,0.2491288185119629,0.9286222457885742,0.5159754753112793
1701881943995513600,7.472513671875,0.2097187042236328,0.8316435813903809,0.23180341720581055
1701881944005105700,7.482105712890625,0.026880741119384766,0.6571683883666992,0.19625473022460938
1701881944014698200,7.4916982421875,0.012459278106689453,0.6177854537963867,0.06104707717895508
1701881944024291600,7.50129150390625,0.0467991828918457,0.48032617568969727,-0.31235361099243164
1701881944033884200,7.51088427734375,-0.022627830505371094,0.45537900924682617,-0.41639137268066406
1701881944043476000,7.52047607421875,-0.1821894645690918,0.5083403587341309,-0.42824339866638184
1701881944053068800,7.53006884765625,-0.36362743377685547,0.39504098892211914,-0.4286007881164551
1701881944062662100,7.539662109375,-0.4714088439941406,0.3119688034057617,-0.4268040657043457
1701881944072254700,7.549254638671875,-0.7366867065429688,0.18493890762329102,-0.1648879051208496
1701881944081846500,7.558846435546875,-0.737393856048584,0.16211366653442383,0.16409969329833984
1701881944091439400,7.568439453125,-0.5894913673400879,0.21480560302734375,0.4113917350769043
1701881944101032700,7.57803271484375,-0.7111458778381348,0.22484064102172852,0.525688648223877
1701881944110625300,7.587625244140625,-0.6141657829284668,0.2917633056640625,0.8598952293395996
1701881944120217000,7.597217041015625,-0.2807893753051758,0.24625635147094727,1.2482852935791016
1701881944129809700,7.6068095703125,-0.1946115493774414,0.5756239891052246,0.8789091110229492
1701881944139403300,7.6164033203125,0.21732425689697266,0.7539768218994141,1.109677791595459
1701881944148995800,7.625995849609375,0.4593014717102051,0.8530364036560059,0.9802889823913574
1701881944158587600,7.635587646484375,0.3375587463378906,0.9863414764404297,0.8213458061218262
1701881944168180200,7.64518017578125,0.04148578643798828,0.9883890151977539,0.5893101692199707
1701881944177773600,7.654773681640625,-0.056208133697509766,1.134385585784912,0.5355672836303711
1701881944187366100,7.6643662109375,-0.1304793357849121,0.9251003265380859,0.8197946548461914
1701881944196958000,7.6739580078125,-0.7107400894165039,1.3989038467407227,0.012546539306640625
1701881944206550800,7.68355078125,-0.7082066535949707,1.266580581665039,0.1131887435913086
1701881944216144100,7.69314404296875,-0.7999405860900879,1.1684942245483398,0.06258201599121094
1701881944225736700,7.70273681640625,-0.6526508331298828,1.0238685607910156,-0.14170169830322266
1701881944235328500,7.71232861328125,-0.6123261451721191,0.947420597076416,-0.2189035415649414
1701881944244921000,7.721921142578125,-0.551659107208252,0.9417777061462402,-0.3258986473083496
1701881944254514700,7.7315146484375,-0.48050880432128906,0.8373503684997559,-0.36006689071655273
1701881944264107300,7.741107177734375,-0.4427828788757324,0.7130131721496582,-0.39931297302246094
1701881944273699000,7.750698974609375,-0.34525442123413086,0.49434757232666016,-0.4036078453063965
1701881944283291600,7.760291748046875,-0.15465784072875977,0.3298654556274414,-0.5017499923706055
1701881944292885200,7.76988525390625,0.061960697174072266,0.1573810577392578,-0.5381712913513184
1701881944302477800,7.779477783203125,0.22097015380859375,0.04602622985839844,-0.5418548583984375
1701881944312069600,7.789069580078125,0.2629051208496094,0.038599491119384766,-0.5390915870666504
1701881944321662200,7.798662109375,0.22861194610595703,0.01532125473022461,-0.453676700592041
1701881944331255600,7.808255615234375,0.16077661514282227,0.014436721801757812,-0.3126688003540039
1701881944340848000,7.81784814453125,0.11586570739746094,0.07691049575805664,-0.1573495864868164
1701881944350440000,7.82743994140625,0.040668487548828125,0.1523127555847168,-0.050737857818603516
1701881944360032800,7.83703271484375,-0.01708841323852539,0.2495436668395996,0.1114206314086914
1701881944369626000,7.846626220703125,-0.028557300567626953,0.33944225311279297,0.2021017074584961
1701881944379218700,7.85621875,-0.02176046371459961,0.4098644256591797,0.2053670883178711
1701881944388810500,7.865810546875,-0.008096694946289062,0.4633750915527344,0.22260141372680664
1701881944398403000,7.875403076171875,0.07735490798950195,0.4334416389465332,0.1782679557800293
1701881944407996700,7.88499658203125,0.1050424575805664,0.3611412048339844,0.16074323654174805
1701881944417589200,7.89458935546875,0.1705317497253418,0.3591728210449219,0.18940019607543945
1701881944427181000,7.90418115234375,0.22589445114135742,0.38447141647338867,0.20207881927490234
1701881944436773600,7.913773681640625,0.1543412208557129,0.4819464683532715,0.16033124923706055
1701881944446367200,7.9233671875,0.0803070068359375,0.5150332450866699,0.06149101257324219
1701881944455959600,7.93295947265625,0.13730287551879883,0.4767274856567383,-0.05397224426269531
1701881944465551600,7.942551513671875,0.1126546859741211,0.408113956451416,-0.15672636032104492
1701881944475144200,7.952144287109375,0.033631324768066406,0.31590986251831055,-0.21788740158081055
1701881944484737500,7.961737548828125,-0.06128835678100586,0.2813582420349121,-0.22547483444213867
1701881944494330000,7.971330078125,-0.12456655502319336,0.2613492012023926,-0.19901323318481445
1701881944503922000,7.980921875,-0.10891914367675781,0.22488784790039062,-0.18670320510864258
1701881944513514800,7.9905146484375,-0.0946955680847168,0.1765427589416504,-0.11570072174072266
1701881944523108000,8.000108154296875,-0.061931610107421875,0.18320083618164062,-0.06235218048095703
1701881944532700700,8.00970068359375,-0.0320277214050293,0.21576213836669922,-0.019100666046142578
1701881944542292500,8.01929248046875,0.03958749771118164,0.32347917556762695,0.026074886322021484
1701881944551885000,8.028885009765625,0.08867311477661133,0.3942742347717285,0.06351137161254883
1701881944561478700,8.038478759765624,0.1317300796508789,0.43365001678466797,0.0460658073425293
1701881944571071200,8.0480712890625,0.16170215606689453,0.4374079704284668,0.056925296783447266
1701881944580663000,8.0576630859375,0.17673206329345703,0.3941154479980469,0.0791316032409668
1701881944590255600,8.067255615234375,0.20053672790527344,0.3257575035095215,0.06534099578857422
1701881944599849200,8.07684912109375,0.19778776168823242,0.23027372360229492,0.06558609008789062
1701881944609441800,8.08644189453125,0.1596970558166504,0.11981964111328125,0.02091360092163086
1701881944619033600,8.09603369140625,0.11086177825927734,-0.0033769607543945312,-0.053751468658447266
1701881944628626200,8.105626220703124,0.039949893951416016,-0.08744335174560547,-0.1083369255065918
1701881944638219500,8.115219482421875,-0.021728038787841797,-0.12622308731079102,-0.11486959457397461
1701881944647812000,8.12481201171875,-0.08396434783935547,-0.1606597900390625,-0.10759973526000977
1701881944657404000,8.13440380859375,-0.13536882400512695,-0.13659238815307617,-0.10123300552368164
1701881944666996700,8.143996826171875,-0.16231393814086914,-0.07610511779785156,-0.06306982040405273
1701881944676590000,8.153590087890626,-0.15616369247436523,-0.014729022979736328,-0.024173259735107422
1701881944686182700,8.1631826171875,-0.11780786514282227,0.028942108154296875,0.0012602806091308594
1701881944695774500,8.1727744140625,-0.08330154418945312,0.02484416961669922,-0.0005850791931152344
1701881944705367000,8.182366943359375,-0.02422046661376953,0.01390695571899414,0.013402462005615234
1701881944714960600,8.191960693359375,0.04743814468383789,-0.006175041198730469,0.024261951446533203
1701881944724553200,8.20155322265625,0.13875150680541992,-0.03065204620361328,0.039223670959472656
1701881944734145000,8.21114501953125,0.24496126174926758,-0.042916297912597656,0.03508615493774414
1701881944743737600,8.220737548828126,0.3000507354736328,-0.05272054672241211,0.033355712890625
1701881944753331200,8.230331298828125,0.3498821258544922,-0.03185558319091797,0.03667593002319336
1701881944762923500,8.239923583984375,0.37587928771972656,0.01442861557006836,0.042765140533447266
1701881944772515600,8.249515625,0.39282703399658203,0.0645594596862793,0.040160179138183594
1701881944782108200,8.259108154296875,0.37064695358276367,0.09479951858520508,0.04809761047363281
1701881944791701500,8.268701416015626,0.34304380416870117,0.07239151000976562,0.0898733139038086
1701881944801294000,8.278294189453124,0.29363012313842773,0.054657936096191406,0.16249418258666992
1701881944810886000,8.287885986328124,0.2510361671447754,0.03657865524291992,0.22983980178833008
1701881944820478500,8.297478515625,0.2101612091064453,0.02765941619873047,0.2753024101257324
1701881944830072000,8.307072021484375,0.19859027862548828,0.03972196578979492,0.2917184829711914
1701881944839664600,8.31666455078125,0.19180583953857422,0.06809186935424805,0.2912874221801758
1701881944849256400,8.32625634765625,0.16588878631591797,0.09838056564331055,0.2998490333557129
1701881944858849300,8.335849365234376,0.1257152557373047,0.12609004974365234,0.2891535758972168
1701881944868442600,8.345442626953124,0.08344364166259766,0.14177322387695312,0.24547147750854492
1701881944878035200,8.35503515625,0.041520118713378906,0.1669292449951172,0.19075393676757812
1701881944887627000,8.364626953125,0.058531761169433594,0.1755223274230957,0.17199087142944336
1701881944897219600,8.374219482421875,0.0580143928527832,0.20545721054077148,0.16481637954711914
1701881944906813000,8.38381298828125,0.07305097579956055,0.21660852432250977,0.12209320068359375
1701881944916405500,8.393405517578126,0.059047698974609375,0.2350473403930664,0.0823526382446289
1701881944925997600,8.40299755859375,0.009442806243896484,0.2558770179748535,0.02900075912475586
1701881944935590100,8.412590087890624,-0.036942481994628906,0.2364025115966797,-0.04451942443847656
1701881944945183500,8.42218359375,-0.10320138931274414,0.20751047134399414,-0.13780736923217773
1701881944954776000,8.431776123046875,-0.19059228897094727,0.16188526153564453,-0.2054595947265625
1701881944964368000,8.441367919921875,-0.2355198860168457,0.10010433197021484,-0.27141809463500977
1701881944973960400,8.45096044921875,-0.24855613708496094,0.12156105041503906,-0.2888150215148926
1701881944983554000,8.460553955078124,-0.20631885528564453,-0.023298263549804688,-0.19339418411254883
1701881944993146600,8.470146728515624,-0.2206730842590332,-0.04181718826293945,-0.21060800552368164
1701881945002738400,8.479738525390625,-0.2300267219543457,0.003222942352294922,-0.20198488235473633
1701881945012331000,8.4893310546875,-0.19742918014526367,0.03580188751220703,-0.13995027542114258
1701881945021924600,8.498924560546875,-0.18452787399291992,0.10543489456176758,-0.03468132019042969
1701881945031517200,8.50851708984375,-0.1602802276611328,0.15741539001464844,-0.011466503143310547
1701881945041109000,8.51810888671875,-0.11071252822875977,0.22040987014770508,0.03249645233154297
1701881945050701600,8.52770166015625,-0.08783531188964844,0.23760271072387695,0.05926179885864258
1701881945060295000,8.537294921875,-0.058078765869140625,0.22388219833374023,0.08814573287963867
1701881945069887500,8.546887451171875,-0.021592140197753906,0.2079787254333496,0.13550281524658203
1701881945079479300,8.556479248046875,0.0662074089050293,0.21590137481689453,0.17048072814941406
1701881945089072000,8.566072021484375,0.11925029754638672,0.2167987823486328,0.16233539581298828
1701881945098665500,8.57566552734375,0.16653728485107422,0.21073341369628906,0.12132835388183594
1701881945108258000,8.585258056640624,0.16107988357543945,0.1812305450439453,0.13967514038085938
1701881945117849900,8.594849853515624,0.14839410781860352,0.16869211196899414,0.09384489059448242
1701881945127442400,8.6044423828125,0.10283470153808594,0.1728229522705078,0.07450675964355469
1701881945137036000,8.6140361328125,0.06745529174804688,0.15331506729125977,0.053107261657714844
1701881945146628600,8.623628662109375,0.02093219757080078,0.12225770950317383,0.048458099365234375
1701881945156220400,8.633220458984376,-0.0034999847412109375,0.1220865249633789,0.04844236373901367
1701881945165813000,8.64281298828125,-0.0181427001953125,0.11969470977783203,-0.0008783340454101562
1701881945175406300,8.65240625,0.026004791259765625,0.1696329116821289,-0.03731966018676758
1701881945184999000,8.6619990234375,-0.0798792839050293,0.20290231704711914,0.039533138275146484
1701881945194591000,8.671591064453125,-0.03969764709472656,0.2390742301940918,-0.029016494750976562
1701881945204183600,8.68118359375,-0.06213092803955078,0.14780902862548828,0.013742923736572266
1701881945213777000,8.69077685546875,-0.10058212280273438,0.07872343063354492,0.03873395919799805
1701881945223369500,8.700369384765626,-0.12662887573242188,0.1400146484375,0.018243789672851562
1701881945232961300,8.709961181640624,-0.06999921798706055,0.15565776824951172,-0.018429279327392578
1701881945242553900,8.719553955078124,-0.014241218566894531,0.14065217971801758,-0.0517725944519043
1701881945252147500,8.7291474609375,-0.003956794738769531,0.12841129302978516,-0.025281906127929688
1701881945261740000,8.738739990234375,0.008825302124023438,0.0740361213684082,-0.015294551849365234
1701881945271331800,8.748331787109375,0.0076007843017578125,0.04161357879638672,-0.012330055236816406
1701881945280924400,8.75792431640625,0.01844167709350586,0.03077840805053711,0.02603626251220703
1701881945290518000,8.76751806640625,0.0504908561706543,0.015339851379394531,0.026234149932861328
1701881945300110300,8.7771103515625,0.06091594696044922,0.03559446334838867,0.04082441329956055
1701881945309702400,8.786702392578125,0.12075948715209961,0.06975936889648438,0.08375978469848633
1701881945319295000,8.796294921875,0.1561298370361328,0.13185977935791016,0.10048484802246094
1701881945328888300,8.805888427734375,0.16519498825073242,0.1530442237854004,0.10554885864257812
1701881945338481000,8.81548095703125,0.12953472137451172,0.17618179321289062,0.14360666275024414
1701881945348072700,8.82507275390625,0.07600831985473633,0.1493067741394043,0.12236547470092773
1701881945357665500,8.83466552734375,0.016513347625732422,0.12269067764282227,0.13207626342773438
1701881945367259000,8.8442587890625,-0.05608415603637695,0.1103982925415039,0.1295781135559082
1701881945376851500,8.8538515625,-0.11116313934326172,0.08866453170776367,0.10544776916503906
1701881945386443300,8.863443359375,-0.12583541870117188,0.09110689163208008,0.07909631729125977
1701881945396035800,8.873035888671875,-0.10799741744995117,0.12004566192626953,0.048488616943359375
1701881945405629400,8.88262939453125,-0.10102653503417969,0.15641069412231445,0.0228424072265625
1701881945415222000,8.892221923828124,-0.07171058654785156,0.1976604461669922,0.013846397399902344
1701881945424813800,8.901813720703124,-0.034459590911865234,0.2389845848083496,0.0071773529052734375
1701881945434406400,8.911406494140625,-0.007778644561767578,0.24027061462402344,0.005564212799072266
1701881945443999700,8.920999755859375,-0.009720325469970703,0.2135014533996582,0.02081918716430664
1701881945453592300,8.93059228515625,0.010365009307861328,0.16350889205932617,0.02717304229736328
1701881945463184400,8.940184326171876,0.02488088607788086,0.07362842559814453,0.05582380294799805
1701881945472777000,8.94977685546875,0.057906150817871094,0.0006580352783203125,0.1064462661743164
1701881945482370300,8.959370361328125,0.09731817245483398,-0.032059669494628906,0.14812135696411133
1701881945491963000,8.968962890625,0.1543750762939453,-0.05100250244140625,0.171234130859375
1701881945501554700,8.9785546875,0.21868896484375,-0.09377717971801758,0.1968693733215332
1701881945511147300,8.988147216796875,0.2446894645690918,-0.0699625015258789,0.18249845504760742
1701881945520740900,8.997740966796876,0.2797102928161621,-0.04667329788208008,0.18473148345947266
1701881945530333400,9.00733349609375,0.3229379653930664,-0.11790180206298828,0.1980290412902832
1701881945539925200,9.01692529296875,0.29616451263427734,-0.01347494125366211,0.11845588684082031
1701881945549517800,9.026517822265625,0.25711488723754883,0.0002961158752441406,0.042154788970947266
1701881945559111200,9.036111083984375,0.1708536148071289,0.026061058044433594,-0.05203056335449219
1701881945568703700,9.045703857421875,0.042994022369384766,0.032752037048339844,-0.09572792053222656
1701881945578295600,9.055295654296875,-0.0926661491394043,0.05598258972167969,-0.11788320541381836
1701881945587888400,9.064888427734376,-0.1725625991821289,0.04846048355102539,-0.10008716583251953
1701881945597481700,9.074481689453124,-0.2234363555908203,0.05779886245727539,-0.10880517959594727
1701881945607074300,9.08407421875,-0.23662757873535156,0.04871511459350586,-0.10114145278930664
1701881945616666000,9.093666015625,-0.2665553092956543,0.0780644416809082,-0.10514497756958008
1701881945626259000,9.103259033203125,-0.24967527389526367,0.12655353546142578,-0.07365846633911133
1701881945635852300,9.112852294921876,-0.21521949768066406,0.10436439514160156,-0.08289003372192383
1701881945645444900,9.12244482421875,-0.16373872756958008,0.16582870483398438,-0.099334716796875
1701881945655036700,9.13203662109375,-0.1330561637878418,0.2012467384338379,-0.0850667953491211
1701881945664629200,9.141629150390624,-0.11070632934570312,0.2202620506286621,-0.11579370498657227
1701881945674222600,9.15122265625,-0.11724996566772461,0.2370462417602539,-0.14810609817504883
1701881945683815400,9.1608154296875,-0.13265180587768555,0.18061399459838867,-0.1533966064453125
1701881945693407200,9.1704072265625,-0.17024469375610352,0.16031885147094727,-0.21631908416748047
1701881945702999800,9.179999755859376,-0.19163036346435547,0.09496259689331055,-0.18082571029663086
1701881945712593200,9.18959326171875,-0.18232393264770508,-0.008470535278320312,-0.13599205017089844
1701881945722185700,9.199185791015625,-0.16638755798339844,-0.05037498474121094,-0.11011314392089844
1701881945731777500,9.208777587890625,-0.07605838775634766,-0.05485820770263672,-0.0862588882446289
1701881945741370000,9.2183701171875,-0.021160125732421875,-0.13572978973388672,0.03625345230102539
1701881945750963700,9.227963623046875,0.016716957092285156,-0.11227798461914062,0.08811235427856445
1701881945760556300,9.237556396484376,0.09137630462646484,-0.07532358169555664,0.10555791854858398
1701881945770148000,9.247148193359376,0.15032291412353516,-0.01279449462890625,0.1415271759033203
1701881945779740700,9.25674072265625,0.15346193313598633,0.09904098510742188,0.0831146240234375
1701881945789334300,9.266334228515625,0.16519689559936523,0.09200859069824219,0.17635726928710938
1701881945798926600,9.275926513671875,0.14076757431030273,0.19224023818969727,0.14878082275390625
1701881945808518700,9.2855185546875,0.09760093688964844,0.2236952781677246,0.18402814865112305
1701881945818111200,9.295111328125,0.09078073501586914,0.15614938735961914,0.2690267562866211
1701881945827704600,9.30470458984375,0.04241466522216797,0.1510171890258789,0.2735261917114258
1701881945837297200,9.314297119140624,0.021571636199951172,0.10806989669799805,0.306884765625
1701881945846889000,9.323888916015624,0.018136024475097656,0.08680438995361328,0.3094968795776367
1701881945856481500,9.3334814453125,0.04302024841308594,0.06582403182983398,0.3543815612792969
1701881945866075100,9.3430751953125,0.09316349029541016,0.059515953063964844,0.3420238494873047
1701881945875667700,9.352667724609375,0.15131664276123047,0.04424619674682617,0.31789207458496094
1701881945885259500,9.362259521484376,0.16551876068115234,0.013179302215576172,0.2586994171142578
1701881945894852000,9.37185205078125,0.18144989013671875,-0.03112506866455078,0.20995235443115234
1701881945904445400,9.381445556640625,0.18973588943481445,-0.0815572738647461,0.1430807113647461
1701881945914038300,9.391038330078125,0.14139127731323242,-0.08631420135498047,0.02805805206298828
1701881945923630000,9.400630126953125,0.11073827743530273,-0.09591436386108398,-0.0730447769165039
1701881945933222700,9.41022265625,0.09061574935913086,-0.0583949089050293,-0.07534646987915039
1701881945942816000,9.41981591796875,0.06856298446655273,-0.0778951644897461,-0.1220555305480957
1701881945952408600,9.42940869140625,0.007183074951171875,-0.09047651290893555,-0.12580442428588867
1701881945962000400,9.43900048828125,-0.026673316955566406,-0.1268930435180664,-0.1623549461364746
1701881945971593000,9.448593017578125,-0.03574705123901367,-0.07345247268676758,-0.016438007354736328
1701881945981186600,9.4581865234375,0.019680023193359375,-0.09912681579589844,0.12967824935913086
1701881945990779100,9.467779052734375,0.04598236083984375,-0.12488460540771484,0.08206605911254883
1701881946000371000,9.477370849609375,0.038869380950927734,-0.14384841918945312,0.013113975524902344
1701881946009963500,9.486963623046876,0.06713485717773438,-0.16519975662231445,0.013065814971923828
1701881946019557000,9.49655712890625,0.1354227066040039,-0.1769404411315918,-0.05721426010131836
1701881946029149700,9.506149658203125,0.17979049682617188,-0.20262765884399414,-0.15832901000976562
1701881946038741500,9.515741455078125,0.19834518432617188,-0.12130403518676758,-0.25344228744506836
1701881946048334000,9.525333984375,0.245574951171875,-0.03813600540161133,-0.26947498321533203
1701881946057927400,9.534927490234375,0.2429037094116211,0.028215885162353516,-0.29270172119140625
1701881946067520000,9.54452001953125,0.20273542404174805,0.02134418487548828,-0.37763214111328125
1701881946077111800,9.55411181640625,0.0950021743774414,0.005899906158447266,-0.4128594398498535
1701881946086704600,9.56370458984375,-0.051009178161621094,-0.0019168853759765625,-0.35281991958618164
1701881946096298000,9.573298095703125,-0.0893549919128418,-0.07557249069213867,-0.21693944931030273
1701881946105890600,9.582890625,-0.33016061782836914,-0.09483480453491211,-0.09015798568725586
1701881946115482400,9.592482421875,-0.3606910705566406,-0.11716842651367188,-0.031656742095947266
1701881946125075000,9.602074951171875,-0.3353757858276367,-0.10686349868774414,0.07047748565673828
1701881946134668500,9.61166845703125,-0.3046698570251465,-0.06618309020996094,0.06563186645507812
1701881946144260900,9.6212607421875,-0.2233123779296875,-0.030856609344482422,0.057753562927246094
1701881946153853000,9.63085302734375,-0.10601568222045898,-0.04779243469238281,0.023817062377929688
1701881946163445500,9.640445556640625,0.0015411376953125,0.030369281768798828,-0.030727386474609375
1701881946173038800,9.650038818359375,0.07840967178344727,0.09151315689086914,-0.022860050201416016
1701881946182631400,9.65963134765625,0.12048768997192383,0.1358022689819336,-0.052547454833984375
1701881946192223200,9.66922314453125,0.0953969955444336,0.18241548538208008,-0.07433700561523438
1701881946201815800,9.67881591796875,0.037516117095947266,0.17458868026733398,-0.10240793228149414
1701881946211409400,9.688409423828125,-0.10738039016723633,0.07277250289916992,-0.14285898208618164
1701881946221002000,9.698001953125,-0.03735065460205078,-0.2406787872314453,0.005257606506347656
1701881946230593800,9.70759375,0.0047454833984375,-0.1860818862915039,-0.1106119155883789
1701881946240186400,9.717186279296875,-0.14605188369750977,-0.025632381439208984,-0.20592689514160156
1701881946249779700,9.72677978515625,-0.10451316833496094,0.06304216384887695,-0.11278009414672852
1701881946259372300,9.736372314453124,0.0010342597961425781,0.018789291381835938,-0.1328291893005371
1701881946268964000,9.745964111328124,-0.21283578872680664,-0.038300514221191406,-0.20412015914916992
1701881946278557000,9.755556884765625,-0.15055561065673828,-0.015943527221679688,-0.23925375938415527
1701881946288150300,9.765150390625,-0.04726696014404297,0.011202335357666016,-0.258007287979126
1701881946297742800,9.774742919921875,0.026235103607177734,-0.001678466796875,-0.2764439582824707
1701881946307334700,9.784334716796875,0.02873086929321289,-0.08486366271972656,-0.20001006126403809
1701881946316927200,9.79392724609375,0.049897193908691406,-0.12470722198486328,-0.1703963279724121
1701881946326520800,9.803520751953124,0.04150581359863281,-0.11546039581298828,-0.13145017623901367
1701881946336113400,9.813113525390625,0.019151687622070312,-0.1786179542541504,-0.04522895812988281
1701881946345705200,9.822705322265625,-0.02606821060180664,-0.06093549728393555,-0.041382789611816406
1701881946355297800,9.8322978515625,-0.00021028518676757812,-0.1421360969543457,0.1465764045715332
1701881946364891100,9.84189111328125,0.07467365264892578,-0.19983863830566406,0.2808260917663574
1701881946374483700,9.851483642578126,0.12497806549072266,-0.11398124694824219,0.2101430892944336
1701881946384075500,9.861075439453124,0.1801433563232422,0.000637054443359375,0.20267009735107422
1701881946393668400,9.87066845703125,0.17206382751464844,0.1464385986328125,0.18455123901367188
1701881946403261700,9.88026171875,0.26473283767700195,0.2177128791809082,0.18505191802978516
1701881946412854300,9.889854248046875,0.16194391250610352,0.2956852912902832,0.17983341217041016
1701881946422446000,9.899446044921875,0.17548704147338867,0.28880834579467773,0.10620307922363281
1701881946432039000,9.909038818359376,0.1745738983154297,0.36358118057250977,0.02082061767578125
1701881946441632300,9.91863232421875,0.18125104904174805,0.27129697799682617,-0.0071964263916015625
1701881946451224800,9.928224853515625,0.1044759750366211,0.1341099739074707,0.061426639556884766
1701881946460816600,9.937816650390625,-0.0036115646362304688,0.005438327789306641,0.12342214584350586
1701881946470409200,9.9474091796875,0.01184988021850586,-0.0004420280456542969,0.09692955017089844
1701881946480002600,9.95700244140625,-0.061852455139160156,-0.017677783966064453,0.08835363388061523
1701881946489595100,9.96659521484375,0.02271747589111328,0.04314565658569336,-0.02142190933227539
1701881946499187000,9.97618701171875,-0.0413818359375,0.0404963493347168,-0.07459878921508789
1701881946508779800,9.98577978515625,0.004753589630126953,0.05403423309326172,-0.13682889938354492
1701881946518373000,9.995373046875,-0.042789459228515625,0.036305904388427734,-0.04378461837768555
1701881946527965700,10.004965576171875,-0.31712865829467773,0.5659379959106445,0.15383052825927734
1701881946537557500,10.0145576171875,-0.1594986915588379,0.26030683517456055,0.14060020446777344
1701881946547150000,10.024150146484375,-0.07568788528442383,0.03155803680419922,0.30536460876464844
1701881946556743700,10.03374365234375,-0.003909111022949219,-0.19374847412109375,0.21338844299316406
1701881946566336300,10.043336181640624,-0.14766454696655273,-0.26984262466430664,0.24938344955444336
1701881946575928000,10.052927978515624,-0.25661468505859375,-0.01568603515625,0.18913507461547852
1701881946585520600,10.062520751953125,-0.33936595916748047,0.04981517791748047,0.23505449295043945
1701881946595114000,10.072114013671875,-0.19576358795166016,-0.14821577072143555,0.1925668716430664
1701881946604706600,10.08170654296875,-0.06191539764404297,-0.1568922996520996,0.12370634078979492
1701881946614298400,10.09129833984375,-0.09426355361938477,-0.09552764892578125,-0.031830787658691406
1701881946623891000,10.100890869140626,-0.04229545593261719,0.4790358543395996,-0.17996597290039062
1701881946633484500,10.110484619140625,0.14560842514038086,0.878568172454834,-0.4169929027557373
1701881946643077000,10.1200771484375,0.14677143096923828,0.5513925552368164,-0.44136548042297363
1701881946652669000,10.1296689453125,-0.005438327789306641,0.12480831146240234,-0.512683629989624
1701881946662261500,10.139261474609375,-0.0033502578735351562,0.17412042617797852,-0.1444382667541504
1701881946671855000,10.148855224609376,-0.2126607894897461,0.08511161804199219,-0.23650503158569336
1701881946681447400,10.158447509765624,-0.13660049438476562,-0.2806682586669922,-0.2264561653137207
1701881946691039500,10.16803955078125,-0.1347208023071289,-0.2845916748046875,-0.1572251319885254
1701881946700632000,10.177632080078125,-0.0019135475158691406,-0.39321470260620117,-0.14276599884033203
1701881946710225400,10.187225341796875,-0.019184112548828125,-0.31255054473876953,0.026419639587402344
1701881946719818000,10.19681787109375,-0.10280656814575195,-0.013812065124511719,0.1995716094970703
1701881946729409800,10.206409912109375,-0.07149028778076172,0.001986980438232422,0.17023897171020508
1701881946739002600,10.216002685546876,-0.014510631561279297,-0.1140589714050293,0.22927331924438477
1701881946748596000,10.225595947265624,-0.09244585037231445,0.1762690544128418,0.23984050750732422
1701881946758188500,10.2351884765625,0.12061452865600586,0.0336298942565918,0.10730123519897461
1701881946767780400,10.2447802734375,0.08694887161254883,0.1245584487915039,0.1391749382019043
1701881946777373000,10.254373046875,0.0720376968383789,0.28346776962280273,0.19154071807861328
1701881946786966300,10.26396630859375,0.2128620147705078,0.13029241561889648,0.13573503494262695
1701881946796558800,10.273558837890626,0.283968448638916,-0.049375057220458984,0.16803741455078125
1701881946806150700,10.283150634765626,0.29890918731689453,-0.21444129943847656,0.11451864242553711
1701881946815743500,10.292743408203124,0.2282419204711914,-0.1879734992980957,0.1166849136352539
1701881946825336800,10.3023369140625,0.19112110137939453,-0.20147180557250977,0.12661409378051758
1701881946834929400,10.311929443359375,0.11689090728759766,-0.2418198585510254,0.13565921783447266
1701881946844521200,10.321521240234375,-0.036145687103271484,-0.16951656341552734,0.1951313018798828
1701881946854114000,10.331114013671876,-0.10107898712158203,-0.15883398056030273,0.2471766471862793
1701881946863707400,10.340707275390624,-0.09485197067260742,-0.06372451782226562,0.1930375099182129
1701881946873300000,10.350300048828124,-0.01499319076538086,-0.018796920776367188,0.03033161163330078
1701881946882891800,10.359891845703125,0.03853750228881836,-0.03759574890136719,-0.06903362274169922
1701881946892484400,10.369484375,0.24164962768554688,-0.6498632431030273,-0.27449989318847656
1701881946902077700,10.37907763671875,-0.08467388153076172,-0.22066116333007812,0.2007150650024414
1701881946911670300,10.388670166015626,-0.01934051513671875,-0.24526119232177734,0.061460018157958984
1701881946921262300,10.398262451171876,0.020859718322753906,-0.2792654037475586,0.09749841690063477
1701881946930855000,10.40785498046875,0.04409027099609375,-0.1774444580078125,0.05155658721923828
1701881946940448300,10.4174482421875,0.03189706802368164,-0.045728206634521484,0.00033855438232421875
1701881946950040800,10.427040771484375,0.00873708724975586,0.11083173751831055,-0.057764530181884766
1701881946959632600,10.436632568359375,0.09451961517333984,0.27743959426879883,-0.2097773551940918
1701881946969225200,10.44622509765625,0.07439327239990234,0.3091435432434082,-0.15055561065673828
1701881946978818800,10.45581884765625,0.05415487289428711,0.20300579071044922,-0.1567983627319336
1701881946988411400,10.465411376953124,0.014721393585205078,-0.13457012176513672,-0.16561603546142578
1701881946998003200,10.475003173828124,-0.08892107009887695,-0.3253941535949707,-0.07415771484375
1701881947007595800,10.484595703125,-0.2281794548034668,-0.20942211151123047,-0.05920696258544922
1701881947017189000,10.494189208984375,-0.25034379959106445,-0.11647319793701172,-0.005101680755615234
1701881947026781700,10.50378173828125,-0.20509576797485352,-0.17778778076171875,0.044553279876708984
1701881947036373800,10.513373779296876,-0.17327451705932617,-0.20762157440185547,0.04722118377685547
1701881947045966300,10.52296630859375,-0.11648845672607422,-0.19024324417114258,0.025220870971679688
1701881947055559700,10.5325595703125,-0.04188728332519531,-0.17570734024047852,-0.013275623321533203
1701881947065152300,10.54215234375,0.02924966812133789,-0.17771244049072266,-0.04361295700073242
1701881947074744000,10.551744140625,0.01651287078857422,-0.06624269485473633,-0.08260774612426758
1701881947084337000,10.5613369140625,0.05446481704711914,-0.021271228790283203,-0.08791112899780273
1701881947093930200,10.57093017578125,0.017065048217773438,-0.13294219970703125,-0.010406494140625
1701881947103522800,10.580522705078126,0.05478954315185547,-0.05285501480102539,-0.06486272811889648
1701881947113114600,10.590114501953124,-0.004878044128417969,-0.08857536315917969,-0.070343017578125
1701881947122707200,10.599707275390625,-0.08707571029663086,-0.14996051788330078,0.0414729118347168
1701881947132300500,10.609300537109375,-0.20917034149169922,-0.3657803535461426,0.2129039764404297
1701881947141893000,10.61889306640625,-0.06459760665893555,-0.4223194122314453,0.1358351707458496
1701881947151485200,10.628485107421875,-0.17586946487426758,-0.793025016784668,0.21709632873535156
1701881947161077800,10.638077880859376,-0.0724635124206543,-1.162895679473877,0.41768980026245117
1701881947170671000,10.647671142578124,-0.09315824508666992,-1.1026325225830078,0.5790910720825195
1701881947180263700,10.657263671875,0.09613370895385742,-1.0876407623291016,0.4905548095703125
1701881947189855500,10.66685546875,0.2844977378845215,-0.9081473350524902,0.4355950355529785
1701881947199448000,10.676447998046875,0.6385974884033203,-0.5777130126953125,0.038088321685791016
1701881947209041700,10.686041748046875,0.5694165229797363,-0.487424373626709,0.2382669448852539
1701881947218634200,10.69563427734375,0.49243927001953125,-0.1643514633178711,-0.03075551986694336
1701881947228226000,10.70522607421875,0.4367194175720215,-0.06206655502319336,-0.10799407958984375
1701881947237818600,10.714818603515624,0.35054969787597656,-0.4996647834777832,-0.0173797607421875
1701881947247412200,10.724412109375,0.34533023834228516,-1.6669907569885254,-0.00048828125
1701881947257004800,10.7340048828125,1.1754350662231445,-0.6606535911560059,0.7186703681945801
1701881947266596600,10.7435966796875,0.7656111717224121,-0.5211572647094727,0.29975080490112305
1701881947276189200,10.753189208984375,0.2257542610168457,-1.1883902549743652,-0.4068589210510254
1701881947285782500,10.762782470703126,0.26999711990356445,-1.2677664756774902,-1.5432610511779785
1701881947295375000,10.772375,-0.1527237892150879,-2.4356894493103027,-2.7653331756591797
1701881947304967000,10.781966796875,-0.7892236709594727,-1.7147760391235352,-0.5867047309875488
1701881947314559700,10.791559814453125,0.587303638458252,-1.3376569747924805,0.2500796318054199
1701881947324153000,10.801153076171875,0.8423604965209961,-1.1570682525634766,0.4401559829711914
1701881947333745700,10.81074560546875,0.2578620910644531,-1.4806642532348633,0.4714689254760742
1701881947343337500,10.82033740234375,0.9071645736694336,-1.6911649703979492,0.10035181045532227
1701881947352930000,10.829929931640624,-0.7624258995056152,-1.7380175590515137,-0.1210470199584961
1701881947362523600,10.839523681640625,-1.6758909225463867,-1.5654468536376953,1.1800289154052734
1701881947372116200,10.8491162109375,-1.1994385719299316,-1.5918269157409668,2.116270065307617
1701881947381708000,10.8587080078125,-1.9101486206054688,-1.1122770309448242,1.5653939247131348
1701881947391300600,10.868300537109375,-2.175510883331299,-1.128377914428711,0.7530913352966309
1701881947400894000,10.87789404296875,-1.4031476974487305,-0.5501270294189453,-0.4625222682952881
1701881947410486500,10.887486572265624,-2.991187334060669,0.05532264709472656,-0.09060525894165039
1701881947420078300,10.897078369140624,-3.8954784870147705,-0.8089313507080078,0.6951422691345215
1701881947429671000,10.9066708984375,-2.8762238025665283,-0.4243478775024414,0.8577666282653809
1701881947439264500,10.916264404296875,-1.7690377235412598,-1.4118022918701172,1.418877124786377
1701881947448857000,10.925857177734375,-1.7788951396942139,-1.8505535125732422,1.4044108390808105
1701881947458449000,10.935448974609375,-3.06259822845459,-1.3512353897094727,0.8217129707336426
1701881947468041700,10.945041748046876,-3.2374203205108643,-1.8009681701660156,1.2896313667297363
1701881947477635000,10.954635009765624,-2.634718894958496,-2.583193778991699,2.492452621459961
1701881947487227600,10.9642275390625,-3.498685836791992,-2.981785774230957,3.6716933250427246
1701881947496819500,10.9738193359375,-7.7974090576171875,-2.375943183898926,4.014316558837891
1701881947506412000,10.983412109375,-5.742541790008545,0.22893047332763672,-0.2832503318786621
1701881947516005400,10.99300537109375,-10.386140823364258,-2.5976295471191406,1.2684268951416016
1701881947525598000,11.002597900390626,-14.03252124786377,0.39314937591552734,9.186522483825684
1701881947535190000,11.01218994140625,-7.546458721160889,3.2340383529663086,7.155038356781006
1701881947544782600,11.021782470703124,-6.666193962097168,2.9009275436401367,7.2783589363098145
1701881947554376000,11.0313759765625,-7.0483808517456055,2.066629409790039,8.097694396972656
1701881947563968500,11.040968505859375,-6.788928031921387,1.170588493347168,8.110998153686523
1701881947573560300,11.050560302734375,-5.748565673828125,1.1778154373168945,6.733331203460693
1701881947583153200,11.060153076171876,-4.276920318603516,1.3835740089416504,5.626547813415527
1701881947592746500,11.06974658203125,-2.830772876739502,1.698692798614502,4.8649373054504395
1701881947602339000,11.079339111328125,-1.5906672477722168,1.7411985397338867,4.708851337432861
1701881947611931000,11.088930908203125,-0.3742849826812744,1.5957088470458984,4.849756240844727
1701881947621523500,11.0985234375,0.4050474166870117,1.3399019241333008,5.147834777832031
1701881947631116800,11.10811669921875,0.5234267711639404,1.1664814949035645,5.101437091827393
1701881947640709400,11.11770947265625,0.0974874496459961,0.7641434669494629,4.540144920349121
1701881947650301400,11.127301513671876,-0.2287886142730713,-0.05115699768066406,3.869917392730713
1701881947659894000,11.13689404296875,-0.8355128765106201,-1.0671820640563965,2.7949323654174805
1701881947669487400,11.1464873046875,-1.521604299545288,-2.3107266426086426,1.4525890350341797
1701881947679080000,11.156079833984375,-2.4056413173675537,-3.5928468704223633,0.0534820556640625
1701881947688671700,11.165671630859375,-3.304832935333252,-4.931857109069824,-1.2033557891845703
1701881947698264300,11.175264404296875,-4.191445827484131,-6.3256449699401855,-2.3227944374084473
1701881947707858000,11.18485791015625,-4.894329071044922,-7.894973278045654,-2.641620635986328
1701881947717450500,11.194450439453124,-4.305412292480469,-8.80441951751709,-3.494356155395508
1701881947727042300,11.204042236328124,-5.029651165008545,-8.853462219238281,-5.224429130554199
1701881947736635000,11.213634765625,-6.229668140411377,-9.269977569580078,-5.571893215179443
1701881947746228500,11.223228515625,-6.533391952514648,-9.549554824829102,-5.791956901550293
1701881947755821000,11.232821044921875,-5.881478309631348,-8.978806495666504,-6.626369953155518
1701881947765412900,11.242412841796876,-5.085160732269287,-8.069648742675781,-7.751856803894043
1701881947775005400,11.25200537109375,-3.947585105895996,-6.765259742736816,-8.46430778503418
1701881947784598800,11.261598876953125,-1.7915282249450684,-5.363748073577881,-8.147024154663086
1701881947794191400,11.27119140625,-0.047513484954833984,-5.022048473358154,-7.90413761138916
1701881947803783200,11.280783203125,0.7896175384521484,-5.041189670562744,-7.379305362701416
1701881947813376000,11.2903759765625,1.3743648529052734,-4.452450752258301,-6.8896636962890625
1701881947822969300,11.29996923828125,2.0398054122924805,-3.6032042503356934,-6.8949151039123535
1701881947832562000,11.30956201171875,-0.4884929656982422,-3.8836233615875244,-6.142558574676514
1701881947842153700,11.31915380859375,0.07477188110351562,-3.1827430725097656,-5.919308662414551
1701881947851746600,11.32874658203125,0.32539892196655273,-2.5912604331970215,-5.123061180114746
1701881947861340000,11.33833984375,0.14754486083984375,-2.1639506816864014,-3.82604718208313
1701881947870932500,11.347932373046875,0.1273789405822754,-1.3598127365112305,-2.4996113777160645
1701881947880524300,11.357524169921875,0.4102354049682617,-0.1807713508605957,-1.9329856634140015
1701881947890116900,11.367116943359376,0.7527608871459961,0.7019567489624023,-2.268047571182251
1701881947899710200,11.376710205078124,0.5285425186157227,0.40222644805908203,-2.097224473953247
1701881947909302800,11.386302734375,0.37325096130371094,-0.18669700622558594,-1.6644067764282227
1701881947918894800,11.395894775390625,0.9823102951049805,-0.8149595260620117,-1.275275468826294
1701881947928487400,11.4054873046875,1.6927318572998047,-0.8816018104553223,-1.3817323446273804
1701881947938080800,11.415080810546876,1.9439287185668945,-0.2688007354736328,-1.3250503540039062
1701881947947673300,11.42467333984375,1.4067506790161133,-0.4033820629119873,0.01116478443145752
1701881947957265200,11.43426513671875,1.2506093978881836,-0.8286323547363281,1.5014793872833252
1701881947966858000,11.44385791015625,1.564620018005371,-1.0120453834533691,2.4257068634033203
1701881947976451300,11.453451416015625,2.126087188720703,-0.81878662109375,2.2523550987243652
1701881947986044000,11.4630439453125,2.6625499725341797,-0.45336341857910156,1.4539092779159546
1701881947995635700,11.4726357421875,3.246546745300293,-0.19882988929748535,0.5445569753646851
1701881948005228300,11.482228271484376,3.702577590942383,-0.09254264831542969,-0.18786609172821045
1701881948014822000,11.49182177734375,3.495640754699707,-0.11638808250427246,-0.36987435817718506
1701881948024414200,11.501414306640624,2.926910400390625,-0.22145795822143555,0.15740323066711426
1701881948034006300,11.51100634765625,1.850271224975586,-0.0781242847442627,1.3003424406051636
1701881948043598800,11.520598876953125,1.9173164367675781,-1.05808424949646,2.802259922027588
1701881948053192200,11.530192138671875,2.81387996673584,-1.7643098831176758,3.419386148452759
1701881948062784800,11.53978466796875,3.201766014099121,-1.9171650409698486,3.1433959007263184
1701881948072376600,11.54937646484375,2.811067581176758,-1.8284765481948853,2.685298204421997
1701881948081969400,11.558969482421874,2.09539794921875,-1.5171551704406738,2.188385009765625
1701881948091562800,11.568562744140625,1.4481449127197266,-1.307161808013916,1.719406247138977
1701881948101155300,11.5781552734375,0.8750629425048828,-1.2561798095703125,1.5157099962234497
1701881948110747100,11.5877470703125,0.4656534194946289,-1.1876094341278076,1.4564886093139648
1701881948120339700,11.597339599609375,0.31371402740478516,-0.9705040454864502,1.388954520225525
1701881948129933300,11.606933349609376,-0.019201278686523438,-0.8097019195556641,1.3530834913253784
1701881948139526000,11.61652587890625,-0.5084934234619141,-0.8131539821624756,1.2671493291854858
1701881948149117700,11.62611767578125,-1.1970643997192383,-0.8812904357910156,1.1100438833236694
1701881948158710300,11.635710205078125,-1.8212976455688477,-0.8691568374633789,0.9081463813781738
1701881948168303600,11.6453037109375,-2.1483755111694336,-0.7892732620239258,0.8860968351364136
1701881948177896200,11.654896240234375,-1.9571146965026855,-0.6524090766906738,0.8821429014205933
1701881948187488000,11.664488037109376,-1.5098485946655273,-0.4753432273864746,0.8432512283325195
1701881948197080800,11.674080810546876,-0.9843897819519043,-0.40055227279663086,0.8293634653091431
1701881948206674200,11.683674072265624,-0.4196329116821289,-0.4944429397583008,0.869003415107727
1701881948216266800,11.693266845703125,0.1496286392211914,-0.6433587074279785,1.028349757194519
1701881948225858600,11.702858642578125,0.46222686767578125,-0.8004393577575684,1.4490604400634766
1701881948235451400,11.712451416015625,0.34101295471191406,-0.9003338813781738,1.797878623008728
1701881948245044700,11.722044677734376,-0.12988662719726562,-0.7623271942138672,1.92270827293396
1701881948254637300,11.73163720703125,-0.5197944641113281,-0.47624683380126953,1.759669542312622
1701881948264229000,11.74122900390625,-0.674807071685791,-0.32937002182006836,1.5239808559417725
1701881948273821700,11.75082177734375,-0.6477799415588379,-0.3742074966430664,1.3770521879196167
1701881948283415000,11.7604150390625,-0.4975128173828125,-0.47880983352661133,1.274531364440918
1701881948293008000,11.7700078125,-0.28951454162597656,-0.5430769920349121,1.238531231880188
1701881948302599700,11.779599609375,-0.2553062438964844,-0.5770721435546875,1.28941011428833
1701881948312192300,11.789192138671876,-0.3040771484375,-0.5277748107910156,1.4246114492416382
1701881948321785600,11.79878564453125,-0.3040609359741211,-0.4986534118652344,1.6497600078582764
1701881948331378200,11.808378173828125,-0.39374446868896484,-0.4948554039001465,1.769932508468628
1701881948340970000,11.817969970703125,-0.4918804168701172,-0.4085397720336914,1.7469009160995483
1701881948350562600,11.8275625,-0.5989022254943848,-0.24634695053100586,1.6410539150238037
1701881948360156200,11.83715625,-0.8327236175537109,-0.11937808990478516,1.5717875957489014
1701881948369748700,11.846748779296876,-1.0290699005126953,-0.07398843765258789,1.5589394569396973
1701881948379340500,11.856340576171876,-0.999290943145752,-0.06706476211547852,1.4965084791183472
1701881948388933000,11.86593310546875,-0.9558911323547363,-0.07317638397216797,1.3380931615829468
1701881948398526700,11.875526611328125,-0.8291382789611816,-0.12399864196777344,1.152820348739624
1701881948408119000,11.885119140625,-0.8323178291320801,-0.15398168563842773,1.046651840209961
1701881948417711000,11.894711181640625,-0.9425368309020996,-0.09656858444213867,1.0289732217788696
1701881948427303700,11.9043037109375,-0.9570760726928711,-0.018091678619384766,1.112810492515564
1701881948436897000,11.91389697265625,-0.9168801307678223,-0.004566669464111328,1.128102421760559
1701881948446489600,11.923489501953124,-0.9486665725708008,0.03718280792236328,1.0318613052368164
1701881948456081400,11.933081298828125,-0.8966641426086426,0.07538890838623047,0.9591501355171204
1701881948465674000,11.942674072265625,-0.7098393440246582,0.09880828857421875,0.9871851205825806
1701881948475267600,11.952267578125,-0.3084878921508789,0.07935571670532227,1.1121699810028076
1701881948484860200,11.961860107421876,0.091278076171875,0.08347702026367188,1.1871302127838135
1701881948494452000,11.971451904296876,0.4216270446777344,0.07747459411621094,1.2169651985168457
1701881948504044500,11.98104443359375,0.5162506103515625,0.014501094818115234,1.326155185699463
