time,seconds_elapsed,z,y,x
1701857490530293200,0.171293212890625,-1.2942326068878174,-0.40667155385017395,-0.1513374149799347
1701857490539886600,0.180886474609375,-1.2221527099609375,-1.0773818492889404,-0.0988045409321785
1701857490549480400,0.19048046875,-1.0902096033096313,-1.5465126037597656,-0.06826218217611313
1701857490559073500,0.200073486328125,-0.950936496257782,-1.5843850374221802,-0.06459710001945496
1701857490568665900,0.209665771484375,-0.8385405540466309,-1.0443960428237915,-0.06581879407167435
1701857490578259000,0.219259033203125,-0.7566870450973511,-0.7267554998397827,-0.042606595903635025
1701857490587852800,0.228852783203125,-0.7200362086296082,-0.7780666947364807,-0.025502873584628105
1701857490597446000,0.23844580078125,-0.7579087615013123,-1.0627214908599854,0.008704573847353458
1701857490607038200,0.2480380859375,-0.8312104344367981,-1.3632583618164062,0.0978882759809494
1701857490616631300,0.25763134765625,-0.9081771373748779,-1.5575077533721924,0.23349636793136597
1701857490626225200,0.26722509765625,-0.9924740791320801,-1.7028894424438477,0.3752129375934601
1701857490635818200,0.276818359375,-1.095096468925476,-1.829945683479309,0.49860408902168274
1701857490645410600,0.28641064453125,-1.2038272619247437,-1.902178406715393,0.5767925381660461
1701857490655003600,0.296003662109375,-1.2954543828964233,-1.9705932140350342,0.5706840753555298
1701857490664597500,0.305597412109375,-1.3455437421798706,-2.0438950061798096,0.4790569543838501
1701857490674190600,0.315190673828125,-1.3272184133529663,-2.028012990951538,0.32512345910072327
1701857490683783000,0.324782958984375,-1.2478082180023193,-1.9608197212219238,0.12232216447591782
1701857490693376000,0.3343759765625,-1.1574028730392456,-2.0243477821350098,-0.14767232537269592
1701857490702969900,0.343969970703125,-1.0584455728530884,-2.186833143234253,-0.46164780855178833
1701857490712563000,0.35356298828125,-0.8898517489433289,-2.1880548000335693,-0.7548545002937317
1701857490722155300,0.3631552734375,-0.710262656211853,-1.9779233932495117,-0.9515473246574402
1701857490731748400,0.372748291015625,-0.5954233407974243,-1.70533287525177,-1.0370659828186035
1701857490741342200,0.38234228515625,-0.5551074743270874,-1.445111870765686,-1.0443960428237915
1701857490750935300,0.391935302734375,-0.5844281315803528,-1.2496408224105835,-0.9918632507324219
1701857490760527600,0.401527587890625,-0.6846070885658264,-1.1592353582382202,-0.9087880253791809
1701857490770120700,0.41112060546875,-0.8263236284255981,-1.0651649236679077,-0.7768449783325195
1701857490779714600,0.420714599609375,-0.969261884689331,-0.9686510562896729,-0.5862606763839722
1701857490789307600,0.4303076171875,-1.088987946510315,-0.9845330715179443,-0.3736858069896698
1701857490798900000,0.43989990234375,-1.1806150674819946,-1.090820550918579,-0.18554484844207764
1701857490808493000,0.4494931640625,-1.2331478595733643,-1.1738957166671753,-0.043828289955854416
1701857490818087000,0.4590869140625,-1.236812949180603,-1.1555702686309814,0.05635065957903862
1701857490827680300,0.46868017578125,-1.2013838291168213,-1.0639432668685913,0.12843063473701477
1701857490837272300,0.478272216796875,-1.1378557682037354,-1.0089669227600098,0.17241163551807404
1701857490846865700,0.48786572265625,-1.0779926776885986,-0.996749997138977,0.1895153671503067
1701857490856459500,0.49745947265625,-1.0498937368392944,-1.0456178188323975,0.1785201132297516
1701857490866052600,0.507052490234375,-1.0633323192596436,-1.1616787910461426,0.14675605297088623
1701857490875644700,0.516644775390625,-1.0841012001037598,-1.2899566888809204,0.11010521650314331
1701857490885238000,0.526238037109375,-1.0902096033096313,-1.3730319738388062,0.07467607408761978
1701857490894831900,0.535831787109375,-1.0841012001037598,-1.3950223922729492,0.031916771084070206
1701857490904425000,0.545425048828125,-1.0841012001037598,-1.3632583618164062,-0.01817270554602146
1701857490914017000,0.55501708984375,-1.0779926776885986,-1.3009519577026367,-0.05360184609889984
1701857490923610400,0.5646103515625,-1.0535588264465332,-1.2508624792099,-0.07681404054164886
1701857490933204200,0.574204345703125,-1.0181297063827515,-1.187334418296814,-0.10857810080051422
1701857490942797300,0.58379736328125,-0.9863656163215637,-1.0773818492889404,-0.1513374149799347
1701857490952389600,0.5933896484375,-0.969261884689331,-0.9429954290390015,-0.20875705778598785
1701857490961982700,0.602982666015625,-0.9668185114860535,-0.8342646360397339,-0.2820587158203125
1701857490971576600,0.61257666015625,-0.9643751382827759,-0.7548545002937317,-0.3614688515663147
1701857490981169700,0.622169677734375,-0.954601526260376,-0.691326379776001,-0.43232715129852295
1701857490990762000,0.631761962890625,-0.950936496257782,-0.668114185333252,-0.47019967436790466
1701857491000355000,0.64135498046875,-0.9484930634498596,-0.6693359017372131,-0.46897798776626587
1701857491009949000,0.650948974609375,-0.9399412274360657,-0.6730009913444519,-0.43477052450180054
1701857491019542000,0.6605419921875,-0.9216157793998718,-0.6949914693832397,-0.3736858069896698
1701857491029134300,0.67013427734375,-0.9093988537788391,-0.7572978734970093,-0.29916244745254517
1701857491038727400,0.6797275390625,-0.9045121073722839,-0.82082599401474,-0.22219568490982056
1701857491048321300,0.6893212890625,-0.8898517489433289,-0.8196043372154236,-0.14400723576545715
1701857491057914400,0.698914306640625,-0.8690829277038574,-0.7646280527114868,-0.08047912269830704
1701857491067506700,0.708506591796875,-0.8434273600578308,-0.705986738204956,-0.0462716780602932
1701857491077099800,0.718099853515625,-0.8189934492111206,-0.6583406329154968,-0.04016320779919624
1701857491086693600,0.727693603515625,-0.7957812547683716,-0.61313796043396,-0.05115845799446106
1701857491096286700,0.73728662109375,-0.7689039707183838,-0.5740436911582947,-0.07437065243721008
1701857491105879000,0.746879150390625,-0.7481352090835571,-0.5593833923339844,-0.11468657106161118
1701857491115472100,0.75647216796875,-0.7298097610473633,-0.5654918551445007,-0.16844113171100616
1701857491125066000,0.76606591796875,-0.7139277458190918,-0.5911474227905273,-0.22219568490982056
1701857491134659000,0.7756591796875,-0.7078192830085754,-0.6277982592582703,-0.2673983871936798
1701857491144251400,0.78525146484375,-0.7114843726158142,-0.6534538269042969,-0.3052709102630615
1701857491153844500,0.794844482421875,-0.7151494026184082,-0.6705575585365295,-0.34070006012916565
1701857491163438300,0.804438232421875,-0.7237012982368469,-0.6986565589904785,-0.372464120388031
1701857491173031400,0.814031494140625,-0.7322531342506409,-0.7096518278121948,-0.38956785202026367
1701857491182623700,0.823623779296875,-0.7371399402618408,-0.6998782753944397,-0.4017847776412964
1701857491192216800,0.833216796875,-0.7346965670585632,-0.6730009913444519,-0.4103366434574127
1701857491201810700,0.842810791015625,-0.7261446714401245,-0.6387935280799866,-0.42011019587516785
1701857491211403800,0.85240380859375,-0.7090409398078918,-0.6449019908905029,-0.4384356141090393
1701857491220996000,0.86199609375,-0.6809419989585876,-0.6839962005615234,-0.46042612195014954
1701857491230589200,0.871589111328125,-0.640626072883606,-0.7157602906227112,-0.4811949133872986
1701857491240183000,0.88118310546875,-0.5868715047836304,-0.7401941418647766,-0.4885250926017761
1701857491249776000,0.890776123046875,-0.5380037426948547,-0.7780666947364807,-0.48486000299453735
1701857491259368400,0.900368408203125,-0.506239652633667,-0.8293778896331787,-0.46042612195014954
1701857491268961500,0.90996142578125,-0.5001311898231506,-0.8819107413291931,-0.40789327025413513
1701857491278555400,0.919555419921875,-0.5160132050514221,-0.903901219367981,-0.3382566571235657
1701857491288148500,0.9291484375,-0.5453338623046875,-0.903901219367981,-0.2698417901992798
1701857491297740800,0.93874072265625,-0.5722111463546753,-0.8758022785186768,-0.22097399830818176
1701857491307334000,0.948333984375,-0.5697677731513977,-0.8025006055831909,-0.19898349046707153
1701857491316927700,0.957927734375,-0.5331169366836548,-0.6937697529792786,-0.20631365478038788
1701857491326521000,0.96752099609375,-0.474475622177124,-0.556939959526062,-0.23685602843761444
1701857491336113200,0.977113037109375,-0.4146125912666321,-0.40667155385017395,-0.27717193961143494
1701857491345706500,0.98670654296875,-0.35597124695777893,-0.2832804024219513,-0.31137940287590027
1701857491355300400,0.99630029296875,-0.31199023127555847,-0.22463907301425934,-0.3211529552936554
1701857491364893400,1.0058935546875,-0.296108216047287,-0.2429644912481308,-0.29916244745254517
1701857491374485500,1.015485595703125,-0.3083251416683197,-0.31382277607917786,-0.2429644912481308
1701857491384078800,1.025078857421875,-0.3449759781360626,-0.40667155385017395,-0.14767232537269592
1701857491393672700,1.034672607421875,-0.39384377002716064,-0.4677563011646271,-0.026724567636847496
1701857491403265800,1.044265869140625,-0.4268295168876648,-0.47264307737350464,0.0856713280081749
1701857491412857900,1.05385791015625,-0.43049460649490356,-0.4372139275074005,0.1626380831003189
1701857491422451200,1.063451171875,-0.40483900904655457,-0.3834593594074249,0.19440214335918427
1701857491432045000,1.073045166015625,-0.35597124695777893,-0.3089359998703003,0.18585027754306793
1701857491441638100,1.08263818359375,-0.293664813041687,-0.23196925222873688,0.14797775447368622
1701857491451230500,1.09223046875,-0.23991025984287262,-0.16966283321380615,0.09422318637371063
1701857491460823600,1.101823486328125,-0.20570281147956848,-0.14767232537269592,0.0331384651362896
1701857491470417400,1.11141748046875,-0.2020377367734909,-0.17088451981544495,-0.023059483617544174
1701857491480010500,1.121010498046875,-0.23380178213119507,-0.2148655205965042,-0.060932014137506485
1701857491489602800,1.130602783203125,-0.2826695740222931,-0.24907296895980835,-0.07437065243721008
1701857491499196000,1.14019580078125,-0.3217637836933136,-0.2673983871936798,-0.07437065243721008
1701857491508789800,1.149789794921875,-0.34253260493278503,-0.2722851634025574,-0.06459710001945496
1701857491518382800,1.1593828125,-0.3486410677433014,-0.24540787935256958,-0.04749337583780289
1701857491527975200,1.16897509765625,-0.3315373361110687,-0.18065807223320007,-0.03161134570837021
1701857491537568300,1.178568359375,-0.293664813041687,-0.0841442123055458,-0.020616095513105392
1701857491547162000,1.188162109375,-0.24846212565898895,0.03436015918850899,-0.01817270554602146
1701857491556755200,1.197755126953125,-0.20814619958400726,0.12354385852813721,-0.0328330397605896
1701857491566347500,1.207347412109375,-0.17882554233074188,0.1626380831003189,-0.059710320085287094
1701857491575940600,1.216940673828125,-0.16905197501182556,0.14309096336364746,-0.09025268256664276
1701857491585534500,1.226534423828125,-0.18371231853961945,0.09422318637371063,-0.10369132459163666
1701857491595127600,1.23612744140625,-0.20936790108680725,0.06368082761764526,-0.10002623498439789
1701857491604719900,1.245719970703125,-0.2276933193206787,0.0587940476834774,-0.08903098851442337
1701857491614313000,1.25531298828125,-0.23380178213119507,0.06001574173569679,-0.08170082420110703
1701857491623906800,1.26490673828125,-0.22158484160900116,0.07711946964263916,-0.08047912269830704
1701857491633500000,1.2745,-0.1898207813501358,0.125987246632576,-0.08047912269830704
1701857491643092200,1.28409228515625,-0.14095300436019897,0.17974179983139038,-0.07803573459386826
1701857491652685300,1.293685302734375,-0.08964183181524277,0.2286095917224884,-0.059710320085287094
1701857491662279200,1.303279052734375,-0.04932591691613197,0.2713688910007477,-0.025502873584628105
1701857491671872300,1.312872314453125,-0.012675080448389053,0.31168481707572937,0.030695075169205666
1701857491681464600,1.322464599609375,0.017867282032966614,0.3336753249168396,0.08933641016483307
1701857491691057700,1.3320576171875,0.04107947647571564,0.3239017724990845,0.13942588865756989
1701857491700651500,1.341651611328125,0.058183200657367706,0.26159533858299255,0.16141638159751892
1701857491710244600,1.35124462890625,0.056961506605148315,0.1382041871547699,0.16874656081199646
1701857491719837000,1.3608369140625,0.0325276181101799,-0.005955760832875967,0.1772984117269516
1701857491729430000,1.370429931640625,0.0007635590736754239,-0.10613471269607544,0.19806721806526184
1701857491739024000,1.38002392578125,-0.021226942539215088,-0.15622419118881226,0.22372281551361084
1701857491748617000,1.389616943359375,-0.033443886786699295,-0.1757712960243225,0.23960483074188232
1701857491758209300,1.399209228515625,-0.03833066672086716,-0.17088451981544495,0.23960483074188232
1701857491767802400,1.40880224609375,-0.034665580838918686,-0.1244601309299469,0.2286095917224884
1701857491777396200,1.418396240234375,-0.02367033064365387,-0.03771981969475746,0.20784078538417816
1701857491786989600,1.427989501953125,-0.01511846948415041,0.05757235363125801,0.18218518793582916
1701857491796581600,1.43758154296875,-0.009009997360408306,0.13209572434425354,0.1516428291797638
1701857491806175000,1.447175048828125,-0.012675080448389053,0.15775130689144135,0.1247655525803566
1701857491815768800,1.456768798828125,-0.03588727489113808,0.125987246632576,0.10766182839870453
1701857491825362000,1.46636181640625,-0.08108997344970703,0.05024218559265137,0.10399674624204636
1701857491834954000,1.4759541015625,-0.14095300436019897,-0.0328330397605896,0.1113269105553627
1701857491844547300,1.48554736328125,-0.2032594233751297,-0.09391776472330093,0.11254860460758209
1701857491854141200,1.49514111328125,-0.2570139765739441,-0.11712995916604996,0.0978882759809494
1701857491863734300,1.504734375,-0.296108216047287,-0.11468657106161118,0.06490252166986465
1701857491873326600,1.51432666015625,-0.3205420970916748,-0.08903098851442337,0.008704573847353458
1701857491882919700,1.523919677734375,-0.32665055990219116,-0.027946261689066887,-0.059710320085287094
1701857491892513500,1.533513427734375,-0.3180987238883972,0.05024218559265137,-0.12812520563602448
1701857491902106600,1.543106689453125,-0.30221667885780334,0.12965233623981476,-0.19287502765655518
1701857491911699000,1.552698974609375,-0.2826695740222931,0.2017323076725006,-0.25029465556144714
1701857491921292000,1.5622919921875,-0.2680092453956604,0.2518217861652374,-0.2918322682380676
1701857491930886000,1.571885986328125,-0.2655658423900604,0.2591519355773926,-0.3101576864719391
1701857491940479000,1.58147900390625,-0.27411770820617676,0.2286095917224884,-0.3077143132686615
1701857491950071300,1.5910712890625,-0.28999972343444824,0.1907370537519455,-0.28694549202919006
1701857491959664400,1.600664306640625,-0.2973299026489258,0.17118994891643524,-0.2551814317703247
1701857491969258200,1.61025830078125,-0.28877803683280945,0.15530791878700256,-0.23563432693481445
1701857491978851300,1.619851318359375,-0.2667875289916992,0.12110047042369843,-0.23807771503925323
1701857491988443600,1.629443603515625,-0.2301367074251175,0.08078455179929733,-0.2576248347759247
1701857491998036700,1.63903662109375,-0.18615570664405823,0.051463883370161057,-0.2820587158203125
1701857492007630600,1.648630615234375,-0.14461809396743774,0.00992626789957285,-0.3064926266670227
1701857492017223700,1.6582236328125,-0.10918894410133362,-0.0328330397605896,-0.32603973150253296
1701857492026816000,1.66781591796875,-0.08108997344970703,-0.062153708189725876,-0.32726141810417175
1701857492036409000,1.6774091796875,-0.05665608495473862,-0.06459710001945496,-0.3101576864719391
1701857492046003000,1.6870029296875,-0.037108972668647766,-0.03649812191724777,-0.2808370292186737
1701857492055596000,1.696595947265625,-0.02367033064365387,0.00259610079228878,-0.2539597451686859
1701857492065188400,1.706188232421875,-0.01511846948415041,0.028251685202121735,-0.23563432693481445
1701857492074781400,1.715781494140625,-0.009009997360408306,0.023364907130599022,-0.22341738641262054
1701857492084375300,1.725375244140625,-0.0004581354442052543,-0.013285927474498749,-0.217308908700943
1701857492093968400,1.734968505859375,0.009315420873463154,-0.07314895838499069,-0.20997874438762665
1701857492103560700,1.744560791015625,0.0068720318377017975,-0.14889401197433472,-0.1904316395521164
1701857492113153800,1.75415380859375,-0.011453386396169662,-0.21364383399486542,-0.15378080308437347
1701857492122747600,1.76374755859375,-0.033443886786699295,-0.241742804646492,-0.10735640674829483
1701857492132340700,1.7733408203125,-0.0456608310341835,-0.23441264033317566,-0.06337540596723557
1701857492141933000,1.78293310546875,-0.04443913698196411,-0.1904316395521164,-0.030389651656150818
1701857492151526100,1.792526123046875,-0.029778804630041122,-0.1378987729549408,-0.01695101149380207
1701857492161120300,1.802120361328125,-0.013896775431931019,-0.10857810080051422,-0.021837789565324783
1701857492170713000,1.811713134765625,0.0032069480512291193,-0.10491301864385605,-0.041384901851415634
1701857492180305400,1.821305419921875,0.021532366052269936,-0.13423368334770203,-0.06826218217611313
1701857492189898800,1.830898681640625,0.036192700266838074,-0.19287502765655518,-0.08292251825332642
1701857492199492600,1.84049267578125,0.037414394319057465,-0.24540787935256958,-0.07314895838499069
1701857492209085400,1.85008544921875,0.023975754156708717,-0.27472856640815735,-0.04504998400807381
1701857492218677800,1.859677734375,-0.0029015245381742716,-0.2942756712436676,-0.01817270554602146
1701857492228270800,1.869270751953125,-0.034665580838918686,-0.29061058163642883,-0.008399149402976036
1701857492237865000,1.878864990234375,-0.06642963737249374,-0.24052110314369202,-0.01695101149380207
1701857492247458000,1.8884580078125,-0.09941539168357849,-0.14400723576545715,-0.0462716780602932
1701857492257050400,1.89805029296875,-0.13240113854408264,-0.03527642786502838,-0.09636115282773972
1701857492266643500,1.9076435546875,-0.16172181069850922,0.06612421572208405,-0.1635543555021286
1701857492276237300,1.9172373046875,-0.18493400514125824,0.14064757525920868,-0.24540787935256958
1701857492285830400,1.926830322265625,-0.2032594233751297,0.1772984117269516,-0.32848310470581055
1701857492295422500,1.93642236328125,-0.21058958768844604,0.1772984117269516,-0.3871244490146637
1701857492305015800,1.946015869140625,-0.20936790108680725,0.15897299349308014,-0.4091149568557739
1701857492314609700,1.955609619140625,-0.21181128919124603,0.11377029865980148,-0.3981196880340576
1701857492324202800,1.96520263671875,-0.21425467729568481,0.06245913356542587,-0.3578037917613983
1701857492333795000,1.974795166015625,-0.21181128919124603,0.025808297097682953,-0.28938889503479004
1701857492343388200,1.98438818359375,-0.20814619958400726,0.0038177953101694584,-0.21364383399486542
1701857492352982000,1.99398193359375,-0.19837264716625214,-0.0035123717971146107,-0.1501157134771347
1701857492362575000,2.0035751953125,-0.16905197501182556,0.008704573847353458,-0.10735640674829483
1701857492372167400,2.01316748046875,-0.13484452664852142,0.029473381116986275,-0.0853659063577652
1701857492381760500,2.022760498046875,-0.11896250396966934,0.025808297097682953,-0.08780929446220398
1701857492391354400,2.032354248046875,-0.1104106456041336,-0.01817270554602146,-0.10613471269607544
1701857492400947500,2.041947509765625,-0.10430216789245605,-0.09636115282773972,-0.1378987729549408
1701857492410539800,2.051539794921875,-0.09330692142248154,-0.17454960942268372,-0.16844113171100616
1701857492420132900,2.0611328125,-0.06276455521583557,-0.22097399830818176,-0.16966283321380615
1701857492429726700,2.070726806640625,0.014202198944985867,-0.17332790791988373,-0.1122431829571724
1701857492439319800,2.08031982421875,0.10460758954286575,-0.03894151374697685,-0.0022906772792339325
1701857492448912100,2.089912109375,0.15591876208782196,0.09300149232149124,0.12110047042369843
1701857492458505200,2.099505126953125,0.1754658818244934,0.149199441075325,0.2151709496974945
1701857492468099000,2.10909912109375,0.18157434463500977,0.051463883370161057,0.26281702518463135
1701857492477692200,2.118692138671875,0.16813570261001587,-0.1378987729549408,0.2725905776023865
1701857492487284500,2.128284423828125,0.14858859777450562,-0.3077143132686615,0.27503398060798645
1701857492496877600,2.137877685546875,0.12904147803783417,-0.4518742561340332,0.254265159368515
1701857492506471400,2.147471435546875,0.1119377613067627,-0.5801522135734558,0.19318044185638428
1701857492516064500,2.157064453125,0.08017370104789734,-0.668114185333252,0.10888352245092392
1701857492525656800,2.16665673828125,0.03374931216239929,-0.7304205894470215,0.029473381116986275
1701857492535250000,2.17625,-0.017561858519911766,-0.7450809478759766,0.006261184345930815
1701857492544843800,2.18584375,-0.06032116711139679,-0.7120952010154724,0.05268557742238045
1701857492554436900,2.195436767578125,-0.09452861547470093,-0.6571189165115356,0.14553436636924744
1701857492564029200,2.205029296875,-0.11774080991744995,-0.5923691391944885,0.2420482337474823
1701857492573622300,2.214622314453125,-0.13973131775856018,-0.5398362874984741,0.305576354265213
1701857492583216400,2.22421630859375,-0.15805672109127045,-0.5239542126655579,0.3104631304740906
1701857492592809500,2.2338095703125,-0.164165198802948,-0.5593833923339844,0.26037365198135376
1701857492602401500,2.243401611328125,-0.16538690030574799,-0.5654918551445007,0.18462859094142914
1701857492611995000,2.252994873046875,-0.14461809396743774,-0.5654918551445007,0.11621369421482086
1701857492621588700,2.262588623046875,-0.12140589207410812,-0.5887040495872498,0.0587940476834774
1701857492631181800,2.272181884765625,-0.08842013776302338,-0.6241331696510315,0.016034740954637527
1701857492640774000,2.28177392578125,-0.031000498682260513,-0.7010999321937561,-0.0010689827613532543
1701857492650367200,2.2913671875,0.08017370104789734,-0.8049439787864685,0.023364907130599022
1701857492659961000,2.300961181640625,0.2560977041721344,-0.8806890249252319,0.11743538826704025
1701857492669554200,2.31055419921875,0.509141206741333,-0.9124531149864197,0.30191126465797424
1701857492679146500,2.320146484375,0.8573241233825684,-1.0443960428237915,0.5584670901298523
1701857492688739600,2.329739501953125,1.3777660131454468,-1.4597722291946411,0.8272398710250854
1701857492698333400,2.33933349609375,1.8896559476852417,-2.0377864837646484,1.118003249168396
1701857492707926500,2.348926513671875,2.1975231170654297,-2.575331926345825,1.4380871057510376
1701857492717518800,2.358518798828125,2.349013090133667,-2.965052604675293,1.7509936094284058
1701857492727112000,2.36811181640625,2.5041682720184326,-3.1544151306152344,2.0503089427948
1701857492736705800,2.377705810546875,2.708191394805908,-3.1263163089752197,2.3337419033050537
1701857492746299000,2.387298828125,2.913435935974121,-2.83188796043396,2.606179714202881
1701857492755891200,2.39689111328125,3.072256326675415,-2.326106309890747,2.876174211502075
1701857492765484300,2.406484375,3.165105104446411,-1.7468703985214233,3.1437253952026367
1701857492775078100,2.416078125,3.233520030975342,-1.287513256072998,3.405168056488037
1701857492784671200,2.425671142578125,3.323925256729126,-1.1042591333389282,3.650728702545166
1701857492794263600,2.435263671875,3.4375429153442383,-1.1812258958816528,3.873077154159546
1701857492803856600,2.444856689453125,3.5401651859283447,-1.4524420499801636,4.05510950088501
1701857492813450500,2.454450439453125,3.5914764404296875,-1.8360542058944702,4.182165622711182
1701857492823043600,2.464043701171875,3.5645992755889893,-2.2063803672790527,4.248137474060059
1701857492832636000,2.473635986328125,3.457090139389038,-2.438502311706543,4.248137474060059
1701857492842229000,2.48322900390625,3.311708450317383,-2.4433889389038086,4.171170711517334
1701857492851822800,2.49282275390625,3.2274115085601807,-2.210045337677002,4.0111284255981445
1701857492861416000,2.502416015625,3.3605761528015137,-1.823837161064148,3.764346122741699
1701857492871009300,2.51200927734375,3.7710654735565186,-1.376697063446045,3.422271728515625
1701857492880601600,2.5216015625,4.373361110687256,-0.9625425934791565,3.008117437362671
1701857492890195500,2.531195556640625,4.9512224197387695,-0.6070294380187988,2.582967519760132
1701857492899788500,2.54078857421875,5.2810797691345215,-0.35536038875579834,2.2005772590637207
1701857492909380900,2.550380859375,5.364155292510986,-0.20142687857151031,1.9171441793441772
1701857492918974000,2.559973876953125,5.397140979766846,-0.10979979485273361,1.7558804750442505
1701857492928567800,2.56956787109375,5.481437683105469,-0.08903098851442337,1.71678626537323
1701857492938161000,2.579160888671875,5.573064804077148,-0.12812520563602448,1.7839794158935547
1701857492947753200,2.588753173828125,5.609715938568115,-0.1647760421037674,1.9220309257507324
1701857492957346300,2.59834619140625,5.500985145568848,-0.2038702666759491,2.091846466064453
1701857492966940200,2.607940185546875,5.230990409851074,-0.349251925945282,2.2176809310913086
1701857492976533200,2.617533203125,4.953665733337402,-0.6937697529792786,2.2262327671051025
1701857492986125600,2.62712548828125,4.766746520996094,-1.2459757328033447,2.134605646133423
1701857492995718700,2.63671875,4.681228160858154,-1.815285325050354,2.036870241165161
1701857493005312500,2.6463125,4.70932674407959,-2.1049797534942627,1.9574600458145142
1701857493014905600,2.655905517578125,4.787515163421631,-2.123305082321167,1.8756065368652344
1701857493024498000,2.665497802734375,4.292728900909424,-2.7695815563201904,1.3476817607879639
1701857493034091000,2.675091064453125,2.759502410888672,-4.781712532043457,-0.09025268256664276
1701857493043684900,2.684684814453125,2.3306877613067627,-5.546493053436279,-1.1018157005310059
1701857493053278000,2.69427783203125,2.8560163974761963,-4.9539713859558105,-1.6454697847366333
1701857493062870300,2.703870361328125,3.622018814086914,-3.0701184272766113,-1.7761911153793335
1701857493072463400,2.71346337890625,4.281733989715576,-0.5129590034484863,-1.3742536306381226
1701857493082057200,2.72305712890625,3.815046548843384,1.8045954704284668,-0.34070006012916565
1701857493091650300,2.732650390625,3.05759596824646,3.2755157947540283,0.6562026739120483
1701857493101242600,2.74224267578125,3.4326562881469727,3.5187857151031494,0.6794148683547974
1701857493110835700,2.751835693359375,3.926220655441284,1.659213900566101,-0.7072083950042725
1701857493120429600,2.7614296875,3.0600392818450928,-0.9381086826324463,-1.0101886987686157
1701857493130022700,2.771022705078125,1.6709727048873901,-2.7317090034484863,-0.12690351903438568
1701857493139615000,2.780614990234375,2.215848445892334,-2.5240209102630615,-0.2808370292186737
1701857493149208000,2.7902080078125,3.1162374019622803,-1.539182424545288,-0.6033644080162048
1701857493158802200,2.79980224609375,3.3947837352752686,-0.6644490957260132,-0.8867974877357483
1701857493168395000,2.80939501953125,3.262840747833252,-0.7524111270904541,-0.9747595191001892
1701857493177987300,2.8189873046875,3.2652840614318848,-0.9845330715179443,-1.2203201055526733
1701857493187580400,2.828580322265625,3.46319842338562,-0.9442171454429626,-1.3962441682815552
1701857493197174300,2.83817431640625,3.144336223602295,-1.2862915992736816,-1.1812258958816528
1701857493206767600,2.847767578125,3.1809871196746826,-1.588050127029419,-1.0272923707962036
1701857493216359700,2.857359619140625,3.494962692260742,-1.2398672103881836,-0.668114185333252
1701857493225953000,2.866953125,3.442429780960083,-0.5960342288017273,-0.40667155385017395
1701857493235547000,2.876546875,3.1027987003326416,-0.28938889503479004,-0.4140017330646515
1701857493245140000,2.886139892578125,2.638554811477661,-0.3358132839202881,-0.39323291182518005
1701857493254732000,2.89573193359375,2.317249059677124,-0.36635565757751465,-0.24907296895980835
1701857493264325400,2.905325439453125,2.0472545623779297,-0.28816720843315125,-0.027946261689066887
1701857493273919200,2.914919189453125,1.7491611242294312,-0.15378080308437347,0.2298312783241272
1701857493283512300,2.92451220703125,1.4241904020309448,0.001374406274408102,0.4546230733394623
1701857493293104400,2.9341044921875,1.0870027542114258,0.19195875525474548,0.5963396430015564
1701857493302697700,2.94369775390625,0.9245173335075378,0.6769714951515198,0.5657972693443298
1701857493312291600,2.95329150390625,0.555565595626831,0.80280601978302,0.4497362971305847
1701857493321884700,2.962884765625,0.11560284346342087,0.8101361989974976,0.5083776116371155
1701857493331477000,2.97247705078125,-0.11285403370857239,0.8174663186073303,0.5425850749015808
1701857493341070000,2.982070068359375,-0.23624517023563385,0.7966975569725037,0.48394373059272766
1701857493350664000,2.991663818359375,-0.18371231853961945,0.8296833038330078,0.4289674758911133
1701857493360257000,3.001257080078125,0.08383878320455551,0.9836167693138123,0.4375193417072296
1701857493369849300,3.010849365234375,0.4065188467502594,1.032484531402588,0.5083776116371155
1701857493379442400,3.0204423828125,0.6435275673866272,0.9152019023895264,0.5706840753555298
1701857493389036300,3.030036376953125,0.8365553021430969,0.5548020005226135,0.5609105229377747
1701857493398629400,3.03962939453125,1.1041064262390137,0.23960483074188232,0.45828816294670105
1701857493408221700,3.0492216796875,1.3899829387664795,0.030695075169205666,0.24571330845355988
1701857493417814800,3.058814697265625,1.6721943616867065,-0.4640912115573883,0.023364907130599022
1701857493427408600,3.06840869140625,1.901872992515564,-0.7902836203575134,-0.05238015204668045
1701857493437001700,3.078001708984375,2.0179338455200195,-0.9491039514541626,0.00259610079228878
1701857493446594000,3.087593994140625,2.129108190536499,-0.9454388618469238,0.08200624585151672
1701857493456187100,3.097187255859375,2.2952585220336914,-0.9356653094291687,0.1650814712047577
1701857493465781000,3.106781005859375,2.493173122406006,-0.8806890249252319,0.27381229400634766
1701857493475374000,3.1163740234375,2.5872435569763184,-0.7255338430404663,0.39231663942337036
1701857493484966400,3.12596630859375,2.5615880489349365,-0.5923691391944885,0.47050508856773376
1701857493494559500,3.1355595703125,2.447970390319824,-0.49829864501953125,0.48516544699668884
1701857493504153300,3.1451533203125,2.247612476348877,-0.4408790171146393,0.44607120752334595
1701857493513746400,3.154746337890625,1.9641793966293335,-0.43477052450180054,0.3837648034095764
1701857493523338800,3.1643388671875,1.6147747039794922,-0.4421007037162781,0.3190149664878845
1701857493532931800,3.173931884765625,1.2116155624389648,-0.38223767280578613,0.2652604281902313
1701857493542525700,3.183525634765625,0.744928240776062,-0.22586077451705933,0.20539739727973938
1701857493552118800,3.193118896484375,0.21333840489387512,-0.09025268256664276,0.11743538826704025
1701857493561711000,3.202711181640625,-0.2851129472255707,-0.0853659063577652,0.0038177953101694584
1701857493571304200,3.21230419921875,-0.399952232837677,-0.21364383399486542,-0.3077143132686615
1701857493580898000,3.22189794921875,-0.02733541466295719,-0.7096518278121948,-0.5386145710945129
1701857493590491400,3.231491455078125,-0.0847550556063652,-0.7597413063049316,0.02092151902616024
1701857493600083500,3.24108349609375,-0.06032116711139679,-0.6546755433082581,0.20661908388137817
1701857493609676500,3.250676513671875,0.2438807636499405,-0.9161182045936584,0.045355409383773804
1701857493619270700,3.260270751953125,0.47859883308410645,-1.070051670074463,0.072232685983181
1701857493628863500,3.269863525390625,0.38071054220199585,-0.9014578461647034,0.2591519355773926
1701857493638455800,3.279455810546875,0.05085303261876106,-0.7682931423187256,0.5584670901298523
1701857493648049200,3.289049072265625,-0.08353336155414581,-0.6180247068405151,0.7014053463935852
1701857493657643000,3.29864306640625,0.2939702570438385,-1.0773818492889404,0.5975613594055176
1701857493667236000,3.308236083984375,1.1493091583251953,-1.5123051404953003,0.2970244884490967
1701857493676828200,3.317828125,1.9275285005569458,-1.2691879272460938,0.06734590977430344
1701857493686421500,3.32742138671875,2.4259798526763916,-0.7463026642799377,-0.041384901851415634
1701857493696015400,3.337015380859375,2.7155215740203857,-0.43477052450180054,-0.03527642786502838
1701857493705608400,3.3466083984375,2.51149845123291,-0.03161134570837021,0.001374406274408102
1701857493715200800,3.35620068359375,1.6221048831939697,0.2958027720451355,-0.14889401197433472
1701857493724793900,3.3657939453125,0.9978190064430237,-0.15500248968601227,-0.2441861927509308
1701857493734387700,3.3753876953125,0.5445703268051147,-0.6204680800437927,-0.07681404054164886
1701857493743980800,3.384980712890625,0.23410721123218536,-0.737750768661499,0.18462859094142914
1701857493753572900,3.39457275390625,-0.012675080448389053,-0.60825115442276,0.4130854606628418
1701857493763166200,3.404166259765625,-0.164165198802948,-0.6204680800437927,0.5095993280410767
1701857493772760000,3.413760009765625,-0.22402822971343994,-0.7267554998397827,0.49738237261772156
1701857493782353200,3.423353271484375,-0.27411770820617676,-0.7927270531654358,0.45828816294670105
1701857493791945500,3.432945556640625,-0.3180987238883972,-0.8244910836219788,0.5010474920272827
1701857493801538600,3.44253857421875,-0.319320410490036,-0.7951704263687134,0.5181511640548706
1701857493811132400,3.45213232421875,-0.3071034550666809,-0.7096518278121948,0.4399627447128296
1701857493820725500,3.4617255859375,-0.2985515892505646,-0.6485670804977417,0.35566580295562744
1701857493830317800,3.47131787109375,-0.2802261710166931,-0.6473453640937805,0.3092414140701294
1701857493839911000,3.480910888671875,-0.2655658423900604,-0.6766660213470459,0.30313295125961304
1701857493849504800,3.4905048828125,-0.2557922899723053,-0.7230904698371887,0.3226800560951233
1701857493859097900,3.500097900390625,-0.2435753494501114,-0.7792884111404419,0.34222719073295593
1701857493868690200,3.509690185546875,-0.23868857324123383,-0.8147175312042236,0.3617742955684662
1701857493878283300,3.519283203125,-0.22280654311180115,-0.8782456517219543,0.39231663942337036
1701857493887877000,3.528877197265625,-0.19837264716625214,-0.9686510562896729,0.4265241026878357
1701857493897470200,3.53847021484375,-0.18004722893238068,-1.0346225500106812,0.44362783432006836
1701857493907062500,3.5480625,-0.1776038408279419,-1.093263864517212,0.45706647634506226
1701857493916655600,3.557655517578125,-0.19592925906181335,-1.1103676557540894,0.4656183123588562
1701857493926249500,3.56724951171875,-0.21914145350456238,-1.116476058959961,0.47294849157333374
1701857493935842600,3.576842529296875,-0.22524993121623993,-1.1372449398040771,0.47539186477661133
1701857493945435000,3.586434814453125,-0.22280654311180115,-1.1738957166671753,0.48272204399108887
1701857493955028000,3.596028076171875,-0.2166980654001236,-1.2215417623519897,0.49860408902168274
1701857493964621800,3.605621826171875,-0.21181128919124603,-1.2618577480316162,0.5279247164726257
1701857493974215000,3.61521484375,-0.20570281147956848,-1.2838482856750488,0.567018985748291
1701857493983807200,3.62480712890625,-0.2032594233751297,-1.2911783456802368,0.598783016204834
1701857493993400300,3.634400390625,-0.1910424828529358,-1.2899566888809204,0.6048914790153503
1701857494002994200,3.643994140625,-0.16905197501182556,-1.28018319606781,0.5792359113693237
1701857494012587300,3.653587158203125,-0.14217470586299896,-1.2691879272460938,0.5364766120910645
1701857494022179600,3.6631796875,-0.12629267573356628,-1.2410888671875,0.5095993280410767
1701857494031772700,3.672772705078125,-0.10796725004911423,-1.2471973896026611,0.49493899941444397
1701857494041366500,3.682366455078125,-0.08353336155414581,-1.311947226524353,0.47539186477661133
1701857494050959600,3.691959716796875,-0.09086353331804276,-1.3388245105743408,0.44729289412498474
1701857494060552000,3.701552001953125,-0.1238492801785469,-1.3192774057388306,0.43141087889671326
1701857494070145000,3.71114501953125,-0.17149536311626434,-1.3070604801177979,0.44484952092170715
1701857494079739000,3.72073876953125,-0.22158484160900116,-1.3009519577026367,0.4778352677822113
1701857494089332000,3.73033203125,-0.2582356929779053,-1.2814048528671265,0.5132644176483154
1701857494098924300,3.73992431640625,-0.27411770820617676,-1.2410888671875,0.5413633584976196
1701857494108517400,3.749517333984375,-0.2655658423900604,-1.1897777318954468,0.5511369109153748
1701857494118111200,3.759111328125,-0.26434415578842163,-1.1763391494750977,0.4265241026878357
1701857494127704300,3.768704345703125,-0.2570139765739441,-1.2044380903244019,0.31657159328460693
1701857494137296600,3.778296630859375,-0.22647161781787872,-1.2313153743743896,0.337340384721756
1701857494146889700,3.7878896484375,-0.20936790108680725,-1.2227635383605957,0.3752129375934601
1701857494156483600,3.797483642578125,-0.19959434866905212,-1.1824475526809692,0.40575528144836426
1701857494166076700,3.80707666015625,-0.1910424828529358,-1.122584581375122,0.4253024160861969
1701857494175669000,3.8166689453125,-0.1776038408279419,-1.0590564012527466,0.43141087889671326
1701857494185262000,3.826261962890625,-0.15805672109127045,-0.9991934299468994,0.4240806996822357
1701857494194856000,3.83585595703125,-0.14095300436019897,-0.9466605186462402,0.40819868445396423
1701857494204449000,3.845448974609375,-0.1250709742307663,-0.895349383354187,0.388651579618454
1701857494214041300,3.855041259765625,-0.11407572776079178,-0.8452599048614502,0.36788275837898254
1701857494223634400,3.864634521484375,-0.10674555599689484,-0.7963921427726746,0.35444411635398865
1701857494233228300,3.874228271484375,-0.10185877978801727,-0.7475243210792542,0.3458922505378723
1701857494242821400,3.8838212890625,-0.09452861547470093,-0.7096518278121948,0.337340384721756
1701857494252413700,3.89341357421875,-0.0847550556063652,-0.6839962005615234,0.3324536085128784
1701857494262006800,3.9030068359375,-0.07375980913639069,-0.668114185333252,0.32756683230400085
1701857494271600600,3.9126005859375,-0.06398624926805496,-0.6534538269042969,0.3202366828918457
1701857494281193700,3.92219384765625,-0.05543438717722893,-0.636350154876709,0.31168481707572937
1701857494290786000,3.9317861328125,-0.050547610968351364,-0.6192464232444763,0.30313295125961304
1701857494300379100,3.941379150390625,-0.0456608310341835,-0.6045860648155212,0.2921377122402191
1701857494309973000,3.950972900390625,-0.04199574887752533,-0.5911474227905273,0.279920756816864
1701857494319566000,3.960566162109375,-0.03955236077308655,-0.5777087807655334,0.2677038013935089
1701857494329158400,3.970158447265625,-0.03588727489113808,-0.5667135715484619,0.2591519355773926
1701857494338751500,3.97975146484375,-0.034665580838918686,-0.5581616759300232,0.2518217861652374
1701857494348345300,3.989345458984375,-0.033443886786699295,-0.5508314967155457,0.24571330845355988
1701857494357938400,3.9989384765625,-0.028557108715176582,-0.5447230339050293,0.23960483074188232
1701857494367530800,4.00853076171875,-0.0261137206107378,-0.5398362874984741,0.23471805453300476
1701857494377123800,4.018123779296875,-0.02489202655851841,-0.5349494814872742,0.22616620361804962
1701857494386717700,4.0277177734375,-0.02367033064365387,-0.525175929069519,0.21394924819469452
1701857494396310800,4.037310791015625,-0.021226942539215088,-0.510515570640564,0.2029540091753006
1701857494405903000,4.046903076171875,-0.018783552572131157,-0.49829864501953125,0.1895153671503067
1701857494415496200,4.05649609375,-0.016340164467692375,-0.48730340600013733,0.1785201132297516
1701857494425090000,4.066090087890625,-0.018783552572131157,-0.46042612195014954,0.16996824741363525
1701857494434683100,4.07568310546875,-0.02489202655851841,-0.4372139275074005,0.16996824741363525
1701857494444275500,4.085275390625,-0.031000498682260513,-0.43232715129852295,0.1760767251253128
1701857494453868500,4.09486865234375,-0.034665580838918686,-0.43232715129852295,0.1882936656475067
1701857494463462400,4.10446240234375,-0.037108972668647766,-0.44332239031791687,0.2017323076725006
1701857494473055500,4.114055419921875,-0.033443886786699295,-0.4628695249557495,0.21150586009025574
1701857494482647800,4.123647705078125,-0.02367033064365387,-0.48241662979125977,0.22616620361804962
1701857494492241000,4.133240966796875,-0.011453386396169662,-0.5044071078300476,0.24693500995635986
1701857494501834800,4.142834716796875,-0.0004581354442052543,-0.525175929069519,0.2677038013935089
1701857494511427800,4.152427734375,0.009315420873463154,-0.5373928546905518,0.28725093603134155
1701857494521020200,4.162020263671875,0.021532366052269936,-0.5508314967155457,0.3067980408668518
1701857494530613200,4.17161328125,0.036192700266838074,-0.5679352283477783,0.32512345910072327
1701857494540207000,4.18120703125,0.05207473039627075,-0.5862606763839722,0.34222719073295593
1701857494549800200,4.19080029296875,0.06917845457792282,-0.6009209752082825,0.3593308925628662
1701857494559392500,4.200392578125,0.0850604772567749,-0.6119162440299988,0.3727695345878601
1701857494568985600,4.209985595703125,0.09972081333398819,-0.6192464232444763,0.38254308700561523
1701857494578579500,4.219579345703125,0.1119377613067627,-0.6339067220687866,0.38254308700561523
1701857494588172500,4.229172607421875,0.12048961967229843,-0.6730009913444519,0.38132140040397644
1701857494597764900,4.238764892578125,0.11682453751564026,-0.7035433053970337,0.36543938517570496
1701857494607358000,4.24835791015625,0.10460758954286575,-0.7230904698371887,0.3312319219112396
1701857494616951800,4.257951904296875,0.08628217875957489,-0.7157602906227112,0.2786990702152252
1701857494626545000,4.267544921875,0.0716218426823616,-0.7133168578147888,0.2286095917224884
1701857494636137200,4.27713720703125,0.06306997686624527,-0.7279772162437439,0.19440214335918427
1701857494645730300,4.286730224609375,0.054518118500709534,-0.7340856790542603,0.16630317270755768
1701857494655324200,4.29632421875,0.0459662564098835,-0.7182036638259888,0.13576079905033112
1701857494664917200,4.305917236328125,0.038636088371276855,-0.7023216485977173,0.10521844029426575
1701857494674509600,4.315509521484375,0.02764083817601204,-0.6864396333694458,0.07711946964263916
1701857494684102700,4.3251025390625,0.017867282032966614,-0.6778877377510071,0.05512896552681923
1701857494693696500,4.334696533203125,0.005650337319821119,-0.6791094541549683,0.03436015918850899
1701857494703289600,4.34428955078125,-0.016340164467692375,-0.6754443645477295,0.016034740954637527
1701857494712882000,4.3538818359375,-0.04321744292974472,-0.6693359017372131,-0.005955760832875967
1701857494722475000,4.36347509765625,-0.07009471952915192,-0.6668924689292908,-0.029167955741286278
1701857494732068900,4.37306884765625,-0.09086353331804276,-0.6583406329154968,-0.04749337583780289
1701857494741662000,4.382661865234375,-0.10308047384023666,-0.6473453640937805,-0.05360184609889984
1701857494751254300,4.392254150390625,-0.10674555599689484,-0.6302416324615479,-0.04749337583780289
1701857494760847400,4.401847412109375,-0.10185877978801727,-0.60825115442276,-0.03771981969475746
1701857494770441200,4.411441162109375,-0.09330692142248154,-0.5813738703727722,-0.026724567636847496
1701857494780034300,4.421034423828125,-0.07742489129304886,-0.5544965863227844,-0.013285927474498749
1701857494789626600,4.430626708984375,-0.0590994730591774,-0.5288410186767578,-0.0010689827613532543
1701857494799219700,4.4402197265625,-0.037108972668647766,-0.5044071078300476,0.001374406274408102
1701857494808813600,4.4498134765625,-0.013896775431931019,-0.478751540184021,-0.007177455350756645
1701857494818406700,4.45940673828125,0.010537114925682545,-0.44820916652679443,-0.01695101149380207
1701857494827999000,4.4689990234375,0.0325276181101799,-0.41888850927352905,-0.024281177669763565
1701857494837592000,4.478592041015625,0.05207473039627075,-0.39445462822914124,-0.027946261689066887
1701857494847186000,4.48818603515625,0.0716218426823616,-0.3626905679702759,-0.0328330397605896
1701857494856779000,4.497779052734375,0.08628217875957489,-0.32603973150253296,-0.03527642786502838
1701857494866371300,4.507371337890625,0.09239064902067184,-0.28572380542755127,-0.03649812191724777
1701857494875964400,4.51696435546875,0.09361234307289124,-0.24052110314369202,-0.04016320779919624
1701857494885558300,4.526558349609375,0.09239064902067184,-0.1904316395521164,-0.04504998400807381
1701857494895151400,4.5361513671875,0.08872556686401367,-0.13423368334770203,-0.04993676394224167
1701857494904743700,4.54574365234375,0.08139539510011673,-0.08047912269830704,-0.05726693198084831
1701857494914336800,4.555336669921875,0.07040014863014221,-0.03405473381280899,-0.06826218217611313
1701857494923930600,4.5649306640625,0.056961506605148315,0.012369656935334206,-0.08170082420110703
1701857494933523700,4.574523681640625,0.04474456235766411,0.0587940476834774,-0.08780929446220398
1701857494943116000,4.584115966796875,0.03008422814309597,0.10033166408538818,-0.0841442123055458
1701857494952709000,4.593709228515625,0.017867282032966614,0.14064757525920868,-0.07559234648942947
1701857494962303000,4.603302978515625,0.0068720318377017975,0.18096350133419037,-0.06826218217611313
1701857494971896000,4.61289599609375,-0.0004581354442052543,0.22127941250801086,-0.059710320085287094
1701857494981488000,4.622488037109375,-0.0016798300202935934,0.2591519355773926,-0.04871506989002228
1701857494991081500,4.63208154296875,0.004428642801940441,0.28725093603134155,-0.03649812191724777
1701857495000675300,4.64167529296875,0.016645587980747223,0.3092414140701294,-0.026724567636847496
1701857495010268400,4.651268310546875,0.0325276181101799,0.32512345910072327,-0.023059483617544174
1701857495019860500,4.660860595703125,0.05207473039627075,0.33856210112571716,-0.020616095513105392
1701857495029453800,4.670453857421875,0.07040014863014221,0.35444411635398865,-0.01695101149380207
1701857495039047700,4.680047607421875,0.0850604772567749,0.3715478479862213,-0.01572931744158268
1701857495048640800,4.689640869140625,0.10094250738620758,0.39109495282173157,-0.014507622458040714
1701857495058232800,4.69923291015625,0.11560284346342087,0.409420371055603,-0.01572931744158268
1701857495067826200,4.708826171875,0.12904147803783417,0.4277457892894745,-0.023059483617544174
1701857495077420000,4.718419921875,0.14003673195838928,0.44362783432006836,-0.029167955741286278
1701857495087013000,4.72801318359375,0.14370182156562805,0.45950984954833984,-0.03771981969475746
1701857495096605200,4.737605224609375,0.14248012006282806,0.4790569543838501,-0.0462716780602932
1701857495106198500,4.747198486328125,0.1388150453567505,0.492495596408844,-0.05726693198084831
1701857495115792400,4.75679248046875,0.13392825424671173,0.5034908652305603,-0.06704048812389374
1701857495125385500,4.766385498046875,0.12781979143619537,0.5169295072555542,-0.07803573459386826
1701857495134977500,4.7759775390625,0.1241547018289566,0.5279247164726257,-0.0853659063577652
1701857495144570600,4.785570556640625,0.12293300777673721,0.538919985294342,-0.09269607067108154
1701857495154164500,4.79516455078125,0.12048961967229843,0.5499152541160583,-0.10246963053941727
1701857495163757800,4.8047578125,0.11560284346342087,0.5584670901298523,-0.111021488904953
1701857495173350000,4.814349853515625,0.10705098509788513,0.5645755529403687,-0.12079504877328873
1701857495182943000,4.82394287109375,0.09727742522954941,0.5780141949653625,-0.12812520563602448
1701857495192536800,4.833536865234375,0.08872556686401367,0.5853443741798401,-0.13056860864162445
1701857495202130200,4.843130126953125,0.07895200699567795,0.5914528369903564,-0.13056860864162445
1701857495211722200,4.85272216796875,0.06917845457792282,0.59023118019104,-0.12812520563602448
1701857495221315300,4.8623154296875,0.06306997686624527,0.5865660905838013,-0.12323843687772751
1701857495230909200,4.8719091796875,0.058183200657367706,0.5792359113693237,-0.11835165321826935
1701857495240502500,4.88150244140625,0.056961506605148315,0.5694623589515686,-0.11590826511383057
1701857495250094600,4.891094482421875,0.056961506605148315,0.5548020005226135,-0.11712995916604996
1701857495259687700,4.900687744140625,0.06306997686624527,0.538919985294342,-0.11957334727048874
1701857495269281500,4.910281494140625,0.0716218426823616,0.5267030596733093,-0.12323843687772751
1701857495278874600,4.91987451171875,0.07895200699567795,0.5144860744476318,-0.1244601309299469
1701857495288467000,4.929467041015625,0.08628217875957489,0.49982577562332153,-0.12323843687772751
1701857495298060000,4.93906005859375,0.09116895496845245,0.48272204399108887,-0.12201674282550812
1701857495307654000,4.94865380859375,0.09361234307289124,0.4668400287628174,-0.11590826511383057
1701857495317247000,4.9582470703125,0.09483403712511063,0.4424061179161072,-0.10979979485273361
1701857495326839300,4.96783935546875,0.09483403712511063,0.4130854606628418,-0.10613471269607544
1701857495336432400,4.977432373046875,0.09239064902067184,0.38132140040397644,-0.10124793648719788
1701857495346026200,4.987026123046875,0.08872556686401367,0.35322242975234985,-0.0988045409321785
1701857495355619300,4.996619384765625,0.08628217875957489,0.32634514570236206,-0.09269607067108154
1701857495365211600,5.006211669921875,0.08261708915233612,0.3067980408668518,-0.08780929446220398
1701857495374804700,5.0158046875,0.07895200699567795,0.2921377122402191,-0.08170082420110703
1701857495384398600,5.025398681640625,0.07406523078680038,0.282364159822464,-0.0719272643327713
1701857495393991700,5.03499169921875,0.06917845457792282,0.27503398060798645,-0.059710320085287094
1701857495403584000,5.044583984375,0.06551336497068405,0.2701472043991089,-0.04749337583780289
1701857495413177000,5.054177001953125,0.06184828653931618,0.2664821147918701,-0.03894151374697685
1701857495422771000,5.06377099609375,0.058183200657367706,0.2579302489757538,-0.03527642786502838
1701857495432364000,5.073364013671875,0.05207473039627075,0.24815669655799866,-0.03649812191724777
1701857495441956400,5.082956298828125,0.04352286830544472,0.23960483074188232,-0.03771981969475746
1701857495451549400,5.092549560546875,0.03497100621461868,0.2286095917224884,-0.042606595903635025
1701857495461143300,5.102143310546875,0.02886253222823143,0.2163926362991333,-0.05238015204668045
1701857495470736400,5.111736328125,0.021532366052269936,0.20539739727973938,-0.060932014137506485
1701857495480328700,5.12132861328125,0.014202198944985867,0.19806721806526184,-0.06948387622833252
1701857495489921800,5.130921875,0.0068720318377017975,0.19318044185638428,-0.07681404054164886
1701857495499515600,5.140515625,0.0007635590736754239,0.1895153671503067,-0.0841442123055458
1701857495509108700,5.150108642578125,-0.0029015245381742716,0.1882936656475067,-0.08903098851442337
1701857495518701000,5.159701171875,-0.0065666078589856625,0.18585027754306793,-0.08903098851442337
1701857495528294100,5.169294189453125,-0.007788302376866341,0.18340688943862915,-0.0841442123055458
1701857495537888000,5.178887939453125,-0.009009997360408306,0.18462859094142914,-0.07803573459386826
1701857495547481000,5.188481201171875,-0.007788302376866341,0.18462859094142914,-0.07070557028055191
1701857495557073400,5.198073486328125,-0.0065666078589856625,0.18340688943862915,-0.06581879407167435
1701857495566666500,5.20766650390625,-0.0029015245381742716,0.18340688943862915,-0.060932014137506485
1701857495576260400,5.21726025390625,-0.0004581354442052543,0.18218518793582916,-0.05238015204668045
1701857495585853400,5.226853515625,0.0007635590736754239,0.18340688943862915,-0.043828289955854416
1701857495595445800,5.23644580078125,0.0007635590736754239,0.18462859094142914,-0.03527642786502838
1701857495605038800,5.246038818359375,-0.0004581354442052543,0.18462859094142914,-0.03161134570837021
1701857495614632700,5.2556328125,-0.0029015245381742716,0.18340688943862915,-0.0328330397605896
1701857495624225800,5.265225830078125,-0.005344913341104984,0.18096350133419037,-0.03771981969475746
1701857495633818000,5.274818115234375,-0.009009997360408306,0.1785201132297516,-0.043828289955854416
1701857495643411200,5.2844111328125,-0.013896775431931019,0.17363333702087402,-0.04749337583780289
1701857495653005000,5.294005126953125,-0.017561858519911766,0.17241163551807404,-0.05238015204668045
1701857495662598100,5.30359814453125,-0.020005248486995697,0.16752485930919647,-0.05726693198084831
1701857495672190200,5.313190185546875,-0.02367033064365387,0.1650814712047577,-0.062153708189725876
1701857495681783600,5.322783447265625,-0.028557108715176582,0.1650814712047577,-0.06704048812389374
1701857495691377400,5.33237744140625,-0.032222192734479904,0.1650814712047577,-0.0719272643327713
1701857495700970500,5.341970458984375,-0.033443886786699295,0.16752485930919647,-0.07437065243721008
1701857495710562600,5.3515625,-0.033443886786699295,0.16874656081199646,-0.07314895838499069
1701857495720155600,5.36115576171875,-0.032222192734479904,0.16752485930919647,-0.07314895838499069
1701857495729749500,5.37074951171875,-0.031000498682260513,0.16630317270755768,-0.07437065243721008
1701857495739342800,5.3803427734375,-0.031000498682260513,0.16141638159751892,-0.07925742864608765
1701857495748935000,5.389934814453125,-0.032222192734479904,0.15897299349308014,-0.08292251825332642
1701857495758528000,5.399528076171875,-0.037108972668647766,0.15652960538864136,-0.0841442123055458
1701857495768121900,5.409121826171875,-0.03955236077308655,0.15652960538864136,-0.0853659063577652
1701857495777715000,5.41871484375,-0.04199574887752533,0.15652960538864136,-0.0841442123055458
1701857495787307300,5.428307373046875,-0.04321744292974472,0.15286453068256378,-0.08170082420110703
1701857495796900400,5.437900390625,-0.04321744292974472,0.14797775447368622,-0.08292251825332642
1701857495806494200,5.447494140625,-0.0456608310341835,0.14431266486644745,-0.08658760040998459
1701857495816087300,5.45708740234375,-0.04810422286391258,0.14064757525920868,-0.08658760040998459
1701857495825679600,5.4666796875,-0.051769305020570755,0.1382041871547699,-0.0853659063577652
1701857495835272700,5.476272705078125,-0.05421269312500954,0.13453911244869232,-0.08292251825332642
1701857495844866600,5.485866455078125,-0.05421269312500954,0.13087402284145355,-0.08292251825332642
1701857495854459600,5.495459716796875,-0.052990999072790146,0.12843063473701477,-0.0841442123055458
1701857495864052000,5.505052001953125,-0.051769305020570755,0.12720894813537598,-0.0841442123055458
1701857495873645000,5.51464501953125,-0.04810422286391258,0.12965233623981476,-0.08292251825332642
1701857495883239000,5.524239013671875,-0.0456608310341835,0.13087402284145355,-0.08047912269830704
1701857495892832000,5.53383203125,-0.04199574887752533,0.13576079905033112,-0.07925742864608765
1701857495902424300,5.54342431640625,-0.04077405482530594,0.14186927676200867,-0.08047912269830704
1701857495912017400,5.553017333984375,-0.04199574887752533,0.14553436636924744,-0.08047912269830704
1701857495921611300,5.562611328125,-0.04321744292974472,0.14675605297088623,-0.07803573459386826
1701857495931204400,5.572204345703125,-0.04688252881169319,0.14797775447368622,-0.07437065243721008
1701857495940796700,5.581796630859375,-0.051769305020570755,0.150421142578125,-0.06459710001945496
1701857495950389800,5.5913896484375,-0.0590994730591774,0.15408621728420258,-0.05360184609889984
1701857495959983600,5.600983642578125,-0.06642963737249374,0.16019469499588013,-0.04504998400807381
1701857495969576700,5.61057666015625,-0.07375980913639069,0.1638597846031189,-0.03771981969475746
1701857495979168800,5.620168701171875,-0.07864658534526825,0.16874656081199646,-0.029167955741286278
1701857495988762000,5.62976220703125,-0.08108997344970703,0.17118994891643524,-0.020616095513105392
1701857495998356000,5.63935595703125,-0.08108997344970703,0.17241163551807404,-0.014507622458040714
1701857496007949000,5.648948974609375,-0.07864658534526825,0.17241163551807404,-0.013285927474498749
1701857496017541000,5.658541015625,-0.07375980913639069,0.17363333702087402,-0.01572931744158268
1701857496027134500,5.668134521484375,-0.06887302547693253,0.17485502362251282,-0.01817270554602146
1701857496036728300,5.677728271484375,-0.06154286116361618,0.1760767251253128,-0.01817270554602146
1701857496046321200,5.687321044921875,-0.052990999072790146,0.1785201132297516,-0.020616095513105392
1701857496055913500,5.69691357421875,-0.04443913698196411,0.1785201132297516,-0.027946261689066887
1701857496065506600,5.706506591796875,-0.03833066672086716,0.1772984117269516,-0.041384901851415634
1701857496075100400,5.716100341796875,-0.031000498682260513,0.16874656081199646,-0.05360184609889984
1701857496084693500,5.725693603515625,-0.02367033064365387,0.15775130689144135,-0.06704048812389374
1701857496094285800,5.735285888671875,-0.016340164467692375,0.14553436636924744,-0.07925742864608765
1701857496103879000,5.74487890625,-0.011453386396169662,0.1369825005531311,-0.09269607067108154
1701857496113472800,5.75447265625,-0.0065666078589856625,0.13087402284145355,-0.0975828468799591
1701857496123065900,5.76406591796875,-0.0016798300202935934,0.12232216447591782,-0.0975828468799591
1701857496132658200,5.773658203125,0.001985253533348441,0.11254860460758209,-0.09636115282773972
1701857496142251300,5.783251220703125,0.004428642801940441,0.10399674624204636,-0.09391776472330093
1701857496151845000,5.79284521484375,0.0068720318377017975,0.09422318637371063,-0.09025268256664276
1701857496161438200,5.802438232421875,0.009315420873463154,0.08689302206039429,-0.08658760040998459
1701857496171030500,5.812030517578125,0.01175880990922451,0.08200624585151672,-0.08170082420110703
1701857496180623600,5.82162353515625,0.01175880990922451,0.08078455179929733,-0.06948387622833252
1701857496190217500,5.831217529296875,0.01175880990922451,0.07834116369485855,-0.05482354015111923
1701857496199810600,5.840810546875,0.01175880990922451,0.07467607408761978,-0.042606595903635025
1701857496209403000,5.85040283203125,0.010537114925682545,0.06978929787874222,-0.03527642786502838
1701857496218996000,5.859995849609375,0.010537114925682545,0.06490252166986465,-0.025502873584628105
1701857496228589800,5.86958984375,0.01175880990922451,0.051463883370161057,-0.014507622458040714
1701857496238183000,5.879182861328125,0.016645587980747223,0.03436015918850899,0.001374406274408102
1701857496247775200,5.888775146484375,0.022754060104489326,0.013591351918876171,0.01969982497394085
1701857496257368300,5.898368408203125,0.03130592033267021,-0.013285927474498749,0.03802524134516716
1701857496266962200,5.907962158203125,0.038636088371276855,-0.04016320779919624,0.051463883370161057
1701857496276555300,5.91755517578125,0.04474456235766411,-0.06337540596723557,0.06123743951320648
1701857496286147600,5.927147705078125,0.04963133856654167,-0.08292251825332642,0.06734590977430344
1701857496295740700,5.93674072265625,0.05329642444849014,-0.09391776472330093,0.06978929787874222
1701857496305334500,5.94633447265625,0.058183200657367706,-0.10124793648719788,0.06856760382652283
1701857496314927600,5.955927734375,0.06306997686624527,-0.1122431829571724,0.06612421572208405
1701857496324519700,5.965519775390625,0.06795676052570343,-0.1256818175315857,0.06856760382652283
1701857496334112800,5.97511279296875,0.07406523078680038,-0.14522893726825714,0.08078455179929733
1701857496343706600,5.98470654296875,0.07773031294345856,-0.16599774360656738,0.09910997003316879
1701857496353299700,5.9942998046875,0.07895200699567795,-0.18432316184043884,0.11377029865980148
1701857496362892000,6.00389208984375,0.07895200699567795,-0.19531841576099396,0.12843063473701477
1701857496372485000,6.013485107421875,0.08017370104789734,-0.21242213249206543,0.14064757525920868
1701857496382079000,6.023078857421875,0.08261708915233612,-0.2283041626214981,0.14553436636924744
1701857496391672000,6.032672119140625,0.08628217875957489,-0.241742804646492,0.14797775447368622
1701857496401264400,6.042264404296875,0.09361234307289124,-0.25029465556144714,0.15530791878700256
1701857496410857500,6.051857421875,0.10460758954286575,-0.2527380585670471,0.17118994891643524
1701857496420451300,6.061451416015625,0.11682453751564026,-0.24785128235816956,0.1907370537519455
1701857496430044400,6.07104443359375,0.13026317954063416,-0.23441264033317566,0.2041756957769394
1701857496439636700,6.08063671875,0.1388150453567505,-0.217308908700943,0.20906247198581696
1701857496449229800,6.090229736328125,0.14858859777450562,-0.19898349046707153,0.20539739727973938
1701857496458823700,6.09982373046875,0.16080553829669952,-0.17210622131824493,0.19928891956806183
1701857496468416800,6.109416748046875,0.17180079221725464,-0.14156384766101837,0.19318044185638428
1701857496478009000,6.119009033203125,0.18279604613780975,-0.111021488904953,0.1907370537519455
1701857496487602200,6.128602294921875,0.19623468816280365,-0.08658760040998459,0.19318044185638428
1701857496497196000,6.138196044921875,0.20722992718219757,-0.0719272643327713,0.19562382996082306
1701857496506789000,6.1477890625,0.21822518110275269,-0.0584886260330677,0.19684553146362305
1701857496516381400,6.15738134765625,0.22311195731163025,-0.04749337583780289,0.2029540091753006
1701857496525974500,6.166974609375,0.22311195731163025,-0.03649812191724777,0.2041756957769394
1701857496535568400,6.176568359375,0.2157817929983139,-0.01817270554602146,0.19562382996082306
1701857496545161500,6.186161376953125,0.2047865390777588,0.0050394898280501366,0.18585027754306793
1701857496554753500,6.19575341796875,0.1901262104511261,0.028251685202121735,0.1785201132297516
1701857496564347000,6.205346923828125,0.1779092699289322,0.049020491540431976,0.16996824741363525
1701857496573940700,6.214940673828125,0.16813570261001587,0.06368082761764526,0.16752485930919647
1701857496583533800,6.224533935546875,0.15836215019226074,0.07711946964263916,0.1760767251253128
1701857496593126000,6.2341259765625,0.1510319858789444,0.08811471611261368,0.1785201132297516
1701857496602719200,6.24371923828125,0.14614520967006683,0.08689302206039429,0.17485502362251282
1701857496612313000,6.25331298828125,0.14492350816726685,0.07956285774707794,0.16752485930919647
1701857496621906200,6.26290625,0.1498102843761444,0.072232685983181,0.16141638159751892
1701857496631498200,6.272498291015625,0.15836215019226074,0.06734590977430344,0.16141638159751892
1701857496641091300,6.28209130859375,0.17057909071445465,0.07101099193096161,0.1650814712047577
1701857496650685200,6.291685302734375,0.18646112084388733,0.07711946964263916,0.17118994891643524
1701857496660278300,6.3012783203125,0.20722992718219757,0.08811471611261368,0.1785201132297516
1701857496669870600,6.31087060546875,0.2304421216249466,0.10277505218982697,0.18340688943862915
1701857496679463700,6.320463623046875,0.2560977041721344,0.11621369421482086,0.18340688943862915
1701857496689057500,6.3300576171875,0.2805316150188446,0.125987246632576,0.17974179983139038
1701857496698650600,6.339650634765625,0.30740886926651,0.12965233623981476,0.17363333702087402
1701857496708243000,6.349242919921875,0.3342861533164978,0.13209572434425354,0.1650814712047577
1701857496717836000,6.3588359375,0.3623851239681244,0.12843063473701477,0.15775130689144135
1701857496727430000,6.368429931640625,0.39292749762535095,0.1113269105553627,0.14309096336364746
1701857496737023000,6.37802294921875,0.42484426498413086,0.0856713280081749,0.12720894813537598
1701857496746615300,6.387615234375,0.4566083252429962,0.06001574173569679,0.12110047042369843
1701857496756208400,6.39720849609375,0.4883723855018616,0.025808297097682953,0.125987246632576
1701857496765802200,6.40680224609375,0.5225798487663269,-0.0328330397605896,0.1247655525803566
1701857496775395300,6.416395263671875,0.569004237651825,-0.10002623498439789,0.11743538826704025
1701857496784987600,6.425987548828125,0.6239804625511169,-0.15622419118881226,0.13331741094589233
1701857496794580700,6.435580810546875,0.6814001202583313,-0.20753535628318787,0.17118994891643524
1701857496804174600,6.445174560546875,0.7363763451576233,-0.2808370292186737,0.2176143378019333
1701857496813767700,6.454767578125,0.7925743460655212,-0.36635565757751465,0.2432699203491211
1701857496823360000,6.464360107421875,0.8426637649536133,-0.4506525695323944,0.24815669655799866
1701857496832953000,6.473953125,0.882979691028595,-0.5202891230583191,0.26037365198135376
1701857496842547000,6.483546875,0.9232956171035767,-0.5716003179550171,0.2921377122402191
1701857496852140000,6.49314013671875,0.9587247967720032,-0.631463348865509,0.32512345910072327
1701857496861732000,6.502732177734375,0.9917105436325073,-0.7255338430404663,0.3471139669418335
1701857496871325400,6.512325439453125,1.035691499710083,-0.8684720993041992,0.3458922505378723
1701857496880919300,6.521919189453125,1.0625687837600708,-1.0871554613113403,0.31657159328460693
1701857496890512400,6.531512451171875,1.0418000221252441,-1.326607584953308,0.27747735381126404
1701857496900104400,6.5411044921875,1.0430216789245605,-1.5440691709518433,0.26037365198135376
1701857496909697800,6.55069775390625,1.1041064262390137,-1.7627525329589844,0.26281702518463135
1701857496919291600,6.560291748046875,1.129762053489685,-1.9583762884140015,0.26403874158859253
1701857496928884500,6.569884521484375,1.1041064262390137,-2.1538474559783936,0.27747735381126404
1701857496938476800,6.579476806640625,1.0234745740890503,-2.4604928493499756,0.3067980408668518
1701857496948070000,6.58906982421875,0.8927532434463501,-2.6938364505767822,0.2689255177974701
1701857496957663700,6.598663818359375,0.7754706144332886,-2.7866852283477783,0.0856713280081749
1701857496967256800,6.6082568359375,0.6838434934616089,-2.791571855545044,-0.23807771503925323
1701857496976849200,6.61784912109375,0.6459710001945496,-2.78302001953125,-0.6106945276260376
1701857496986442200,6.627442138671875,0.698503851890564,-2.774468183517456,-0.812274158000946
1701857496996036000,6.6370361328125,0.7644753456115723,-2.6852846145629883,-0.6644490957260132
1701857497005629200,6.646629150390625,0.7547017931938171,-2.7927937507629395,-0.4152234196662903
1701857497015221500,6.656221435546875,0.6019899845123291,-3.0798919200897217,-0.35169529914855957
1701857497024814600,6.665814697265625,0.28908345103263855,-3.28635835647583,-0.4628695249557495
1701857497034408400,6.675408447265625,-0.11285403370857239,-3.4097495079040527,-0.6253548860549927
1701857497044001500,6.68500146484375,-0.4891359508037567,-3.404862642288208,-0.7536327838897705
1701857497053593900,6.69459375,-0.8043331503868103,-3.404862642288208,-0.8183826208114624
1701857497063187000,6.70418701171875,-1.0841012001037598,-3.428074836730957,-0.8758022785186768
1701857497072780800,6.71378076171875,-1.324774980545044,-3.330339193344116,-0.9894198179244995
1701857497082374000,6.723373779296875,-1.6790664196014404,-3.2619242668151855,-1.2166550159454346
1701857497091966200,6.73296630859375,-2.2202770709991455,-3.292466640472412,-1.5171918869018555
1701857497101559300,6.742559326171875,-2.7260587215423584,-3.3278958797454834,-1.6711254119873047
1701857497111153200,6.752153076171875,-3.0571377277374268,-3.3217873573303223,-1.5404040813446045
1701857497120746200,6.761746337890625,-3.2379486560821533,-3.3315608501434326,-1.13968825340271
1701857497130338300,6.77133837890625,-3.2477221488952637,-3.23749041557312,-0.4885250926017761
1701857497139931600,6.780931640625,-2.980170965194702,-2.9406187534332275,0.19195875525474548
1701857497149525500,6.790525390625,-2.578233480453491,-2.5435678958892822,0.6171084642410278
1701857497159118600,6.80011865234375,-1.9881551265716553,-2.2259273529052734,0.7966975569725037
1701857497168710700,6.809710693359375,-1.3431004285812378,-1.988918662071228,0.8687775135040283
1701857497178303700,6.8193037109375,-0.8519791960716248,-1.8311673402786255,0.8895463347434998
1701857497187897600,6.828897705078125,-0.4549284875392914,-1.6418046951293945,0.8235748410224915
1701857497197490700,6.83849072265625,-0.11896250396966934,-1.4829844236373901,0.6757497787475586
1701857497207083000,6.8480830078125,0.15958385169506073,-1.5966020822525024,0.5401417016983032
1701857497216676000,6.857676025390625,0.3855973184108734,-1.611262321472168,0.5071559548377991
1701857497226270000,6.86727001953125,0.5580089688301086,-1.2911783456802368,0.5499152541160583
1701857497235863000,6.876863037109375,0.7070556879043579,-0.895349383354187,0.7380561828613281
1701857497245455400,6.886455322265625,0.7510367035865784,-0.4518742561340332,1.0349279642105103
1701857497255048400,6.89604833984375,0.7547017931938171,0.09910997003316879,1.320804476737976
1701857497264642300,6.905642333984375,0.7913526296615601,0.5523586273193359,1.5162756443023682
1701857497274235400,6.9152353515625,0.8768712282180786,0.8602256774902344,1.6042375564575195
1701857497283827700,6.92482763671875,0.9367342591285706,1.015380859375,1.598129153251648
1701857497293420800,6.9344208984375,0.8316685557365417,0.9909469485282898,1.519940733909607
1701857497303014700,6.9440146484375,0.823116660118103,1.1326634883880615,1.3586770296096802
1701857497312607700,6.953607666015625,0.8915315866470337,1.2572764158248901,1.158319115638733
1701857497322200000,6.963199951171875,0.9684983491897583,1.2988139390945435,0.9054283499717712
1701857497331793200,6.972793212890625,0.8780929446220398,1.352568507194519,0.7099572420120239
1701857497341387000,6.982386962890625,0.7180509567260742,1.6469969749450684,0.8736643195152283
1701857497350980000,6.99197998046875,0.5616740584373474,2.64389967918396,1.3171393871307373
1701857497360572200,7.001572265625,0.6594096422195435,3.364699363708496,1.858502745628357
1701857497370165500,7.01116552734375,0.948951244354248,3.6055259704589844,2.3068647384643555
1701857497379759400,7.02075927734375,1.0857809782028198,3.485799789428711,2.67825984954834
1701857497389352400,7.0303525390625,1.4412940740585327,3.026289939880371,2.893278121948242
1701857497398944500,7.039944580078125,1.7968071699142456,2.4863009452819824,3.100966215133667
1701857497408537600,7.04953759765625,1.901872992515564,2.1735472679138184,3.460144281387329
1701857497418131500,7.05913134765625,1.7735949754714966,2.001288414001465,4.052666187286377
1701857497427724500,7.068724609375,1.4730582237243652,2.0208353996276855,4.778352737426758
1701857497437316900,7.07831689453125,0.9428427219390869,2.062373161315918,5.508925914764404
1701857497446910000,7.087909912109375,0.335507869720459,2.2407405376434326,6.16741943359375
1701857497456503800,7.09750390625,0.05207473039627075,2.294495105743408,6.465512752532959
1701857497466097000,7.107096923828125,0.10460758954286575,2.108797550201416,6.2614898681640625
1701857497475689200,7.116689208984375,0.358720064163208,1.8143690824508667,5.709283828735352
1701857497485282300,7.1262822265625,0.7082774043083191,1.463742733001709,5.039795398712158
1701857497494876200,7.135876220703125,0.9391776323318481,1.1314418315887451,4.4912543296813965
1701857497504469200,7.14546923828125,0.9721634387969971,0.9103151559829712,3.991581439971924
1701857497514061600,7.1550615234375,0.7033905982971191,0.7441646456718445,3.593308925628662
1701857497523654700,7.164654541015625,0.3318427801132202,0.5193728804588318,3.2842202186584473
1701857497533248500,7.17424853515625,0.1363716572523117,0.1772984117269516,3.0154473781585693
1701857497542841600,7.183841552734375,0.0850604772567749,-0.13301199674606323,2.730792760848999
1701857497552434000,7.193433837890625,0.09972081333398819,-0.39078953862190247,2.4314775466918945
1701857497562027000,7.203027099609375,0.11315945535898209,-0.6620057225227356,2.1908037662506104
1701857497571620900,7.212620849609375,0.14736689627170563,-0.797613799571991,1.9782288074493408
1701857497581214000,7.2222138671875,0.19867807626724243,-0.82082599401474,1.8169652223587036
1701857497590806000,7.231805908203125,0.25976279377937317,-0.903901219367981,1.8401774168014526
1701857497600399400,7.2413994140625,0.30985227227211,-0.918561577796936,1.9770071506500244
1701857497609993200,7.2509931640625,0.34161633253097534,-0.996749997138977,2.1627047061920166
1701857497619586000,7.2605859375,0.3379512429237366,-0.872137188911438,2.210350751876831
1701857497629178400,7.270178466796875,0.3171824514865875,-0.8354863524436951,2.216459274291992
1701857497638771500,7.279771484375,0.22311195731163025,-1.0321791172027588,2.316638231277466
1701857497648365300,7.289365234375,0.036192700266838074,-1.3449329137802124,2.407043695449829
1701857497657958400,7.29895849609375,-0.1495048701763153,-1.7810778617858887,2.3960483074188232
1701857497667550700,7.30855078125,-0.2044811248779297,-2.262578248977661,2.3557324409484863
1701857497677143800,7.318143798828125,-0.14461809396743774,-2.487370014190674,2.2579967975616455
1701857497686737700,7.327737548828125,-0.19470755755901337,-2.3041157722473145,2.126053810119629
1701857497696330800,7.337330810546875,-0.3058817684650421,-2.1880548000335693,2.221346139907837
1701857497705923000,7.346923095703125,-0.39384377002716064,-2.698723077774048,2.855405569076538
1701857497715516200,7.35651611328125,-0.5599942207336426,-2.9809346199035645,3.3770689964294434
1701857497725110000,7.366110107421875,-0.3975088596343994,-1.9693715572357178,2.8969430923461914
1701857497734703000,7.375703125,-0.3901786804199219,0.90909343957901,3.6409549713134766
1701857497744295400,7.38529541015625,0.001985253533348441,0.6635328531265259,2.5292131900787354
1701857497753888500,7.394888427734375,0.16935740411281586,-1.5550644397735596,-1.1372449398040771
1701857497763482400,7.404482421875,0.13514995574951172,-3.043241024017334,-1.7798562049865723
1701857497773075500,7.414075439453125,0.08139539510011673,-2.90396785736084,-1.0798252820968628
1701857497782667500,7.42366748046875,-0.1104106456041336,-2.0011355876922607,0.48638713359832764
1701857497792260900,7.4332607421875,-0.28877803683280945,-0.6901046633720398,1.7314465045928955
1701857497801854700,7.442854736328125,-0.3229855000972748,-0.09513945877552032,2.1883602142333984
1701857497811447600,7.452447509765625,-0.25090551376342773,0.07345438003540039,2.184695243835449
1701857497821039900,7.462039794921875,-0.20814619958400726,0.27625566720962524,1.9684553146362305
1701857497830633000,7.471633056640625,-0.20081603527069092,0.4155288338661194,1.6862438917160034
1701857497840226800,7.481226806640625,-0.18249061703681946,0.37887802720069885,1.3562335968017578
1701857497849820000,7.49081982421875,-0.1507265567779541,0.2921377122402191,1.0202676057815552
1701857497859412200,7.500412109375,-0.10185877978801727,0.2420482337474823,0.719730794429779
1701857497869005300,7.51000537109375,-0.06642963737249374,0.22494450211524963,0.49738237261772156
1701857497878599200,7.51959912109375,-0.06154286116361618,0.2652604281902313,0.3507790267467499
1701857497888192300,7.529192138671875,-0.07864658534526825,0.3642176687717438,0.2554868757724762
1701857497897784600,7.53878466796875,-0.08964183181524277,0.4509579837322235,0.19684553146362305
1701857497907377700,7.548377685546875,-0.10430216789245605,0.5218162536621094,0.15286453068256378
1701857497916971500,7.557971435546875,-0.1238492801785469,0.5621321797370911,0.12720894813537598
1701857497926564600,7.567564697265625,-0.14339639246463776,0.5560237169265747,0.1113269105553627
1701857497936156700,7.57715673828125,-0.1519482582807541,0.5071559548377991,0.11010521650314331
1701857497945750000,7.58675,-0.1250709742307663,0.5047125220298767,0.09544488787651062
1701857497955344000,7.59634375,-0.13973131775856018,0.5071559548377991,0.03680354729294777
1701857497964937000,7.60593701171875,-0.16172181069850922,0.4631749391555786,-0.03527642786502838
1701857497974529000,7.615529052734375,-0.16538690030574799,0.386208176612854,-0.10735640674829483
1701857497984122000,7.6251220703125,-0.1507265567779541,0.3104631304740906,-0.1892099380493164
1701857497993716000,7.634716064453125,-0.12262758612632751,0.25060009956359863,-0.28816720843315125
1701857498003309000,7.64430908203125,-0.08231166750192642,0.20784078538417816,-0.40422818064689636
1701857498012901400,7.6539013671875,-0.04321744292974472,0.17485502362251282,-0.5190674662590027
1701857498022494500,7.663494384765625,0.001985253533348441,0.1626380831003189,-0.6253548860549927
1701857498032088300,7.67308837890625,0.02764083817601204,0.15652960538864136,-0.6974348425865173
1701857498041681400,7.682681396484375,0.0325276181101799,0.14309096336364746,-0.7206470370292664
1701857498051273700,7.692273681640625,0.025197450071573257,0.12232216447591782,-0.7096518278121948
1701857498060866800,7.70186669921875,0.01175880990922451,0.11010521650314331,-0.6717792749404907
1701857498070460700,7.711460693359375,-0.0004581354442052543,0.10399674624204636,-0.6192464232444763
1701857498080053800,7.7210537109375,-0.007788302376866341,0.0978882759809494,-0.556939959526062
1701857498089646000,7.73064599609375,-0.012675080448389053,0.09910997003316879,-0.48363831639289856
1701857498099239200,7.7402392578125,-0.016340164467692375,0.10155335813760757,-0.42011019587516785
1701857498108833000,7.7498330078125,-0.020005248486995697,0.09544488787651062,-0.35658207535743713
1701857498118426000,7.759426025390625,-0.021226942539215088,0.09055810421705246,-0.30038413405418396
1701857498128018200,7.76901806640625,-0.016340164467692375,0.06978929787874222,-0.25029465556144714
1701857498137611300,7.778611328125,-0.007788302376866341,0.047798797488212585,-0.20142687857151031
1701857498147205000,7.788205078125,0.001985253533348441,0.03558185324072838,-0.1635543555021286
1701857498156798200,7.797798095703125,0.014202198944985867,0.031916771084070206,-0.13301199674606323
1701857498166390500,7.807390625,0.022754060104489326,0.0331384651362896,-0.10735640674829483
1701857498175983600,7.816983642578125,0.02886253222823143,0.03558185324072838,-0.0841442123055458
1701857498185577500,7.826577392578125,0.03008422814309597,0.031916771084070206,-0.060932014137506485
1701857498195170600,7.836170654296875,0.02886253222823143,0.024586603045463562,-0.03649812191724777
1701857498204763000,7.845762939453125,0.025197450071573257,0.012369656935334206,-0.01817270554602146
1701857498214356000,7.85535595703125,0.023975754156708717,-0.007177455350756645,-0.004734066314995289
1701857498223949800,7.86494970703125,0.022754060104489326,-0.025502873584628105,0.00992626789957285
1701857498233543000,7.87454296875,0.022754060104489326,-0.03771981969475746,0.02214321307837963
1701857498243135000,7.884135009765625,0.020310672000050545,-0.04749337583780289,0.030695075169205666
1701857498252728300,7.893728271484375,0.017867282032966614,-0.04993676394224167,0.031916771084070206
1701857498262322200,7.903322265625,0.016645587980747223,-0.0462716780602932,0.0331384651362896
1701857498271915000,7.9129150390625,0.015423892997205257,-0.04016320779919624,0.03558185324072838
1701857498281507300,7.92250732421875,0.012980503961443901,-0.03771981969475746,0.03558185324072838
1701857498291100400,7.932100341796875,0.01175880990922451,-0.042606595903635025,0.031916771084070206
1701857498300694300,7.9416943359375,0.01175880990922451,-0.05604523420333862,0.02092151902616024
1701857498310287400,7.951287353515625,0.009315420873463154,-0.06826218217611313,0.00992626789957285
1701857498319879700,7.960879638671875,0.0068720318377017975,-0.0719272643327713,-0.0010689827613532543
1701857498329472800,7.97047265625,0.0068720318377017975,-0.06704048812389374,-0.012064233422279358
1701857498339066600,7.980066650390625,0.0068720318377017975,-0.05604523420333862,-0.021837789565324783
1701857498348659700,7.98965966796875,0.0068720318377017975,-0.042606595903635025,-0.027946261689066887
1701857498358252000,7.999251953125,0.005650337319821119,-0.027946261689066887,-0.03527642786502838
1701857498367845000,8.00884521484375,0.005650337319821119,-0.013285927474498749,-0.03771981969475746
1701857498377439000,8.01843896484375,0.004428642801940441,0.00259610079228878,-0.03649812191724777
1701857498387032000,8.028031982421876,0.001985253533348441,0.024586603045463562,-0.03405473381280899
1701857498396624100,8.0376240234375,0.0007635590736754239,0.05512896552681923,-0.030389651656150818
1701857498406217200,8.04721728515625,-0.0029015245381742716,0.08811471611261368,-0.030389651656150818
1701857498415811000,8.05681103515625,-0.005344913341104984,0.11254860460758209,-0.027946261689066887
1701857498425404200,8.066404052734375,-0.005344913341104984,0.12965233623981476,-0.023059483617544174
1701857498434996500,8.07599658203125,-0.007788302376866341,0.14186927676200867,-0.014507622458040714
1701857498444589600,8.085589599609374,-0.010231691412627697,0.15286453068256378,-0.004734066314995289
1701857498454183400,8.095183349609375,-0.009009997360408306,0.15775130689144135,0.00259610079228878
1701857498463776500,8.104776611328125,-0.0065666078589856625,0.15897299349308014,0.00992626789957285
1701857498473368800,8.114368896484375,-0.0029015245381742716,0.1516428291797638,0.016034740954637527
1701857498482962000,8.1239619140625,-0.0004581354442052543,0.1369825005531311,0.01969982497394085
1701857498492555800,8.1335556640625,0.001985253533348441,0.12354385852813721,0.02214321307837963
1701857498502148900,8.14314892578125,0.0032069480512291193,0.1113269105553627,0.027029991149902344
1701857498511741200,8.1527412109375,0.004428642801940441,0.10155335813760757,0.031916771084070206
1701857498521334300,8.162334228515626,0.004428642801940441,0.09544488787651062,0.0331384651362896
1701857498530928000,8.17192822265625,0.0068720318377017975,0.08811471611261368,0.03436015918850899
1701857498540521000,8.18152099609375,0.009315420873463154,0.08200624585151672,0.031916771084070206
1701857498550113300,8.19111328125,0.01175880990922451,0.07467607408761978,0.028251685202121735
1701857498559706400,8.200706298828125,0.015423892997205257,0.07345438003540039,0.02092151902616024
1701857498569300200,8.21030029296875,0.019088976085186005,0.07589777559041977,0.011147962883114815
1701857498578893300,8.219893310546874,0.017867282032966614,0.06612421572208405,0.0038177953101694584
1701857498588485600,8.229485595703125,0.012980503961443901,0.051463883370161057,-0.007177455350756645
1701857498598078700,8.23907861328125,0.010537114925682545,0.03924693539738655,-0.023059483617544174
1701857498607672600,8.248672607421875,0.010537114925682545,0.04291202127933502,-0.04016320779919624
1701857498617265700,8.258265625,0.009315420873463154,0.049020491540431976,-0.04871506989002228
1701857498626858000,8.26785791015625,0.0068720318377017975,0.049020491540431976,-0.0462716780602932
1701857498636451000,8.277451171875,0.005650337319821119,0.03802524134516716,-0.03894151374697685
1701857498646045000,8.287044921875,0.005650337319821119,0.025808297097682953,-0.03894151374697685
1701857498655637800,8.2966376953125,0.004428642801940441,0.016034740954637527,-0.042606595903635025
1701857498665230000,8.30622998046875,0.004428642801940441,0.012369656935334206,-0.041384901851415634
1701857498674823200,8.3158232421875,0.0032069480512291193,0.00992626789957285,-0.03649812191724777
1701857498684417000,8.3254169921875,0.0032069480512291193,0.007482878863811493,-0.03161134570837021
1701857498694010000,8.335010009765625,0.001985253533348441,0.007482878863811493,-0.025502873584628105
1701857498703602400,8.3446025390625,0.0007635590736754239,0.006261184345930815,-0.020616095513105392
1701857498713195500,8.354195556640626,0.0007635590736754239,0.007482878863811493,-0.014507622458040714
1701857498722789400,8.363789306640625,0.0007635590736754239,0.011147962883114815,-0.010842538438737392
1701857498732382500,8.373382568359375,0.001985253533348441,0.016034740954637527,-0.008399149402976036
1701857498741974800,8.382974853515625,0.0032069480512291193,0.023364907130599022,-0.005955760832875967
1701857498751568000,8.39256787109375,0.0032069480512291193,0.027029991149902344,-0.004734066314995289
1701857498761161700,8.40216162109375,0.001985253533348441,0.027029991149902344,-0.0010689827613532543
1701857498770754800,8.4117548828125,0.0007635590736754239,0.02214321307837963,0.00259610079228878
1701857498780347000,8.421346923828125,0.0007635590736754239,0.016034740954637527,0.0050394898280501366
1701857498789940000,8.43093994140625,-0.0004581354442052543,0.00992626789957285,0.007482878863811493
1701857498799533800,8.440533935546876,-0.0016798300202935934,0.0050394898280501366,0.00992626789957285
1701857498809127000,8.450126953125,-0.0016798300202935934,0.001374406274408102,0.011147962883114815
1701857498818719200,8.45971923828125,-0.0016798300202935934,-0.0010689827613532543,0.00992626789957285
1701857498828312300,8.469312255859375,-0.0016798300202935934,-0.0022906772792339325,0.007482878863811493
1701857498837906200,8.47890625,-0.0016798300202935934,-0.0010689827613532543,0.001374406274408102
1701857498847499300,8.488499267578124,-0.0016798300202935934,-0.0022906772792339325,-0.0035123717971146107
1701857498857091600,8.498091552734374,-0.0016798300202935934,-0.0022906772792339325,-0.008399149402976036
1701857498866684700,8.5076845703125,-0.0016798300202935934,-0.0035123717971146107,-0.009620844386518002
1701857498876278500,8.517278564453125,-0.0004581354442052543,-0.004734066314995289,-0.013285927474498749
1701857498885871600,8.52687158203125,0.0007635590736754239,-0.007177455350756645,-0.014507622458040714
1701857498895463700,8.536463623046876,-0.0004581354442052543,-0.008399149402976036,-0.014507622458040714
1701857498905056800,8.546056884765624,0.0007635590736754239,-0.009620844386518002,-0.013285927474498749
1701857498914650600,8.555650634765625,-0.0004581354442052543,-0.007177455350756645,-0.009620844386518002
1701857498924243700,8.56524365234375,0.0007635590736754239,-0.004734066314995289,-0.007177455350756645
1701857498933836000,8.5748359375,0.0007635590736754239,-0.0010689827613532543,-0.004734066314995289
1701857498943429000,8.58442919921875,-0.0004581354442052543,0.00259610079228878,-0.0035123717971146107
1701857498953023000,8.59402294921875,0.0007635590736754239,0.006261184345930815,-0.0010689827613532543
1701857498962616000,8.603615966796875,0.0007635590736754239,0.008704573847353458,0.001374406274408102
1701857498972208400,8.61320849609375,0.0007635590736754239,0.00992626789957285,0.0038177953101694584
1701857498981801500,8.622801513671876,-0.0004581354442052543,0.011147962883114815,0.006261184345930815
1701857498991395300,8.632395263671874,0.0007635590736754239,0.00992626789957285,0.007482878863811493
1701857499000988400,8.641988525390625,-0.0004581354442052543,0.00992626789957285,0.006261184345930815
1701857499010580500,8.65158056640625,-0.0004581354442052543,0.011147962883114815,0.0050394898280501366
1701857499020173600,8.661173583984375,-0.0004581354442052543,0.011147962883114815,0.0050394898280501366
1701857499029767400,8.670767333984376,-0.0004581354442052543,0.013591351918876171,0.0038177953101694584
1701857499039360500,8.680360595703124,0.0007635590736754239,0.016034740954637527,0.00259610079228878
1701857499048952800,8.689952880859375,0.0007635590736754239,0.016034740954637527,0.00015271181473508477
1701857499058546000,8.6995458984375,0.0007635590736754239,0.016034740954637527,-0.0022906772792339325
1701857499068139800,8.709139892578126,0.0007635590736754239,0.016034740954637527,-0.004734066314995289
1701857499077732900,8.71873291015625,0.0007635590736754239,0.013591351918876171,-0.005955760832875967
1701857499087325200,8.7283251953125,0.0007635590736754239,0.011147962883114815,-0.007177455350756645
1701857499096918300,8.737918212890625,0.0007635590736754239,0.00992626789957285,-0.008399149402976036
1701857499106512100,8.74751220703125,0.0007635590736754239,0.00992626789957285,-0.008399149402976036
1701857499116105200,8.757105224609376,0.001985253533348441,0.00992626789957285,-0.007177455350756645
1701857499125697300,8.766697265625,0.0007635590736754239,0.011147962883114815,-0.005955760832875967
1701857499135290400,8.776290283203124,0.0007635590736754239,0.011147962883114815,-0.005955760832875967
1701857499144884200,8.78588427734375,0.001985253533348441,0.011147962883114815,-0.005955760832875967
1701857499154477300,8.795477294921875,0.001985253533348441,0.012369656935334206,-0.004734066314995289
1701857499164069600,8.805069580078126,0.001985253533348441,0.00992626789957285,-0.004734066314995289
1701857499173662700,8.814662841796874,0.001985253533348441,0.007482878863811493,-0.0035123717971146107
1701857499183256600,8.824256591796875,0.001985253533348441,0.006261184345930815,-0.0010689827613532543
1701857499192849700,8.833849609375,0.0007635590736754239,0.007482878863811493,0.00015271181473508477
1701857499202441700,8.843441650390625,0.001985253533348441,0.011147962883114815,0.00259610079228878
1701857499212035000,8.85303515625,0.0007635590736754239,0.016034740954637527,0.0050394898280501366
1701857499221629000,8.86262890625,0.0007635590736754239,0.01969982497394085,0.006261184345930815
1701857499231222000,8.872221923828125,0.0007635590736754239,0.02092151902616024,0.0050394898280501366
1701857499240814000,8.88181396484375,0.0007635590736754239,0.023364907130599022,0.0050394898280501366
1701857499250407200,8.8914072265625,0.0007635590736754239,0.024586603045463562,0.0038177953101694584
1701857499260001000,8.9010009765625,0.0007635590736754239,0.023364907130599022,0.00259610079228878
1701857499269594000,8.910593994140624,0.001985253533348441,0.02092151902616024,0.001374406274408102
1701857499279186400,8.9201865234375,0.0007635590736754239,0.01847812905907631,-0.0010689827613532543
1701857499288779500,8.929779541015625,0.0007635590736754239,0.016034740954637527,-0.0035123717971146107
1701857499298373400,8.939373291015626,0.0007635590736754239,0.014813045971095562,-0.004734066314995289
1701857499307966500,8.948966552734374,0.001985253533348441,0.013591351918876171,-0.007177455350756645
1701857499317558500,8.95855859375,0.001985253533348441,0.013591351918876171,-0.008399149402976036
1701857499327151600,8.968151611328125,0.001985253533348441,0.014813045971095562,-0.008399149402976036
1701857499336745500,8.977745361328125,0.001985253533348441,0.014813045971095562,-0.009620844386518002
1701857499346338600,8.987338623046876,0.0007635590736754239,0.014813045971095562,-0.009620844386518002
1701857499355931000,8.996930908203124,0.001985253533348441,0.013591351918876171,-0.009620844386518002
1701857499365524000,9.00652392578125,0.0007635590736754239,0.012369656935334206,-0.008399149402976036
1701857499375117800,9.016117919921875,0.0007635590736754239,0.011147962883114815,-0.007177455350756645
1701857499384711000,9.0257109375,0.0007635590736754239,0.006261184345930815,-0.004734066314995289
1701857499394303200,9.03530322265625,-0.0004581354442052543,0.00259610079228878,-0.0035123717971146107
1701857499403896300,9.044896240234374,-0.0004581354442052543,0.00015271181473508477,-0.0022906772792339325
1701857499413490200,9.054490234375,-0.0004581354442052543,-0.0022906772792339325,0.00015271181473508477
1701857499423083300,9.064083251953125,-0.0016798300202935934,-0.0035123717971146107,0.00259610079228878
1701857499432675300,9.07367529296875,-0.0004581354442052543,-0.004734066314995289,0.00259610079228878
1701857499442268400,9.083268310546876,-0.0016798300202935934,-0.005955760832875967,0.00259610079228878
1701857499451862300,9.0928623046875,-0.0016798300202935934,-0.007177455350756645,0.0038177953101694584
1701857499461455400,9.102455322265625,-0.0016798300202935934,-0.010842538438737392,0.0050394898280501366
1701857499471047700,9.112047607421875,-0.0004581354442052543,-0.014507622458040714,0.0038177953101694584
1701857499480640800,9.121640869140625,-0.0016798300202935934,-0.01695101149380207,0.0038177953101694584
1701857499490234600,9.131234619140624,-0.0016798300202935934,-0.019394399598240852,0.0038177953101694584
1701857499499827700,9.14082763671875,-0.0004581354442052543,-0.019394399598240852,0.00259610079228878
1701857499509420000,9.150419921875,-0.0016798300202935934,-0.020616095513105392,0.00259610079228878
1701857499519013000,9.16001318359375,-0.0004581354442052543,-0.019394399598240852,0.001374406274408102
1701857499528606700,9.169606689453126,0.0007635590736754239,-0.01817270554602146,0.00259610079228878
1701857499538199800,9.17919970703125,0.0007635590736754239,-0.014507622458040714,0.001374406274408102
1701857499547792100,9.188792236328124,-0.0004581354442052543,-0.012064233422279358,0.00015271181473508477
1701857499557385200,9.19838525390625,-0.0004581354442052543,-0.008399149402976036,-0.0010689827613532543
1701857499566979000,9.20797900390625,0.0007635590736754239,-0.004734066314995289,0.00015271181473508477
1701857499576572200,9.217572265625,0.0007635590736754239,-0.0022906772792339325,-0.0010689827613532543
1701857499586164500,9.22716455078125,0.001985253533348441,0.00015271181473508477,-0.0010689827613532543
1701857499595757600,9.236757568359375,0.001985253533348441,0.0038177953101694584,-0.0035123717971146107
1701857499605351400,9.246351318359375,0.001985253533348441,0.006261184345930815,-0.0035123717971146107
1701857499614944500,9.255944580078125,0.001985253533348441,0.00992626789957285,-0.0035123717971146107
1701857499624536600,9.26553662109375,0.001985253533348441,0.013591351918876171,-0.0035123717971146107
1701857499634129700,9.275129638671874,0.0032069480512291193,0.016034740954637527,-0.0022906772792339325
1701857499643723500,9.2847236328125,0.0032069480512291193,0.016034740954637527,-0.0022906772792339325
1701857499653316600,9.294316650390625,0.0032069480512291193,0.016034740954637527,-0.0035123717971146107
1701857499662909000,9.303908935546875,0.0032069480512291193,0.01969982497394085,-0.0035123717971146107
1701857499672502000,9.313501953125,0.0032069480512291193,0.023364907130599022,-0.0022906772792339325
1701857499682095900,9.323095947265625,0.0032069480512291193,0.028251685202121735,-0.0022906772792339325
1701857499691689000,9.33268896484375,0.0032069480512291193,0.031916771084070206,-0.0010689827613532543
1701857499701281300,9.34228125,0.0032069480512291193,0.03436015918850899,-0.0010689827613532543
1701857499710874400,9.351874267578125,0.0032069480512291193,0.03558185324072838,-0.0010689827613532543
1701857499720468000,9.361468017578124,0.001985253533348441,0.031916771084070206,-0.0035123717971146107
1701857499730061000,9.37106103515625,0.0032069480512291193,0.030695075169205666,-0.0022906772792339325
1701857499739653400,9.3806533203125,0.0032069480512291193,0.028251685202121735,-0.0022906772792339325
1701857499749246500,9.39024658203125,0.004428642801940441,0.027029991149902344,-0.0035123717971146107
1701857499758840300,9.39984033203125,0.0032069480512291193,0.028251685202121735,-0.0022906772792339325
1701857499768433400,9.409433349609374,0.0032069480512291193,0.029473381116986275,-0.0010689827613532543
1701857499778025700,9.419025634765624,0.0032069480512291193,0.028251685202121735,-0.0022906772792339325
1701857499787618800,9.428618896484375,0.001985253533348441,0.027029991149902344,0.00015271181473508477
1701857499797212700,9.438212646484375,0.001985253533348441,0.024586603045463562,0.001374406274408102
1701857499806805800,9.4478056640625,0.001985253533348441,0.023364907130599022,0.001374406274408102
1701857499816397800,9.457397705078124,0.001985253533348441,0.01969982497394085,0.001374406274408102
1701857499825991000,9.466990966796875,0.001985253533348441,0.01725643500685692,0.00015271181473508477
1701857499835584800,9.476584716796875,0.0007635590736754239,0.013591351918876171,0.00015271181473508477
1701857499845177900,9.486177734375,0.001985253533348441,0.012369656935334206,0.001374406274408102
1701857499854770200,9.495770263671876,0.001985253533348441,0.012369656935334206,0.001374406274408102
1701857499864363300,9.50536328125,0.001985253533348441,0.011147962883114815,0.00259610079228878
1701857499873957000,9.51495703125,0.001985253533348441,0.008704573847353458,0.00259610079228878
1701857499883550200,9.52455029296875,0.0007635590736754239,0.008704573847353458,0.00259610079228878
1701857499893142300,9.534142333984375,0.0007635590736754239,0.008704573847353458,0.00259610079228878
1701857499902735400,9.5437353515625,0.0007635590736754239,0.00992626789957285,0.00259610079228878
1701857499912329200,9.5533291015625,0.0007635590736754239,0.00992626789957285,0.00259610079228878
1701857499921922300,9.56292236328125,0.0007635590736754239,0.012369656935334206,0.0038177953101694584
1701857499931514600,9.5725146484375,0.0007635590736754239,0.013591351918876171,0.0038177953101694584
1701857499941107700,9.582107666015625,0.0007635590736754239,0.014813045971095562,0.00259610079228878
1701857499950701600,9.59170166015625,0.001985253533348441,0.01969982497394085,0.00259610079228878
1701857499960294700,9.601294677734375,0.001985253533348441,0.02214321307837963,0.00259610079228878
1701857499969886700,9.61088671875,0.001985253533348441,0.027029991149902344,0.00259610079228878
1701857499979480000,9.62047998046875,0.001985253533348441,0.03436015918850899,0.00259610079228878
1701857499989074000,9.630073974609376,0.0007635590736754239,0.03802524134516716,0.00259610079228878
1701857499998667000,9.6396669921875,-0.0004581354442052543,0.03802524134516716,0.00015271181473508477
1701857500008259000,9.649259033203125,-0.0004581354442052543,0.030695075169205666,-0.005955760832875967
1701857500017852200,9.65885205078125,0.0007635590736754239,0.016034740954637527,-0.01572931744158268
1701857500027446000,9.668446044921875,0.0007635590736754239,0.00259610079228878,-0.025502873584628105
1701857500037039000,9.6780390625,0.0007635590736754239,-0.007177455350756645,-0.0328330397605896
1701857500046631400,9.68763134765625,0.001985253533348441,-0.012064233422279358,-0.03649812191724777
1701857500056224500,9.697224609375,0.001985253533348441,-0.01817270554602146,-0.03527642786502838
1701857500065818400,9.706818359375,0.0007635590736754239,-0.023059483617544174,-0.03161134570837021
1701857500075411500,9.716411376953126,-0.0004581354442052543,-0.025502873584628105,-0.030389651656150818
1701857500085003500,9.72600341796875,-0.0004581354442052543,-0.025502873584628105,-0.026724567636847496
1701857500094596600,9.7355966796875,-0.0029015245381742716,-0.024281177669763565,-0.024281177669763565
1701857500104190500,9.7451904296875,-0.004123218823224306,-0.020616095513105392,-0.020616095513105392
1701857500113783600,9.754783447265625,-0.005344913341104984,-0.01695101149380207,-0.014507622458040714
1701857500123375900,9.7643759765625,-0.007788302376866341,-0.014507622458040714,-0.007177455350756645
1701857500132969000,9.773968994140626,-0.009009997360408306,-0.01695101149380207,-0.0010689827613532543
1701857500142562800,9.783562744140625,-0.010231691412627697,-0.019394399598240852,0.0038177953101694584
1701857500152156000,9.793156005859375,-0.012675080448389053,-0.025502873584628105,0.00992626789957285
1701857500161748000,9.802748046875,-0.012675080448389053,-0.030389651656150818,0.012369656935334206
1701857500171341000,9.812341064453125,-0.011453386396169662,-0.0328330397605896,0.016034740954637527
1701857500180935000,9.821934814453124,-0.011453386396169662,-0.030389651656150818,0.016034740954637527
1701857500190528000,9.831528076171875,-0.011453386396169662,-0.024281177669763565,0.016034740954637527
1701857500200120300,9.841120361328125,-0.010231691412627697,-0.021837789565324783,0.013591351918876171
1701857500209713400,9.85071337890625,-0.009009997360408306,-0.025502873584628105,0.00992626789957285
1701857500219307300,9.860307373046876,-0.009009997360408306,-0.03405473381280899,0.007482878863811493
1701857500228900400,9.869900390625,-0.007788302376866341,-0.04016320779919624,0.001374406274408102
1701857500238492700,9.87949267578125,-0.005344913341104984,-0.03894151374697685,-0.0010689827613532543
1701857500248085800,9.889085693359375,-0.005344913341104984,-0.03771981969475746,0.001374406274408102
1701857500257679600,9.8986796875,-0.004123218823224306,-0.03527642786502838,0.00259610079228878
1701857500267272400,9.9082724609375,-0.0029015245381742716,-0.03161134570837021,0.001374406274408102
1701857500276864800,9.91786474609375,-0.0016798300202935934,-0.026724567636847496,-0.0010689827613532543
1701857500286457900,9.927457763671875,-0.0004581354442052543,-0.024281177669763565,-0.004734066314995289
1701857500296051700,9.9370517578125,0.0007635590736754239,-0.019394399598240852,-0.004734066314995289
1701857500305644800,9.946644775390626,0.0007635590736754239,-0.013285927474498749,-0.0022906772792339325
1701857500315237000,9.956237060546876,-0.0004581354442052543,-0.005955760832875967,0.00259610079228878
1701857500324830200,9.965830322265624,-0.0004581354442052543,-0.0010689827613532543,0.008704573847353458
1701857500334424000,9.975424072265625,-0.0016798300202935934,0.00259610079228878,0.016034740954637527
1701857500344017200,9.98501708984375,-0.0016798300202935934,0.007482878863811493,0.02214321307837963
1701857500353609200,9.994609130859375,-0.0004581354442052543,0.014813045971095562,0.023364907130599022
1701857500363202300,10.004202392578126,-0.0016798300202935934,0.01847812905907631,0.02214321307837963
1701857500372796200,10.013796142578125,-0.0016798300202935934,0.02092151902616024,0.014813045971095562
1701857500382389200,10.02338916015625,-0.0004581354442052543,0.023364907130599022,0.008704573847353458
1701857500391981600,10.032981689453125,0.0007635590736754239,0.027029991149902344,0.0038177953101694584
1701857500401574700,10.04257470703125,0.0007635590736754239,0.029473381116986275,0.0038177953101694584
1701857500411168500,10.05216845703125,0.0007635590736754239,0.030695075169205666,0.0038177953101694584
1701857500420761600,10.06176171875,0.0007635590736754239,0.029473381116986275,0.0050394898280501366
1701857500430353700,10.071353759765625,0.0007635590736754239,0.029473381116986275,0.0038177953101694584
1701857500439946800,10.08094677734375,0.001985253533348441,0.030695075169205666,0.00259610079228878
1701857500449540600,10.09054052734375,0.001985253533348441,0.0331384651362896,0.00015271181473508477
1701857500459133700,10.1001337890625,0.0007635590736754239,0.031916771084070206,-0.004734066314995289
1701857500468726000,10.10972607421875,0.001985253533348441,0.031916771084070206,-0.005955760832875967
1701857500478319000,10.119319091796875,0.001985253533348441,0.030695075169205666,-0.008399149402976036
1701857500487913000,10.128912841796875,0.001985253533348441,0.030695075169205666,-0.007177455350756645
1701857500497506000,10.138506103515626,0.001985253533348441,0.031916771084070206,-0.004734066314995289
1701857500507098400,10.148098388671874,0.0007635590736754239,0.031916771084070206,-0.0022906772792339325
1701857500516691200,10.157691162109375,0.0007635590736754239,0.031916771084070206,0.001374406274408102
1701857500526285000,10.16728515625,-0.0004581354442052543,0.030695075169205666,0.0050394898280501366
1701857500535878100,10.176878173828126,-0.0004581354442052543,0.029473381116986275,0.008704573847353458
1701857500545470500,10.186470458984376,-0.0004581354442052543,0.025808297097682953,0.008704573847353458
1701857500555063600,10.1960634765625,-0.0004581354442052543,0.02092151902616024,0.007482878863811493
1701857500564657400,10.205657470703125,0.0007635590736754239,0.014813045971095562,0.007482878863811493
1701857500574250500,10.21525048828125,0.001985253533348441,0.00992626789957285,0.006261184345930815
1701857500583842600,10.224842529296875,0.0007635590736754239,0.00259610079228878,0.008704573847353458
1701857500593436000,10.234435791015626,0.0007635590736754239,0.001374406274408102,0.00992626789957285
1701857500603029800,10.24402978515625,0.0007635590736754239,0.001374406274408102,0.011147962883114815
1701857500612622800,10.253622802734375,0.001985253533348441,0.006261184345930815,0.00992626789957285
1701857500622215000,10.26321484375,0.001985253533348441,0.011147962883114815,0.008704573847353458
1701857500631808000,10.27280810546875,0.001985253533348441,0.016034740954637527,0.007482878863811493
1701857500641401900,10.28240185546875,0.0032069480512291193,0.02092151902616024,0.006261184345930815
1701857500650995000,10.291994873046875,0.0032069480512291193,0.023364907130599022,0.00259610079228878
1701857500660587300,10.301587158203125,0.004428642801940441,0.025808297097682953,-0.0010689827613532543
1701857500670180400,10.311180419921875,0.005650337319821119,0.027029991149902344,-0.005955760832875967
1701857500679774200,10.320774169921876,0.0068720318377017975,0.029473381116986275,-0.007177455350756645
1701857500689367300,10.3303671875,0.005650337319821119,0.0331384651362896,-0.007177455350756645
1701857500698959400,10.33995947265625,0.004428642801940441,0.03436015918850899,-0.009620844386518002
1701857500708552400,10.349552490234375,0.004428642801940441,0.0331384651362896,-0.013285927474498749
1701857500718146300,10.359146240234375,0.004428642801940441,0.027029991149902344,-0.01817270554602146
1701857500727739400,10.368739501953126,0.005650337319821119,0.023364907130599022,-0.021837789565324783
1701857500737331700,10.378331787109374,0.005650337319821119,0.02214321307837963,-0.021837789565324783
1701857500746924800,10.3879248046875,0.004428642801940441,0.02214321307837963,-0.019394399598240852
1701857500756518700,10.3975185546875,0.0032069480512291193,0.01969982497394085,-0.01572931744158268
1701857500766111700,10.40711181640625,0.0032069480512291193,0.01847812905907631,-0.014507622458040714
1701857500775703800,10.416703857421876,0.001985253533348441,0.01725643500685692,-0.012064233422279358
1701857500785297000,10.426296875,0.001985253533348441,0.014813045971095562,-0.010842538438737392
1701857500794890800,10.435890869140625,0.0007635590736754239,0.012369656935334206,-0.008399149402976036
1701857500804483800,10.44548388671875,0.001985253533348441,0.00992626789957285,-0.007177455350756645
1701857500814076200,10.455076171875,0.0007635590736754239,0.007482878863811493,-0.0035123717971146107
1701857500823669200,10.464669189453126,-0.0004581354442052543,0.0038177953101694584,0.001374406274408102
1701857500833263000,10.47426318359375,-0.0004581354442052543,-0.0010689827613532543,0.006261184345930815
1701857500842856200,10.483856201171875,-0.0004581354442052543,-0.005955760832875967,0.00992626789957285
1701857500852448500,10.493448486328125,-0.0016798300202935934,-0.010842538438737392,0.011147962883114815
1701857500862041600,10.50304150390625,-0.0016798300202935934,-0.01817270554602146,0.011147962883114815
1701857500871635500,10.512635498046874,-0.0016798300202935934,-0.025502873584628105,0.012369656935334206
1701857500881228300,10.522228271484375,-0.0016798300202935934,-0.027946261689066887,0.016034740954637527
1701857500890820600,10.531820556640625,-0.0016798300202935934,-0.023059483617544174,0.01969982497394085
1701857500900413700,10.54141357421875,-0.0029015245381742716,-0.020616095513105392,0.02092151902616024
1701857500910007600,10.551007568359376,-0.0016798300202935934,-0.01572931744158268,0.01969982497394085
1701857500919600600,10.5606005859375,-0.0004581354442052543,-0.012064233422279358,0.01725643500685692
1701857500929193000,10.57019287109375,0.0007635590736754239,-0.007177455350756645,0.014813045971095562
1701857500938786000,10.5797861328125,0.0007635590736754239,-0.0035123717971146107,0.012369656935334206
1701857500948380000,10.5893798828125,-0.0004581354442052543,-0.0010689827613532543,0.013591351918876171
1701857500957973000,10.598972900390624,-0.0016798300202935934,0.001374406274408102,0.013591351918876171
1701857500967565000,10.60856494140625,-0.0004581354442052543,0.0038177953101694584,0.012369656935334206
1701857500977158100,10.618158203125,-0.0004581354442052543,0.008704573847353458,0.00992626789957285
1701857500986752000,10.627751953125,0.0007635590736754239,0.008704573847353458,0.0038177953101694584
1701857500996345000,10.637344970703126,0.001985253533348441,0.006261184345930815,-0.0010689827613532543
1701857501005937400,10.6469375,0.001985253533348441,0.00259610079228878,-0.005955760832875967
1701857501015530500,10.656530517578124,0.0032069480512291193,-0.0022906772792339325,-0.008399149402976036
1701857501025124400,10.666124267578125,0.0032069480512291193,-0.005955760832875967,-0.009620844386518002
1701857501034717400,10.675717529296875,0.001985253533348441,-0.008399149402976036,-0.008399149402976036
1701857501044309500,10.6853095703125,0.001985253533348441,-0.010842538438737392,-0.007177455350756645
1701857501053902800,10.69490283203125,0.0007635590736754239,-0.009620844386518002,-0.005955760832875967
1701857501063496400,10.704496337890625,0.0007635590736754239,-0.005955760832875967,-0.0035123717971146107
1701857501073089500,10.714089599609375,0.0007635590736754239,-0.0035123717971146107,-0.0035123717971146107
1701857501082681900,10.723681884765625,0.0007635590736754239,-0.0010689827613532543,-0.0035123717971146107
1701857501092275000,10.73327490234375,0.001985253533348441,0.00015271181473508477,-0.0022906772792339325
1701857501101868800,10.742868896484374,0.0007635590736754239,0.00015271181473508477,-0.0010689827613532543
1701857501111462000,10.7524619140625,0.0007635590736754239,0.00259610079228878,0.00015271181473508477
1701857501121054200,10.76205419921875,0.001985253533348441,0.00259610079228878,0.00015271181473508477
1701857501130647300,10.771647216796875,0.001985253533348441,0.0050394898280501366,0.00015271181473508477
1701857501140241200,10.7812412109375,0.001985253533348441,0.008704573847353458,0.001374406274408102
1701857501149834000,10.790833984375,0.0032069480512291193,0.011147962883114815,0.001374406274408102
1701857501159426300,10.80042626953125,0.001985253533348441,0.012369656935334206,0.00259610079228878
1701857501169019400,10.810019287109375,0.0032069480512291193,0.016034740954637527,0.0038177953101694584
1701857501178613200,10.81961328125,0.0032069480512291193,0.02092151902616024,0.0038177953101694584
1701857501188206300,10.829206298828124,0.0032069480512291193,0.025808297097682953,0.00259610079228878
1701857501197798700,10.838798583984374,0.0032069480512291193,0.029473381116986275,0.00259610079228878
1701857501207391700,10.848391845703125,0.0032069480512291193,0.03436015918850899,0.00259610079228878
1701857501216985600,10.857985595703125,0.001985253533348441,0.03558185324072838,0.00259610079228878
1701857501226578400,10.867578369140626,0.001985253533348441,0.031916771084070206,0.001374406274408102
1701857501236170800,10.877170654296876,0.001985253533348441,0.029473381116986275,0.00015271181473508477
1701857501245763800,10.886763916015624,0.0007635590736754239,0.027029991149902344,-0.0010689827613532543
1701857501255357700,10.896357666015625,0.0007635590736754239,0.02092151902616024,-0.0022906772792339325
1701857501264950800,10.90595068359375,0.0007635590736754239,0.014813045971095562,-0.0022906772792339325
1701857501274543000,10.915543212890626,0.0007635590736754239,0.011147962883114815,-0.0022906772792339325
1701857501284136200,10.92513623046875,-0.0004581354442052543,0.007482878863811493,-0.0022906772792339325
1701857501293730000,10.93472998046875,-0.0004581354442052543,0.0038177953101694584,-0.0010689827613532543
1701857501303323100,10.9443232421875,-0.0004581354442052543,0.0038177953101694584,-0.0010689827613532543
1701857501312915500,10.95391552734375,-0.0004581354442052543,0.0038177953101694584,0.00015271181473508477
1701857501322508300,10.96350830078125,-0.0016798300202935934,0.0050394898280501366,0.00015271181473508477
1701857501332102100,10.97310205078125,-0.0004581354442052543,0.0038177953101694584,0.001374406274408102
1701857501341695200,10.9826953125,-0.0004581354442052543,0.00259610079228878,0.00259610079228878
1701857501351287600,10.99228759765625,0.0007635590736754239,0.001374406274408102,0.001374406274408102
1701857501360880600,11.001880615234375,-0.0004581354442052543,-0.0010689827613532543,0.00259610079228878
1701857501370474500,11.011474609375,-0.0004581354442052543,-0.0035123717971146107,0.001374406274408102
1701857501380067600,11.021067626953124,0.0007635590736754239,-0.005955760832875967,0.001374406274408102
1701857501389660000,11.030659912109375,0.0007635590736754239,-0.007177455350756645,0.001374406274408102
1701857501399253000,11.0402529296875,0.0007635590736754239,-0.007177455350756645,0.00015271181473508477
1701857501408846800,11.049846923828126,0.0007635590736754239,-0.008399149402976036,0.001374406274408102
1701857501418440000,11.05943994140625,0.0007635590736754239,-0.007177455350756645,0.001374406274408102
1701857501428032000,11.069031982421874,-0.0004581354442052543,-0.005955760832875967,0.001374406274408102
1701857501437625000,11.078625,-0.0004581354442052543,-0.004734066314995289,0.001374406274408102
1701857501447219000,11.088218994140625,0.0007635590736754239,-0.005955760832875967,-0.0010689827613532543
1701857501456812000,11.09781201171875,-0.0004581354442052543,-0.007177455350756645,-0.0010689827613532543
1701857501466404400,11.107404296875,0.0007635590736754239,-0.007177455350756645,-0.0010689827613532543
1701857501475997400,11.11699755859375,0.0007635590736754239,-0.005955760832875967,-0.0022906772792339325
1701857501485591300,11.12659130859375,-0.0004581354442052543,-0.0035123717971146107,-0.0022906772792339325
1701857501495184400,11.136184326171875,-0.0004581354442052543,0.00015271181473508477,-0.0010689827613532543
1701857501504776400,11.1457763671875,-0.0004581354442052543,0.001374406274408102,0.00015271181473508477
1701857501514369500,11.15536962890625,-0.0004581354442052543,0.00259610079228878,-0.0010689827613532543
1701857501523963400,11.16496337890625,0.0007635590736754239,0.0038177953101694584,-0.0010689827613532543
1701857501533556500,11.174556396484375,-0.0004581354442052543,0.00259610079228878,-0.0010689827613532543
1701857501543148800,11.184148681640625,-0.0004581354442052543,0.0050394898280501366,-0.0010689827613532543
1701857501552742000,11.193741943359376,-0.0004581354442052543,0.00259610079228878,-0.0022906772792339325
1701857501562335700,11.203335693359374,-0.0004581354442052543,0.001374406274408102,-0.0022906772792339325
1701857501571928800,11.2129287109375,-0.0004581354442052543,-0.0022906772792339325,-0.0035123717971146107
1701857501581521200,11.222521240234375,-0.0004581354442052543,-0.004734066314995289,-0.0022906772792339325
1701857501591114200,11.2321142578125,-0.0004581354442052543,-0.005955760832875967,-0.0022906772792339325
1701857501600708000,11.2417080078125,-0.0004581354442052543,-0.007177455350756645,-0.0022906772792339325
1701857501610301200,11.25130126953125,-0.0016798300202935934,-0.007177455350756645,-0.0010689827613532543
1701857501619893200,11.260893310546875,-0.0004581354442052543,-0.005955760832875967,-0.0010689827613532543
1701857501629486300,11.270486328125,-0.0004581354442052543,-0.004734066314995289,-0.0010689827613532543
1701857501639080200,11.280080078125,-0.0004581354442052543,-0.004734066314995289,0.001374406274408102
1701857501648673300,11.28967333984375,-0.0004581354442052543,-0.0022906772792339325,0.001374406274408102
1701857501658265600,11.299265625,0.0007635590736754239,-0.0022906772792339325,0.00259610079228878
1701857501667858700,11.308858642578125,-0.0004581354442052543,-0.004734066314995289,0.00259610079228878
1701857501677452500,11.31845263671875,-0.0004581354442052543,-0.004734066314995289,0.00259610079228878
1701857501687045600,11.328045654296876,-0.0004581354442052543,-0.005955760832875967,0.001374406274408102
1701857501696637700,11.3376376953125,0.0007635590736754239,-0.007177455350756645,0.00015271181473508477
1701857501706230800,11.347230712890624,0.0007635590736754239,-0.009620844386518002,0.00015271181473508477
1701857501715824600,11.35682470703125,0.0007635590736754239,-0.008399149402976036,-0.0010689827613532543
1701857501725417700,11.366417724609375,0.0007635590736754239,-0.007177455350756645,0.00015271181473508477
1701857501735010000,11.376010009765626,0.0007635590736754239,-0.005955760832875967,0.00015271181473508477
1701857501744603100,11.38560302734375,0.0007635590736754239,-0.004734066314995289,0.00015271181473508477
1701857501754197000,11.395197021484375,0.0007635590736754239,-0.0035123717971146107,-0.0010689827613532543
1701857501763790000,11.4047900390625,0.0007635590736754239,-0.0035123717971146107,-0.0035123717971146107
1701857501773382400,11.41438232421875,0.001985253533348441,-0.0035123717971146107,-0.0035123717971146107
1701857501782975500,11.4239755859375,0.001985253533348441,-0.0022906772792339325,-0.0035123717971146107
1701857501792569300,11.4335693359375,0.0007635590736754239,-0.0035123717971146107,-0.004734066314995289
1701857501802162400,11.443162353515625,0.001985253533348441,-0.004734066314995289,-0.005955760832875967
1701857501811754500,11.45275439453125,0.0032069480512291193,-0.004734066314995289,-0.005955760832875967
1701857501821347600,11.46234765625,0.001985253533348441,-0.007177455350756645,-0.007177455350756645
1701857501830941400,11.47194140625,0.001985253533348441,-0.008399149402976036,-0.007177455350756645
1701857501840534500,11.481534423828125,0.001985253533348441,-0.008399149402976036,-0.008399149402976036
1701857501850126800,11.491126953125,0.001985253533348441,-0.008399149402976036,-0.008399149402976036
1701857501859720000,11.500719970703125,0.001985253533348441,-0.008399149402976036,-0.008399149402976036
1701857501869313800,11.510313720703126,0.0007635590736754239,-0.008399149402976036,-0.007177455350756645
1701857501878907000,11.519906982421874,0.0007635590736754239,-0.009620844386518002,-0.007177455350756645
1701857501888499000,11.5294990234375,0.0007635590736754239,-0.012064233422279358,-0.008399149402976036
1701857501898092000,11.539092041015625,0.0007635590736754239,-0.014507622458040714,-0.008399149402976036
1701857501907686000,11.548685791015625,-0.0004581354442052543,-0.014507622458040714,-0.007177455350756645
1701857501917279000,11.558279052734376,-0.0004581354442052543,-0.014507622458040714,-0.007177455350756645
1701857501926871300,11.567871337890624,0.0007635590736754239,-0.010842538438737392,-0.005955760832875967
1701857501936464400,11.57746435546875,-0.0004581354442052543,-0.009620844386518002,-0.004734066314995289
1701857501946058200,11.587058349609375,0.0007635590736754239,-0.007177455350756645,-0.0035123717971146107
1701857501955651300,11.5966513671875,0.0007635590736754239,-0.007177455350756645,-0.0010689827613532543
1701857501965243600,11.60624365234375,-0.0004581354442052543,-0.008399149402976036,-0.0010689827613532543
1701857501974836700,11.615836669921874,-0.0004581354442052543,-0.008399149402976036,-0.0010689827613532543
1701857501984430600,11.6254306640625,-0.0004581354442052543,-0.007177455350756645,-0.0010689827613532543
1701857501994023700,11.635023681640625,-0.0004581354442052543,-0.005955760832875967,-0.0010689827613532543
1701857502003615700,11.64461572265625,-0.0004581354442052543,-0.0022906772792339325,0.00015271181473508477
1701857502013208800,11.654208740234376,-0.0004581354442052543,0.00015271181473508477,0.00015271181473508477
1701857502022802700,11.663802734375,-0.0004581354442052543,0.00259610079228878,0.001374406274408102
1701857502032395800,11.673395751953125,0.0007635590736754239,0.00015271181473508477,-0.0010689827613532543
1701857502041988000,11.682988037109375,0.0007635590736754239,-0.0022906772792339325,-0.0022906772792339325
1701857502051581200,11.692581298828125,0.0007635590736754239,-0.0035123717971146107,-0.0022906772792339325
1701857502061175000,11.702175048828124,0.001985253533348441,-0.0035123717971146107,-0.0035123717971146107
1701857502070768000,11.71176806640625,0.001985253533348441,-0.0010689827613532543,-0.0035123717971146107
1701857502080360400,11.7213603515625,0.001985253533348441,0.00015271181473508477,-0.0022906772792339325
1701857502089953300,11.730953369140625,0.0007635590736754239,0.001374406274408102,-0.0022906772792339325
1701857502099547100,11.740547119140626,0.0007635590736754239,0.001374406274408102,-0.0010689827613532543
1701857502109140200,11.75014013671875,0.001985253533348441,0.001374406274408102,-0.0010689827613532543
1701857502118732500,11.759732666015625,0.001985253533348441,0.00259610079228878,-0.0010689827613532543
1701857502128325600,11.76932568359375,0.001985253533348441,0.0038177953101694584,-0.0022906772792339325
1701857502137919500,11.77891943359375,0.001985253533348441,0.0050394898280501366,-0.0035123717971146107
1701857502147512600,11.7885126953125,0.0032069480512291193,0.0038177953101694584,-0.0035123717971146107
1701857502157105000,11.79810498046875,0.001985253533348441,0.00259610079228878,-0.004734066314995289
1701857502166698000,11.807697998046875,0.001985253533348441,0.001374406274408102,-0.005955760832875967
