time,seconds_elapsed,z,y,x
1701857666136222500,0.119222412109375,5.389235019683838,7.5065836906433105,-2.3407788276672363
1701857666145816300,0.12881640625,4.4844489097595215,7.683652400970459,-3.0565319061279297
1701857666155409400,0.138409423828125,3.098107099533081,7.678866863250732,-3.451646566390991
1701857666165001700,0.148001708984375,2.667099952697754,7.659724235534668,-3.568894863128662
1701857666174595000,0.157594970703125,3.279961585998535,7.307680130004883,-3.302992582321167
1701857666184189000,0.16718896484375,4.513162612915039,6.874579429626465,-2.9297122955322266
1701857666193782000,0.176781982421875,5.968596935272217,6.4818572998046875,-2.8145575523376465
1701857666203374300,0.186374267578125,8.03958511352539,6.594320297241211,-3.0732815265655518
1701857666212967700,0.1959677734375,9.282057762145996,6.759424686431885,-3.147459030151367
1701857666222561500,0.2055615234375,9.507282257080078,6.400501251220703,-2.7571299076080322
1701857666232154600,0.215154541015625,9.576674461364746,5.717948913574219,-1.8738791942596436
1701857666241747000,0.224746826171875,10.110572814941406,5.093122959136963,-1.0142576694488525
1701857666251340300,0.23434033203125,10.749755859375,5.02133846282959,-0.724726140499115
1701857666260934100,0.24393408203125,10.378568649291992,5.0356950759887695,-0.8922237157821655
1701857666270527200,0.25352734375,9.109774589538574,5.033302307128906,-1.4835500717163086
1701857666280119600,0.26311962890625,7.699504852294922,4.801198482513428,-1.2370892763137817
1701857666289713000,0.272712890625,5.338985443115234,2.086242198944092,2.200798511505127
1701857666299306800,0.282306640625,5.221737384796143,-0.41545382142066956,2.926422119140625
1701857666308899800,0.29189990234375,3.7923247814178467,3.9942193031311035,1.0803594589233398
1701857666318492200,0.3014921875,4.6663031578063965,8.107481002807617,-2.050948143005371
1701857666328085500,0.31108544921875,8.46341323852539,10.458429336547852,-5.290231704711914
1701857666337679400,0.320679443359375,11.223834037780762,7.1473612785339355,-2.417349100112915
1701857666347272400,0.3302724609375,11.616256713867188,2.423929452896118,1.8849459886550903
1701857666356864800,0.33986474609375,12.50698471069336,2.064706802368164,2.785245656967163
1701857666366458000,0.3494580078125,14.202000617980957,3.7046875953674316,1.5568302869796753
1701857666376052000,0.359052001953125,14.534603118896484,3.8841493129730225,1.1596217155456543
1701857666385645000,0.36864501953125,14.091930389404297,3.4459636211395264,1.4682958126068115
1701857666395237400,0.3782373046875,13.01934814453125,3.230609655380249,1.3414762020111084
1701857666404830700,0.387830810546875,11.781660079956055,3.302394390106201,0.6520441770553589
1701857666414424600,0.397424560546875,10.065109252929688,3.503690481185913,-0.00867398176342249
1701857666424017700,0.407017578125,8.920442581176758,4.0420756340026855,-0.5955137610435486
1701857666433610000,0.41660986328125,7.52004337310791,4.7796630859375,-1.1629117727279663
1701857666443203300,0.426203369140625,6.492924213409424,5.514558792114258,-1.6630117893218994
1701857666452797200,0.435797119140625,5.815456390380859,6.20638370513916,-1.5385849475860596
1701857666462390300,0.445390380859375,5.121238708496094,6.4579291343688965,-0.6218347549438477
1701857666471982600,0.454982666015625,4.6734819412231445,6.5512495040893555,0.28085756301879883
1701857666481576000,0.464575927734375,4.958227634429932,6.699604511260986,0.7501499056816101
1701857666491169800,0.474169677734375,5.7771711349487305,6.716353893280029,0.8099704384803772
1701857666500763000,0.483762939453125,6.488138675689697,6.479464530944824,0.7980063557624817
1701857666510355200,0.493355224609375,7.354938507080078,6.230311870574951,0.4698905348777771
1701857666519948500,0.502948486328125,8.319544792175293,5.983851432800293,-0.11665010452270508
1701857666529542400,0.51254248046875,8.879764556884766,5.701199054718018,-0.6936194896697998
1701857666539135500,0.522135498046875,8.717052459716797,5.6461639404296875,0.13489536941051483
1701857666548727800,0.531727783203125,8.48016357421875,5.490630626678467,1.6719847917556763
1701857666558321200,0.541321044921875,8.427521705627441,5.392524719238281,3.1896326541900635
1701857666567915000,0.5509150390625,8.676374435424805,5.136193752288818,4.046861171722412
1701857666577508000,0.560508056640625,8.714659690856934,4.961517810821533,4.2550368309021
1701857666587100400,0.570100341796875,8.695517539978027,5.050052165985107,3.7689948081970215
1701857666596693800,0.57969384765625,8.429914474487305,4.961517810821533,3.1106693744659424
1701857666606287600,0.58928759765625,8.003692626953125,4.7030930519104,2.7972097396850586
1701857666615880700,0.598880615234375,7.792825222015381,4.47068977355957,2.854637384414673
1701857666625473000,0.60847314453125,7.8194451332092285,4.3055853843688965,3.0556344985961914
1701857666635066400,0.61806640625,7.122535705566406,4.2194437980651855,3.412464141845703
1701857666644660200,0.62766015625,7.376473903656006,4.118945121765137,3.4627134799957275
1701857666654253600,0.637253662109375,7.517650604248047,3.9702908992767334,3.3670005798339844
1701857666663845600,0.646845703125,7.522436141967773,3.850649833679199,3.3332018852233887
1701857666673439000,0.65643896484375,7.699504852294922,3.8937206268310547,2.497807741165161
1701857666683032800,0.66603271484375,7.4123663902282715,3.8745779991149902,2.0620148181915283
1701857666692626000,0.6756259765625,7.371688365936279,3.965505361557007,1.9471594095230103
1701857666702218200,0.68521826171875,7.354938507080078,4.030111312866211,1.999801516532898
1701857666711811600,0.6948115234375,7.378866672515869,3.9535412788391113,2.1409780979156494
1701857666721405400,0.704405517578125,7.481758117675781,3.903291940689087,2.2585253715515137
1701857666730998500,0.71399853515625,7.467401027679443,3.90568470954895,2.385344982147217
1701857666740591000,0.723591064453125,7.381259441375732,4.025325775146484,2.3997020721435547
1701857666750184200,0.73318408203125,7.285546779632568,4.154837608337402,2.394916296005249
1701857666759778000,0.742778076171875,7.345367431640625,4.355834484100342,2.220240354537964
1701857666769371100,0.75237109375,7.529614448547363,4.631308078765869,2.002194404602051
1701857666778963700,0.761963623046875,7.915158271789551,4.767699241638184,1.9232312440872192
1701857666788556800,0.771556884765625,8.238189697265625,4.849055290222168,2.0476579666137695
1701857666798150700,0.781150634765625,8.513663291931152,4.97348165512085,2.433201551437378
1701857666807744000,0.790743896484375,8.659625053405762,5.133800983428955,2.981456995010376
1701857666817336300,0.80033642578125,8.975776672363281,5.251348495483398,3.678067445755005
1701857666826929400,0.809929443359375,9.109774589538574,5.057230472564697,4.597509384155273
1701857666836523300,0.819523193359375,9.03799057006836,5.004588603973389,5.2869415283203125
1701857666846116600,0.82911669921875,8.60459041595459,4.999803066253662,5.566901683807373
1701857666855709000,0.838708984375,8.022834777832031,4.889732837677002,5.559723377227783
1701857666865302000,0.848302001953125,7.5463643074035645,4.786841869354248,5.373083114624023
1701857666874896000,0.857895751953125,7.067500591278076,4.76530647277832,4.987539768218994
1701857666884489000,0.867489013671875,6.703791618347168,4.755734920501709,4.64297342300415
1701857666894081500,0.87708154296875,6.725327014923096,4.691128730773926,4.465904235839844
1701857666903674600,0.886674560546875,7.005287170410156,4.624129772186279,4.47068977355957
1701857666913268500,0.8962685546875,7.4602227210998535,4.568795680999756,4.501796722412109
1701857666922861800,0.90586181640625,8.037192344665527,4.508975028991699,4.393820762634277
1701857666932454100,0.9154541015625,8.748159408569336,4.274478435516357,4.290929317474365
1701857666942047200,0.925047119140625,9.23180866241455,4.063910007476807,4.319643020629883
1701857666951641300,0.934641357421875,9.320343017578125,4.0782670974731445,3.965505361557007
1701857666961234400,0.944234375,9.243772506713867,4.0181474685668945,3.4292140007019043
1701857666970826800,0.95382666015625,9.069096565246582,3.802793502807617,3.053241729736328
1701857666980419800,0.963419921875,8.798408508300781,3.826721668243408,2.576770782470703
1701857666990014000,0.973013916015625,8.446663856506348,3.865006685256958,2.2585253715515137
1701857666999607000,0.98260693359375,8.185546875,3.747758388519287,2.184048891067505
1701857667009199400,0.992199462890625,7.9845499992370605,3.745365619659424,2.1481566429138184
1701857667018792400,1.00179248046875,7.764111042022705,3.8530426025390625,2.200798511505127
1701857667028386600,1.011386474609375,7.615756034851074,3.927220106124878,2.4308087825775146
1701857667037979600,1.020979736328125,7.510472297668457,3.943969964981079,2.794816732406616
1701857667047572000,1.030572021484375,7.292725086212158,3.951148271560669,3.06999135017395
1701857667057165000,1.0401650390625,7.264011383056641,3.8841493129730225,3.3526437282562256
1701857667066759200,1.04975927734375,7.910372734069824,3.699902057647705,3.951148271560669
1701857667076352300,1.059352294921875,8.520841598510742,3.527618885040283,4.654937267303467
1701857667085944600,1.068944580078125,8.774480819702148,3.381357431411743,5.011467933654785
1701857667095538000,1.078537841796875,8.803194046020508,3.2593235969543457,5.088337421417236
1701857667105131800,1.0881318359375,8.549555778503418,3.350250720977783,4.939683437347412
1701857667114724900,1.097724853515625,8.130512237548828,3.4917263984680176,4.686044216156006
1701857667124317200,1.107317138671875,7.689933776855469,3.6329028606414795,4.504189491271973
1701857667133910500,1.11691064453125,7.376473903656006,3.738187074661255,4.446462631225586
1701857667143504400,1.12650439453125,7.2783684730529785,3.7597224712371826,4.475475788116455
1701857667153097500,1.136097412109375,7.405188083648682,3.707080364227295,4.575973987579346
1701857667162689800,1.145689697265625,7.9055867195129395,3.565903902053833,4.822434902191162
1701857667172283100,1.155283203125,8.415556907653809,3.4483566284179688,5.167300701141357
1701857667181877000,1.164876953125,8.863015174865723,3.395714521408081,5.358726501464844
1701857667191470300,1.17447021484375,9.148059844970703,3.28564453125,5.523830890655518
1701857667201062400,1.1840625,9.04516887664795,3.237788200378418,5.416153907775879
1701857667210655700,1.19365576171875,8.733802795410156,3.244966506958008,5.073980331420898
1701857667220249600,1.20324951171875,8.357830047607422,3.271287679672241,4.71236515045166
1701857667229842700,1.2128427734375,7.943871974945068,3.268894910812378,4.446462631225586
1701857667239435300,1.222435302734375,7.632505893707275,3.2832517623901367,4.2454657554626465
1701857667249028400,1.2320283203125,7.6253275871276855,3.3191440105438232,4.1282172203063965
1701857667258622200,1.241622314453125,7.838587760925293,3.27846622467041,4.089931964874268
1701857667268215600,1.251215576171875,8.087441444396973,3.213859796524048,4.106681823730469
1701857667277807900,1.260807861328125,8.449056625366211,3.1707890033721924,4.2693939208984375
1701857667287401000,1.27040087890625,8.673981666564941,3.22343111038208,4.4033918380737305
1701857667296995000,1.2799951171875,8.760123252868652,3.28564453125,4.520939350128174
1701857667306588200,1.289588134765625,8.889336585998535,3.350250720977783,4.516153812408447
1701857667316180500,1.299180419921875,9.02841854095459,3.433999538421631,4.4344987869262695
1701857667325773600,1.308773681640625,8.978169441223145,3.340679407119751,4.458725929260254
1701857667335367700,1.31836767578125,8.709874153137207,3.2760732173919678,4.429712772369385
1701857667344960800,1.327960693359375,8.324331283569336,3.268894910812378,4.396213531494141
1701857667354553000,1.337552978515625,7.994121551513672,3.3287153244018555,4.369892120361328
1701857667364146400,1.347146484375,7.728219032287598,3.433999538421631,4.353142738342285
1701857667373740300,1.356740234375,7.417151927947998,3.503690481185913,4.444069862365723
1701857667383333400,1.36633349609375,7.266404151916504,3.541975736618042,4.571188449859619
1701857667392925700,1.37592578125,7.316653251647949,3.573082447052002,4.664508819580078
1701857667402519000,1.38551904296875,7.58943510055542,3.534797191619873,4.846363067626953
1701857667412113000,1.39511279296875,7.71386194229126,3.5371899604797363,4.930111885070801
1701857667421706000,1.4047060546875,7.730611801147461,3.5539398193359375,4.798506736755371
1701857667431298300,1.41429833984375,7.744968891143799,3.582653760910034,4.523332118988037
1701857667440891600,1.4238916015625,7.744968891143799,3.558725595474243,4.2550368309021
1701857667450485500,1.433485595703125,7.591827869415283,3.50129771232605,4.075575351715088
1701857667460078600,1.44307861328125,7.469794273376465,3.4866416454315186,3.869493246078491
1701857667469671200,1.452671142578125,7.419544696807861,3.4866416454315186,3.8144583702087402
1701857667479264300,1.46226416015625,7.536793231964111,3.465106248855591,3.9702908992767334
1701857667488858000,1.471858154296875,7.744968891143799,3.4483566284179688,4.391427993774414
1701857667498451500,1.481451416015625,7.972586154937744,3.465106248855591,4.729115009307861
1701857667508043800,1.491043701171875,8.20947551727295,3.3215370178222656,4.992325305938721
1701857667517636900,1.500636962890625,8.376973152160645,3.213859796524048,5.169693470001221
1701857667527231000,1.51023095703125,8.437092781066895,3.2569308280944824,5.124229907989502
1701857667536824000,1.519823974609375,8.516056060791016,3.2258241176605225,5.018945693969727
1701857667546416400,1.52941650390625,8.597412109375,3.1707890033721924,4.858327388763428
1701857667556009500,1.539009521484375,8.645268440246582,3.1229326725006104,4.638187408447266
1701857667565603600,1.548603515625,8.762516975402832,3.087040424346924,4.482654094696045
1701857667575196700,1.55819677734375,8.980562210083008,2.9578278064727783,4.480261325836182
1701857667584789000,1.5677890625,9.246166229248047,2.825923442840576,4.65733003616333
1701857667594382300,1.57738232421875,9.535996437072754,2.7732813358306885,5.02133846282959
1701857667603976200,1.58697607421875,9.660423278808594,2.7349963188171387,5.296513080596924
1701857667613569300,1.5965693359375,9.593423843383789,2.706282377243042,5.322834014892578
1701857667623161600,1.60616162109375,9.437591552734375,2.6967110633850098,5.227120876312256
1701857667632755000,1.6157548828125,9.150452613830566,2.7278177738189697,5.071587562561035
1701857667642348800,1.625348876953125,8.858229637145996,2.675175666809082,4.860720157623291
1701857667651942100,1.634942138671875,8.719446182250977,2.6847469806671143,4.585545539855957
1701857667661534200,1.6445341796875,8.635697364807129,2.6560330390930176,4.465904235839844
1701857667671127600,1.65412744140625,8.606983184814453,2.581855535507202,4.564010143280029
1701857667680721400,1.663721435546875,8.664410591125488,2.548356056213379,4.803292274475098
1701857667690314800,1.673314697265625,8.669196128845215,2.548356056213379,4.970789909362793
1701857667699907000,1.682906982421875,8.717052459716797,2.555534601211548,5.172086238861084
1701857667709500200,1.692500244140625,8.72901725769043,2.589034080505371,5.339583873748779
1701857667719094300,1.70209423828125,8.673981666564941,2.610569477081299,5.4520463943481445
1701857667728687400,1.711687255859375,8.46341323852539,2.6249263286590576,5.507081508636475
1701857667738279700,1.72127978515625,8.104190826416016,2.6273193359375,5.521438121795654
1701857667747873000,1.730873046875,7.756932735443115,2.641676187515259,5.504688262939453
1701857667757467000,1.740466796875,7.522436141967773,2.6297121047973633,5.480760097503662
1701857667767060000,1.75006005859375,7.2951178550720215,2.5842485427856445,5.516652584075928
1701857667776652300,1.75965234375,7.213462829589844,2.5220351219177246,5.61745023727417
1701857667786245600,1.76924560546875,7.299903869628906,2.495713949203491,5.670092582702637
1701857667795839500,1.778839599609375,7.5080790519714355,2.447857618331909,5.7634124755859375
1701857667805432800,1.788432861328125,7.788039684295654,2.400001049041748,5.923731327056885
1701857667815025000,1.79802490234375,7.929515361785889,2.3494527339935303,6.0625152587890625
1701857667824618200,1.8076181640625,8.073084831237793,2.323131799697876,6.117550373077393
1701857667834212000,1.817212158203125,8.185546875,2.2633111476898193,6.107978820800781
1701857667843805400,1.826805419921875,8.204689979553223,2.1867408752441406,5.985944747924805
1701857667853397800,1.836397705078125,8.135297775268555,2.1412770748138428,5.808876037597656
1701857667862990800,1.845990966796875,8.07787036895752,2.1317057609558105,5.62462854385376
1701857667872585000,1.8555849609375,7.977371692657471,2.1077775955200195,5.490331649780273
1701857667882178000,1.865177978515625,7.848159313201904,2.1484556198120117,5.4041900634765625
1701857667891770400,1.874770263671875,7.845766544342041,2.158026933670044,5.466403484344482
1701857667901363700,1.88436376953125,7.867301940917969,2.174776792526245,5.535795211791992
1701857667910957600,1.89395751953125,7.893622875213623,2.198704957962036,5.581557750701904
1701857667920550700,1.903550537109375,7.924729347229004,2.1628124713897705,5.595914840698242
1701857667930143000,1.91314306640625,7.876873016357422,2.220240354537964,5.490331649780273
1701857667939736300,1.922736328125,7.879265785217285,2.229811668395996,5.408975601196289
1701857667949330200,1.932330078125,7.979764461517334,2.2393829822540283,5.298905849456787
1701857667958923300,1.94192333984375,8.152048110961914,2.2274186611175537,5.260620594024658
1701857667968515800,1.951515869140625,8.319544792175293,2.165205478668213,5.253442287445068
1701857667978109000,1.96110888671875,8.369794845581055,2.1149561405181885,5.284548759460449
1701857667987702800,1.970702880859375,8.367402076721191,2.112563371658325,5.420939922332764
1701857667997296000,1.980296142578125,8.314759254455566,2.165205478668213,5.571687698364258
1701857668006888400,1.989888427734375,8.152048110961914,2.213061809539795,5.634200096130371
1701857668016481500,1.9994814453125,7.929515361785889,2.268096685409546,5.638985633850098
1701857668026075600,2.00907568359375,7.816753387451172,2.2585253715515137,5.61745023727417
1701857668035668700,2.018668701171875,7.699504852294922,2.2704896926879883,5.55015230178833
1701857668045261000,2.028260986328125,7.610970497131348,2.2800607681274414,5.44008207321167
1701857668054854400,2.0378544921875,7.632505893707275,2.2417757511138916,5.416153907775879
1701857668064448300,2.0474482421875,7.792825222015381,2.1867408752441406,5.4951171875
1701857668074041300,2.057041259765625,7.965407371520996,2.136491537094116,5.5142598152160645
1701857668083633700,2.066633544921875,8.152048110961914,2.0910279750823975,5.519045352935791
1701857668093227000,2.07622705078125,8.293224334716797,2.062314033508301,5.516652584075928
1701857668102820900,2.08582080078125,8.350651741027832,2.0670995712280273,5.437689304351807
1701857668112414000,2.0954140625,8.338687896728516,2.1149561405181885,5.346762180328369
1701857668122006500,2.105006591796875,8.28126049041748,2.126920223236084,5.30129861831665
1701857668131599600,2.114599609375,8.185546875,2.086242198944092,5.248656272888184
1701857668141193700,2.12419384765625,8.125726699829102,2.0766708850860596,5.174479007720947
1701857668150786800,2.133786865234375,8.211868286132812,1.9929221868515015,5.236692428588867
1701857668160379100,2.143379150390625,8.376973152160645,1.9043877124786377,5.4520463943481445
1701857668169972200,2.15297216796875,8.468199729919434,1.9043877124786377,5.521438121795654
1701857668179566300,2.16256640625,8.46341323852539,1.8637096881866455,5.554937839508057
1701857668189159400,2.172159423828125,8.362615585327148,1.8996020555496216,5.485546112060547
1701857668198751700,2.181751708984375,8.245368003845215,1.9163517951965332,5.509474277496338
1701857668208345000,2.191344970703125,8.125726699829102,1.9211374521255493,5.574080467224121
1701857668217939000,2.20093896484375,8.056334495544434,1.9666011333465576,5.540580749511719
1701857668227532000,2.210531982421875,7.963014602661133,2.00727915763855,5.523830890655518
1701857668237124400,2.220124267578125,7.903193950653076,2.057528257369995,5.5381879806518555
1701857668246717700,2.2297177734375,7.852944850921631,2.1173489093780518,5.595914840698242
1701857668256311600,2.2393115234375,7.821837902069092,2.119741678237915,5.670092582702637
1701857668265905000,2.24890478515625,7.809575080871582,2.165205478668213,5.593522071838379
1701857668275497200,2.258497314453125,7.862515926361084,2.1532411575317383,5.468796253204346
1701857668285090300,2.26809033203125,7.9127655029296875,2.126920223236084,5.423332691192627
1701857668294684400,2.277684326171875,8.041977882385254,2.126920223236084,5.466403484344482
1701857668304277500,2.287277587890625,8.19272518157959,2.1628124713897705,5.521438121795654
1701857668313869800,2.296869873046875,8.226224899291992,2.1699910163879395,5.552545070648193
1701857668323463000,2.306462890625,8.187939643859863,2.150848388671875,5.50229549407959
1701857668333057000,2.31605712890625,8.228617668151855,2.1723837852478027,5.330012321472168
1701857668342650000,2.325650146484375,8.38684368133545,2.079063892364502,5.119443893432617
1701857668352242400,2.335242431640625,8.858229637145996,2.196312189102173,4.848755836486816
1701857668361835800,2.344835693359375,9.545567512512207,2.0766708850860596,4.674079895019531
1701857668371429600,2.3544296875,10.093823432922363,1.6767704486846924,4.853541851043701
1701857668381022700,2.364022705078125,9.993025779724121,1.5260226726531982,4.915754795074463
1701857668390615000,2.373614990234375,9.591031074523926,1.6815561056137085,5.167300701141357
1701857668400208400,2.38320849609375,9.150452613830566,1.9929221868515015,5.260620594024658
1701857668409802200,2.39280224609375,8.590232849121094,2.1556341648101807,5.353940486907959
1701857668419395300,2.402395263671875,7.850552082061768,2.196312189102173,4.891826629638672
1701857668428988000,2.41198779296875,7.682755470275879,2.189133644104004,4.839184761047363
1701857668438581000,2.4215810546875,8.044370651245117,2.1460628509521484,4.877470016479492
1701857668448175000,2.431175048828125,8.709874153137207,2.00727915763855,4.894219398498535
1701857668457768200,2.440768310546875,9.301200866699219,1.8445671796798706,4.767399787902832
1701857668467360500,2.450360595703125,9.701101303100586,1.6719847917556763,4.302893161773682
1701857668476953900,2.459953857421875,10.093823432922363,1.4135600328445435,3.465106248855591
1701857668486547700,2.469547607421875,10.555638313293457,1.1309077739715576,2.6365914344787598
1701857668496140800,2.479140869140625,11.254940032958984,1.0136594772338867,2.1577277183532715
1701857668505733000,2.488733154296875,11.482258796691895,1.0208379030227661,1.9184455871582031
1701857668515326500,2.498326416015625,10.98185920715332,1.0016953945159912,1.5879368782043457
1701857668524920300,2.50792041015625,9.966704368591309,0.2309073805809021,2.339881420135498
1701857668534513700,2.517513671875,9.066703796386719,-0.6382854580879211,3.0556344985961914
1701857668544106000,2.52710595703125,7.915158271789551,-1.0405787229537964,3.091526746749878
1701857668553699000,2.536698974609375,7.350152969360352,-1.4760724306106567,2.4236302375793457
1701857668563293000,2.54629296875,7.4602227210998535,-2.419442892074585,1.8418751955032349
1701857668572886300,2.55588623046875,6.706184387207031,-3.482454299926758,2.347059965133667
1701857668582478600,2.565478515625,5.712564945220947,-4.097708702087402,3.989433526992798
1701857668592071700,2.57507177734375,5.286343574523926,-4.468895435333252,5.880660533905029
1701857668601665800,2.584665771484375,4.991727352142334,-4.329812526702881,7.345965385437012
1701857668611259000,2.5942587890625,4.611268520355225,-3.9900317192077637,7.810173034667969
1701857668620851200,2.603851318359375,4.419543266296387,-3.844069480895996,7.798209190368652
1701857668630444500,2.613444580078125,4.419543266296387,-3.4250264167785645,7.645068168640137
1701857668640038400,2.623038330078125,4.5323052406311035,-3.4178481101989746,7.551748275756836
1701857668649631500,2.632631591796875,3.684647798538208,-4.3178486824035645,8.033004760742188
1701857668659223800,2.642223876953125,1.7910277843475342,-5.005186557769775,7.975576877593994
1701857668668817200,2.651817138671875,-0.09810572862625122,-5.026721954345703,6.958029270172119
1701857668678411000,2.661410888671875,-1.3597214221954346,-4.3178486824035645,5.30847692489624
1701857668688004000,2.671004150390625,-2.695514678955078,-3.5518460273742676,3.577569007873535
1701857668697596700,2.6805966796875,-4.565505504608154,-3.451347589492798,2.1098713874816895
1701857668707189800,2.690189697265625,-6.215057849884033,-3.9972102642059326,2.2393829822540283
1701857668716783900,2.699783935546875,-15.935002326965332,-3.978067636489868,17.874982833862305
1701857668726377000,2.709376953125,-21.223440170288086,0.7289136052131653,18.973886489868164
1701857668735969300,2.71896923828125,-16.409080505371094,4.774877548217773,6.682555675506592
1701857668745562600,2.728562744140625,-16.083356857299805,3.443570852279663,-0.9352945685386658
1701857668755156500,2.738156494140625,-15.740884780883789,-1.2296117544174194,-5.4744791984558105
1701857668764749600,2.74774951171875,1.8077775239944458,-11.735000610351562,12.847363471984863
1701857668774342000,2.757341796875,-5.644967555999756,-1.9070796966552734,4.092324733734131
1701857668783935200,2.766935302734375,1.3001999855041504,-5.510371208190918,8.157431602478027
1701857668793529000,2.776529052734375,6.689135551452637,-11.258529663085938,19.120147705078125
1701857668803122200,2.7861220703125,2.806182861328125,-8.39282512664795,28.69173812866211
1701857668812709600,2.795709716796875,-0.49292147159576416,-6.022435665130615,31.31068229675293
1701857668822302700,2.805302734375,-2.3437697887420654,-4.30588436126709,21.066410064697266
1701857668831896600,2.814896484375,-2.6117658615112305,-3.0753753185272217,9.926624298095703
1701857668841490000,2.824489990234375,-2.082653045654297,-5.570191860198975,9.82373332977295
1701857668851082200,2.834082275390625,-1.750050663948059,-6.45822811126709,8.176573753356934
1701857668860675300,2.84367529296875,-1.8792630434036255,-6.681059837341309,7.35314416885376
1701857668870269400,2.85326953125,-1.872084617614746,-6.305087566375732,7.345965385437012
1701857668879862500,2.862862548828125,-1.532004714012146,-6.096911907196045,7.645068168640137
1701857668889454800,2.872454833984375,-1.6683956384658813,-5.998507499694824,7.4464640617370605
1701857668899048200,2.882048095703125,-2.030010938644409,-6.1328043937683105,7.599604606628418
1701857668908642000,2.89164208984375,-1.994118571281433,-6.223731517791748,7.70249605178833
1701857668918235100,2.901235107421875,-0.20099709928035736,-8.189136505126953,8.068897247314453
1701857668927827500,2.910827392578125,-1.49611234664917,-8.16281509399414,6.929315090179443
1701857668937420800,2.9204208984375,-1.3094722032546997,-6.5491557121276855,6.340381622314453
1701857668947014700,2.9300146484375,-0.8832506537437439,-6.020042896270752,5.392225742340088
1701857668956608000,2.93960791015625,-1.7042878866195679,-5.754439353942871,5.9907307624816895
1701857668966200300,2.949200439453125,-2.528017044067383,-4.0905303955078125,6.637091636657715
1701857668975793400,2.95879345703125,-3.937987804412842,-3.413062334060669,8.612366676330566
1701857668985387500,2.968387451171875,-2.1281166076660156,-6.348158359527588,8.195716857910156
1701857668994980600,2.977980712890625,-1.6348960399627686,-8.241778373718262,8.899505615234375
1701857669004573000,2.987572998046875,-1.9606190919876099,-9.537193298339844,9.182157516479492
1701857669014166300,2.997166259765625,-0.701396107673645,-10.233803749084473,9.01705265045166
1701857669023760100,3.006760009765625,-2.0180468559265137,-9.45583724975586,6.783353328704834
1701857669033353200,3.016353271484375,-2.5663022994995117,-11.835498809814453,5.131408214569092
1701857669042945500,3.025945556640625,-2.3126630783081055,-14.88545036315918,4.4946184158325195
1701857669052539000,3.035538818359375,-2.0395822525024414,-12.888938903808594,4.274179458618164
1701857669062132700,3.0451328125,-1.1225329637527466,-8.117351531982422,5.830411434173584
1701857669071725800,3.054725830078125,-0.5216353535652161,-5.620441436767578,5.916553020477295
1701857669081318400,3.064318359375,-1.1009975671768188,-6.338587284088135,5.291727066040039
1701857669090911500,3.073911376953125,-1.350150227546692,-7.454240798950195,5.196014404296875
1701857669100505300,3.08350537109375,-0.8234301209449768,-7.703094482421875,5.5142598152160645
1701857669110098700,3.0930986328125,-0.7827520966529846,-8.653642654418945,5.930910110473633
1701857669119691000,3.10269091796875,-0.7540382146835327,-8.114958763122559,5.650949954986572
1701857669129284000,3.1122841796875,-0.9143573641777039,-8.059924125671387,4.891826629638672
1701857669138878200,3.121878173828125,-0.88803631067276,-8.122137069702148,4.374678134918213
1701857669148471300,3.13147119140625,-1.2041879892349243,-7.787142276763916,4.384249210357666
1701857669158063600,3.141063720703125,-1.2496516704559326,-7.583453178405762,4.453640937805176
1701857669167657000,3.150656982421875,-1.4123635292053223,-8.028817176818848,3.8551363945007324
1701857669177250800,3.160250732421875,-1.7691932916641235,-9.072686195373535,3.577569007873535
1701857669186844000,3.169843994140625,-1.8936200141906738,-9.553942680358887,3.3622148036956787
1701857669196436500,3.1794365234375,-1.40279221534729,-9.472586631774902,3.4459636211395264
1701857669206029600,3.189029541015625,-1.0818549394607544,-9.099007606506348,3.896113395690918
1701857669215623400,3.19862353515625,-0.8210372924804688,-9.201898574829102,4.2693939208984375
1701857669225216800,3.208216796875,-0.7468597888946533,-10.808380126953125,3.804887056350708
1701857669234809000,3.21780908203125,-0.5096712112426758,-11.885747909545898,4.377070903778076
1701857669244402200,3.227402099609375,-2.5567309856414795,-3.5039896965026855,3.1992039680480957
1701857669253996300,3.236996337890625,-0.7492526173591614,2.737389087677002,1.7485551834106445
1701857669263589400,3.24658935546875,0.47168517112731934,-1.9621145725250244,2.8426733016967773
1701857669273181700,3.256181640625,-1.8625133037567139,-3.704986810684204,3.098705291748047
1701857669282775000,3.265775146484375,-1.3262219429016113,-1.210469126701355,2.1481566429138184
1701857669292369000,3.275368896484375,0.4692923426628113,0.07746763527393341,2.191227436065674
1701857669301962000,3.2849619140625,0.4166502356529236,0.0894317477941513,2.306381940841675
1701857669311554300,3.29455419921875,1.0247262716293335,-0.494716078042984,1.8083757162094116
1701857669321147600,3.304147705078125,2.097309112548828,-2.0410776138305664,0.9487541913986206
1701857669330741500,3.313741455078125,0.9266205430030823,-3.865604877471924,-0.4085744619369507
1701857669340334800,3.3233349609375,-2.108973979949951,-8.088638305664062,0.3454637825489044
1701857669349927200,3.33292724609375,-6.514160633087158,-11.232208251953125,1.176371455192566
1701857669359520300,3.342520263671875,-10.780563354492188,-12.60150146484375,2.660519599914551
1701857669369114400,3.3521142578125,-8.8076810836792,-11.191530227661133,3.263810157775879
1701857669378707500,3.36170751953125,-4.132105827331543,-13.889437675476074,2.332702875137329
1701857669388299800,3.3712998046875,1.4988043308258057,-36.07569122314453,1.022931694984436
1701857669397892900,3.380892822265625,0.49322056770324707,-41.02195358276367,-0.1740778535604477
1701857669407487000,3.390487060546875,8.398807525634766,-20.751155853271484,1.7820546627044678
1701857669417080000,3.400080078125,4.096512317657471,-16.149459838867188,4.274179458618164
1701857669426672400,3.40967236328125,0.0649053156375885,-11.68714427947998,1.7653049230575562
1701857669436265700,3.419265625,-1.4315061569213867,-10.169197082519531,0.9152546525001526
1701857669445859600,3.428859619140625,-2.451446771621704,-9.857831001281738,1.0827522277832031
1701857669455453000,3.438452880859375,-3.217449188232422,-9.568299293518066,1.0974082946777344
1701857669465045000,3.448044921875,-2.662015199661255,-9.283254623413086,1.0926226377487183
1701857669474638300,3.457638427734375,-3.1743783950805664,-9.70229721069336,1.1021939516067505
1701857669484232200,3.467232177734375,-1.4434702396392822,-9.436694145202637,1.3247264623641968
1701857669493825500,3.476825439453125,-1.3381860256195068,-9.472586631774902,1.1476575136184692
1701857669503417900,3.48641796875,-0.43549370765686035,-9.407681465148926,1.0492527484893799
1701857669513011000,3.496010986328125,-1.4937195777893066,-11.67996597290039,2.306381940841675
1701857669522605000,3.50560498046875,-0.6966105103492737,-11.38534927368164,2.552842617034912
1701857669532198100,3.5151982421875,-0.8282157182693481,-10.837093353271484,1.7940187454223633
1701857669541790500,3.52479052734375,-0.8832506537437439,-10.028020858764648,1.5185450315475464
1701857669551383800,3.5343837890625,-1.2400803565979004,-9.244969367980957,1.3055838346481323
1701857669560977700,3.543977783203125,-1.536790370941162,-8.694320678710938,0.9702895879745483
1701857669570570800,3.55357080078125,-2.944667339324951,-8.388039588928223,1.1715857982635498
1701857669580163000,3.5631630859375,-1.5128620862960815,-8.531609535217285,0.7525427341461182
1701857669589756400,3.57275634765625,-1.036391258239746,-9.060722351074219,0.833898663520813
1701857669599350300,3.582350341796875,-1.3142578601837158,-9.42473030090332,1.2242279052734375
1701857669608943600,3.591943603515625,-1.472184181213379,-9.582656860351562,1.3845469951629639
1701857669618536000,3.601535888671875,-1.536790370941162,-9.644869804382324,1.4611172676086426
1701857669628129000,3.61112890625,-1.555932879447937,-9.731011390686035,1.6576279401779175
1701857669637723100,3.62072314453125,-1.5296118259429932,-9.752547264099121,1.8203397989273071
1701857669647316200,3.630316162109375,-1.5463616847991943,-9.809974670410156,1.9112670421600342
1701857669656908500,3.639908447265625,-1.6085749864578247,-9.824331283569336,1.9950158596038818
1701857669666502000,3.649501953125,-1.6707884073257446,-9.79801082611084,2.1242282390594482
1701857669676095700,3.659095703125,-1.6827524900436401,-9.838688850402832,2.2345972061157227
1701857669685688800,3.668688720703125,-1.6755740642547607,-9.896116256713867,2.2968106269836426
1701857669695281200,3.67828125,-1.6133606433868408,-9.89850902557373,2.275275230407715
1701857669704874500,3.68787451171875,-1.4841482639312744,-9.88415241241455,2.253739833831787
1701857669714468400,3.69746826171875,-1.46500563621521,-9.845867156982422,2.3135604858398438
1701857669724061400,3.7070615234375,-1.4530415534973145,-9.807581901550293,2.44277286529541
1701857669733654000,3.716654052734375,-1.4793626070022583,-9.759725570678711,2.5624139308929443
1701857669743247000,3.7262470703125,-1.5248262882232666,-9.68794059753418,2.6365914344787598
1701857669752841200,3.73584130859375,-1.5655041933059692,-9.630513191223145,2.670090913772583
1701857669762434300,3.745434326171875,-1.5990036725997925,-9.599406242370605,2.7131617069244385
1701857669772026600,3.755026611328125,-1.591825246810913,-9.551549911499023,2.701197624206543
1701857669781619700,3.76461962890625,-1.5535401105880737,-9.525228500366211,2.662912607192993
1701857669791213800,3.7742138671875,-1.5439687967300415,-9.498908042907715,2.6246273517608643
1701857669800807000,3.783806884765625,-1.5415760278701782,-9.479764938354492,2.6054847240448
1701857669810399200,3.793399169921875,-1.5607185363769531,-9.453444480895996,2.5695924758911133
1701857669819992600,3.80299267578125,-1.563111424446106,-9.448657989501953,2.5313072204589844
1701857669829586400,3.81258642578125,-1.5487544536590576,-9.484550476074219,2.497807741165161
1701857669839179500,3.822179443359375,-1.5248262882232666,-9.518050193786621,2.449951171875
1701857669848772000,3.831772216796875,-1.532004714012146,-9.515657424926758,2.3733808994293213
1701857669858365200,3.841365234375,-1.5272190570831299,-9.57069206237793,2.3279173374176025
1701857669867959000,3.850958984375,-1.4913266897201538,-9.616155624389648,2.292025089263916
1701857669877552400,3.860552490234375,-1.4817553758621216,-9.652048110961914,2.2657039165496826
1701857669887144700,3.870144775390625,-1.4267204999923706,-9.68076229095459,2.2393829822540283
1701857669896737800,3.87973779296875,-1.40279221534729,-9.68794059753418,2.1984057426452637
1701857669906332000,3.889331787109375,-1.3716856241226196,-9.685547828674316,2.152942180633545
1701857669915925000,3.898925048828125,-1.3310075998306274,-9.68076229095459,2.0931215286254883
1701857669925517300,3.908517333984375,-1.256830096244812,-9.692726135253906,2.0691933631896973
1701857669935110400,3.9181103515625,-1.1922239065170288,-9.711869239807129,2.0476579666137695
1701857669944704500,3.92770458984375,-1.1440683603286743,-9.697511672973633,2.0069799423217773
1701857669954297600,3.937297607421875,-1.1105687618255615,-9.690333366394043,1.9782661199569702
1701857669963890000,3.946889892578125,-1.06271231174469,-9.664012908935547,1.906481385231018
1701857669973483300,3.956483154296875,-1.012463092803955,-9.632905960083008,1.8634105920791626
1701857669983077000,3.9660771484375,-0.9861420392990112,-9.628120422363281,1.8011972904205322
1701857669992670500,3.97567041015625,-0.9789635539054871,-9.587442398071289,1.7126628160476685
1701857670002262800,3.9852626953125,-0.9717850685119629,-9.565906524658203,1.7078771591186523
1701857670011856000,3.99485595703125,-0.9382855892181396,-9.5802640914917,1.700698733329773
1701857670021449700,4.00444970703125,-0.9981061220169067,-9.618548393249512,1.731805443763733
1701857670031043000,4.01404296875,-1.098604679107666,-9.714262008666992,1.76051926612854
1701857670040635400,4.023635498046875,-1.1416754722595215,-9.821938514709473,1.76051926612854
1701857670050228500,4.033228515625,-1.0722836256027222,-9.888937950134277,1.810768485069275
1701857670059822600,4.042822509765625,-0.9813563823699951,-9.948758125305176,1.815554141998291
1701857670069415700,4.052415771484375,-0.8952147960662842,-10.013663291931152,1.8251254558563232
1701857670079008000,4.062008056640625,-0.9095717072486877,-10.028020858764648,1.85383939743042
1701857670088601300,4.071601318359375,-0.9095717072486877,-10.049555778503418,1.8849459886550903
1701857670098195200,4.0811953125,-0.9000003933906555,-10.07587718963623,1.9016958475112915
1701857670107788300,4.090788330078125,-0.8330013751983643,-10.07587718963623,1.8897316455841064
1701857670117380600,4.100380615234375,-0.7516453862190247,-10.071091651916504,1.8945173025131226
1701857670126974000,4.109973876953125,-0.8138588070869446,-10.085448265075684,1.8586249351501465
1701857670136567800,4.11956787109375,-0.8066803216934204,-10.09023380279541,1.8083757162094116
1701857670146161200,4.1291611328125,-0.7923234105110168,-10.085448265075684,1.784447431564331
1701857670155753500,4.13875341796875,-0.8330013751983643,-10.063913345336914,1.8011972904205322
1701857670165346600,4.1483466796875,-0.8282157182693481,-10.011270523071289,1.7700905799865723
1701857670174940700,4.157940673828125,-0.8401798605918884,-9.977771759033203,1.7533408403396606
1701857670184533800,4.16753369140625,-0.91914302110672,-9.946365356445312,1.731805443763733
1701857670194126000,4.1771259765625,-1.0507482290267944,-9.955936431884766,1.7102699279785156
1701857670203719200,4.18671923828125,-1.1850453615188599,-9.900901794433594,1.6528422832489014
1701857670213313300,4.196313232421875,-1.2759727239608765,-9.79801082611084,1.6142579317092896
1701857670222906400,4.20590625,-1.3764712810516357,-9.678369522094727,1.5807584524154663
1701857670232498700,4.215498779296875,-1.4051851034164429,-9.635298728942871,1.578365683555603
1701857670242092000,4.225092041015625,-1.3453645706176758,-9.599406242370605,1.5855441093444824
1701857670251686000,4.234685791015625,-1.319043517112732,-9.606584548950195,1.6166508197784424
1701857670261279000,4.244279052734375,-1.2903295755386353,-9.582656860351562,1.6046867370605469
1701857670270871300,4.253871337890625,-1.2544373273849487,-9.546764373779297,1.5305092334747314
1701857670280464600,4.263464599609375,-1.201795220375061,-9.597013473510742,1.3965110778808594
1701857670290058500,4.27305859375,-1.220937728881836,-9.673583984375,1.2768700122833252
1701857670299651800,4.28265185546875,-1.3908281326293945,-9.757332801818848,1.169192910194397
1701857670309244200,4.292244140625,-1.5655041933059692,-9.857831001281738,1.0683952569961548
1701857670318837200,4.301837158203125,-1.6277176141738892,-9.903294563293457,0.9846464991569519
1701857670328431400,4.311431396484375,-1.591825246810913,-9.860223770141602,0.9343972206115723
1701857670338024400,4.3210244140625,-1.6253247261047363,-9.809974670410156,0.9272187948226929
1701857670347616800,4.33061669921875,-1.677966833114624,-9.707083702087402,0.9607182741165161
1701857670357210000,4.340210205078125,-1.776371717453003,-9.707083702087402,0.9463613629341125
1701857670366804000,4.349803955078125,-1.8409779071807861,-9.721440315246582,0.8937192559242249
1701857670376397000,4.35939697265625,-1.6636099815368652,-9.719047546386719,0.9080761671066284
1701857670385989400,4.3689892578125,-1.4817553758621216,-9.697511672973633,0.9535398483276367
1701857670395582700,4.378582763671875,-2.3150558471679688,-9.814760208129883,0.6687939167022705
1701857670405176600,4.388176513671875,-2.733799934387207,-10.035199165344238,0.36221352219581604
1701857670414770000,4.39777001953125,-2.2190439701080322,-10.10698413848877,0.2353939265012741
1701857670424362000,4.407362060546875,-1.7356936931610107,-10.06152057647705,0.30239295959472656
1701857670433955300,4.416955322265625,-1.5248262882232666,-10.008877754211426,0.589830756187439
1701857670443549200,4.426549072265625,-1.3094722032546997,-9.980164527893066,0.9415757060050964
1701857670453142500,4.436142578125,-1.0914262533187866,-9.951150894165039,1.2960125207901
1701857670462734800,4.44573486328125,-0.9287142753601074,-9.888937950134277,1.6791633367538452
1701857670472328000,4.455327880859375,-0.701396107673645,-9.793225288391113,1.9519450664520264
1701857670481922000,4.464922119140625,-0.5431707501411438,-9.675976753234863,2.0093727111816406
1701857670491515100,4.47451513671875,-0.5647061467170715,-9.57787036895752,1.9112670421600342
1701857670501107500,4.484107421875,-0.6056832075119019,-9.44626522064209,1.85383939743042
1701857670510700800,4.49370068359375,-0.610468864440918,-9.359825134277344,1.8394824266433716
1701857670520294700,4.503294677734375,-0.6774678826332092,-9.369396209716797,1.7653049230575562
1701857670529887700,4.5128876953125,-0.8090731501579285,-9.422337532043457,1.5568302869796753
1701857670539480000,4.52247998046875,-0.9813563823699951,-9.534799575805664,1.456331729888916
1701857670549073400,4.532073486328125,-1.158425211906433,-9.738189697265625,1.3438689708709717
1701857670558667300,4.541667236328125,-1.3142578601837158,-9.994521141052246,1.2864413261413574
1701857670568260400,4.55126025390625,-1.3525429964065552,-10.202696800231934,1.291226863861084
1701857670577853000,4.56085302734375,-1.2424731254577637,-10.31755256652832,1.413260817527771
1701857670587446000,4.570446044921875,-1.1081759929656982,-10.343873023986816,1.5329020023345947
1701857670597039900,4.580039794921875,-0.9885348677635193,-10.288838386535645,1.6166508197784424
1701857670606633200,4.58963330078125,-0.8712865710258484,-10.209875106811523,1.5999010801315308
1701857670616225500,4.5992255859375,-0.8258228898048401,-10.09023380279541,1.6094722747802734
1701857670625818600,4.608818603515625,-0.7923234105110168,-10.008877754211426,1.633400559425354
1701857670635412700,4.618412841796875,-0.768395185470581,-9.932008743286133,1.628614902496338
1701857670645005800,4.628005859375,-0.7181459069252014,-9.814760208129883,1.662413477897644
1701857670654598100,4.63759814453125,-0.6822535395622253,-9.69511890411377,1.6166508197784424
1701857670664191200,4.647191162109375,-0.646361231803894,-9.561120986938477,1.6166508197784424
1701857670673785300,4.656785400390625,-0.6487540602684021,-9.467801094055176,1.5855441093444824
1701857670683378400,4.66637841796875,-0.6798607110977173,-9.414859771728516,1.475474238395691
1701857670692970800,4.675970703125,-0.7444669604301453,-9.451051712036133,1.38933265209198
1701857670702564000,4.685564208984375,-0.8521439433097839,-9.565906524658203,1.3462618589401245
1701857670712158000,4.695157958984375,-0.9382855892181396,-9.692726135253906,1.38933265209198
1701857670721751000,4.7047509765625,-1.0028917789459229,-9.79801082611084,1.480259895324707
1701857670731343600,4.714343505859375,-1.0962119102478027,-9.857831001281738,1.5496517419815063
1701857670740936700,4.723936767578125,-1.1922239065170288,-9.845867156982422,1.5903297662734985
1701857670750530600,4.733530517578125,-1.2592228651046753,-9.824331283569336,1.6142579317092896
1701857670760124000,4.7431240234375,-1.2376874685287476,-9.802796363830566,1.602293848991394
1701857670769716200,4.75271630859375,-1.1826525926589966,-9.802796363830566,1.566401481628418
1701857670779309300,4.762309326171875,-1.158425211906433,-9.817152976989746,1.6166508197784424
1701857670788903200,4.771903076171875,-1.2305090427398682,-9.833903312683105,1.7270197868347168
1701857670798496500,4.78149658203125,-1.316650629043579,-9.833903312683105,1.7581263780593872
1701857670808088800,4.7910888671875,-1.3597214221954346,-9.81236743927002,1.7964116334915161
1701857670817682000,4.800681884765625,-1.3621143102645874,-9.800403594970703,1.8370895385742188
1701857670827276000,4.810276123046875,-1.40279221534729,-9.793225288391113,1.906481385231018
1701857670836869000,4.819869140625,-1.3884353637695312,-9.793225288391113,1.944766640663147
1701857670846461400,4.82946142578125,-1.311864972114563,-9.8267240524292,1.906481385231018
1701857670856054800,4.8390546875,-1.189831018447876,-9.848259925842285,1.877767562866211
1701857670865648600,4.848648681640625,-1.0914262533187866,-9.886545181274414,1.9351953268051147
1701857670875241700,4.85824169921875,-1.074676513671875,-9.910472869873047,1.9854445457458496
1701857670884834000,4.867833984375,-1.0890333652496338,-9.860223770141602,1.9878374338150024
1701857670894427400,4.877427490234375,-1.0483554601669312,-9.841081619262695,1.9878374338150024
1701857670904021200,4.887021240234375,-0.9861420392990112,-9.838688850402832,1.968694806098938
1701857670913614600,4.896614501953125,-0.9861420392990112,-9.814760208129883,1.932802438735962
1701857670923207000,4.90620703125,-0.9789635539054871,-9.80518913269043,1.8993029594421387
1701857670932800000,4.915800048828125,-1.0220344066619873,-9.817152976989746,1.846660852432251
1701857670942393900,4.925393798828125,-1.0962119102478027,-9.824331283569336,1.7389838695526123
1701857670951987200,4.9349873046875,-1.1682956218719482,-9.865009307861328,1.6671991348266602
1701857670961579500,4.94457958984375,-1.2496516704559326,-9.920044898986816,1.6190435886383057
1701857670971172600,4.954172607421875,-1.3070793151855469,-9.955936431884766,1.5496517419815063
1701857670980766700,4.9637666015625,-1.3692927360534668,-9.98973560333252,1.4826527833938599
1701857670990359800,4.97335986328125,-1.4171491861343384,-10.0040922164917,1.4156537055969238
1701857670999952100,4.9829521484375,-1.4937195777893066,-10.008877754211426,1.4012967348098755
1701857671009545500,4.99254541015625,-1.5439687967300415,-10.011270523071289,1.4036896228790283
1701857671019139300,5.002139404296875,-1.5487544536590576,-9.975079536437988,1.4419747591018677
1701857671028732400,5.011732421875,-1.5224334001541138,-9.910472869873047,1.449153184890747
1701857671038324700,5.02132470703125,-1.4291132688522339,-9.8267240524292,1.480259895324707
1701857671047918000,5.03091796875,-1.3334003686904907,-9.723833084106445,1.5257235765457153
1701857671057512000,5.040511962890625,-1.252044439315796,-9.644869804382324,1.5999010801315308
1701857671067105300,5.050105224609375,-1.201795220375061,-9.625727653503418,1.6190435886383057
1701857671076697600,5.059697509765625,-1.1536396741867065,-9.642477035522461,1.6238292455673218
1701857671086290700,5.069290771484375,-1.134497046470642,-9.661619186401367,1.6118651628494263
1701857671095884500,5.078884521484375,-1.1922239065170288,-9.714262008666992,1.5927225351333618
1701857671105478000,5.088477783203125,-1.3022937774658203,-9.802796363830566,1.5448660850524902
1701857671115070200,5.0980703125,-1.311864972114563,-9.900901794433594,1.5640087127685547
1701857671124663300,5.107663330078125,-1.3525429964065552,-9.948758125305176,1.5592230558395386
1701857671134257400,5.11725732421875,-1.4913266897201538,-10.006484985351562,1.5376876592636108
1701857671143850500,5.1268505859375,-1.6875381469726562,-10.056734085083008,1.5017952919006348
1701857671153442800,5.13644287109375,-1.8290138244628906,-10.140482902526855,1.4922239780426025
1701857671163036200,5.1460361328125,-1.8768702745437622,-10.245767593383789,1.5017952919006348
1701857671172630000,5.155630126953125,-1.9103697538375854,-10.329516410827637,1.5065809488296509
1701857671182223000,5.16522314453125,-1.9319051504135132,-10.305587768554688,1.5089738368988037
1701857671191815400,5.1748154296875,-1.7620147466659546,-10.236196517944336,1.5376876592636108
1701857671201408800,5.18440869140625,-1.4626128673553467,-10.08305549621582,1.5089738368988037
1701857671211002600,5.194002685546875,-1.445863127708435,-9.738189697265625,1.3797613382339478
1701857671220595700,5.203595703125,-1.6588243246078491,-9.367003440856934,1.2649059295654297
1701857671230188000,5.21318798828125,-1.9989042282104492,-9.027222633361816,1.073180913925171
1701857671239781400,5.222781494140625,-2.1568305492401123,-9.010472297668457,1.114158034324646
1701857671249375200,5.232375244140625,-2.140080690383911,-9.1085786819458,1.1644073724746704
1701857671258968600,5.241968505859375,-1.9438693523406982,-9.221040725708008,1.1883355379104614
1701857671268561000,5.251560791015625,-1.7955143451690674,-9.340682029724121,1.1213364601135254
1701857671278154000,5.261154052734375,-1.6707884073257446,-9.412467002868652,1.118943691253662
1701857671287748000,5.270748046875,-1.6516457796096802,-9.491728782653809,1.212263822555542
1701857671297341200,5.280341064453125,-1.618146300315857,-9.620942115783691,1.2864413261413574
1701857671306933500,5.28993359375,-1.5200406312942505,-9.809974670410156,1.511366605758667
1701857671316526800,5.29952685546875,-1.6420745849609375,-9.683155059814453,1.353440284729004
1701857671326120700,5.30912060546875,-1.6109678745269775,-9.599406242370605,1.5185450315475464
1701857671335713800,5.3187138671875,-1.6061822175979614,-9.484550476074219,1.7796618938446045
1701857671345306000,5.32830615234375,-1.750050663948059,-9.259325981140137,1.8753747940063477
1701857671354899500,5.3378994140625,-1.9055840969085693,-9.060722351074219,1.9280169010162354
1701857671364493300,5.347493408203125,-2.0467605590820312,-8.941081047058105,1.882553219795227
1701857671374086400,5.35708642578125,-2.1592233180999756,-8.941081047058105,1.82273268699646
1701857671383678700,5.3666787109375,-2.1352951526641846,-9.070293426513672,1.7078771591186523
1701857671393272000,5.37627197265625,-1.9606190919876099,-9.37178897857666,1.5400804281234741
1701857671402866000,5.385865966796875,-1.6612170934677124,-9.79801082611084,1.2290135622024536
1701857671412459300,5.395459228515625,-1.189831018447876,-10.248160362243652,0.9750752449035645
1701857671422051600,5.405051513671875,-0.8832506537437439,-10.77248764038086,0.8769695162773132
1701857671431644700,5.414644775390625,-0.7875377535820007,-11.244173049926758,0.9822536706924438
1701857671441238500,5.424238525390625,-0.6894320249557495,-11.50977611541748,1.181157112121582
1701857671450832000,5.433831787109375,-0.6559324860572815,-11.610274314880371,1.2936197519302368
1701857671460424200,5.443424072265625,-0.8162516355514526,-11.533703804016113,1.4395818710327148
1701857671470017300,5.453017333984375,-1.0244271755218506,-11.210673332214355,1.4635101556777954
1701857671479611400,5.462611328125,-1.1730812788009644,-10.664810180664062,1.2792627811431885
1701857671489204500,5.47220458984375,-1.3357932567596436,-10.123733520507812,1.0444670915603638
1701857671498796800,5.481796875,-1.5176477432250977,-9.69511890411377,0.9607182741165161
1701857671508390100,5.49139013671875,-1.6205391883850098,-9.38614559173584,0.9320043921470642
1701857671517984000,5.50098388671875,-1.5750755071640015,-9.158827781677246,0.778863787651062
1701857671527577000,5.5105771484375,-1.3764712810516357,-9.082257270812988,0.6352944374084473
1701857671537169400,5.52016943359375,-1.1081759929656982,-9.04397201538086,0.6759724020957947
1701857671546762800,5.5297626953125,-0.921535849571228,-9.091828346252441,0.7262216806411743
1701857671556356600,5.539356689453125,-0.734895646572113,-9.22582721710205,0.8171489238739014
1701857671565950000,5.548949951171875,-0.6176473498344421,-9.412467002868652,0.9918249845504761
1701857671575542300,5.558542236328125,-0.5144568681716919,-9.565906524658203,1.2864413261413574
1701857671585135400,5.56813525390625,-0.5024927258491516,-9.65683364868164,1.6600207090377808
1701857671594729200,5.577729248046875,-0.6678966283798218,-9.683155059814453,2.0165512561798096
1701857671604322600,5.587322509765625,-0.8258228898048401,-9.707083702087402,2.1744775772094727
1701857671613915000,5.596914794921875,-0.7875377535820007,-9.800403594970703,2.1433708667755127
1701857671623508000,5.606508056640625,-0.6487540602684021,-9.888937950134277,2.0452651977539062
1701857671633102000,5.61610205078125,-0.5575276613235474,-9.975079536437988,1.8945173025131226
1701857671642695200,5.625695068359375,-0.5575276613235474,-10.001699447631836,1.7030915021896362
1701857671652287500,5.63528759765625,-0.5910272002220154,-10.001699447631836,1.5592230558395386
1701857671661880800,5.644880859375,-0.5383850932121277,-9.92243766784668,1.4635101556777954
1701857671671474700,5.654474609375,-0.5575276613235474,-9.896116256713867,1.4371891021728516
1701857671681067800,5.66406787109375,-0.5383850932121277,-9.872187614440918,1.4898312091827393
1701857671690660000,5.67366015625,-0.49292147159576416,-9.824331283569336,1.4706885814666748
1701857671700253400,5.68325341796875,-0.48095735907554626,-9.79083251953125,1.4371891021728516
1701857671709847300,5.692847412109375,-0.4259224236011505,-9.79083251953125,1.4300106763839722
1701857671719440600,5.702440673828125,-0.4570291340351105,-9.800403594970703,1.4587244987487793
1701857671729033000,5.712032958984375,-0.5455635786056519,-9.809974670410156,1.5137593746185303
1701857671738626000,5.7216259765625,-0.6176473498344421,-9.795618057250977,1.5281163454055786
1701857671748220000,5.731219970703125,-0.6056832075119019,-9.769296646118164,1.542473316192627
1701857671757813200,5.740813232421875,-0.6056832075119019,-9.771689414978027,1.542473316192627
1701857671767405600,5.750405517578125,-0.5862415432929993,-9.757332801818848,1.5544373989105225
1701857671776998700,5.75999853515625,-0.550349235534668,-9.699904441833496,1.5209379196166992
1701857671786592800,5.7695927734375,-0.5431707501411438,-9.692726135253906,1.5903297662734985
1701857671796185900,5.779185791015625,-0.5407779216766357,-9.735796928405762,1.6214364767074585
1701857671805778200,5.788778076171875,-0.5718846321105957,-9.778867721557617,1.6600207090377808
1701857671815371500,5.79837158203125,-0.48574298620224,-9.833903312683105,1.6791633367538452
1701857671824965400,5.80796533203125,-0.3852444589138031,-9.977771759033203,1.7126628160476685
1701857671834558500,5.817558349609375,-0.3206382393836975,-10.006484985351562,1.7653049230575562
1701857671844150800,5.82715087890625,-0.30149564146995544,-10.008877754211426,1.7676976919174194
1701857671853744000,5.836744140625,-0.13878370821475983,-9.984950065612793,1.7270197868347168
1701857671863338000,5.846337890625,-0.05742774158716202,-9.853045463562012,1.628614902496338
1701857671872931000,5.85593115234375,-0.04546362906694412,-9.78126049041748,1.5544373989105225
1701857671882523600,5.865523681640625,-0.014057832770049572,-9.793225288391113,1.5951154232025146
1701857671892116700,5.87511669921875,-0.023629123345017433,-9.759725570678711,1.6671991348266602
1701857671901710800,5.8847109375,0.10797612369060516,-9.659226417541504,1.7389838695526123
1701857671911304000,5.894303955078125,0.06251249462366104,-9.561120986938477,1.8179470300674438
1701857671920896300,5.903896240234375,0.00029910283046774566,-9.585049629211426,1.8729819059371948
1701857671930489300,5.9134892578125,-0.07178468257188797,-9.623334884643555,1.9710876941680908
1701857671940083500,5.92308349609375,-0.12442677468061447,-9.66640567779541,2.035693883895874
1701857671949676500,5.932676513671875,-0.08853443711996078,-9.697511672973633,2.042872428894043
1701857671959268900,5.942268798828125,-0.03559323772788048,-9.786046028137207,2.1194427013397217
1701857671968862200,5.9518623046875,-0.07657032459974289,-9.93679428100586,2.2345972061157227
1701857671978456000,5.9614560546875,-0.23210379481315613,-10.08305549621582,2.299203395843506
1701857671988049200,5.971049072265625,-0.39960137009620667,-10.166804313659668,2.268096685409546
1701857671997641500,5.980641357421875,-0.5742774605751038,-10.291231155395508,2.332702875137329
1701857672007234800,5.99023486328125,-0.643968403339386,-10.33908748626709,2.2393829822540283
1701857672016828700,5.99982861328125,-0.5742774605751038,-10.279267311096191,2.1026928424835205
1701857672026422000,6.009422119140625,-0.45224347710609436,-10.173982620239258,2.028515338897705
1701857672036014300,6.019014404296875,-0.2991028428077698,-10.047163009643555,1.999801516532898
1701857672045607400,6.028607421875,-0.20338992774486542,-9.89133071899414,2.004587173461914
1701857672055201500,6.038201416015625,-0.09571290761232376,-9.719047546386719,2.026122570037842
1701857672064794600,6.047794677734375,-0.02841476909816265,-9.585049629211426,1.999801516532898
1701857672074387000,6.057386962890625,0.033798620104789734,-9.534799575805664,1.973480463027954
1701857672083980000,6.06697998046875,0.012263216078281403,-9.561120986938477,1.9878374338150024
1701857672093574100,6.07657421875,0.012263216078281403,-9.606584548950195,1.9543378353118896
1701857672103167200,6.086167236328125,-0.011665010824799538,-9.673583984375,1.7916259765625
1701857672112759600,6.095759521484375,-0.03080759197473526,-9.709476470947266,1.571187138557434
1701857672122353000,6.105352783203125,-0.11006984114646912,-9.659226417541504,1.4012967348098755
1701857672131946800,6.11494677734375,-0.30149564146995544,-9.647262573242188,1.267298698425293
1701857672141539800,6.124539794921875,-0.4618147611618042,-9.735796928405762,1.231406331062317
1701857672151132400,6.13413232421875,-0.6224330067634583,-9.903294563293457,1.3055838346481323
1701857672160725500,6.1437255859375,-0.6678966283798218,-10.10698413848877,1.4515460729599
1701857672170319400,6.1533193359375,-0.5862415432929993,-10.264909744262695,1.633400559425354
1701857672179912700,6.16291259765625,-0.44027936458587646,-10.305587768554688,1.784447431564331
1701857672189505000,6.172505126953125,-0.23210379481315613,-10.276874542236328,1.8801604509353638
1701857672199098000,6.18209814453125,-0.07417750358581543,-10.190732955932617,1.937588095664978
1701857672208692200,6.191692138671875,0.007477570790797472,-10.12134075164795,1.9016958475112915
1701857672218285300,6.201285400390625,-0.009272187948226929,-10.078269958496094,1.8442680835723877
1701857672227877600,6.210877685546875,-0.05742774158716202,-9.970293998718262,1.7222341299057007
1701857672237470700,6.220470703125,-0.10289137065410614,-9.869794845581055,1.5592230558395386
1701857672247064800,6.23006494140625,-0.18903298676013947,-9.786046028137207,1.4084752798080444
1701857672256658000,6.239657958984375,-0.22971096634864807,-9.745368003845215,1.2792627811431885
1701857672266250200,6.249250244140625,-0.17706887423992157,-9.716654777526855,1.1715857982635498
1701857672275843600,6.258843505859375,-0.1052841991186142,-9.704689979553223,1.1213364601135254
1701857672285437400,6.2684375,-0.07896314561367035,-9.738189697265625,1.085145115852356
1701857672295030500,6.278030517578125,-0.09810572862625122,-9.81236743927002,1.0803594589233398
1701857672304622800,6.287622802734375,-0.19381862878799438,-9.900901794433594,1.085145115852356
1701857672314216200,6.29721630859375,-0.31824541091918945,-9.977771759033203,1.0492527484893799
1701857672323810000,6.30681005859375,-0.4307080805301666,-10.030413627624512,1.0372886657714844
1701857672333403400,6.3164033203125,-0.4737788736820221,-10.09023380279541,1.0325030088424683
1701857672342995700,6.32599560546875,-0.4785645306110382,-10.111769676208496,1.0660024881362915
1701857672352588800,6.3355888671875,-0.45224347710609436,-10.087841033935547,1.0974082946777344
1701857672362183000,6.345182861328125,-0.42831525206565857,-10.06152057647705,1.0974082946777344
1701857672371776000,6.35477587890625,-0.3756731450557709,-10.059126853942871,1.1237293481826782
1701857672381368300,6.364368408203125,-0.3397808074951172,-10.066306114196777,1.1787642240524292
1701857672390961400,6.37396142578125,-0.33499518036842346,-10.049555778503418,1.2218350172042847
1701857672400555500,6.383555419921875,-0.3445664644241333,-9.992128372192383,1.212263822555542
1701857672410148600,6.393148681640625,-0.3613162338733673,-9.910472869873047,1.1787642240524292
1701857672419741000,6.402740966796875,-0.32303106784820557,-9.829116821289062,1.1213364601135254
1701857672429334300,6.412334228515625,-0.27756741642951965,-9.778867721557617,1.0803594589233398
1701857672438928100,6.42192822265625,-0.31345975399017334,-9.754940032958984,1.058824062347412
1701857672448521500,6.431521484375,-0.3684946894645691,-9.754940032958984,1.0492527484893799
1701857672458113500,6.441113525390625,-0.38285163044929504,-9.77408218383789,1.0755738019943237
1701857672467707000,6.450706787109375,-0.3900300860404968,-9.793225288391113,1.1476575136184692
1701857672477300700,6.46030078125,-0.4091726839542389,-9.857831001281738,1.2170493602752686
1701857672486894000,6.46989404296875,-0.4139583110809326,-9.893723487854004,1.2505489587783813
1701857672496486400,6.479486328125,-0.3756731450557709,-9.927223205566406,1.2649059295654297
1701857672506079500,6.48907958984375,-0.30149564146995544,-9.970293998718262,1.2433704137802124
1701857672515673600,6.498673583984375,-0.2153540402650833,-9.984950065612793,1.2529417276382446
1701857672525266700,6.5082666015625,-0.16031911969184875,-9.992128372192383,1.2385848760604858
1701857672534859000,6.51785888671875,-0.13878370821475983,-9.980164527893066,1.2409776449203491
1701857672544452400,6.527452392578125,-0.12921242415905,-9.972686767578125,1.2290135622024536
1701857672554046200,6.537046142578125,-0.14356936514377594,-9.948758125305176,1.2170493602752686
1701857672563639300,6.546639404296875,-0.1339980661869049,-9.927223205566406,1.169192910194397
1701857672573231600,6.556231689453125,-0.13639089465141296,-9.888937950134277,1.1021939516067505
1701857672582825000,6.565824951171875,-0.16031911969184875,-9.867402076721191,1.1021939516067505
1701857672592418800,6.575418701171875,-0.20099709928035736,-9.845867156982422,1.0974082946777344
1701857672602012200,6.58501220703125,-0.24167509377002716,-9.836296081542969,1.1045867204666138
1701857672611604200,6.594604248046875,-0.2919243574142456,-9.838688850402832,1.0707881450653076
1701857672621197600,6.604197509765625,-0.32542386651039124,-9.881759643554688,1.0133603811264038
1701857672630791400,6.61379150390625,-0.32542386651039124,-9.932008743286133,0.9822536706924438
1701857672640384800,6.623384765625,-0.3565305769443512,-9.980164527893066,0.9511470198631287
1701857672649977000,6.63297705078125,-0.3397808074951172,-10.028020858764648,0.9224331378936768
1701857672659570200,6.642570068359375,-0.30149564146995544,-10.07587718963623,0.8697910308837891
1701857672669164300,6.652164306640625,-0.2799602448940277,-10.102197647094727,0.8147560954093933
1701857672678757400,6.66175732421875,-0.2679961323738098,-10.145268440246582,0.8123632669448853
1701857672688349700,6.671349609375,-0.2560320198535919,-10.162018775939941,0.8386843204498291
1701857672697943000,6.680943115234375,-0.21774685382843018,-10.130911827087402,0.778863787651062
1701857672707537000,6.690536865234375,-0.1866401731967926,-10.111769676208496,0.8027920126914978
1701857672717130000,6.7001298828125,-0.1339980661869049,-10.087841033935547,0.833898663520813
1701857672726722300,6.709722412109375,-0.07178468257188797,-10.087841033935547,0.8458628058433533
1701857672736315600,6.719315673828125,-0.023629123345017433,-10.06869888305664,0.8219345808029175
1701857672745909500,6.728909423828125,-0.018843477591872215,-10.085448265075684,0.7980063557624817
1701857672755502600,6.738502685546875,0.007477570790797472,-10.118947982788086,0.7405785918235779
1701857672765095000,6.748094970703125,0.02183450572192669,-10.140482902526855,0.6783652305603027
1701857672774688300,6.757688232421875,-0.026021946221590042,-10.150054931640625,0.6376872062683105
1701857672784282000,6.7672822265625,-0.10289137065410614,-10.19312572479248,0.6185446381568909
1701857672793875200,6.776875244140625,-0.13639089465141296,-10.252945899963379,0.5706881880760193
1701857672803467800,6.7864677734375,-0.20099709928035736,-10.305587768554688,0.5826523303985596
1701857672813060900,6.796060791015625,-0.25363919138908386,-10.367801666259766,0.6113662123680115
1701857672822654700,6.80565478515625,-0.26560330390930176,-10.391729354858398,0.6329016089439392
1701857672832248000,6.815248046875,-0.20099709928035736,-10.372587203979492,0.6352944374084473
1701857672841840400,6.82484033203125,-0.08614161610603333,-10.341480255126953,0.6329016089439392
1701857672851433500,6.83443359375,-0.040677983313798904,-10.240982055664062,0.6281159520149231
1701857672861027600,6.844027587890625,-0.018843477591872215,-10.116555213928223,0.6520441770553589
1701857672870620700,6.85362060546875,-0.03798605874180794,-10.025628089904785,0.7094719409942627
1701857672880213000,6.863212890625,-0.07657032459974289,-9.92961597442627,0.6735795736312866
1701857672889806000,6.87280615234375,-0.09571290761232376,-9.821938514709473,0.537188708782196
1701857672899400200,6.882400146484375,-0.07178468257188797,-9.783653259277344,0.5105685591697693
1701857672908993300,6.8919931640625,-0.13878370821475983,-9.80518913269043,0.4938187599182129
1701857672918585600,6.901585693359375,-0.1746760457754135,-9.79083251953125,0.5177469849586487
1701857672928179000,6.911178955078125,-0.1986042857170105,-9.783653259277344,0.534795880317688
1701857672937772800,6.920772705078125,-0.1986042857170105,-9.778867721557617,0.5324030518531799
1701857672947366000,6.930365966796875,-0.17706887423992157,-9.742975234985352,0.5443671345710754
1701857672956958200,6.939958251953125,-0.17706887423992157,-9.719047546386719,0.5802595019340515
1701857672966551600,6.949551513671875,-0.17706887423992157,-9.65683364868164,0.6089733839035034
1701857672976145400,6.9591455078125,-0.1698904037475586,-9.647262573242188,0.6400800347328186
1701857672985738800,6.96873876953125,-0.1866401731967926,-9.637691497802734,0.6544370055198669
1701857672995331000,6.9783310546875,-0.19142581522464752,-9.623334884643555,0.6807580590248108
1701857673004924200,6.987924072265625,-0.21296121180057526,-9.608977317810059,0.7070791125297546
1701857673014518000,6.99751806640625,-0.2273181527853012,-9.632905960083008,0.7334001660346985
1701857673024111400,7.007111328125,-0.2273181527853012,-9.64965534210205,0.7070791125297546
1701857673033703700,7.01670361328125,-0.23449662327766418,-9.668798446655273,0.6975077986717224
1701857673043296800,7.026296875,-0.2105683982372284,-9.719047546386719,0.6616154313087463
1701857673052891000,7.035890869140625,-0.17706887423992157,-9.809974670410156,0.6089733839035034
1701857673062484000,7.04548388671875,-0.11246266216039658,-9.932008743286133,0.5659025311470032
1701857673072076300,7.055076171875,-0.05024927482008934,-10.063913345336914,0.537188708782196
1701857673081669600,7.064669677734375,-0.026021946221590042,-10.21466064453125,0.4866403043270111
1701857673091263500,7.074263427734375,-0.014057832770049572,-10.365408897399902,0.4866403043270111
1701857673100856600,7.083856689453125,-0.040677983313798904,-10.47069263458252,0.4746761918067932
1701857673110449000,7.093448974609375,-0.059820566326379776,-10.542776107788086,0.48903313279151917
1701857673120042200,7.103042236328125,-0.09571290761232376,-10.571490287780762,0.5009972453117371
1701857673129636000,7.112635986328125,-0.1339980661869049,-10.513763427734375,0.49621158838272095
1701857673139229200,7.122229248046875,-0.16510476171970367,-10.410872459411621,0.46749773621559143
1701857673148821500,7.131821533203125,-0.15314064919948578,-10.303194999694824,0.4411766827106476
1701857673158414800,7.141414794921875,-0.14117653667926788,-10.188340187072754,0.4339981973171234
1701857673168008700,7.1510087890625,-0.16510476171970367,-10.08305549621582,0.4459623098373413
1701857673177602000,7.16060205078125,-0.16510476171970367,-9.972686767578125,0.43160539865493774
1701857673187194400,7.1701943359375,-0.1866401731967926,-9.89133071899414,0.41485562920570374
1701857673196787500,7.179787353515625,-0.2225325107574463,-9.795618057250977,0.41964125633239746
1701857673206381600,7.189381591796875,-0.24406790733337402,-9.707083702087402,0.43160539865493774
1701857673215974700,7.198974609375,-0.2991028428077698,-9.668798446655273,0.4507479667663574
1701857673225567000,7.20856689453125,-0.3445664644241333,-9.613762855529785,0.45553362369537354
1701857673235160000,7.21816015625,-0.35892340540885925,-9.628120422363281,0.4220340847969055
1701857673244754200,7.227754150390625,-0.3445664644241333,-9.673583984375,0.4172484576702118
1701857673254347300,7.23734716796875,-0.3086741268634796,-9.721440315246582,0.42681974172592163
1701857673263939600,7.246939697265625,-0.28953152894973755,-9.769296646118164,0.4698905348777771
1701857673273533000,7.256532958984375,-0.2584248483181,-9.860223770141602,0.4938187599182129
1701857673283126800,7.266126708984375,-0.2584248483181,-9.951150894165039,0.5276173949241638
1701857673292719900,7.275719970703125,-0.275174617767334,-10.013663291931152,0.5635097622871399
1701857673302312200,7.285312255859375,-0.27756741642951965,-10.111769676208496,0.6376872062683105
1701857673311905500,7.294905517578125,-0.27756741642951965,-10.169197082519531,0.6592226624488831
1701857673321499400,7.30449951171875,-0.2919243574142456,-10.205089569091797,0.7046862840652466
1701857673331092500,7.314092529296875,-0.2799602448940277,-10.236196517944336,0.6855437159538269
1701857673340684800,7.323684814453125,-0.275174617767334,-10.250553131103516,0.6759724020957947
1701857673350278100,7.333278076171875,-0.2727817893028259,-10.23141098022461,0.6496513485908508
1701857673359872000,7.3428720703125,-0.28953152894973755,-10.176375389099121,0.6329016089439392
1701857673369465300,7.35246533203125,-0.2919243574142456,-10.142875671386719,0.6472585201263428
1701857673379057700,7.3620576171875,-0.26560330390930176,-10.08305549621582,0.6137589812278748
1701857673388650800,7.371650634765625,-0.275174617767334,-10.028020858764648,0.589830756187439
1701857673398244900,7.381244873046875,-0.3278166949748993,-9.965508460998535,0.5659025311470032
1701857673407838000,7.390837890625,-0.3684946894645691,-9.903294563293457,0.5129613280296326
1701857673417430300,7.40043017578125,-0.35892340540885925,-9.8267240524292,0.4411766827106476
1701857673427023400,7.4100234375,-0.33020952343940735,-9.769296646118164,0.3358924686908722
1701857673436617500,7.419617431640625,-0.30628129839897156,-9.723833084106445,0.2952145040035248
1701857673446210600,7.42921044921875,-0.28953152894973755,-9.675976753234863,0.2880360186100006
1701857673455803000,7.438802978515625,-0.2967100143432617,-9.654440879821777,0.27846473455429077
1701857673465396200,7.448396240234375,-0.33738797903060913,-9.604191780090332,0.29760730266571045
1701857673474990000,7.457989990234375,-0.3158525824546814,-9.568299293518066,0.3358924686908722
1701857673484583200,7.467583251953125,-0.2799602448940277,-9.527621269226074,0.32632118463516235
1701857673494175500,7.477175537109375,-0.2991028428077698,-9.470193862915039,0.30957141518592834
1701857673503768800,7.486768798828125,-0.3445664644241333,-9.419944763183594,0.29760730266571045
1701857673513362700,7.49636279296875,-0.4139583110809326,-9.37896728515625,0.35503506660461426
1701857673522955800,7.505955810546875,-0.41874396800994873,-9.328718185424805,0.4004986882209778
1701857673532548400,7.51554833984375,-0.4259224236011505,-9.24736213684082,0.4100699722766876
1701857673542141400,7.525141357421875,-0.46420758962631226,-9.187541961669922,0.3693920075893402
1701857673551735300,7.5347353515625,-0.5694918036460876,-9.213862419128418,0.3287140130996704
1701857673561328600,7.54432861328125,-0.8330013751983643,-9.266505241394043,0.3478565812110901
1701857673570921000,7.5539208984375,-0.9550353288650513,-9.302396774291992,0.20428723096847534
1701857673580514000,7.56351416015625,-0.8330013751983643,-9.273683547973633,-0.04247260093688965
1701857673590108200,7.573108154296875,-0.6296114325523376,-9.221040725708008,0.03439682722091675
1701857673599701200,7.582701171875,-0.6702894568443298,-9.321539878845215,0.37896329164505005
1701857673609293600,7.59229345703125,-0.8976075649261475,-9.376574516296387,0.41485562920570374
1701857673618886700,7.60188671875,-1.1850453615188599,-9.38614559173584,0.15643078088760376
1701857673628480800,7.611480712890625,-1.3932210206985474,-9.465408325195312,-0.3607180118560791
1701857673638073900,7.621073974609375,-1.316650629043579,-9.573084831237793,-0.9329017400741577
1701857673647666200,7.630666259765625,-1.036391258239746,-9.716654777526855,-1.3950155973434448
1701857673657259500,7.640259521484375,-0.7540382146835327,-9.683155059814453,-1.6630117893218994
1701857673666853400,7.649853271484375,-0.4450650215148926,-9.522835731506348,-1.703689694404602
1701857673676446500,7.659446533203125,-0.41874396800994873,-9.307182312011719,-1.4763715267181396
1701857673686038800,7.669038818359375,-0.7516453862190247,-9.084650039672852,-1.033400297164917
1701857673695632100,7.678632080078125,-1.0866405963897705,-8.675178527832031,-1.3256237506866455
1701857673705226000,7.68822607421875,-1.445863127708435,-8.16999340057373,-1.2275179624557495
1701857673714819300,7.6978193359375,-1.441077470779419,-7.6049885749816895,-0.6601199507713318
1701857673724411600,7.70741162109375,-1.1682956218719482,-7.174280643463135,0.03918246924877167
1701857673734004700,7.717004638671875,-1.1754741668701172,-6.63559627532959,0.3071786165237427
1701857673743598600,7.7265986328125,-1.3716856241226196,-6.527620315551758,0.23778675496578217
1701857673753192000,7.73619189453125,-1.197009563446045,-7.087839603424072,0.35024940967559814
1701857673762784300,7.7457841796875,-0.6056832075119019,-7.858926773071289,0.25692933797836304
1701857673772377300,7.75537744140625,0.1869392693042755,-8.866903305053711,0.41964125633239746
1701857673781971500,7.764971435546875,1.1757732629776,-8.941081047058105,0.7310073375701904
1701857673791564500,7.774564453125,-0.41874396800994873,-9.43190860748291,0.778863787651062
1701857673801156900,7.784156982421875,0.768694281578064,-8.498109817504883,-0.10468599200248718
1701857673810750200,7.793750244140625,2.197807550430298,-6.403193473815918,-1.5314065217971802
1701857673820344000,7.803343994140625,2.2483558654785156,-5.395216941833496,-1.7279170751571655
1701857673829937200,7.812937255859375,2.035095691680908,-4.911567687988281,-0.7199404835700989
1701857673839529500,7.822529541015625,1.8245272636413574,-6.099305152893066,1.705484390258789
1701857673849122800,7.832122802734375,1.3743774890899658,-7.023233413696289,3.8240296840667725
1701857673858716700,7.841716552734375,-0.03559323772788048,-7.942675590515137,4.683651447296143
1701857673868309800,7.851309814453125,-0.9598209857940674,-8.979366302490234,3.943969964981079
1701857673877902000,7.860902099609375,-0.5431707501411438,-9.376574516296387,2.5648066997528076
1701857673887495400,7.870495361328125,0.4262215197086334,-9.470193862915039,2.5791637897491455
1701857673897089300,7.88008935546875,-0.40677985548973083,-8.837890625,2.0811574459075928
1701857673906682400,7.889682373046875,-1.8194425106048584,-8.289634704589844,0.3119642436504364
1701857673916275000,7.89927490234375,-2.027618169784546,-7.590631484985352,-0.8874381184577942
1701857673925868000,7.908867919921875,-2.24057936668396,-7.485347270965576,-0.6768696904182434
1701857673935462100,7.918462158203125,-2.2959132194519043,-8.031209945678711,-0.01824527233839035
1701857673945055200,7.92805517578125,-1.9630118608474731,-7.693522930145264,0.24496522545814514
1701857673954647600,7.9376474609375,-2.8319056034088135,-6.331408500671387,-0.4660021960735321
1701857673964240600,7.94724072265625,-3.109772205352783,-3.3149566650390625,-1.069292664527893
1701857673973834800,7.956834716796875,-2.441875457763672,-4.155136585235596,0.8434699773788452
1701857673983427800,7.966427734375,-3.1217362880706787,-6.348158359527588,1.8346967697143555
1701857673993020200,7.976020263671875,-4.541577339172363,-8.754141807556152,1.9399809837341309
1701857674002613500,7.985613525390625,-3.327518939971924,-9.678369522094727,2.2561326026916504
1701857674012207400,7.995207275390625,-1.6875381469726562,-10.159626007080078,3.1202406883239746
1701857674021800400,8.004800537109375,-1.378864049911499,-9.369396209716797,3.5727832317352295
1701857674031392800,8.014392822265625,-1.83619225025177,-9.587442398071289,3.7689948081970215
1701857674040986000,8.023986083984376,-3.8949170112609863,-5.459823131561279,3.639782428741455
1701857674050580000,8.033580078125,-4.919643402099609,-9.283254623413086,4.829613208770752
1701857674060173000,8.043173095703125,-6.277271270751953,-0.841675341129303,2.394916296005249
1701857674069765600,8.052765625,-7.706384658813477,-4.7727837562561035,3.9152560234069824
1701857674079358700,8.062358642578126,-6.497410774230957,-8.215457916259766,3.1752755641937256
1701857674088952600,8.07195263671875,-5.097011566162109,-8.672785758972168,2.363809585571289
1701857674098546000,8.0815458984375,-5.345864772796631,-8.672785758972168,2.4140589237213135
1701857674108138200,8.09113818359375,-4.6372904777526855,-8.512466430664062,2.4619154930114746
1701857674117731300,8.1007314453125,-5.094618320465088,-5.548656463623047,3.036491870880127
1701857674127325400,8.110325439453124,-4.816751956939697,-7.198208808898926,4.918148040771484
1701857674136918500,8.11991845703125,-5.125725269317627,-10.458728790283203,5.6461639404296875
1701857674146510800,8.1295107421875,-4.3809590339660645,-8.37846851348877,7.587640762329102
1701857674156104200,8.139104248046875,-5.424828052520752,-12.256935119628906,6.582056999206543
1701857674165698000,8.148697998046876,-4.965106964111328,-13.271790504455566,5.212764263153076
1701857674175291100,8.158291015625,-4.649254322052002,-13.587942123413086,3.991826295852661
1701857674184883500,8.167883544921875,-4.01246452331543,-13.171292304992676,3.0652058124542236
1701857674194476800,8.177476806640625,-2.9805595874786377,-13.142578125,2.6509482860565186
1701857674204070700,8.187070556640625,-2.82951283454895,-13.628620147705078,1.8705891370773315
1701857674213663700,8.196663818359376,-1.374078392982483,-13.599906921386719,2.0787646770477295
1701857674223256000,8.206256103515624,-2.3365912437438965,-20.05185317993164,-0.04247260093688965
1701857674232849400,8.215849365234375,0.34725838899612427,-7.626523971557617,4.772185802459717
1701857674242443300,8.225443359375,-1.4985052347183228,-14.4834566116333,3.5321052074432373
1701857674252036400,8.235036376953126,-1.1536396741867065,-15.04128360748291,4.733900547027588
1701857674261629000,8.24462890625,-1.347757339477539,-13.877473831176758,5.658128261566162
1701857674271222000,8.254221923828124,-1.6372889280319214,-12.831511497497559,5.684449195861816
1701857674280815900,8.26381591796875,-3.0355947017669678,-12.50818157196045,5.013860702514648
1701857674290409200,8.2734091796875,-3.2006993293762207,-13.15932846069336,4.619044780731201
1701857674300001500,8.28300146484375,-3.875774383544922,-12.749855995178223,4.688436985015869
1701857674309594600,8.2925947265625,-7.754240989685059,-18.31137466430664,2.018944025039673
1701857674319188700,8.302188720703125,-0.6511468887329102,-6.183053493499756,7.240382194519043
1701857674328781800,8.31178173828125,-4.349852561950684,-11.277671813964844,4.386641979217529
1701857674338374100,8.3213740234375,-3.452244758605957,-10.384551048278809,4.458725929260254
1701857674347967200,8.33096728515625,-2.286342144012451,-9.644869804382324,4.066003799438477
1701857674357561300,8.340561279296875,-1.7404793500900269,-7.942675590515137,2.7900311946868896
1701857674367154400,8.350154541015625,-1.292722463607788,-7.1524457931518555,1.8083757162094116
1701857674376746800,8.359746826171875,-1.831406593322754,-7.071090221405029,1.5927225351333618
1701857674386340000,8.369340087890626,-6.377769470214844,-12.311969757080078,2.550449848175049
1701857674395934000,8.378933837890624,-22.901704788208008,-23.063819885253906,2.1361923217773438
1701857674405527000,8.388527099609375,-37.34538269042969,-25.37409019470215,-0.5042873620986938
1701857674415119400,8.398119384765625,-38.413177490234375,-7.6289167404174805,-0.5736792087554932
1701857674424712700,8.407712646484375,-30.009883880615234,2.6799614429473877,4.717150688171387
1701857674434306600,8.417306640625,-22.839492797851562,5.296812057495117,7.003492832183838
1701857674443899600,8.426899658203125,-11.71406364440918,8.617451667785645,5.9285173416137695
1701857674453492000,8.436491943359375,-8.685647010803223,7.240681171417236,4.161716938018799
1701857674463085300,8.446085205078125,-4.3187456130981445,7.6405816078186035,5.167300701141357
1701857674472679200,8.45567919921875,-6.401698112487793,4.528117656707764,2.47387957572937
1701857674482272500,8.4652724609375,-6.138188362121582,0.6544370055198669,-0.7845467329025269
1701857674491864600,8.474864501953125,-4.977071285247803,-3.288635730743408,-2.9057838916778564
1701857674501458000,8.4844580078125,-4.096213340759277,-6.633203506469727,-4.29661226272583
1701857674511051800,8.4940517578125,-4.002892971038818,-7.8302130699157715,-5.352445125579834
1701857674520644900,8.503644775390624,-5.283651351928711,-7.775177955627441,-5.373980522155762
1701857674530237400,8.513237548828124,-5.355436325073242,-7.5667033195495605,-4.208077907562256
1701857674539830500,8.52283056640625,-4.5391845703125,-6.637989044189453,-2.256730794906616
1701857674549424600,8.532424560546875,-2.6835505962371826,-4.061816215515137,-2.192124605178833
1701857674559017700,8.542017822265626,-1.2376874685287476,-1.3420743942260742,-2.3910279273986816
1701857674568610000,8.551610107421874,-0.734895646572113,0.22851456701755524,-2.3024935722351074
1701857674578203100,8.561203125,-1.5176477432250977,0.3433700501918793,-1.8523437976837158
1701857674587797200,8.57079736328125,-3.8327035903930664,-0.39870408177375793,-1.0238289833068848
1701857674597390300,8.580390380859376,-7.6992058753967285,-1.552642822265625,0.5491527915000916
1701857674606982700,8.589982666015626,-10.902597427368164,-3.484847068786621,2.409273386001587
1701857674616576000,8.599575927734374,-14.373984336853027,-5.385645389556885,2.715554714202881
1701857674626169900,8.609169921875,-13.277473449707031,-4.504787921905518,3.1920254230499268
1701857674635763000,8.618762939453125,-15.132808685302734,-4.18863582611084,2.53609299659729
1701857674645355300,8.628355224609376,-15.551851272583008,-3.1854450702667236,3.6493537425994873
1701857674654948600,8.637948486328124,-14.555839538574219,-1.9094724655151367,5.234299659729004
1701857674664542500,8.64754248046875,-14.163415908813477,-0.5641079545021057,6.328417778015137
1701857674674135600,8.657135498046875,-12.714860916137695,0.381655216217041,5.861518383026123
1701857674683728000,8.666727783203125,-10.926525115966797,1.2747762203216553,4.894219398498535
1701857674693321200,8.6763212890625,-9.681659698486328,2.0144574642181396,4.190430641174316
1701857674702915000,8.6859150390625,-9.32722282409668,1.6265212297439575,4.331607341766357
1701857674712508200,8.695508056640625,-9.475577354431152,0.32662028074264526,5.08355188369751
1701857674722100700,8.705100830078125,-9.540184020996094,-1.2559328079223633,5.591129302978516
1701857674731693800,8.71469384765625,-9.880263328552246,-2.175374984741211,5.37069034576416
1701857674741287700,8.72428759765625,-10.316056251525879,-2.618046998977661,4.3172502517700195
1701857674750881000,8.733881103515625,-10.63669490814209,-2.864806890487671,3.2781670093536377
1701857674760473300,8.743473388671875,-10.383055686950684,-3.6308093070983887,2.9144580364227295
1701857674770066400,8.75306640625,-9.549755096435547,-2.1634106636047363,2.347059965133667
1701857674779660500,8.76266064453125,-9.86112117767334,-1.2894322872161865,2.3518455028533936
1701857674789253600,8.772253662109375,-9.698409080505371,-1.0310074090957642,2.756232500076294
1701857674798846000,8.781845947265625,-9.61944580078125,-1.1889337301254272,3.0029923915863037
1701857674808439000,8.79143896484375,-10.026226043701172,-1.7826528549194336,3.0005996227264404
1701857674818033200,8.801033203125,-8.589934349060059,-1.8855443000793457,3.0652058124542236
1701857674827626200,8.810626220703124,-8.87946605682373,-2.045863389968872,2.684448003768921
1701857674837218600,8.820218505859375,-8.814859390258789,-2.199303150177002,2.526521682739258
1701857674846811600,8.829811767578125,-8.721539497375488,-2.3931217193603516,2.7586255073547363
1701857674856405800,8.83940576171875,-7.488637447357178,-1.9692929983139038,2.957528829574585
1701857674865998800,8.848998779296876,-8.640183448791504,-1.8305093050003052,2.5719852447509766
1701857674875591200,8.858591064453124,-8.460721969604492,-2.192124605178833,2.5863420963287354
1701857674885184500,8.8681845703125,-8.333602905273438,-2.402693033218384,2.7227330207824707
1701857674894778400,8.8777783203125,-8.391031265258789,-2.4337997436523438,2.677269458770752
1701857674904371500,8.887371337890626,-8.613862037658691,-2.364407777786255,2.840280532836914
1701857674913963800,8.8969638671875,-8.819644927978516,-2.208874464035034,2.830709218978882
1701857674923557000,8.90655712890625,-9.06401252746582,-2.1801605224609375,2.9144580364227295
1701857674933151000,8.91615087890625,-8.989535331726074,-2.2040886878967285,3.419642686843872
1701857674942744000,8.925744140625,-9.018548965454102,-2.247159481048584,3.5177483558654785
1701857674952336400,8.93533642578125,-9.05444049835205,-2.467299222946167,3.8336009979248047
1701857674961929700,8.9449296875,-9.068798065185547,-2.6973092555999756,4.190430641174316
1701857674971523600,8.954523681640625,-8.78375244140625,-2.895913600921631,4.429712772369385
1701857674981116700,8.96411669921875,-8.379066467285156,-2.895913600921631,4.448855400085449
1701857674990709000,8.973708984375,-8.324031829833984,-3.1304101943969727,4.614259243011475
1701857675000302300,8.98330224609375,-8.35274600982666,-3.3077781200408936,4.381856441497803
1701857675009896200,8.992896240234375,-8.465507507324219,-3.4657044410705566,4.056432723999023
1701857675019489500,9.002489501953125,-8.438887596130371,-3.6068811416625977,3.7283167839050293
1701857675029081900,9.012081787109375,-8.295317649841309,-3.649951934814453,3.328416347503662
1701857675038675000,9.021675048828126,-8.285746574401855,-3.767200231552124,3.043670415878296
1701857675048268800,9.031268798828124,-8.192426681518555,-3.9421753883361816,2.871387243270874
1701857675057862100,9.040862060546875,-8.044071197509766,-4.068994998931885,2.756232500076294
1701857675067454500,9.050454345703125,-8.039285659790039,-4.1144585609436035,2.6413772106170654
1701857675077047600,9.060047607421875,-8.259425163269043,-4.269991874694824,2.653341293334961
1701857675086641700,9.0696416015625,-8.209176063537598,-4.286741733551025,2.6174488067626953
1701857675096234800,9.07923486328125,-8.106285095214844,-4.104887008666992,2.6126632690429688
1701857675105827000,9.0888271484375,-8.137392044067383,-3.8057844638824463,2.6796622276306152
1701857675115420200,9.098420166015625,-8.240283012390137,-3.5327036380767822,2.8594231605529785
1701857675125014300,9.10801416015625,-8.139784812927246,-3.3532419204711914,3.0101709365844727
1701857675134607400,9.117607421875,-8.039285659790039,-3.3221352100372314,3.208775281906128
1701857675144199700,9.12719970703125,-8.003393173217773,-3.312563896179199,3.266202926635742
1701857675153793000,9.13679296875,-8.209176063537598,-3.381955623626709,2.806781053543091
1701857675163387000,9.146386962890626,-7.8332037925720215,-3.702594041824341,4.290929317474365
1701857675172980000,9.15597998046875,-7.505387306213379,-3.4944183826446533,4.05403995513916
1701857675182572300,9.165572265625,-7.7853474617004395,-3.5183465480804443,3.9463627338409424
1701857675192165600,9.17516552734375,-7.668099403381348,-3.6595232486724854,3.8024942874908447
1701857675201759500,9.184759521484375,-7.718348503112793,-3.702594041824341,3.733102321624756
1701857675211352600,9.1943525390625,-7.804490089416504,-3.7169508934020996,3.7546377182006836
1701857675220945000,9.20394482421875,-7.881060600280762,-3.704986810684204,3.8144583702087402
1701857675230538200,9.213538330078125,-7.965108394622803,-3.6236307621002197,3.8934216499328613
1701857675240132000,9.223132080078125,-7.938787460327148,-3.5614173412323,3.8814573287963867
1701857675249725200,9.23272509765625,-7.950751304626465,-3.539881944656372,3.910470485687256
1701857675259317500,9.2423173828125,-8.044071197509766,-3.547060489654541,3.958326816558838
1701857675268910800,9.251910888671874,-8.015357971191406,-3.609273910522461,4.0420756340026855
1701857675278504700,9.261504638671875,-7.967501163482666,-3.5207393169403076,4.013361930847168
1701857675288097800,9.271097900390625,-7.9005022048950195,-3.4968111515045166,3.90568470954895
1701857675297690400,9.2806904296875,-8.022536277770996,-3.36759877204895,4.11625337600708
1701857675307283500,9.290283447265624,-7.967501163482666,-3.3556346893310547,4.075575351715088
1701857675316877300,9.299877197265625,-8.173283576965332,-3.3939197063446045,4.135395526885986
1701857675326470700,9.309470703125,-8.21874713897705,-3.9110686779022217,3.989433526992798
1701857675336063000,9.31906298828125,-6.981060028076172,-3.446561813354492,4.925326347351074
1701857675345656000,9.328656005859376,-7.804490089416504,-3.317349433898926,4.331607341766357
1701857675355250200,9.338250244140625,-7.857132434844971,-3.4010982513427734,4.400999069213867
1701857675364843000,9.347843017578125,-7.7470622062683105,-3.458526134490967,4.516153812408447
1701857675374435600,9.357435546875,-7.684848785400391,-3.515953779220581,4.547260284423828
1701857675384028700,9.367028564453125,-7.615457057952881,-3.477668523788452,4.547260284423828
1701857675393622800,9.376622802734374,-7.526922702789307,-3.3556346893310547,4.506582260131836
1701857675403216000,9.3862158203125,-7.608278751373291,-3.2503504753112793,4.480261325836182
1701857675412808200,9.39580810546875,-7.692027568817139,-3.2838499546051025,4.571188449859619
1701857675422401300,9.4054013671875,-7.768597602844238,-3.3149566650390625,4.6286163330078125
1701857675431995400,9.414995361328126,-7.77816915512085,-3.484847068786621,4.65015172958374
1701857675441588500,9.42458837890625,-7.601100444793701,-3.6595232486724854,4.549653053283691
1701857675451180800,9.434180908203125,-7.196413993835449,-3.7552361488342285,4.353142738342285
1701857675460774000,9.44377392578125,-6.835097789764404,-3.7456648349761963,4.202394962310791
1701857675470368000,9.453367919921876,-6.928418159484863,-3.8225340843200684,4.228715896606445
1701857675479961000,9.462961181640624,-7.115057945251465,-3.946960926055908,4.319643020629883
1701857675489553400,9.472553466796874,-7.3522467613220215,-4.164707660675049,4.473083019256592
1701857675499146500,9.482146484375,-7.617849826812744,-4.42103910446167,4.64297342300415
1701857675508740600,9.49174072265625,-7.727920055389404,-4.7249274253845215,4.832006454467773
1701857675518333700,9.501333740234376,-7.77099084854126,-4.928616523742676,4.997110843658447
1701857675527926000,9.510926025390624,-7.888238906860352,-4.897210597991943,5.1529436111450195
1701857675537519400,9.520519287109375,-7.706384658813477,-4.669892311096191,5.289334297180176
1701857675547113200,9.53011328125,-7.3160552978515625,-4.516751766204834,5.346762180328369
1701857675556706300,9.539706298828126,-7.074379920959473,-4.267599105834961,5.408975601196289
1701857675566298600,9.549298583984376,-6.981060028076172,-4.059423446655273,5.444868087768555
1701857675575892000,9.55889208984375,-7.033702373504639,-3.9182469844818115,5.44008207321167
1701857675585485800,9.56848583984375,-7.033702373504639,-3.8464624881744385,5.341976642608643
1701857675595079000,9.578078857421875,-6.94038200378418,-3.975674867630005,5.377869129180908
1701857675604671200,9.587671142578126,-6.885347366333008,-4.171886444091797,5.341976642608643
1701857675614264600,9.5972646484375,-6.820741176605225,-4.4497528076171875,5.332405090332031
1701857675623858400,9.6068583984375,-6.832705020904541,-4.5909295082092285,5.270191669464111
1701857675633451500,9.616451416015625,-6.81595516204834,-4.729712963104248,5.284548759460449
1701857675643043800,9.6260439453125,-6.837490558624268,-4.734498500823975,5.258227825164795
1701857675652637200,9.63563720703125,-6.8279194831848145,-4.744070053100586,5.236692428588867
1701857675662231000,9.64523095703125,-6.772884368896484,-4.712963104248047,5.181657314300537
1701857675671824400,9.654824462890625,-6.69362211227417,-4.653142929077148,5.1050872802734375
1701857675681416400,9.66441650390625,-6.707979202270508,-4.555037021636963,5.076373100280762
1701857675691009800,9.674009765625,-6.760621070861816,-4.437788486480713,5.107480049133301
1701857675700603600,9.683603759765624,-6.8279194831848145,-4.375575542449951,5.198407173156738
1701857675710197000,9.693197021484375,-6.873383045196533,-4.336990833282471,5.392225742340088
1701857675719789300,9.702789306640625,-6.832705020904541,-4.284348964691162,5.600700378417969
1701857675729382400,9.71238232421875,-6.868597507476807,-4.205385684967041,5.792126178741455
1701857675738976300,9.721976318359374,-6.772884368896484,-4.167100429534912,5.971588134765625
1701857675748569300,9.7315693359375,-6.696014881134033,-4.035495281219482,5.95962381362915
1701857675758162000,9.741161865234375,-6.638587474822998,-3.975674867630005,5.854339599609375
1701857675767755000,9.750755126953125,-6.559624195098877,-3.9661035537719727,5.885446548461914
1701857675777348900,9.760348876953126,-6.530910491943359,-4.009174346923828,5.770590782165527
1701857675786942200,9.769942138671874,-6.444768905639648,-4.11206579208374,5.6222357749938965
1701857675796534500,9.779534423828125,-6.229414463043213,-4.167100429534912,5.526223659515381
1701857675806127600,9.789127685546875,-6.413661956787109,-4.260420799255371,5.471189022064209
1701857675815721700,9.7987216796875,-6.61705207824707,-4.468895435333252,5.499902725219727
1701857675825314800,9.808314697265626,-6.640980243682861,-4.741677284240723,5.658128261566162
1701857675834907100,9.8179072265625,-6.660122871398926,-4.9501519203186035,5.729912757873535
1701857675844500200,9.827500244140625,-6.5404815673828125,-5.1343994140625,5.830411434173584
1701857675854094300,9.83709423828125,-6.432804584503174,-5.2731828689575195,5.895017623901367
1701857675863687400,9.8466875,-6.368198394775391,-5.347360610961914,5.916553020477295
1701857675873279700,9.85627978515625,-6.325127601623535,-5.378467082977295,5.942873954772949
1701857675882872800,9.865872802734375,-6.305984973907471,-5.404788017272949,5.947659969329834
1701857675892467000,9.875467041015625,-6.224628925323486,-5.3832526206970215,6.000301837921143
1701857675902060000,9.88506005859375,-6.150152206420898,-5.368896007537842,6.052944183349609
1701857675911652400,9.89465234375,-6.061617851257324,-5.313860893249512,6.100800514221191
1701857675921245400,9.904245361328124,-6.030511379241943,-5.261219024658203,6.1342997550964355
1701857675930839600,9.913839599609375,-5.901298999786377,-5.222933769226074,6.136693000793457
1701857675940432600,9.9234326171875,-5.7888360023498535,-5.194219589233398,6.074479579925537
1701857675950025000,9.93302490234375,-5.7649078369140625,-5.254040241241455,5.995516300201416
1701857675959618300,9.942618408203124,-5.7792649269104,-5.321039199829102,5.916553020477295
1701857675969212200,9.952212158203125,-5.738586902618408,-5.438287734985352,5.875874996185303
1701857675978805200,9.96180517578125,-5.750551223754883,-5.5366926193237305,5.847161293029785
1701857675988397600,9.9713974609375,-5.803193092346191,-5.601298809051514,5.839982986450195
1701857675997991000,9.980990966796876,-5.807978630065918,-5.641976833343506,5.86630392074585
1701857676007584800,9.990584716796874,-5.84147834777832,-5.673083305358887,5.933302879333496
1701857676017177900,10.000177734375,-5.824728488922119,-5.665904998779297,5.954838275909424
1701857676026770200,10.009770263671875,-5.812764644622803,-5.649155139923096,5.95962381362915
1701857676036363300,10.01936328125,-5.7888360023498535,-5.706583023071289,5.964409351348877
1701857676045957400,10.028957275390624,-5.791228771209717,-5.7017974853515625,5.954838275909424
1701857676055550500,10.038550537109375,-5.796014785766602,-5.658726215362549,5.9524455070495605
1701857676065142800,10.048142822265625,-5.807978630065918,-5.6324052810668945,5.940481185913086
1701857676074736000,10.057736083984375,-5.805585861206055,-5.582156181335449,5.976373672485352
1701857676084330000,10.067330078125,-5.851049423217773,-5.507978439331055,6.009873390197754
1701857676093923000,10.076923095703124,-5.8749775886535645,-5.459823131561279,6.019444465637207
1701857676103515400,10.086515380859375,-5.84865665435791,-5.416752338409424,5.983551979064941
1701857676113108700,10.096108642578125,-5.84147834777832,-5.368896007537842,5.9452667236328125
1701857676122702600,10.10570263671875,-5.781657695770264,-5.3353962898254395,5.8974103927612305
1701857676132295700,10.115295654296874,-5.733801364898682,-5.292325496673584,5.880660533905029
1701857676141888000,10.124887939453124,-5.72422981262207,-5.277968406677246,5.825625896453857
1701857676151481300,10.1344814453125,-5.702694416046143,-5.234897613525391,5.761019706726074
1701857676161075200,10.1440751953125,-5.750551223754883,-5.196612358093262,5.7394843101501465
1701857676170668300,10.153668212890626,-5.793622016906738,-5.215754985809326,5.701199054718018
1701857676180260600,10.163260498046874,-5.796014785766602,-5.268397331237793,5.660521030426025
1701857676189854000,10.17285400390625,-5.827121257781982,-5.301896572113037,5.660521030426025
1701857676199447800,10.18244775390625,-5.855835437774658,-5.3832526206970215,5.638985633850098
1701857676209041000,10.192041015625,-5.846263885498047,-5.459823131561279,5.662913799285889
1701857676218633200,10.20163330078125,-5.839085578918457,-5.546263694763184,5.696413516998291
1701857676228226600,10.2112265625,-5.803193092346191,-5.610869884490967,5.6724853515625
1701857676237820400,10.2208203125,-5.7720866203308105,-5.641976833343506,5.662913799285889
1701857676247413500,10.23041357421875,-5.7888360023498535,-5.644369602203369,5.648557186126709
1701857676257005800,10.240005859375,-5.748157978057861,-5.625226974487305,5.650949954986572
1701857676266599200,10.24959912109375,-5.678766250610352,-5.6084771156311035,5.684449195861816
1701857676276193000,10.259193115234375,-5.644967555999756,-5.567799091339111,5.729912757873535
1701857676285786000,10.2687861328125,-5.561218738555908,-5.541478157043457,5.770590782165527
1701857676295378400,10.27837841796875,-5.400899887084961,-5.498407363891602,5.818447589874268
1701857676304971800,10.2879716796875,-5.283651351928711,-5.388038158416748,5.828018665313721
1701857676314565600,10.297565673828124,-5.144867897033691,-5.431109428405762,5.885446548461914
1701857676324158700,10.30715869140625,-5.254937648773193,-5.455037593841553,5.9285173416137695
1701857676333751000,10.3167509765625,-5.3817572593688965,-5.622834205627441,6.048158168792725
1701857676343344400,10.326344482421876,-5.554040431976318,-5.819045543670654,6.1465630531311035
1701857676352938200,10.335938232421874,-5.72422981262207,-5.945865154266357,6.19920539855957
1701857676362531600,10.345531494140625,-5.829514026641846,-5.965007781982422,6.184848308563232
1701857676372123600,10.35512353515625,-5.846263885498047,-5.905187129974365,6.055336952209473
1701857676381717000,10.364717041015625,-5.7792649269104,-5.766403675079346,5.871089458465576
1701857676391310800,10.374310791015626,-5.767300605773926,-5.641976833343506,5.801697731018066
1701857676400904200,10.383904296875,-5.796014785766602,-5.567799091339111,5.847161293029785
1701857676410496500,10.39349658203125,-5.695516109466553,-5.711368560791016,5.918945789337158
1701857676420089600,10.403089599609375,-5.544469356536865,-5.673083305358887,5.8734822273254395
1701857676429683500,10.412683349609376,-5.589932918548584,-5.333003520965576,5.674878120422363
1701857676439276500,10.422276611328124,-5.66201639175415,-5.292325496673584,5.631807327270508
1701857676448869000,10.431869140625,-5.671587944030762,-5.471786975860596,5.658128261566162
1701857676458462200,10.441462158203125,-5.642574787139893,-5.586941719055176,5.698806285858154
1701857676468056000,10.45105615234375,-5.637789249420166,-5.539085388183594,5.674878120422363
1701857676477649200,10.460649169921876,-5.652445316314697,-5.471786975860596,5.6294145584106445
1701857676487241700,10.47024169921875,-5.729015827178955,-5.510371208190918,5.643771171569824
1701857676496834800,10.479834716796875,-5.776872158050537,-5.555835247039795,5.62462854385376
1701857676506428700,10.4894287109375,-5.776872158050537,-5.54387092590332,5.615057468414307
1701857676516022000,10.49902197265625,-5.800800323486328,-5.507978439331055,5.62462854385376
1701857676525614300,10.5086142578125,-5.781657695770264,-5.467001438140869,5.641378402709961
1701857676535207400,10.51820751953125,-5.784050464630127,-5.409573554992676,5.655735492706299
1701857676544801300,10.52780126953125,-5.774479389190674,-5.356931686401367,5.648557186126709
1701857676554394600,10.53739453125,-5.7649078369140625,-5.2971110343933105,5.662913799285889
1701857676563987000,10.546987060546876,-5.745765209197998,-5.294718265533447,5.660521030426025
1701857676573580000,10.556580078125,-5.72422981262207,-5.292325496673584,5.643771171569824
1701857676583174000,10.566173828125,-5.700301647186279,-5.323431968688965,5.660521030426025
1701857676592767000,10.57576708984375,-5.666802406311035,-5.344967365264893,5.650949954986572
1701857676602359600,10.585359619140625,-5.657230854034424,-5.36650276184082,5.648557186126709
1701857676611952600,10.59495263671875,-5.666802406311035,-5.397609710693359,5.636592864990234
1701857676621546500,10.60454638671875,-5.673980712890625,-5.447858810424805,5.636592864990234
1701857676631139600,10.6141396484375,-5.657230854034424,-5.491229057312012,5.6461639404296875
1701857676640732200,10.623732177734375,-5.657230854034424,-5.529513835906982,5.643771171569824
1701857676650325200,10.6333251953125,-5.6548380851745605,-5.582156181335449,5.650949954986572
1701857676659919000,10.642919189453124,-5.678766250610352,-5.610869884490967,5.682056427001953
1701857676669512400,10.652512451171875,-5.673980712890625,-5.620441436767578,5.674878120422363
1701857676679104800,10.662104736328125,-5.657230854034424,-5.649155139923096,5.6916279792785645
1701857676688697900,10.67169775390625,-5.676373481750488,-5.641976833343506,5.682056427001953
1701857676698291700,10.681291748046876,-5.6548380851745605,-5.622834205627441,5.6724853515625
1701857676707885000,10.690885009765625,-5.683551788330078,-5.620441436767578,5.696413516998291
1701857676717477400,10.700477294921875,-5.688337802886963,-5.589334487915039,5.720341682434082
1701857676727070500,10.710070556640625,-5.671587944030762,-5.546263694763184,5.746662616729736
1701857676736664600,10.71966455078125,-5.6931233406066895,-5.515157222747803,5.777769565582275
1701857676746257700,10.729257568359374,-5.729015827178955,-5.4526448249816895,5.801697731018066
1701857676755850000,10.73885009765625,-5.719444274902344,-5.409573554992676,5.837589740753174
1701857676765443000,10.748443115234375,-5.7170515060424805,-5.364109992980957,5.892624855041504
1701857676775037200,10.758037109375,-5.733801364898682,-5.3353962898254395,5.918945789337158
1701857676784630300,10.76763037109375,-5.729015827178955,-5.321039199829102,5.954838275909424
1701857676794222600,10.77722265625,-5.697908878326416,-5.309075355529785,5.964409351348877
1701857676803815700,10.786815673828125,-5.6859450340271,-5.304289817810059,5.976373672485352
1701857676813409800,10.796409912109375,-5.697908878326416,-5.292325496673584,5.973980903625488
1701857676823003000,10.8060029296875,-5.683551788330078,-5.299503803253174,5.988337993621826
1701857676832595200,10.81559521484375,-5.659623622894287,-5.292325496673584,6.002694606781006
1701857676842188300,10.825188232421874,-5.666802406311035,-5.3353962898254395,6.002694606781006
1701857676851782400,10.834782470703125,-5.681159019470215,-5.3904314041137695,6.007480144500732
1701857676861375500,10.84437548828125,-5.66201639175415,-5.411966800689697,6.019444465637207
1701857676870967800,10.8539677734375,-5.7888360023498535,-5.378467082977295,5.971588134765625
1701857676880561000,10.863560791015624,-5.750551223754883,-5.356931686401367,5.969195365905762
1701857676890155000,10.873155029296875,-5.700301647186279,-5.380859851837158,5.983551979064941
1701857676899748000,10.882748046875,-5.6548380851745605,-5.3832526206970215,5.978766441345215
1701857676909340400,10.89234033203125,-5.623432159423828,-5.340181827545166,5.957231044769287
1701857676918933800,10.901933837890626,-5.618646621704102,-5.32821798324585,5.957231044769287
1701857676928527600,10.911527587890625,-5.606682777404785,-5.318646430969238,5.918945789337158
1701857676938120700,10.92112060546875,-5.628218173980713,-5.318646430969238,5.902195930480957
1701857676947713000,10.930713134765625,-5.640182018280029,-5.304289817810059,5.8734822273254395
1701857676957306400,10.940306396484376,-5.700301647186279,-5.309075355529785,5.856732368469238
1701857676966900200,10.949900146484374,-5.678766250610352,-5.3353962898254395,5.816054344177246
1701857676976493300,10.959493408203125,-5.664409637451172,-5.42153787612915,5.825625896453857
1701857676986085600,10.969085693359375,-5.657230854034424,-5.433502197265625,5.816054344177246
1701857676995679000,10.978678955078125,-5.664409637451172,-5.459823131561279,5.808876037597656
1701857677005272800,10.98827294921875,-5.681159019470215,-5.467001438140869,5.816054344177246
1701857677014866000,10.997865966796875,-5.700301647186279,-5.462215900421143,5.818447589874268
1701857677024458200,11.007458251953125,-5.700301647186279,-5.447858810424805,5.820840358734131
1701857677034051600,11.017051513671875,-5.760122299194336,-5.3832526206970215,5.761019706726074
1701857677043645400,11.0266455078125,-5.729015827178955,-5.426323413848877,5.775376319885254
1701857677053238500,11.036238525390624,-5.729015827178955,-5.42153787612915,5.770590782165527
1701857677062830800,11.045830810546875,-5.709873199462891,-5.435894966125488,5.772983551025391
1701857677072424200,11.055424072265625,-5.72422981262207,-5.440680503845215,5.792126178741455
1701857677082018000,11.06501806640625,-5.707480430603027,-5.395216941833496,5.784947872161865
1701857677091611100,11.074611083984376,-5.628218173980713,-5.455037593841553,5.86630392074585
1701857677101203500,11.084203369140624,-5.669195175170898,-5.433502197265625,5.875874996185303
1701857677110796800,11.093796875,-5.6548380851745605,-5.450251579284668,5.909374713897705
1701857677120390700,11.103390625,-5.702694416046143,-5.397609710693359,5.892624855041504
1701857677129983700,11.112983642578126,-5.669195175170898,-5.392824172973633,5.909374713897705
1701857677139576000,11.122576171875,-5.695516109466553,-5.352146148681641,5.8974103927612305
1701857677149169400,11.13216943359375,-5.690730571746826,-5.309075355529785,5.842375755310059
1701857677158763300,11.14176318359375,-5.683551788330078,-5.352146148681641,5.851946830749512
1701857677168356400,11.1513564453125,-5.688337802886963,-5.361717224121094,5.842375755310059
1701857677177948700,11.16094873046875,-5.700301647186279,-5.380859851837158,5.818447589874268
1701857677187542000,11.1705419921875,-5.690730571746826,-5.395216941833496,5.792126178741455
1701857677197136000,11.180135986328125,-5.714658737182617,-5.443073272705078,5.792126178741455
1701857677206729000,11.18972900390625,-5.946762561798096,-5.579763412475586,5.782555103302002
1701857677216321300,11.1993212890625,-5.302793979644775,-5.519942760467529,5.768198013305664
1701857677225914600,11.20891455078125,-5.6931233406066895,-5.48883581161499,5.765805244445801
1701857677235508500,11.218508544921875,-5.709873199462891,-5.534299850463867,5.770590782165527
1701857677245101600,11.2281015625,-5.671587944030762,-5.548656463623047,5.74187707901001
1701857677254694000,11.23769384765625,-5.657230854034424,-5.529513835906982,5.74187707901001
1701857677264287200,11.247287353515626,-5.695516109466553,-5.503192901611328,5.746662616729736
1701857677273881000,11.256881103515624,-5.714658737182617,-5.503192901611328,5.756234169006348
1701857677283474200,11.26647412109375,-5.7170515060424805,-5.481358528137207,5.753840923309326
1701857677293066500,11.27606640625,-5.712265968322754,-5.496014595031738,5.784947872161865
1701857677302659800,11.285659912109375,-5.815157413482666,-5.404788017272949,5.753840923309326
1701857677312253700,11.295253662109374,-5.784050464630127,-5.395216941833496,5.770590782165527
1701857677321847000,11.304846923828125,-5.7649078369140625,-5.261219024658203,5.73469877243042
1701857677331439000,11.314439208984375,-5.762515068054199,-5.282754421234131,5.772983551025391
1701857677341032400,11.324032470703125,-5.736194133758545,-5.316253662109375,5.799304962158203
1701857677350626300,11.333626220703126,-5.695516109466553,-5.352146148681641,5.816054344177246
1701857677360219600,11.3432197265625,-5.7720866203308105,-5.191826820373535,5.641378402709961
1701857677369812000,11.35281201171875,-5.803193092346191,-5.2253265380859375,5.775376319885254
1701857677379405000,11.362405029296875,-5.7792649269104,-5.285147190093994,5.775376319885254
1701857677388999000,11.3719990234375,-5.776872158050537,-5.325825214385986,5.80409049987793
1701857677398592000,11.381592041015624,-5.774479389190674,-5.380859851837158,5.80409049987793
1701857677408184600,11.3911845703125,-5.819942951202393,-5.364109992980957,5.761019706726074
1701857677417777700,11.400777587890625,-5.827121257781982,-5.450251579284668,5.806483268737793
1701857677427371500,11.41037158203125,-5.805585861206055,-5.440680503845215,5.7490553855896
1701857677436964900,11.41996484375,-5.810371398925781,-5.42153787612915,5.770590782165527
1701857677446557200,11.42955712890625,-5.796014785766602,-5.440680503845215,5.770590782165527
1701857677456150300,11.439150390625,-5.769693374633789,-5.447858810424805,5.770590782165527
1701857677465744100,11.448744140625,-5.731408596038818,-5.426323413848877,5.768198013305664
1701857677475337500,11.45833740234375,-5.709873199462891,-5.416752338409424,5.732305526733398
1701857677484929800,11.4679296875,-5.707480430603027,-5.416752338409424,5.751448154449463
1701857677494523000,11.47752294921875,-5.709873199462891,-5.423930644989014,5.746662616729736
1701857677504117000,11.487116943359375,-5.736194133758545,-5.440680503845215,5.7490553855896
1701857677513709800,11.496709716796875,-5.731408596038818,-5.443073272705078,5.744269847869873
1701857677523302400,11.506302490234376,-5.712265968322754,-5.447858810424805,5.729912757873535
1701857677532895500,11.5158955078125,-5.700301647186279,-5.435894966125488,5.717948913574219
1701857677542489600,11.525489501953125,-5.72422981262207,-5.416752338409424,5.7155561447143555
1701857677552082400,11.53508251953125,-5.7409796714782715,-5.431109428405762,5.725127220153809
1701857677561675000,11.544675048828125,-5.726622581481934,-5.4765729904174805,5.729912757873535
1701857677571268000,11.55426806640625,-5.748157978057861,-5.48883581161499,5.717948913574219
1701857677580862200,11.5638623046875,-5.774479389190674,-5.469394207000732,5.770590782165527
1701857677590455300,11.573455322265625,-5.781657695770264,-5.376074314117432,5.772983551025391
1701857677600047600,11.583047607421875,-5.7792649269104,-5.364109992980957,5.794518947601318
1701857677609640700,11.592640625,-5.736194133758545,-5.397609710693359,5.7873406410217285
1701857677619234800,11.60223486328125,-5.707480430603027,-5.459823131561279,5.744269847869873
1701857677628828000,11.611827880859375,-6.880561351776123,-5.945865154266357,5.619843006134033
1701857677638420200,11.621420166015625,-4.258925437927246,-5.54387092590332,6.1342997550964355
1701857677648013300,11.631013427734375,-5.66201639175415,-5.2013983726501465,5.684449195861816
1701857677657607400,11.640607421875,-5.750551223754883,-5.356931686401367,5.825625896453857
1701857677667200500,11.650200439453124,-5.6548380851745605,-5.220541000366211,5.775376319885254
1701857677676792800,11.659792724609375,-5.702694416046143,-5.239683151245117,5.859125137329102
1701857677686386000,11.669385986328125,-5.762515068054199,-5.208576679229736,5.890232086181641
1701857677695980000,11.67897998046875,-5.736194133758545,-5.232504844665527,5.8734822273254395
1701857677705573000,11.688572998046874,-5.669195175170898,-5.311468124389648,5.938088417053223
1701857677715165400,11.69816552734375,-5.652445316314697,-5.340181827545166,5.969195365905762
1701857677724758500,11.707758544921875,-5.6330037117004395,-5.340181827545166,5.983551979064941
1701857677734352600,11.7173525390625,-5.637789249420166,-5.378467082977295,6.002694606781006
1701857677743945700,11.72694580078125,-5.637789249420166,-5.378467082977295,6.017051696777344
1701857677753538000,11.7365380859375,-5.664409637451172,-5.376074314117432,6.012266159057617
1701857677763131100,11.746131103515625,-5.659623622894287,-5.388038158416748,6.019444465637207
1701857677772725200,11.755725341796875,-5.666802406311035,-5.431109428405762,6.007480144500732
1701857677782318300,11.765318359375,-5.618646621704102,-5.254040241241455,5.8351969718933105
1701857677791910700,11.77491064453125,-5.609075546264648,-5.234897613525391,5.799304962158203
1701857677801503700,11.784503662109374,-5.628218173980713,-5.306682586669922,5.806483268737793
1701857677811097900,11.794097900390625,-5.640182018280029,-5.378467082977295,5.808876037597656
1701857677820691000,11.80369091796875,-5.702694416046143,-5.423930644989014,5.816054344177246
1701857677830283300,11.813283203125,-5.72422981262207,-5.48883581161499,5.80409049987793
1701857677839876400,11.82287646484375,-5.738586902618408,-5.522335529327393,5.780162334442139
1701857677849470500,11.832470458984375,-5.7792649269104,-5.507978439331055,5.7634124755859375
1701857677859063600,11.8420634765625,-5.7792649269104,-5.503192901611328,5.722734451293945
1701857677868655900,11.85165576171875,-5.798407554626465,-5.491229057312012,5.703591823577881
1701857677878249000,11.8612490234375,-5.822335720062256,-5.500800132751465,5.665306568145752
1701857677887843000,11.870843017578125,-5.798407554626465,-5.493621826171875,5.641378402709961
1701857677897436200,11.880436279296875,-5.843871116638184,-5.474180221557617,5.650949954986572
1701857677907028500,11.890028564453125,-5.860620975494385,-5.440680503845215,5.607879161834717
1701857677916621600,11.89962158203125,-5.915655612945557,-5.368896007537842,5.571687698364258
1701857677926215700,11.909215576171874,-5.913262844085693,-5.321039199829102,5.588736534118652
1701857677935808800,11.918808837890625,-5.927619934082031,-5.313860893249512,5.612664699554443
1701857677945401000,11.928401123046875,-5.939583778381348,-5.309075355529785,5.636592864990234
1701857677954994200,11.937994140625,-5.968297958374023,-5.289932727813721,5.6294145584106445
1701857677964588300,11.94758837890625,-5.982655048370361,-5.26600456237793,5.593522071838379
1701857677974181400,11.957181396484375,-5.939583778381348,-5.316253662109375,5.670092582702637
1701857677983773700,11.966773681640625,-5.913262844085693,-5.388038158416748,5.7155561447143555
1701857677993367000,11.976366943359375,-5.829514026641846,-5.318646430969238,5.68684196472168
1701857678002961000,11.9859609375,-5.96590518951416,-5.2492547035217285,5.655735492706299
1701857678012554000,11.995553955078124,-5.865406513214111,-5.222933769226074,5.643771171569824
1701857678022146300,12.005146240234374,-5.7720866203308105,-5.337789058685303,5.705984592437744
1701857678031739600,12.01473974609375,-5.776872158050537,-5.344967365264893,5.7490553855896
1701857678041333500,12.02433349609375,-5.774479389190674,-5.397609710693359,5.794518947601318
1701857678050926600,12.033926513671876,-5.755336761474609,-5.3904314041137695,5.813661575317383
1701857678060519000,12.043518798828124,-5.757729530334473,-5.388038158416748,5.861518383026123
1701857678070112300,12.0531123046875,-5.762515068054199,-5.411966800689697,5.9452667236328125
1701857678079706000,12.0627060546875,-5.748157978057861,-5.440680503845215,6.050550937652588
1701857678089299200,12.07229931640625,-5.748157978057861,-5.507978439331055,6.057729721069336
1701857678098891500,12.0818916015625,-5.642574787139893,-5.282754421234131,5.880660533905029
1701857678108484900,12.09148486328125,-5.556433200836182,-5.287539958953857,5.914160251617432
1701857678118078700,12.10107861328125,-5.66201639175415,-5.3353962898254395,5.976373672485352
1701857678127671800,12.110671875,-5.72422981262207,-5.246861934661865,5.954838275909424
1701857678137264000,12.12026416015625,-5.927619934082031,-5.301896572113037,5.971588134765625
1701857678146857500,12.129857421875,-5.575575828552246,-5.230112075805664,6.02901554107666
1701857678156451300,12.139451416015625,-5.769693374633789,-5.2013983726501465,5.947659969329834
1701857678166044400,12.14904443359375,-5.839085578918457,-5.2109694480896,5.909374713897705
1701857678175636700,12.15863671875,-5.822335720062256,-5.282754421234131,5.839982986450195
1701857678185229800,12.168229736328126,-5.884549140930176,-5.187041282653809,5.7490553855896
1701857678194824000,12.177823974609375,-6.054439544677734,-5.416752338409424,5.744269847869873
1701857678204417000,12.1874169921875,-5.66201639175415,-4.88763952255249,5.655735492706299
1701857678214009300,12.19700927734375,-5.961119174957275,-4.9980082511901855,5.5692949295043945
1701857678223602400,12.2066025390625,-5.901298999786377,-5.136792182922363,5.607879161834717
1701857678233196500,12.216196533203124,-6.0879387855529785,-5.0602216720581055,5.583950519561768
1701857678242789600,12.22578955078125,-6.059225082397461,-5.081757068634033,5.607879161834717
1701857678252382000,12.2353818359375,-6.004190444946289,-5.029115200042725,5.67966365814209
1701857678261975000,12.24497509765625,-5.898906230926514,-4.959722995758057,5.641378402709961
1701857678271569200,12.254569091796874,-5.872584819793701,-4.96211576461792,5.68684196472168
1701857678281162200,12.264162353515625,-5.877370834350586,-5.014758110046387,5.708377361297607
1701857678290754600,12.273754638671875,-5.949155330657959,-5.088935375213623,5.7873406410217285
1701857678300347600,12.28334765625,-5.889334678649902,-5.143970489501953,5.844768524169922
1701857678309941800,12.292941650390626,-5.891727447509766,-5.105685234069824,5.768198013305664
1701857678319534800,12.302534912109374,-6.004190444946289,-5.1080780029296875,5.871089458465576
1701857678329127200,12.312127197265625,-6.150152206420898,-5.309075355529785,5.985944747924805
1701857678338720300,12.32172021484375,-6.147759437561035,-5.457430362701416,5.957231044769287
1701857678348314400,12.331314453125,-5.925227165222168,-5.076971530914307,5.701199054718018
1701857678357907500,12.340907470703126,-5.872584819793701,-5.00997257232666,5.615057468414307
1701857678367499800,12.350499755859374,-5.712265968322754,-5.041079044342041,5.68684196472168
1701857678377092900,12.3600927734375,-5.709873199462891,-5.00997257232666,5.713163375854492
