time,seconds_elapsed,z,y,x
1701865135348477000,0.098476806640625,6.457031726837158,4.913661479949951,0.14446666836738586
1701865135358262000,0.108261962890625,6.519245147705078,4.794020175933838,-0.6649056077003479
1701865135368046800,0.118046875,6.955038070678711,6.105885028839111,-2.496312141418457
1701865135377831700,0.127831787109375,7.254140853881836,6.855137825012207,-3.442075490951538
1701865135387616500,0.137616455078125,7.445865631103516,6.936792850494385,-3.559323787689209
1701865135397401300,0.1474013671875,7.6636128425598145,6.835995197296143,-3.3245279788970947
1701865135407186200,0.157186279296875,8.401200294494629,6.455536365509033,-2.7499513626098633
1701865135416971000,0.166970947265625,9.28445053100586,5.85703182220459,-2.072483539581299
1701865135426755800,0.176755859375,9.624530792236328,5.502594947814941,-1.4715858697891235
1701865135436540700,0.186540771484375,9.301200866699219,5.538486957550049,-1.2921242713928223
1701865135446325200,0.1963251953125,8.72183895111084,5.406881809234619,-1.1892328262329102
1701865135456110000,0.206110107421875,8.030014038085938,5.059623718261719,-1.033400297164917
1701865135465895000,0.21589501953125,7.83619499206543,4.97348165512085,-1.2346965074539185
1701865135475679500,0.225679443359375,7.860123157501221,5.203492164611816,-1.6175481081008911
1701865135485464300,0.23546435546875,7.807182312011719,5.500202178955078,-1.7422740459442139
1701865135495249000,0.245248779296875,7.2711896896362305,5.785246849060059,-1.5146567821502686
1701865135505033700,0.25503369140625,6.4187469482421875,5.91924524307251,-0.9927222728729248
1701865135514818300,0.264818359375,5.487340450286865,5.9264235496521,-0.3607180118560791
1701865135524603100,0.27460302734375,4.840979099273682,6.072385787963867,0.13250255584716797
1701865135534387700,0.2843876953125,4.433900356292725,6.266204357147217,0.30239295959472656
1701865135544172300,0.29417236328125,4.0558342933654785,6.285346984863281,0.13489536941051483
1701865135553957000,0.30395703125,3.8784663677215576,6.227919101715088,0.06071787327528
1701865135563741700,0.31374169921875,3.972085475921631,6.302395820617676,0.15643078088760376
1701865135573526500,0.323526611328125,4.058227062225342,6.544070720672607,0.16839489340782166
1701865135583311000,0.33331103515625,3.7133617401123047,7.453941822052002,-1.4069796800613403
1701865135593096000,0.343095947265625,4.039084434509277,9.802496910095215,-5.127519607543945
1701865135602880500,0.352880615234375,3.8545382022857666,9.330811500549316,-4.480859279632568
1701865135612665000,0.3626650390625,3.9529430866241455,7.022934436798096,-1.1219347715377808
1701865135622450000,0.372449951171875,4.977370262145996,6.596713066101074,0.14925231039524078
1701865135632234500,0.382234375,6.643671989440918,7.1856465339660645,0.17557336390018463
1701865135642019300,0.392019287109375,8.044370651245117,7.310073375701904,1.0372886657714844
1701865135651804000,0.401803955078125,8.86062240600586,7.013363361358643,2.018944025039673
1701865135661588700,0.411588623046875,8.903693199157715,6.900900363922119,2.1505494117736816
1701865135671373300,0.421373291015625,8.274081230163574,6.828816890716553,2.018944025039673
1701865135681158100,0.431158203125,7.563114166259766,6.792924404144287,1.7485551834106445
1701865135690942700,0.440942626953125,6.854539394378662,6.792924404144287,1.4300106763839722
1701865135700727300,0.450727294921875,6.492924213409424,7.089933395385742,0.9607182741165161
1701865135710512000,0.46051220703125,6.758826732635498,7.319644451141357,0.8482556343078613
1701865135720296700,0.470296630859375,7.309474945068359,7.159325122833252,1.3175479173660278
1701865135730081500,0.48008154296875,7.725826263427734,6.953542709350586,1.7724833488464355
1701865135739866000,0.4898662109375,8.051548957824707,6.845566272735596,1.932802438735962
1701865135749651000,0.49965087890625,8.130512237548828,6.773781776428223,1.7653049230575562
1701865135759435500,0.509435546875,8.03958511352539,6.685247421264648,1.449153184890747
1701865135769220000,0.51922021484375,8.020442008972168,6.661319255828857,1.1548360586166382
1701865135779005000,0.5290048828125,7.893622875213623,6.699604511260986,1.0660024881362915
1701865135788728800,0.538728759765625,7.764111042022705,6.699604511260986,1.1428718566894531
1701865135798321000,0.54832080078125,7.634898662567139,6.730710983276367,1.4156537055969238
1701865135807913500,0.55791357421875,7.453044414520264,6.8865437507629395,1.6381862163543701
1701865135817507000,0.567507080078125,7.376473903656006,7.085147857666016,1.7126628160476685
1701865135827099600,0.577099609375,7.108178615570068,7.300501823425293,1.6648063659667969
1701865135836691700,0.586691650390625,7.026822566986084,7.283751964569092,1.2864413261413574
1701865135846284300,0.5962841796875,6.8880391120910645,7.113861560821533,0.9343972206115723
1701865135855878000,0.6058779296875,6.840182781219482,6.948757171630859,0.9104689955711365
1701865135865470500,0.615470458984375,6.971787929534912,6.874579429626465,1.0085747241973877
1701865135875062500,0.6250625,7.115357398986816,6.857829570770264,1.1404790878295898
1701865135884655000,0.634655029296875,7.3645100593566895,6.852745056152344,1.2768700122833252
1701865135894248700,0.644248779296875,7.567899703979492,6.898507595062256,1.291226863861084
1701865135903841300,0.65384130859375,7.608577728271484,6.994220733642578,1.1165509223937988
1701865135913433300,0.663433349609375,7.572685241699219,7.082755088806152,0.898504912853241
1701865135923026000,0.67302587890625,7.524828910827637,7.140182971954346,0.7836494445800781
1701865135932619500,0.68261962890625,7.6013994216918945,7.207181930541992,0.7980063557624817
1701865135942212400,0.69221240234375,7.855337619781494,7.154539585113525,0.8410771489143372
1701865135951804200,0.70180419921875,8.166404724121094,6.8865437507629395,1.0372886657714844
1701865135961397000,0.71139697265625,8.506484031677246,6.634998321533203,1.3510475158691406
1701865135970990600,0.720990478515625,8.630910873413086,6.548856258392334,1.571187138557434
1701865135980583200,0.730583251953125,8.508877754211426,6.567998886108398,1.5137593746185303
1701865135990175000,0.740175048828125,8.353044509887695,6.656533718109131,1.3725829124450684
1701865135999767800,0.749767822265625,8.111370086669922,6.728318214416504,1.212263822555542
1701865136009361400,0.759361328125,7.809575080871582,6.771389007568359,0.9559326171875
1701865136018954000,0.7689541015625,7.704290866851807,6.809674263000488,0.6640082597732544
1701865136028545800,0.7785458984375,7.788039684295654,6.735496520996094,0.5225326418876648
1701865136038138600,0.788138671875,8.075477600097656,6.615855693817139,0.27367907762527466
1701865136047732200,0.797732177734375,8.374580383300781,6.570391654968262,0.2593221664428711
1701865136057324800,0.80732470703125,8.695517539978027,6.630212306976318,0.8291130661964417
1701865136066916600,0.81691650390625,8.920442581176758,6.350252151489258,1.1572288274765015
1701865136076509400,0.826509521484375,8.738588333129883,6.196812629699707,1.1524431705474854
1701865136086103000,0.83610302734375,8.451449394226074,6.223133563995361,0.8745766878128052
1701865136095695600,0.845695556640625,8.154440879821777,6.26141881942749,0.6759724020957947
1701865136105287700,0.85528759765625,7.852944850921631,6.419643878936768,0.623330295085907
1701865136114880300,0.86488037109375,7.515257835388184,6.5751776695251465,0.4794618487358093
1701865136124473900,0.874473876953125,7.156035423278809,6.666104793548584,0.3119642436504364
1701865136134066400,0.88406640625,6.9358954429626465,6.7091755867004395,0.30239295959472656
1701865136143658500,0.893658447265625,6.883253574371338,6.685247421264648,0.4866403043270111
1701865136153251000,0.9032509765625,6.933502674102783,6.608676910400391,0.7405785918235779
1701865136162844700,0.9128447265625,6.900003433227539,6.57757043838501,0.9367900490760803
1701865136172437200,0.922437255859375,6.830611228942871,6.548856258392334,1.01814603805542
1701865136182029300,0.932029296875,6.646064758300781,6.563213348388672,1.077966570854187
1701865136191622000,0.941621826171875,6.476174354553223,6.620641231536865,1.1356934309005737
1701865136201215500,0.951215576171875,6.3254265785217285,6.690032958984375,1.150050401687622
1701865136210808000,0.96080810546875,6.16271448135376,6.800102710723877,0.9942178130149841
1701865136220400000,0.970400146484375,5.999703884124756,6.900900363922119,0.8171489238739014
1701865136229992700,0.97999267578125,5.961418628692627,6.943971157073975,0.7022934556007385
1701865136239586300,0.98958642578125,6.002096652984619,6.97268533706665,0.5826523303985596
1701865136249179100,0.99917919921875,6.203392505645752,6.91765022277832,0.5419743061065674
1701865136258771000,1.00877099609375,6.483353137969971,6.869793891906738,0.625723123550415
1701865136268363500,1.018363525390625,6.756433963775635,6.807281494140625,0.6783652305603027
1701865136277957000,1.02795703125,6.969395160675049,6.752246379852295,0.623330295085907
1701865136287550000,1.037550048828125,7.141678333282471,6.70199728012085,0.592223584651947
1701865136297141800,1.047141845703125,7.167999267578125,6.685247421264648,0.625723123550415
1701865136306734600,1.056734619140625,7.225427150726318,6.7091755867004395,0.6975077986717224
1701865136316328200,1.066328125,7.264011383056641,6.783353328704834,0.7357929348945618
1701865136325920800,1.075920654296875,7.172784805297852,6.915257453918457,0.7525427341461182
1701865136335512600,1.0855126953125,7.036394119262695,6.92482852935791,0.7286145091056824
1701865136345105400,1.09510546875,6.909574508666992,6.908079147338867,0.6544370055198669
1701865136354699000,1.104698974609375,6.885646343231201,6.874579429626465,0.6735795736312866
1701865136364291600,1.11429150390625,6.9119672775268555,6.752246379852295,0.7238288521766663
1701865136373883400,1.12388330078125,7.060322284698486,6.6230340003967285,0.6903293132781982
1701865136383476200,1.133476318359375,7.275975227355957,6.5081787109375,0.6520441770553589
1701865136393069800,1.14306982421875,7.532007694244385,6.44596529006958,0.656829833984375
1701865136402662400,1.152662353515625,7.72104024887085,6.426822662353516,0.6879364848136902
1701865136412254200,1.162254150390625,7.824231147766113,6.422036647796631,0.778863787651062
1701865136421847000,1.171846923828125,7.747361660003662,6.455536365509033,0.8602197170257568
1701865136431440600,1.181440673828125,7.65164852142334,6.534499645233154,0.8769695162773132
1701865136441033200,1.191033203125,7.675576686859131,6.565606117248535,0.9080761671066284
1701865136450625300,1.200625244140625,7.71386194229126,6.558427810668945,1.0660024881362915
1701865136460217900,1.2102177734375,7.718647480010986,6.579963207244873,1.181157112121582
1701865136469811500,1.2198115234375,7.627720355987549,6.570391654968262,1.2601202726364136
1701865136479404000,1.229404052734375,7.496115207672119,6.572784900665283,1.3989039659500122
1701865136488996000,1.23899609375,7.340581893920898,6.565606117248535,1.4850455522537231
1701865136498588700,1.248588623046875,7.108178615570068,6.589534282684326,1.5376876592636108
1701865136508182300,1.258182373046875,6.885646343231201,6.615855693817139,1.6142579317092896
1701865136517774800,1.26777490234375,6.856932163238525,6.627819538116455,1.700698733329773
1701865136527367000,1.277366943359375,7.079464912414551,6.611069679260254,1.846660852432251
1701865136536959500,1.28695947265625,7.256833076477051,6.57757043838501,1.9806588888168335
1701865136546553000,1.296552978515625,7.319046497344971,6.532106876373291,1.9639091491699219
1701865136556145700,1.306145751953125,7.283154010772705,6.529714107513428,1.82273268699646
1701865136565737700,1.31573779296875,7.227819919586182,6.5512495040893555,1.7341982126235962
1701865136575330300,1.325330322265625,7.249355316162109,6.4579291343688965,1.8370895385742188
1701865136584924000,1.334923828125,7.227819919586182,6.400501251220703,1.8897316455841064
1701865136594516700,1.344516845703125,7.227819919586182,6.352644920349121,1.9543378353118896
1701865136604108500,1.354108642578125,7.191927433013916,6.3239312171936035,1.9160526990890503
1701865136613701400,1.363701416015625,7.057929515838623,6.302395820617676,1.7916259765625
1701865136623294700,1.373294677734375,6.99332332611084,6.345466613769531,1.597508192062378
1701865136632887600,1.382887451171875,7.036394119262695,6.343073844909668,1.4874383211135864
1701865136642479400,1.392479248046875,7.206284523010254,6.340681076049805,1.5376876592636108
1701865136652072200,1.402072265625,7.4841508865356445,6.311966896057129,1.6671991348266602
1701865136661665500,1.41166552734375,7.747361660003662,6.294918060302734,1.7461622953414917
1701865136671258400,1.42125830078125,7.922336578369141,6.2327046394348145,1.784447431564331
1701865136680850200,1.43085009765625,7.986942768096924,6.220740795135498,1.8299111127853394
1701865136690443000,1.440443115234375,7.974978923797607,6.227919101715088,1.8873388767242432
1701865136700036400,1.450036376953125,7.8888373374938965,6.2159552574157715,1.9351953268051147
1701865136709629200,1.459629150390625,7.780860900878906,6.2159552574157715,1.9639091491699219
1701865136719221000,1.469220947265625,7.642077445983887,6.249454498291016,1.9830517768859863
1701865136728813800,1.478813720703125,7.510472297668457,6.273382663726807,1.9304096698760986
1701865136738407200,1.4884072265625,7.3645100593566895,6.32153844833374,1.82273268699646
1701865136748000000,1.498,7.304689407348633,6.39093017578125,1.7796618938446045
1701865136757591800,1.507591796875,7.297510623931885,6.429215431213379,1.784447431564331
1701865136767184600,1.5171845703125,7.2951178550720215,6.426822662353516,1.7868403196334839
1701865136776778200,1.5267783203125,7.323832035064697,6.400501251220703,1.7796618938446045
1701865136786370800,1.536370849609375,7.376473903656006,6.359823703765869,1.85383939743042
1701865136795962600,1.545962646484375,7.4841508865356445,6.340681076049805,1.932802438735962
1701865136805555500,1.555555419921875,7.591827869415283,6.343073844909668,2.018944025039673
1701865136815149000,1.565149169921875,7.634898662567139,6.326323986053467,2.1266210079193115
1701865136824741600,1.57474169921875,7.584649562835693,6.364609241485596,2.277667999267578
1701865136834333400,1.58433349609375,7.3645100593566895,6.388537406921387,2.4068803787231445
1701865136843926300,1.59392626953125,7.158428192138672,6.4100728034973145,2.4619154930114746
1701865136853520000,1.603519775390625,7.031608581542969,6.448358058929443,2.440380096435547
1701865136863112400,1.613112548828125,6.957430839538574,6.467500686645508,2.4212374687194824
1701865136872704300,1.622704345703125,6.928717136383057,6.462714672088623,2.3685953617095947
1701865136882297000,1.632297119140625,6.933502674102783,6.4340009689331055,2.3973093032836914
1701865136891890700,1.641890625,6.907181739807129,6.414858341217041,2.4164516925811768
1701865136901483300,1.651483154296875,6.868896484375,6.412465572357178,2.3973093032836914
1701865136911075300,1.661075439453125,6.928717136383057,6.378965854644775,2.435594320297241
1701865136920668000,1.67066796875,6.909574508666992,6.359823703765869,2.4451656341552734
1701865136930261500,1.680261474609375,6.919145584106445,6.333502292633057,2.378166675567627
1701865136939854000,1.68985400390625,6.9837517738342285,6.311966896057129,2.361416816711426
1701865136949446100,1.699446044921875,7.072286605834961,6.307181358337402,2.3374886512756348
1701865136959038700,1.709038818359375,7.196712970733643,6.273382663726807,2.347059965133667
1701865136968632300,1.71863232421875,7.304689407348633,6.278168201446533,2.315953254699707
1701865136978225000,1.728224853515625,7.347760200500488,6.2638115882873535,2.3207387924194336
1701865136987817000,1.73781689453125,7.321439266204834,6.282954216003418,2.339881420135498
1701865136997409500,1.747409423828125,7.311867713928223,6.292525291442871,2.44277286529541
1701865137007003100,1.757003173828125,7.2711896896362305,6.282954216003418,2.5241286754608154
1701865137016595700,1.766595703125,7.261618614196777,6.280561447143555,2.50498628616333
1701865137026187800,1.776187744140625,7.249355316162109,6.249454498291016,2.4523441791534424
1701865137035780400,1.7857802734375,7.237390995025635,6.235097408294678,2.3997020721435547
1701865137045374000,1.7953740234375,7.239784240722656,6.19920539855957,2.2896320819854736
1701865137054966500,1.804966552734375,7.225427150726318,6.160920143127441,2.1816561222076416
1701865137064558600,1.81455859375,7.273582458496094,6.113063812255859,2.1505494117736816
1701865137074151200,1.824151123046875,7.347760200500488,6.093921184539795,2.186441659927368
1701865137083744800,1.833744873046875,7.431509017944336,6.072385787963867,2.191227436065674
1701865137093337300,1.84333740234375,7.467401027679443,6.093921184539795,2.1122641563415527
1701865137102929400,1.852929443359375,7.488936901092529,6.117849349975586,2.0141584873199463
1701865137112522000,1.86252197265625,7.555935859680176,6.134599208831787,1.9016958475112915
1701865137122115600,1.872115478515625,7.627720355987549,6.180062770843506,1.9543378353118896
1701865137131708200,1.881708251953125,7.603792190551758,6.182455539703369,2.0452651977539062
1701865137141300200,1.89130029296875,7.515257835388184,6.168098449707031,2.0380866527557373
1701865137150892800,1.900892822265625,7.307082176208496,6.19920539855957,2.076371908187866
1701865137160486400,1.910486328125,7.215855598449707,6.208776473999023,2.2178475856781006
1701865137170079200,1.920079345703125,7.244569778442383,6.184848308563232,2.2489542961120605
1701865137179671000,1.929671142578125,7.244569778442383,6.14417028427124,2.3255245685577393
1701865137189264000,1.939263916015625,7.1799635887146,6.158527374267578,2.4523441791534424
1701865137198857200,1.948857177734375,7.0531439781188965,6.20638370513916,2.4475584030151367
1701865137208450000,1.958449951171875,6.689135551452637,6.237490653991699,2.4308087825775146
1701865137218041900,1.968041748046875,6.337390899658203,6.237490653991699,2.3925235271453857
1701865137227634700,1.977634765625,6.205785751342773,6.218348026275635,2.3901307582855225
1701865137237228000,1.98722802734375,6.205785751342773,6.172883987426758,2.6174488067626953
1701865137246820900,1.99682080078125,6.246463298797607,6.0987067222595215,2.840280532836914
1701865137256412700,2.00641259765625,6.457031726837158,5.979065418243408,2.909672260284424
1701865137266005500,2.016005615234375,6.856932163238525,5.766104221343994,2.5719852447509766
1701865137275598800,2.025598876953125,7.072286605834961,5.502594947814941,2.0572292804718018
1701865137285191700,2.035191650390625,7.069893836975098,5.248955726623535,1.444367527961731
1701865137294783500,2.044783447265625,6.878467559814453,4.983053207397461,1.1333006620407104
1701865137304376300,2.054376220703125,6.751648426055908,4.753342151641846,1.1309077739715576
1701865137313969700,2.0639697265625,6.6484575271606445,4.4874396324157715,1.1572288274765015
1701865137323562500,2.0735625,6.612565517425537,3.96789813041687,1.1117652654647827
1701865137333154300,2.083154296875,6.9430742263793945,3.3143584728240967,1.0660024881362915
1701865137342747100,2.0927470703125,7.311867713928223,2.68953275680542,1.2098709344863892
1701865137352340700,2.1023408203125,7.752147197723389,2.1317057609558105,1.5544373989105225
1701865137361933300,2.111933349609375,8.283653259277344,1.6576279401779175,2.121835470199585
1701865137371525000,2.121525146484375,7.941479206085205,1.454237937927246,2.215454578399658
1701865137381118000,2.131117919921875,7.409973621368408,1.114158034324646,4.11625337600708
1701865137390711600,2.140711669921875,7.057929515838623,0.39840495586395264,6.27577543258667
1701865137400304000,2.15030419921875,6.749255180358887,0.11814561486244202,7.458428382873535
1701865137409896000,2.15989599609375,6.571887493133545,0.1782652884721756,7.530212879180908
1701865137419488800,2.16948876953125,6.315855503082275,0.11814561486244202,7.264609336853027
1701865137429082400,2.179082275390625,6.090631008148193,-0.0445663221180439,7.130312442779541
1701865137438675000,2.188675048828125,5.456233978271484,-0.31734809279441833,7.341179847717285
1701865137448266800,2.198266845703125,4.371686935424805,-0.8368897438049316,7.412964344024658
1701865137457859600,2.207859619140625,3.3807592391967773,-1.2032907009124756,7.357929706573486
1701865137467453200,2.217453125,2.418246269226074,-1.5744773149490356,7.668996810913086
1701865137477045800,2.227045654296875,1.4485549926757812,-1.8855443000793457,8.111968040466309
1701865137486637800,2.236637939453125,0.5003990530967712,-2.1394824981689453,8.542975425720215
1701865137496230400,2.24623046875,-0.15074782073497772,-2.3141586780548096,8.885149002075195
1701865137505824000,2.255823974609375,-0.7947162389755249,-2.3596222400665283,9.079266548156738
1701865137515416600,2.26541650390625,-1.3692927360534668,-2.239981174468994,9.594022750854492
1701865137525008600,2.275008544921875,-2.0706889629364014,-2.0793628692626953,9.981659889221191
1701865137534601200,2.284601318359375,-2.616551637649536,-2.0554347038269043,10.163813591003418
1701865137544194800,2.29419482421875,-2.935096025466919,-1.9094724655151367,10.197312355041504
1701865137553787400,2.303787353515625,-3.1983065605163574,-1.576870083808899,10.068099975585938
1701865137563379200,2.313379150390625,-3.329911708831787,-1.6534404754638672,9.950552940368652
1701865137572972000,2.322971923828125,-3.617349624633789,-2.302194595336914,10.159028053283691
1701865137582565600,2.332565673828125,-3.6699917316436768,-2.4337997436523438,10.331311225891113
1701865137592158200,2.342158203125,-3.545564889907837,-2.2998015880584717,10.84606647491455
1701865137601750300,2.351750244140625,-3.4067811965942383,-2.2280170917510986,11.260324478149414
1701865137611342800,2.3613427734375,-3.2605199813842773,-2.0578274726867676,11.262717247009277
1701865137620936400,2.3709365234375,-3.1504502296447754,-1.8400806188583374,10.941780090332031
1701865137630529000,2.380529052734375,-2.8103702068328857,-1.7730815410614014,10.470094680786133
1701865137640121000,2.39012109375,-2.2788643836975098,-1.8424733877182007,9.926624298095703
1701865137649713700,2.399713623046875,-1.591825246810913,-2.129911184310913,9.864411354064941
1701865137659307300,2.409307373046875,-0.7636095285415649,-2.680260419845581,10.630712509155273
1701865137668899800,2.41889990234375,-0.1339980661869049,-3.2237303256988525,11.454142570495605
1701865137678492000,2.428491943359375,0.20129621028900146,-3.7456648349761963,11.83729362487793
1701865137688084500,2.43808447265625,0.2874378263950348,-4.040280818939209,11.84447193145752
1701865137697678000,2.447677978515625,0.15583257377147675,-4.085744857788086,11.633605003356934
1701865137707270700,2.457270751953125,-0.24167509377002716,-3.9493536949157715,11.135598182678223
1701865137716862700,2.46686279296875,-0.8258228898048401,-3.841676712036133,10.266704559326172
1701865137726455300,2.476455322265625,-1.350150227546692,-3.798306941986084,9.234800338745117
1701865137736049000,2.486048828125,-1.80508553981781,-3.8392839431762695,8.341678619384766
1701865137745641500,2.495641357421875,-3.0667014122009277,-3.9397823810577393,7.87986421585083
1701865137755233500,2.505233642578125,-2.5639095306396484,-3.844069480895996,7.185347080230713
1701865137764826000,2.514826171875,-2.202294111251831,-4.4018964767456055,7.29810905456543
1701865137774419700,2.524419677734375,-2.92073917388916,-4.897210597991943,7.934898853302002
1701865137784012300,2.53401220703125,-3.4498519897460938,-4.9501519203186035,6.855137825012207
1701865137793604400,2.543604248046875,-3.624528169631958,-5.505585670471191,6.048158168792725
1701865137803197000,2.553197021484375,-2.4705893993377686,-6.606583118438721,7.235596656799316
1701865137812790500,2.56279052734375,3.3592238426208496,-7.784749507904053,14.31745433807373
1701865137822383000,2.572383056640625,7.024429798126221,-5.881258964538574,12.572189331054688
1701865137831975200,2.58197509765625,4.8553361892700195,-5.965007781982422,11.928220748901367
1701865137841567700,2.591567626953125,1.6184453964233398,-6.441478729248047,11.332108497619629
1701865137851161300,2.601161376953125,-6.425626277923584,-8.407182693481445,9.27308464050293
1701865137860754000,2.61075390625,-8.35274600982666,-8.644071578979492,4.834399223327637
1701865137870346000,2.620345947265625,8.027621269226074,-6.984948635101318,4.3794636726379395
1701865137879938600,2.6299384765625,3.0717861652374268,-3.743271827697754,2.035693883895874
1701865137889532200,2.6395322265625,-1.1321041584014893,-7.392027378082275,8.444869041442871
1701865137899124700,2.649124755859375,-1.8266209363937378,-8.213064193725586,8.736793518066406
1701865137908716800,2.658716796875,-0.8976075649261475,-7.130910396575928,8.234002113342285
1701865137918309400,2.668309326171875,-0.5072783827781677,-7.526025295257568,9.139086723327637
1701865137927903000,2.677903076171875,-0.9023932218551636,-7.904390335083008,9.732806205749512
1701865137937495600,2.68749560546875,-1.7835501432418823,-8.16999340057373,9.850054740905762
1701865137947087600,2.697087646484375,-2.0419750213623047,-7.432705402374268,7.9229350090026855
1701865137956680200,2.70668017578125,-2.0970098972320557,-7.808677673339844,8.408976554870605
1701865137966273800,2.716273681640625,-1.4626128673553467,-7.308278560638428,7.855936050415039
1701865137975866400,2.725866455078125,-0.4043870270252228,-7.126124858856201,7.101598739624023
1701865137985458400,2.73545849609375,-0.15553347766399384,-6.999305248260498,6.567699909210205
1701865137995051000,2.745051025390625,0.6035895347595215,-7.756035327911377,6.2566328048706055
1701865138004644600,2.75464453125,0.23718854784965515,-7.030412197113037,6.6418776512146
1701865138014237200,2.7642373046875,-0.3565305769443512,-6.834200382232666,6.306882381439209
1701865138023829200,2.773829345703125,-0.4570291340351105,-7.080661296844482,6.493522644042969
1701865138033421800,2.783421875,-0.6487540602684021,-7.837391376495361,6.017051696777344
1701865138043015400,2.793015380859375,-0.6080760359764099,-7.966603755950928,6.230311870574951
1701865138052608000,2.80260791015625,-0.6655037999153137,-6.872485637664795,6.316453456878662
1701865138062200000,2.812199951171875,0.7304090857505798,-6.934699058532715,6.3499531745910645
1701865138071792600,2.821792724609375,-0.885643482208252,-7.657630443572998,6.448058605194092
1701865138081386200,2.83138623046875,-1.3692927360534668,-7.655237674713135,5.6222357749938965
1701865138090978800,2.840978759765625,-1.6707884073257446,-8.361719131469727,5.528616905212402
1701865138100571000,2.85057080078125,-0.9071788787841797,-10.0040922164917,5.3802618980407715
1701865138110163500,2.86016357421875,-0.014057832770049572,-12.026925086975098,5.954838275909424
1701865138119757000,2.869757080078125,0.9553344249725342,-9.474979400634766,3.328416347503662
1701865138129349600,2.879349609375,0.9960124492645264,-7.262814998626709,0.4220340847969055
1701865138138941700,2.888941650390625,-0.6415755748748779,-7.954639911651611,2.1266210079193115
1701865138148534300,2.8985341796875,-1.6396816968917847,-8.723034858703613,3.1585259437561035
1701865138158127900,2.9081279296875,-1.4865410327911377,-9.170791625976562,3.108276605606079
1701865138167720400,2.917720458984375,-1.2424731254577637,-9.297611236572266,3.0484559535980225
1701865138177312500,2.9273125,-0.4139583110809326,-8.955437660217285,4.602295398712158
1701865138186905000,2.936905029296875,-0.5694918036460876,-9.381360054016113,5.011467933654785
1701865138196498700,2.946498779296875,-0.6032904386520386,-9.642477035522461,3.821636915206909
1701865138206091500,2.956091552734375,-0.3326023519039154,-9.558728218078613,2.9048867225646973
1701865138215683300,2.965683349609375,-0.6343970894813538,-9.506086349487305,2.323131799697876
1701865138225276000,2.97527587890625,-0.6966105103492737,-9.575477600097656,2.2968106269836426
1701865138234869500,2.984869384765625,-0.7133602499961853,-9.628120422363281,2.052443504333496
1701865138244462000,2.994462158203125,-1.3812568187713623,-9.37178897857666,1.547258973121643
1701865138254054100,3.00405419921875,-1.994118571281433,-9.156435012817383,1.9399809837341309
1701865138263646700,3.013646728515625,-1.2113664150238037,-8.16281509399414,2.114656925201416
1701865138273240300,3.023240234375,0.1821536272764206,-8.395217895507812,1.1620144844055176
1701865138282833000,3.0328330078125,-2.0347964763641357,-14.643775939941406,3.290131092071533
1701865138292425000,3.042425048828125,0.15583257377147675,-14.08834171295166,3.90568470954895
1701865138302017500,3.052017578125,0.7998009920120239,-10.978270530700684,1.7533408403396606
1701865138311611100,3.061611083984375,-0.4211367964744568,-12.084352493286133,1.5879368782043457
1701865138321204000,3.071203857421875,-1.1850453615188599,-13.147363662719727,2.54327130317688
1701865138330795800,3.080795654296875,-0.768395185470581,-13.11386489868164,2.495414972305298
1701865138340388400,3.090388427734375,-0.5168496966362,-12.757035255432129,2.833101987838745
1701865138349982000,3.09998193359375,-0.2847459018230438,-11.952747344970703,3.0005996227264404
1701865138359574500,3.109574462890625,-0.24406790733337402,-10.920842170715332,2.57437801361084
1701865138369166600,3.11916650390625,-0.28235307335853577,-9.809974670410156,1.7629120349884033
1701865138378759200,3.12875927734375,-0.2105683982372284,-8.955437660217285,1.1572288274765015
1701865138388352800,3.138352783203125,-0.20817556977272034,-8.35453987121582,0.8410771489143372
1701865138397945300,3.1479453125,-0.5742774605751038,-8.550751686096191,0.7238288521766663
1701865138407537400,3.157537353515625,-0.4977070987224579,-9.180362701416016,0.8291130661964417
1701865138417130000,3.1671298828125,-0.42352959513664246,-9.853045463562012,0.6329016089439392
1701865138426723600,3.1767236328125,-2.911167860031128,-3.0586254596710205,-0.7151548862457275
1701865138436316400,3.18631640625,-2.685943365097046,-4.9501519203186035,1.272084355354309
1701865138445908200,3.195908203125,0.5003990530967712,-6.874878406524658,0.6927221417427063
1701865138455500800,3.205500732421875,0.9361918568611145,-8.220243453979492,0.2641077935695648
1701865138465094400,3.215094482421875,-0.9430712461471558,-8.83071231842041,0.6376872062683105
1701865138474687000,3.22468701171875,-1.9989042282104492,-8.040781021118164,0.32632118463516235
1701865138484279000,3.234279052734375,-1.6372889280319214,-10.123733520507812,2.0380866527557373
1701865138493871600,3.24387158203125,-1.5391831398010254,-8.297112464904785,-0.16450655460357666
1701865138503465200,3.25346533203125,-1.4195420742034912,-10.22901725769043,0.125324085354805
1701865138513057800,3.263057861328125,-1.0220344066619873,-11.895319938659668,0.9822536706924438
1701865138522649900,3.27264990234375,-0.3445664644241333,-15.457633972167969,2.521735906600952
1701865138532242400,3.282242431640625,0.036191441118717194,-19.252351760864258,4.645366191864014
1701865138541836000,3.2918359375,0.9505487680435181,-15.895819664001465,3.474677562713623
1701865138551428600,3.3014287109375,1.4222339391708374,-11.900105476379395,1.6815561056137085
1701865138561020700,3.311020751953125,0.6035895347595215,-11.153244972229004,0.33828529715538025
1701865138570613200,3.32061328125,-0.39481574296951294,-10.954341888427734,0.5682953596115112
1701865138580206800,3.330206787109375,-0.7396813035011292,-10.760523796081543,1.1021939516067505
1701865138589799400,3.33979931640625,-0.8401798605918884,-10.461121559143066,1.0755738019943237
1701865138599391500,3.3493916015625,-1.0220344066619873,-10.152447700500488,0.9248259663581848
1701865138608984000,3.358984130859375,-1.225723385810852,-9.932008743286133,0.8386843204498291
1701865138618577700,3.36857763671875,-1.3764712810516357,-9.795618057250977,0.8769695162773132
1701865138628170200,3.378170166015625,-1.3956137895584106,-9.740582466125488,0.9343972206115723
1701865138637762300,3.38776220703125,-1.2281162738800049,-9.886545181274414,0.98703932762146
1701865138647355000,3.39735498046875,-0.9717850685119629,-10.116555213928223,1.1117652654647827
1701865138656948500,3.406948486328125,-1.1488540172576904,-10.272088050842285,0.8123632669448853
1701865138666541000,3.416541015625,-0.5527420043945312,-10.446764945983887,0.778863787651062
1701865138676133000,3.426133056640625,-0.6056832075119019,-10.535299301147461,0.7836494445800781
1701865138685725700,3.4357255859375,-0.7636095285415649,-10.511370658874512,0.7740781307220459
1701865138695319300,3.4453193359375,-0.9287142753601074,-10.279267311096191,0.7956135272979736
1701865138704912000,3.454911865234375,-0.8401798605918884,-10.078269958496094,0.9918249845504761
1701865138714504000,3.46450390625,-1.09381902217865,-9.984950065612793,1.1261221170425415
1701865138724096500,3.474096435546875,-1.3070793151855469,-9.654440879821777,1.0660024881362915
1701865138733690000,3.483690185546875,1.4820544719696045,-6.608976364135742,-1.0142576694488525
1701865138743282700,3.49328271484375,-1.7931214570999146,-6.441478729248047,-2.941676378250122
1701865138752874800,3.502874755859375,-3.061915636062622,-8.483752250671387,-0.7199404835700989
1701865138762467300,3.51246728515625,-0.8258228898048401,-10.595418930053711,2.3350958824157715
1701865138772061000,3.52206103515625,-1.4075778722763062,-11.947961807250977,3.5727832317352295
1701865138781653500,3.531653564453125,-1.8290138244628906,-11.890533447265625,3.136990547180176
1701865138791245600,3.54124560546875,-1.3980066776275635,-11.105388641357422,1.7509479522705078
1701865138800838100,3.550838134765625,-0.9717850685119629,-10.240982055664062,0.38614174723625183
1701865138810431700,3.560431640625,-0.8090731501579285,-9.831509590148926,-0.06400800496339798
1701865138820024300,3.5700244140625,-0.8425726890563965,-9.78126049041748,-0.047258246690034866
1701865138829616400,3.579616455078125,-0.8641080856323242,-9.843474388122559,0.06550352275371552
1701865138839209000,3.589208984375,-0.8808578252792358,-9.89850902557373,0.14925231039524078
1701865138848802600,3.598802490234375,-0.9023932218551636,-9.860223770141602,0.14925231039524078
1701865138858395100,3.60839501953125,-0.9669994711875916,-9.79801082611084,0.1301097273826599
1701865138867987200,3.6179873046875,-1.0531411170959473,-9.800403594970703,0.1301097273826599
1701865138877579800,3.627579833984375,-1.074676513671875,-9.853045463562012,0.1420738399028778
1701865138887173400,3.63717333984375,-1.0268200635910034,-9.948758125305176,0.16121642291545868
1701865138896766000,3.646765869140625,-0.9334999322891235,-10.044770240783691,0.1707877218723297
1701865138906358000,3.65635791015625,-0.8377870321273804,-10.104591369628906,0.1827518343925476
1701865138915950600,3.66595068359375,-0.766002357006073,-10.12134075164795,0.20907287299633026
1701865138925544200,3.675544189453125,-0.768395185470581,-10.111769676208496,0.20428723096847534
1701865138935136800,3.68513671875,-0.7779664397239685,-10.12134075164795,0.1947159469127655
1701865138944728800,3.694728759765625,-0.8018946647644043,-10.10698413848877,0.19950158894062042
1701865138954321400,3.7043212890625,-0.8138588070869446,-10.099804878234863,0.20428723096847534
1701865138963915000,3.7139150390625,-0.7923234105110168,-10.09023380279541,0.21385852992534637
1701865138973507600,3.723507568359375,-0.8018946647644043,-10.099804878234863,0.21625134348869324
1701865138983099600,3.733099609375,-0.7827520966529846,-10.104591369628906,0.2066800594329834
1701865138992692200,3.742692138671875,-0.7612167000770569,-10.078269958496094,0.21385852992534637
1701865139002285800,3.752285888671875,-0.7109674215316772,-10.016056060791016,0.271286278963089
1701865139011878400,3.76187841796875,-0.7157530784606934,-9.941579818725586,0.3574278950691223
1701865139021470500,3.771470458984375,-0.7157530784606934,-9.850652694702148,0.41964125633239746
1701865139031063000,3.78106298828125,-0.7205387353897095,-9.769296646118164,0.5177469849586487
1701865139040656600,3.79065673828125,-0.7157530784606934,-9.733404159545898,0.5946164131164551
1701865139050249200,3.800249267578125,-0.7492526173591614,-9.685547828674316,0.7166503667831421
1701865139059841000,3.809841064453125,-0.7851449251174927,-9.620942115783691,0.778863787651062
1701865139069433900,3.819433837890625,-0.7923234105110168,-9.544371604919434,0.8075776696205139
1701865139079027500,3.82902734375,-0.7755736112594604,-9.496515274047852,0.7980063557624817
1701865139088620000,3.8386201171875,-0.7636095285415649,-9.498908042907715,0.8219345808029175
1701865139098212000,3.848212158203125,-0.766002357006073,-9.498908042907715,0.8721838593482971
1701865139107804700,3.8578046875,-0.7612167000770569,-9.479764938354492,0.9104689955711365
1701865139117398300,3.867398193359375,-0.7516453862190247,-9.496515274047852,0.9583254456520081
1701865139126990800,3.876990966796875,-0.797109067440033,-9.522835731506348,0.9990034699440002
1701865139136582700,3.886582763671875,-0.8449655175209045,-9.534799575805664,1.0444670915603638
1701865139146175500,3.896175537109375,-0.8784649968147278,-9.565906524658203,1.1021939516067505
1701865139155769000,3.90576904296875,-0.8952147960662842,-9.606584548950195,1.1668001413345337
1701865139165361700,3.915361572265625,-0.9239286184310913,-9.66640567779541,1.2074781656265259
1701865139174953500,3.924953369140625,-0.9263214468955994,-9.750154495239258,1.2792627811431885
1701865139184546300,3.93454638671875,-0.9598209857940674,-9.829116821289062,1.298405408859253
1701865139194140000,3.944139892578125,-0.91914302110672,-9.953543663024902,1.3175479173660278
1701865139203732500,3.953732421875,-0.8353942036628723,-10.056734085083008,1.3151551485061646
1701865139213324300,3.96332421875,-0.7133602499961853,-10.150054931640625,1.334297776222229
1701865139222917000,3.972917236328125,-0.6200401782989502,-10.2385892868042,1.3510475158691406
1701865139232510700,3.9825107421875,-0.5623133182525635,-10.300802230834961,1.3701900243759155
1701865139242103300,3.992103271484375,-0.48574298620224,-10.327123641967773,1.3917254209518433
1701865139251695000,4.001695068359375,-0.46420758962631226,-10.348658561706543,1.4371891021728516
1701865139261288000,4.011287841796875,-0.48574298620224,-10.372587203979492,1.4635101556777954
1701865139270881300,4.02088134765625,-0.4426721930503845,-10.3319091796875,1.4371891021728516
1701865139280474000,4.03047412109375,-0.37088751792907715,-10.267302513122559,1.3917254209518433
1701865139290066000,4.04006591796875,-0.30628129839897156,-10.205089569091797,1.322333574295044
1701865139299658800,4.04965869140625,-0.2632105052471161,-10.128519058227539,1.2696914672851562
1701865139309252400,4.05925244140625,-0.21774685382843018,-10.08305549621582,1.1668001413345337
1701865139318845000,4.068844970703125,-0.2584248483181,-10.047163009643555,1.085145115852356
1701865139328436700,4.078436767578125,-0.2560320198535919,-10.006484985351562,0.9990034699440002
1701865139338029600,4.088029541015625,-0.28235307335853577,-9.980164527893066,0.9320043921470642
1701865139347623000,4.097622802734375,-0.3158525824546814,-9.958329200744629,0.8482556343078613
1701865139357215700,4.1072158203125,-0.3326023519039154,-9.963115692138672,0.7860422134399414
1701865139366807600,4.1168076171875,-0.33738797903060913,-9.980164527893066,0.7525427341461182
1701865139376400400,4.126400390625,-0.33020952343940735,-10.0040922164917,0.7357929348945618
1701865139385993700,4.13599365234375,-0.2847459018230438,-10.028020858764648,0.7022934556007385
1701865139395586600,4.145586669921875,-0.24167509377002716,-10.039984703063965,0.6400800347328186
1701865139405178400,4.155178466796875,-0.22492532432079315,-10.06869888305664,0.5802595019340515
1701865139414771200,4.164771240234375,-0.18424734473228455,-10.07587718963623,0.5177469849586487
1701865139424364500,4.174364501953125,-0.15074782073497772,-10.09023380279541,0.48424747586250305
1701865139433957400,4.183957275390625,-0.12921242415905,-10.097412109375,0.5324030518531799
1701865139443549200,4.193549072265625,-0.0933200865983963,-10.092626571655273,0.537188708782196
1701865139453142000,4.20314208984375,-0.10049854964017868,-10.11416244506836,0.5225326418876648
1701865139462735400,4.2127353515625,-0.17946170270442963,-10.099804878234863,0.5970092415809631
1701865139472328200,4.222328125,-0.23210379481315613,-10.039984703063965,0.6544370055198669
1701865139481920000,4.231919921875,-0.2225325107574463,-10.0040922164917,0.656829833984375
1701865139491512800,4.241512939453125,-0.20338992774486542,-10.001699447631836,0.6281159520149231
1701865139501106200,4.251106201171875,-0.1818545162677765,-10.008877754211426,0.6592226624488831
1701865139510699000,4.260698974609375,-0.1746760457754135,-10.013663291931152,0.6951149702072144
1701865139520290800,4.270290771484375,-0.17946170270442963,-10.013663291931152,0.6951149702072144
1701865139529883400,4.27988330078125,-0.14835500717163086,-9.984950065612793,0.6783652305603027
1701865139539477000,4.28947705078125,-0.13878370821475983,-9.980164527893066,0.6855437159538269
1701865139549069600,4.299069580078125,-0.13878370821475983,-9.963115692138672,0.6927221417427063
1701865139558661600,4.30866162109375,-0.14356936514377594,-9.994521141052246,0.6711867451667786
1701865139568254200,4.318254150390625,-0.12203395366668701,-9.980164527893066,0.6616154313087463
1701865139577847800,4.327847900390625,-0.20817556977272034,-9.965508460998535,0.6640082597732544
1701865139587440400,4.3374404296875,-0.2632105052471161,-9.831509590148926,0.6305087804794312
1701865139597032400,4.347032470703125,-0.14356936514377594,-9.719047546386719,0.6855437159538269
1701865139606625000,4.356625,-0.2799602448940277,-9.592227935791016,0.5659025311470032
1701865139616218600,4.366218505859375,-0.3565305769443512,-9.745368003845215,0.7357929348945618
1701865139625811200,4.375811279296875,-0.8928219676017761,-9.924830436706543,0.6496513485908508
1701865139635403300,4.3854033203125,-0.8832506537437439,-10.164411544799805,0.5419743061065674
1701865139644995800,4.394995849609375,-0.4618147611618042,-10.21466064453125,0.3287140130996704
1701865139654589400,4.40458935546875,-0.38763725757598877,-10.262516975402832,0.15643078088760376
1701865139664182000,4.41418212890625,-0.4713860750198364,-10.32473087310791,0.125324085354805
1701865139673774000,4.423774169921875,-0.5144568681716919,-10.286445617675781,0.3406781256198883
1701865139683366700,4.43336669921875,-0.40677985548973083,-10.236196517944336,0.6065805554389954
1701865139692960300,4.442960205078125,-0.2727817893028259,-10.250553131103516,0.8027920126914978
1701865139702552800,4.452552734375,-0.05503492057323456,-10.351051330566406,0.9607182741165161
1701865139712145000,4.462144775390625,0.20368902385234833,-10.441978454589844,1.1644073724746704
1701865139721737500,4.471737548828125,0.31375887989997864,-10.398907661437988,1.2146565914154053
1701865139731331000,4.4813310546875,0.246759831905365,-10.23141098022461,1.1476575136184692
1701865139740923600,4.490923583984375,0.26590242981910706,-10.087841033935547,1.114158034324646
1701865139750515700,4.500515625,0.27786654233932495,-9.94397258758545,0.900897741317749
1701865139760108300,4.5101083984375,0.12472587823867798,-9.829116821289062,0.6687939167022705
1701865139769702000,4.519701904296875,-0.03798605874180794,-9.714262008666992,0.5324030518531799
1701865139779294500,4.52929443359375,-0.17946170270442963,-9.661619186401367,0.5129613280296326
1701865139788886500,4.538886474609375,-0.2847459018230438,-9.704689979553223,0.5682953596115112
1701865139798479000,4.54847900390625,-0.3206382393836975,-9.81954574584961,0.6735795736312866
1701865139808072700,4.55807275390625,-0.2727817893028259,-9.90568733215332,0.714257538318634
1701865139817665300,4.567665283203125,-0.14356936514377594,-9.934401512145996,0.7668996453285217
1701865139827257000,4.577257080078125,-0.03559323772788048,-9.941579818725586,0.8267202377319336
1701865139836850000,4.586849853515625,0.04576273262500763,-9.920044898986816,0.8386843204498291
1701865139846443500,4.596443603515625,0.09840483218431473,-9.915258407592773,0.8386843204498291
1701865139856036000,4.6060361328125,0.08404789865016937,-9.893723487854004,0.8434699773788452
1701865139865628000,4.6156279296875,0.06251249462366104,-9.888937950134277,0.8291130661964417
1701865139875220700,4.625220703125,0.007477570790797472,-9.876974105834961,0.8027920126914978
1701865139884814300,4.634814453125,-0.018843477591872215,-9.833903312683105,0.7525427341461182
1701865139894407000,4.644406982421875,-0.05024927482008934,-9.80518913269043,0.6903293132781982
1701865139903998700,4.653998779296875,-0.0526420995593071,-9.771689414978027,0.6161518096923828
1701865139913591600,4.663591552734375,-0.040677983313798904,-9.762118339538574,0.5682953596115112
1701865139923185200,4.67318505859375,-0.05742774158716202,-9.757332801818848,0.5467599630355835
1701865139932777700,4.68277783203125,-0.059820566326379776,-9.783653259277344,0.5539384484291077
1701865139942369500,4.69236962890625,-0.06699903309345245,-9.809974670410156,0.5249254703521729
1701865139951962400,4.70196240234375,-0.07896314561367035,-9.841081619262695,0.534795880317688
1701865139961555700,4.7115556640625,-0.12203395366668701,-9.888937950134277,0.5225326418876648
1701865139971148500,4.7211484375,-0.14835500717163086,-9.927223205566406,0.5491527915000916
1701865139980740400,4.730740234375,-0.19142581522464752,-9.955936431884766,0.6017948985099792
1701865139990333200,4.740333251953125,-0.2225325107574463,-9.992128372192383,0.6065805554389954
1701865139999926500,4.749926513671875,-0.22013968229293823,-10.039984703063965,0.5515456199645996
1701865140009519400,4.759519287109375,-0.19621145725250244,-10.06869888305664,0.5419743061065674
1701865140019111200,4.769111083984375,-0.1698904037475586,-10.06869888305664,0.5105685591697693
1701865140028704000,4.7787041015625,-0.11964113265275955,-10.049555778503418,0.5395814776420593
1701865140038297300,4.78829736328125,-0.09810572862625122,-9.99691390991211,0.5201398134231567
1701865140047890200,4.79789013671875,-0.07178468257188797,-9.93679428100586,0.4938187599182129
1701865140057482000,4.80748193359375,-0.06699903309345245,-9.908080101013184,0.4387838542461395
1701865140067074600,4.817074462890625,-0.06939185410737991,-9.881759643554688,0.4651049077510834
1701865140076668200,4.826668212890625,-0.07178468257188797,-9.845867156982422,0.4387838542461395
1701865140086260700,4.8362607421875,0.00029910283046774566,-9.8267240524292,0.43160539865493774
1701865140095852800,4.845852783203125,-0.004486542660742998,-9.821938514709473,0.3717848062515259
1701865140105445400,4.8554453125,-0.009272187948226929,-9.848259925842285,0.31435707211494446
1701865140115039000,4.8650390625,-0.08135596662759781,-9.865009307861328,0.3119642436504364
1701865140124631600,4.874631591796875,-0.16271193325519562,-9.874580383300781,0.32632118463516235
1701865140134223600,4.8842236328125,-0.21296121180057526,-9.874580383300781,0.32153555750846863
1701865140143816200,4.893816162109375,-0.1818545162677765,-9.881759643554688,0.30239295959472656
1701865140153409800,4.903409912109375,-0.1818545162677765,-9.92961597442627,0.3239283561706543
1701865140163002400,4.91300244140625,-0.2153540402650833,-9.817152976989746,0.2832503914833069
1701865140172594400,4.922594482421875,-0.26081767678260803,-9.66640567779541,0.24017956852912903
1701865140182187000,4.93218701171875,-0.29431718587875366,-9.582656860351562,0.21146570146083832
1701865140191780600,4.941780517578125,-0.39960137009620667,-9.458230018615723,0.12293126434087753
1701865140201373200,4.951373291015625,-0.46420758962631226,-9.448657989501953,0.12053844332695007
1701865140210965200,4.96096533203125,-0.28235307335853577,-9.46301555633545,0.247358039021492
1701865140220557800,4.970557861328125,-0.20338992774486542,-9.522835731506348,0.23300109803676605
1701865140230151400,4.9801513671875,-0.23210379481315613,-9.498908042907715,0.08703892678022385
1701865140239744000,4.989743896484375,-0.13878370821475983,-9.46301555633545,-0.08315058797597885
1701865140249336000,4.999336181640625,0.5003990530967712,-9.199505805969238,-0.14775680005550385
1701865140258928600,5.0089287109375,0.5051847100257874,-9.089435577392578,-0.20757736265659332
1701865140268522200,5.018522216796875,0.24197418987751007,-9.1085786819458,-0.11186445504426956
1701865140278114800,5.02811474609375,-0.15074782073497772,-9.345467567443848,0.21146570146083832
1701865140287707000,5.037706787109375,-0.39481574296951294,-10.140482902526855,0.589830756187439
1701865140297299500,5.047299560546875,-0.6702894568443298,-9.98973560333252,0.20428723096847534
1701865140306893000,5.05689306640625,-0.28953152894973755,-9.048757553100586,-0.2961117923259735
1701865140316485600,5.066485595703125,0.009870393201708794,-8.761320114135742,-0.3080759048461914
1701865140326077400,5.076077392578125,-0.018843477591872215,-8.993722915649414,0.07507480680942535
1701865140335670300,5.085670166015625,-0.04546362906694412,-9.1683988571167,0.271286278963089
1701865140345263900,5.095263916015625,-0.4737788736820221,-9.45583724975586,0.4124628007411957
1701865140354856400,5.1048564453125,-0.26560330390930176,-9.458230018615723,0.3239283561706543
1701865140364448300,5.1144482421875,-0.11006984114646912,-9.132506370544434,0.2353939265012741
1701865140374041000,5.124041015625,0.007477570790797472,-8.936295509338379,0.3646063506603241
1701865140383634700,5.133634765625,0.3161516785621643,-8.972187995910645,0.4938187599182129
1701865140393227300,5.143227294921875,0.7040880918502808,-6.889235496520996,-0.26500511169433594
1701865140402819000,5.152819091796875,0.7160521745681763,-6.944270610809326,0.17557336390018463
1701865140412412000,5.162411865234375,1.1446665525436401,-7.106982231140137,0.43160539865493774
1701865140422005200,5.172005126953125,1.3959128856658936,-7.061518669128418,0.5177469849586487
1701865140431598000,5.18159814453125,1.2092727422714233,-7.118946552276611,0.747757077217102
1701865140441190000,5.19118994140625,1.3935201168060303,-6.934699058532715,1.085145115852356
1701865140450782700,5.20078271484375,1.623231053352356,-6.329015731811523,1.1213364601135254
1701865140460376000,5.2103759765625,0.9361918568611145,-6.415157318115234,1.2170493602752686
1701865140469969000,5.219968994140625,1.5514464378356934,-5.759224891662598,1.0926226377487183
1701865140479560700,5.229560791015625,0.8835497498512268,-5.287539958953857,0.8697910308837891
1701865140489153500,5.239153564453125,0.7734799385070801,-6.38165807723999,1.3749756813049316
1701865140498747000,5.248746826171875,2.7101707458496094,-7.205387115478516,2.220240354537964
1701865140508339700,5.258339599609375,-1.1488540172576904,-4.36091947555542,1.999801516532898
1701865140517931500,5.267931640625,-0.13639089465141296,-6.0009002685546875,2.7203402519226074
1701865140527524000,5.277524169921875,1.0055837631225586,-6.726523399353027,2.521735906600952
1701865140537117700,5.28711767578125,2.3584258556365967,-7.147660255432129,2.670090913772583
1701865140546710300,5.296710205078125,3.8449668884277344,-7.423133850097656,1.6118651628494263
1701865140556302300,5.30630224609375,-1.4673985242843628,1.6911274194717407,0.7597211599349976
1701865140565895000,5.31589501953125,-2.702693223953247,-1.9597218036651611,3.694817304611206
1701865140575488500,5.325488525390625,-0.9382855892181396,-7.482954502105713,4.71954345703125
1701865140585081000,5.3350810546875,0.6729813814163208,-11.691929817199707,5.255835056304932
1701865140594673200,5.344673095703125,3.2967114448547363,-15.486348152160645,5.5692949295043945
1701865140604265700,5.354265625,5.748457431793213,-17.310874938964844,4.465904235839844
1701865140613859300,5.363859375,4.491627216339111,-9.26171875,3.4244282245635986
1701865140623452000,5.373451904296875,2.693420886993408,-0.9302098155021667,2.5169503688812256
1701865140633044000,5.3830439453125,1.9465612173080444,-4.827818870544434,3.1034910678863525
1701865140642636500,5.392636474609375,2.564208507537842,-7.980960845947266,2.6581268310546875
1701865140652230100,5.402230224609375,-0.05742774158716202,-6.5180487632751465,2.3446671962738037
1701865140661822700,5.41182275390625,-1.1081759929656982,-5.984150409698486,1.5687943696975708
1701865140671414800,5.421414794921875,-0.4666004180908203,-7.430312633514404,0.6783652305603027
1701865140681007400,5.43100732421875,-0.12921242415905,-8.651249885559082,0.09421738982200623
1701865140690601000,5.44060107421875,0.9936196208000183,-7.478168964385986,0.2593221664428711
1701865140700193500,5.450193603515625,2.212463617324829,-7.870891094207764,0.20189441740512848
1701865140709785300,5.459785400390625,3.2823543548583984,-6.38883638381958,0.8099704384803772
1701865140719378200,5.469378173828125,2.6192433834075928,-6.197410583496094,1.8131613731384277
1701865140728971800,5.4789716796875,1.4892330169677734,-13.788939476013184,3.184846878051758
1701865140738564400,5.488564453125,-1.4626128673553467,-6.872485637664795,0.7621139883995056
1701865140748156200,5.49815625,-2.623729944229126,-7.6911301612854,-1.2586246728897095
1701865140757749000,5.5077490234375,-3.2557342052459717,-7.607381343841553,-3.216850996017456
1701865140767342300,5.51734228515625,-3.8709888458251953,-9.843474388122559,-1.948056697845459
1701865140776935200,5.52693505859375,-3.5814573764801025,-10.810772895812988,-2.345564365386963
1701865140786527000,5.53652685546875,-5.0225348472595215,-12.553645133972168,-3.39870548248291
1701865140796119800,5.546119873046875,-5.7792649269104,-14.435300827026367,-4.131507396697998
1701865140805713400,5.55571337890625,-7.296912670135498,-16.01067543029785,-5.306981563568115
1701865140815306000,5.565305908203125,-8.989535331726074,-17.96202278137207,-6.523133754730225
1701865140824897800,5.574897705078125,-7.989036560058594,-17.942880630493164,-6.666703224182129
1701865140834490600,5.58449072265625,-5.534897804260254,-17.24118423461914,-5.125126838684082
1701865140844084000,5.594083984375,-3.5575289726257324,-20.712871551513672,-0.07357929646968842
1701865140853676800,5.6036767578125,-2.14725923538208,-17.102399826049805,-2.4197418689727783
1701865140863268600,5.6132685546875,-3.930809497833252,-19.36481475830078,2.756232500076294
1701865140872861200,5.622861083984375,-4.007678985595703,-23.030319213867188,3.1345977783203125
1701865140882454800,5.632454833984375,-5.5707902908325195,-20.9521541595459,-0.9329017400741577
1701865140892047600,5.642047607421875,-7.0408806800842285,-18.009878158569336,-3.6335012912750244
1701865140901639400,5.651639404296875,-8.005785942077637,-15.493526458740234,-4.232006072998047
1701865140911232000,5.66123193359375,-9.363115310668945,-13.8009033203125,-5.510371208190918
1701865140920825600,5.67082568359375,-10.615159034729004,-11.445169448852539,-5.539085388183594
1701865140930418200,5.680418212890625,-11.613564491271973,-9.477372169494629,-5.67338228225708
1701865140940010200,5.69001025390625,-11.489137649536133,-9.065507888793945,-5.9509501457214355
1701865140949602800,5.699602783203125,-10.854741096496582,-10.832307815551758,-4.1027936935424805
1701865140959196400,5.709196533203125,-9.08554744720459,-5.728118419647217,-5.440979480743408
1701865140968789000,5.7187890625,-8.139784812927246,-5.558228015899658,-2.161017894744873
1701865140978381000,5.728381103515625,-8.09671401977539,-3.781557083129883,-0.6002993583679199
1701865140987973600,5.7379736328125,-9.025727272033691,-1.7491533756256104,0.03678964823484421
1701865140997567200,5.747567138671875,-9.614660263061523,-4.353740692138672,2.4379870891571045
1701865141007159800,5.757159912109375,-9.499505996704102,-3.9326040744781494,3.6421751976013184
1701865141016751900,5.766751953125,-10.335199356079102,-3.1304101943969727,3.0388846397399902
1701865141026344400,5.776344482421875,-10.457233428955078,-2.4720849990844727,2.1984057426452637
1701865141035938000,5.78593798828125,-11.07009506225586,-1.710868239402771,1.3414762020111084
1701865141045530600,5.795530517578125,-11.979965209960938,-0.9110672473907471,0.35503506660461426
1701865141055122400,5.805122314453125,-12.879965782165527,-0.4995017349720001,-0.5066801905632019
1701865141064715300,5.81471533203125,-14.029119491577148,-0.15702898800373077,-2.4029922485351562
1701865141074308900,5.824308837890625,-13.19133186340332,2.119741678237915,-5.424229621887207
1701865141083901400,5.8339013671875,-12.669397354125977,1.4973087310791016,-4.2607197761535645
1701865141093493200,5.8434931640625,-12.087642669677734,1.5284154415130615,-4.868795871734619
1701865141103086000,5.853086181640625,-12.121142387390137,1.724626898765564,-4.433002948760986
1701865141112679700,5.8626796875,-12.437294006347656,1.1285150051116943,-3.6909289360046387
1701865141122272300,5.872272216796875,-12.68136215209961,1.3657035827636719,-3.3388848304748535
1701865141131864000,5.881864013671875,-12.377174377441406,1.8684953451156616,-2.9823544025421143
1701865141141457000,5.891456787109375,-12.75793170928955,2.4502503871917725,-3.224029302597046
1701865141151050200,5.90105029296875,-13.165011405944824,3.144468069076538,-4.028615951538086
1701865141160643000,5.91064306640625,-11.99910831451416,3.3454651832580566,-4.689334392547607
1701865141170235000,5.92023486328125,-10.631909370422363,3.4148569107055664,-4.8161540031433105
1701865141179827700,5.92982763671875,-9.995119094848633,3.1492536067962646,-4.54337215423584
1701865141189421000,5.939421142578125,-9.430113792419434,2.7014968395233154,-4.277469635009766
1701865141199013600,5.949013671875,-8.929715156555176,1.9235303401947021,-3.7387852668762207
1701865141208605700,5.958605712890625,-8.307282447814941,1.2915260791778564,-3.4157543182373047
1701865141218198300,5.9681982421875,-7.6752777099609375,0.8581260442733765,-3.1331021785736084
1701865141227792000,5.9777919921875,-7.438388347625732,0.90358966588974,-3.39870548248291
1701865141237384700,5.987384765625,-6.736692905426025,0.8341978192329407,-3.7818562984466553
1701865141246976500,5.9969765625,-6.207580089569092,1.6145570278167725,-5.14666223526001
1701865141256569000,6.006569091796875,-5.803193092346191,0.7648059129714966,-4.4976091384887695
1701865141266162700,6.01616259765625,-6.765407085418701,1.332203984260559,-5.223232746124268
1701865141275755300,6.02575537109375,-6.823133945465088,0.992124080657959,-5.383552074432373
1701865141285347300,6.035347412109375,-6.3825554847717285,0.041575293987989426,-4.945366382598877
1701865141294940000,6.04493994140625,-6.478268146514893,-0.4827519655227661,-4.887938499450684
1701865141304533500,6.054533447265625,-6.633801460266113,-0.877567708492279,-4.5577287673950195
1701865141314126000,6.0641259765625,-6.511767864227295,-1.119541883468628,-4.440181732177734
1701865141323718100,6.07371826171875,-6.952346324920654,-1.2750753164291382,-3.983152389526367
1701865141333310700,6.083310791015625,-7.512565612792969,-1.2008978128433228,-4.083651065826416
1701865141342904300,6.092904296875,-7.787740230560303,-0.6071787476539612,-4.380361080169678
1701865141352497000,6.102496826171875,-7.893024444580078,-0.4540380835533142,-4.148257255554199
1701865141362088700,6.112088623046875,-8.187641143798828,-0.5162515044212341,-3.8488552570343018
1701865141371681500,6.121681640625,-8.319246292114258,-0.7674978375434875,-3.7052857875823975
1701865141381275100,6.131275146484375,-8.546863555908203,-1.1626126766204834,-3.755535125732422
1701865141390867700,6.14086767578125,-8.764610290527344,-1.449751377105713,-3.762713670730591
1701865141400459500,6.15045947265625,-9.006285667419434,-1.5625132322311401,-3.8799619674682617
1701865141410052400,6.16005224609375,-9.265008926391602,-1.581655740737915,-3.9349968433380127
1701865141419646000,6.16964599609375,-9.588339805603027,-1.3971092700958252,-4.181756496429443
1701865141429238500,6.179238525390625,-9.83958625793457,-1.339681625366211,-4.406682014465332
1701865141438830300,6.188830322265625,-9.849157333374023,-1.430608868598938,-4.306183338165283
1701865141448423200,6.198423095703125,-9.693623542785645,-1.7587246894836426,-4.011866092681885
1701865141458016500,6.2080166015625,-9.473184585571289,-2.1394824981689453,-3.724428415298462
1701865141467609300,6.217609375,-9.377471923828125,-2.1801605224609375,-3.6406795978546143
1701865141477201200,6.227201171875,-9.078369140625,-3.0825538635253906,-3.288635730743408
1701865141486793700,6.236793701171875,-9.370293617248535,-3.8632121086120605,-3.130709409713745
1701865141496387300,6.24638720703125,-8.79332447052002,-4.047459602355957,-3.0972096920013428
1701865141505980200,6.255980224609375,-8.400602340698242,-3.7169508934020996,-3.1283164024353027
1701865141515572000,6.265572021484375,-8.750253677368164,-3.6284165382385254,-2.987139940261841
1701865141525164500,6.27516455078125,-8.790931701660156,-3.5015969276428223,-2.948854923248291
1701865141534758100,6.284758056640625,-8.383852005004883,-4.193421840667725,-2.316850423812866
1701865141544350700,6.294350830078125,-8.738288879394531,-4.6770710945129395,-2.089233160018921
1701865141553942800,6.30394287109375,-8.910572052001953,-5.184648513793945,-1.3710874319076538
1701865141563535400,6.313535400390625,-8.580363273620605,-5.160720348358154,-1.7781662940979004
1701865141573129000,6.32312890625,-8.355138778686523,-5.766403675079346,-1.3160524368286133
1701865141582721500,6.332721435546875,-7.9627156257629395,-6.429514408111572,-1.1291131973266602
1701865141592313600,6.342313720703125,-7.701598644256592,-7.181458950042725,-1.057328462600708
1701865141601906200,6.35190625,-7.902894973754883,-7.799106121063232,-1.1219347715377808
1701865141611499800,6.361499755859375,-8.450851440429688,-8.440681457519531,-0.9879366755485535
1701865141621092400,6.37109228515625,-9.037691116333008,-9.008079528808594,-0.48514479398727417
1701865141630684400,6.380684326171875,-9.497113227844238,-9.27129077911377,0.2928216755390167
1701865141640277000,6.390277099609375,-9.573683738708496,-8.780462265014648,0.9798609018325806
1701865141649870600,6.39987060546875,-9.30329418182373,-7.624131202697754,1.3965110778808594
1701865141659463200,6.409463134765625,-8.508578300476074,-6.230910301208496,1.700698733329773
1701865141669055000,6.419054931640625,-7.828418254852295,-4.892425060272217,1.8418751955032349
1701865141678647800,6.428647705078125,-7.373782157897949,-3.841676712036133,2.0165512561798096
1701865141688241400,6.438241455078125,-7.1748785972595215,-3.1280174255371094,2.066800594329834
1701865141697834000,6.447833984375,-7.217949390411377,-2.8767709732055664,2.0620148181915283
1701865141707425800,6.45742578125,-7.3761749267578125,-3.022733211517334,2.042872428894043
1701865141717018600,6.4670185546875,-7.543672561645508,-3.477668523788452,1.9806588888168335
1701865141726612000,6.476612060546875,-7.610671520233154,-4.147958278656006,1.846660852432251
1701865141736204800,6.486204833984375,-7.687242031097412,-4.8206400871276855,1.7270197868347168
1701865141745796600,6.495796630859375,-7.658527851104736,-5.388038158416748,1.6094722747802734
1701865141755389400,6.505389404296875,-7.6609206199646,-5.809474468231201,1.5137593746185303
1701865141764982800,6.514982666015625,-7.759026527404785,-6.106483459472656,1.4012967348098755
1701865141774575600,6.52457568359375,-8.022536277770996,-6.329015731811523,1.2768700122833252
1701865141784167400,6.53416748046875,-8.338388442993164,-6.455835342407227,1.212263822555542
1701865141793760000,6.543760009765625,-8.66889762878418,-6.427121639251709,1.1213364601135254
1701865141803353600,6.553353515625,-8.996713638305664,-6.247660160064697,0.9702895879745483
1701865141812946200,6.5629462890625,-9.343972206115723,-6.0009002685546875,0.8027920126914978
1701865141822538200,6.572538330078125,-9.542576789855957,-5.732903957366943,0.6831508874893188
1701865141832130800,6.582130859375,-9.664909362792969,-5.445466041564941,0.6017948985099792
1701865141841724400,6.591724365234375,-9.717552185058594,-5.184648513793945,0.5395814776420593
1701865141851317000,6.60131689453125,-9.600303649902344,-4.935794830322266,0.3693920075893402
1701865141860909000,6.610908935546875,-9.415757179260254,-4.696213722229004,0.24257239699363708
1701865141870501600,6.620501708984375,-9.329615592956543,-4.442574501037598,0.05114658549427986
1701865141880095200,6.63009521484375,-9.200403213500977,-4.214957237243652,-0.11186445504426956
1701865141889687800,6.639687744140625,-9.07119083404541,-4.05703067779541,-0.23629122972488403
1701865141899279600,6.649279541015625,-8.855537414550781,-3.920639991760254,-0.28175488114356995
1701865141908872400,6.65887255859375,-8.69043254852295,-3.798306941986084,-0.30568310618400574
1701865141918466000,6.668466064453125,-8.55164909362793,-3.743271827697754,-0.3080759048461914
1701865141928058600,6.67805859375,-8.431708335876465,-3.7337005138397217,-0.3152543902397156
1701865141937650400,6.687650390625,-8.328817367553711,-3.7337005138397217,-0.355932354927063
1701865141947243300,6.6972431640625,-8.321639060974121,-3.7767715454101562,-0.4731806814670563
1701865141956836900,6.7068369140625,-8.383852005004883,-3.875176191329956,-0.5904290080070496
1701865141966429400,6.716429443359375,-8.398209571838379,-3.961317777633667,-0.755832850933075
1701865141976021200,6.726021240234375,-8.506185531616211,-4.040280818939209,-0.8826524615287781
1701865141985614000,6.735614013671875,-8.625826835632324,-4.11924409866333,-0.968794047832489
1701865141995207700,6.745207763671875,-8.723932266235352,-4.195814609527588,-0.9735797047615051
1701865142004800300,6.75480029296875,-8.8076810836792,-4.329812526702881,-0.8682954907417297
1701865142014392000,6.76439208984375,-8.831609725952148,-4.336990833282471,-0.8324031829833984
1701865142023985000,6.77398486328125,-8.932107925415039,-4.3417768478393555,-0.8659027218818665
1701865142033578200,6.783578125,-8.953642845153809,-4.339384078979492,-0.8012964725494385
1701865142043170800,6.7931708984375,-8.963214874267578,-4.265206336975098,-0.7725825905799866
1701865142052763000,6.802762939453125,-8.987142562866211,-4.131208419799805,-0.7654041647911072
1701865142062355500,6.81235546875,-8.915358543395996,-4.013959884643555,-0.7103692293167114
1701865142071949000,6.821948974609375,-8.869894027709961,-3.896711587905884,-0.5880361795425415
1701865142081541600,6.831541748046875,-8.845966339111328,-3.820141315460205,-0.4468596279621124
1701865142091133700,6.8411337890625,-8.848359107971191,-3.783949851989746,-0.372682124376297
1701865142100726300,6.850726318359375,-8.826823234558105,-3.7887356281280518,-0.2961117923259735
1701865142110319900,6.86031982421875,-8.838788032531738,-3.8006997108459473,-0.22432711720466614
1701865142119912400,6.869912353515625,-8.867501258850098,-3.810570001602173,-0.17168502509593964
1701865142129504500,6.87950439453125,-8.884251594543457,-3.8392839431762695,-0.12143574655056
1701865142139097000,6.88909716796875,-8.872286796569824,-3.8632121086120605,-0.05922235921025276
1701865142148690700,6.898690673828125,-8.855537414550781,-3.8943188190460205,-0.01824527233839035
1701865142158283300,6.908283203125,-8.695218086242676,-3.923032760620117,0.010468599386513233
1701865142167875300,6.917875244140625,-8.664112091064453,-3.930211305618286,0.06789634376764297
1701865142177468000,6.927468017578125,-8.613862037658691,-3.975674867630005,0.09421738982200623
1701865142187061500,6.9370615234375,-8.589934349060059,-4.035495281219482,0.06789634376764297
1701865142196654000,6.946654052734375,-8.613862037658691,-4.05703067779541,0.05353940650820732
1701865142206246000,6.956245849609375,-8.757431983947754,-4.152743816375732,0.06311069428920746
1701865142215838700,6.965838623046875,-8.812466621398926,-4.171886444091797,-0.0014955141814425588
1701865142225432000,6.97543212890625,-8.920144081115723,-4.157529354095459,-0.03529413416981697
1701865142235025000,6.98502490234375,-8.939286231994629,-4.145565032958984,-0.07836493849754333
1701865142244616700,6.99461669921875,-8.977571487426758,-4.124029636383057,-0.06161518394947052
1701865142254209500,7.00420947265625,-9.056833267211914,-4.076173305511475,-0.03529413416981697
1701865142263803000,7.013802978515625,-9.09990406036377,-4.030709743499756,-0.032602209597826004
1701865142273395700,7.023395751953125,-9.07119083404541,-3.9661035537719727,-0.00867398176342249
1701865142282987500,7.032987548828125,-8.968000411987305,-3.913461446762085,-0.0062811593525111675
1701865142292580000,7.042580078125,-8.874680519104004,-3.882354736328125,-0.01585244946181774
1701865142302173700,7.052173583984375,-8.860322952270508,-3.865604877471924,-0.013459627516567707
1701865142311766500,7.0617666015625,-8.862715721130371,-3.8608193397521973,-0.0062811593525111675
1701865142321358300,7.0713583984375,-8.9010009765625,-3.8632121086120605,0.005682953633368015
1701865142330951000,7.080950927734375,-8.936893463134766,-3.889533281326294,0.012861421331763268
1701865142340544500,7.09054443359375,-8.910572052001953,-3.8943188190460205,0.005682953633368015
1701865142350137000,7.10013720703125,-8.855537414550781,-3.8799619674682617,0.03918246924877167
1701865142359729200,7.109729248046875,-8.831609725952148,-3.875176191329956,0.0487537607550621
1701865142369321700,7.11932177734375,-8.826823234558105,-3.851248025894165,0.0487537607550621
1701865142378915300,7.128915283203125,-8.843573570251465,-3.820141315460205,0.046360939741134644
1701865142388508000,7.1385078125,-8.9010009765625,-3.7791643142700195,-0.0038883367087692022
1701865142398100000,7.148099853515625,-8.903393745422363,-3.752843141555786,-0.02063809521496296
1701865142407692500,7.157692626953125,-8.891429901123047,-3.736093521118164,-0.054436713457107544
1701865142417286100,7.1672861328125,-8.860322952270508,-3.712165117263794,-0.054436713457107544
1701865142426878700,7.176878662109375,-8.941679000854492,-3.690629720687866,-0.09511470049619675
1701865142436470500,7.186470458984375,-8.898608207702637,-3.681058645248413,-0.09511470049619675
1701865142446063400,7.1960634765625,-8.927322387695312,-3.6475589275360107,-0.12382857501506805
1701865142455657000,7.205656982421875,-8.963214874267578,-3.6523447036743164,-0.14297115802764893
1701865142465249500,7.21524951171875,-8.991928100585938,-3.688236951828003,-0.1788634955883026
1701865142474841300,7.22484130859375,-9.008678436279297,-3.726522207260132,-0.22193430364131927
1701865142484434200,7.23443408203125,-9.05444049835205,-3.7408790588378906,-0.24825534224510193
1701865142494027800,7.24402783203125,-9.013463973999023,-3.767200231552124,-0.22432711720466614
1701865142503620400,7.253620361328125,-8.996713638305664,-3.7767715454101562,-0.22432711720466614
1701865142513212200,7.263212158203125,-9.001500129699707,-3.7935211658477783,-0.20757736265659332
1701865142522805000,7.272804931640625,-9.018548965454102,-3.783949851989746,-0.19561325013637543
1701865142532398300,7.2823984375,-8.996713638305664,-3.7887356281280518,-0.1621137410402298
1701865142541991200,7.2919912109375,-8.972785949707031,-3.783949851989746,-0.12861421704292297
1701865142551583000,7.3015830078125,-8.968000411987305,-3.767200231552124,-0.08075776696205139
1701865142561175600,7.311175537109375,-8.948857307434082,-3.728914976119995,-0.05922235921025276
1701865142570769200,7.32076904296875,-8.996713638305664,-3.7169508934020996,-0.03768695518374443
1701865142580361700,7.33036181640625,-8.920144081115723,-3.690629720687866,-0.032602209597826004
1701865142589953800,7.339953857421875,-8.838788032531738,-3.6475589275360107,-0.030209386721253395
1701865142599546400,7.34954638671875,-8.829216003417969,-3.6379876136779785,-0.01585244946181774
1701865142609140000,7.359139892578125,-8.865108489990234,-3.664308786392212,-0.02063809521496296
1701865142618732500,7.368732666015625,-8.991928100585938,-3.7145581245422363,-0.030209386721253395
1701865142628324600,7.37832470703125,-8.951250076293945,-3.6930227279663086,-0.03768695518374443
1701865142637917200,7.387917236328125,-8.965607643127441,-3.6475589275360107,-0.04007977992296219
1701865142647510800,7.3975107421875,-9.00389289855957,-3.6140594482421875,-0.0062811593525111675
1701865142657103400,7.407103271484375,-8.996713638305664,-3.5901312828063965,-0.030209386721253395
1701865142666695400,7.4166953125,-8.932107925415039,-3.587738513946533,-0.01585244946181774
1701865142676288000,7.4262880859375,-8.922536849975586,-3.5997025966644287,-0.023030918091535568
1701865142685881600,7.435881591796875,-9.028120040893555,-3.6284165382385254,0.005682953633368015
1701865142695474200,7.44547412109375,-9.015856742858887,-3.6451661586761475,-0.00867398176342249
1701865142705066000,7.45506591796875,-9.061619758605957,-3.6379876136779785,0.005682953633368015
1701865142714658800,7.464658935546875,-9.06401252746582,-3.6523447036743164,-0.00867398176342249
1701865142724252400,7.47425244140625,-9.10229778289795,-3.673880100250244,-0.025423740968108177
1701865142733845000,7.483844970703125,-9.040083885192871,-3.671487331390381,-0.06640082597732544
1701865142743436800,7.493436767578125,-8.987142562866211,-3.626023530960083,-0.13579268753528595
1701865142753029600,7.503029541015625,-8.860322952270508,-3.642773389816284,-0.07836493849754333
1701865142762623000,7.512623046875,-9.047262191772461,-3.858426570892334,-0.06161518394947052
1701865142772215600,7.522215576171875,-8.936893463134766,-3.7480576038360596,-0.10707881301641464
1701865142781807600,7.5318076171875,-8.915358543395996,-3.690629720687866,-0.07836493849754333
1701865142791400200,7.541400146484375,-8.922536849975586,-3.6475589275360107,-0.049651071429252625
1701865142800993800,7.550993896484375,-8.88664436340332,-3.611666679382324,-0.025423740968108177
1701865142810586400,7.56058642578125,-8.896215438842773,-3.5757744312286377,-0.025423740968108177
1701865142820178400,7.570178466796875,-8.905786514282227,-3.53031063079834,-0.02063809521496296
1701865142829771000,7.57977099609375,-8.956035614013672,-3.5207393169403076,-0.013459627516567707
1701865142839364600,7.589364501953125,-9.023334503173828,-3.5135610103607178,-0.025423740968108177
1701865142848957200,7.598957275390625,-9.028120040893555,-3.52313232421875,-0.013459627516567707
1701865142858549200,7.60854931640625,-9.025727272033691,-3.4968111515045166,0.0008973084622994065
1701865142868141800,7.618141845703125,-9.052047729492188,-3.4896326065063477,-0.011066804639995098
1701865142877735400,7.6277353515625,-9.037691116333008,-3.49202561378479,-0.00867398176342249
1701865142887328000,7.637327880859375,-9.044869422912598,-3.5015969276428223,0.008075776509940624
1701865142896920000,7.646920166015625,-9.044869422912598,-3.539881944656372,-0.030209386721253395
1701865142906512600,7.6565126953125,-9.080761909484863,-3.570988655090332,-0.011066804639995098
1701865142916106200,7.666106201171875,-9.068798065185547,-3.6236307621002197,0.0008973084622994065
1701865142925698800,7.67569873046875,-9.07119083404541,-3.664308786392212,0.015254244208335876
1701865142935290600,7.68529052734375,-9.049654960632324,-3.7145581245422363,0.015254244208335876
1701865142944883500,7.694883544921875,-9.035298347473145,-3.7241294384002686,0.010468599386513233
1701865142954477000,7.70447705078125,-9.001500129699707,-3.7480576038360596,0.03200400248169899
1701865142964069600,7.714069580078125,-8.968000411987305,-3.7456648349761963,0.06071787327528
1701865142973661400,7.723661376953125,-8.946464538574219,-3.726522207260132,0.05832505226135254
1701865142983254300,7.733254150390625,-8.927322387695312,-3.7169508934020996,0.05353940650820732
1701865142992847600,7.74284765625,-8.910572052001953,-3.726522207260132,0.07746763527393341
1701865143002440400,7.7524404296875,-8.932107925415039,-3.7384862899780273,0.10378868132829666
1701865143012032300,7.7620322265625,-8.965607643127441,-3.7456648349761963,0.09421738982200623
1701865143021624800,7.771624755859375,-8.929715156555176,-3.7241294384002686,0.10857433080673218
1701865143031218400,7.781218505859375,-8.936893463134766,-3.712165117263794,0.11575279384851456
1701865143040811000,7.79081103515625,-8.951250076293945,-3.695415496826172,0.10857433080673218
1701865143050403000,7.800403076171875,-8.91775131225586,-3.6786656379699707,0.09900303930044174
1701865143059995600,7.80999560546875,-8.920144081115723,-3.6475589275360107,0.07746763527393341
1701865143069589200,7.81958935546875,-8.948857307434082,-3.6355948448181152,0.0487537607550621
1701865143079181800,7.829181884765625,-8.9943208694458,-3.6475589275360107,0.03678964823484421
1701865143088774000,7.83877392578125,-9.013463973999023,-3.671487331390381,0.02961117960512638
1701865143098366500,7.848366455078125,-9.056833267211914,-3.702594041824341,0.03678964823484421
1701865143107960000,7.8579599609375,-9.095118522644043,-3.7313077449798584,0.024825535714626312
1701865143117552600,7.867552734375,-9.08554744720459,-3.743271827697754,0.015254244208335876
1701865143127144700,7.877144775390625,-9.083154678344727,-3.7456648349761963,0.024825535714626312
1701865143136737300,7.8867373046875,-9.037691116333008,-3.7384862899780273,0.02961117960512638
1701865143146331000,7.896330810546875,-9.01107120513916,-3.726522207260132,0.03918246924877167
1701865143155923500,7.90592333984375,-8.984749794006348,-3.690629720687866,0.046360939741134644
1701865143165515300,7.915515380859375,-8.953642845153809,-3.6547374725341797,0.041575293987989426
1701865143175108000,7.925108154296875,-8.936893463134766,-3.6762728691101074,0.03918246924877167
1701865143184701400,7.934701416015625,-8.951250076293945,-3.688236951828003,0.05353940650820732
1701865143194294300,7.944294189453125,-8.929715156555176,-3.681058645248413,0.015254244208335876
1701865143203886000,7.953885986328125,-8.927322387695312,-3.7073795795440674,0.015254244208335876
1701865143213479000,7.96347900390625,-8.946464538574219,-3.7073795795440674,0.02961117960512638
1701865143223072300,7.973072265625,-8.934500694274902,-3.7337005138397217,0.0032901312224566936
1701865143232665000,7.9826650390625,-8.91775131225586,-3.719343662261963,0.015254244208335876
1701865143242257000,7.9922568359375,-8.884251594543457,-3.6930227279663086,0.010468599386513233
1701865143251849500,8.001849365234374,-8.857930183410645,-3.6547374725341797,-0.00867398176342249
1701865143261443000,8.011443115234375,-8.862715721130371,-3.633202075958252,-0.013459627516567707
1701865143271035600,8.02103564453125,-8.857930183410645,-3.616452217102051,-0.0062811593525111675
1701865143280627700,8.030627685546875,-8.889037132263184,-3.602095365524292,-0.0062811593525111675
1701865143290220300,8.04022021484375,-8.927322387695312,-3.5997025966644287,-0.0038883367087692022
1701865143299814000,8.04981396484375,-8.987142562866211,-3.5901312828063965,-0.027816563844680786
1701865143309406500,8.059406494140624,-9.037691116333008,-3.5973098278045654,-0.027816563844680786
1701865143318998500,8.06899853515625,-9.047262191772461,-3.611666679382324,-0.049651071429252625
1701865143328591000,8.078591064453125,-9.047262191772461,-3.6140594482421875,-0.06400800496339798
1701865143338184700,8.088184814453125,-9.056833267211914,-3.611666679382324,-0.07357929646968842
1701865143347777300,8.09777734375,-9.05444049835205,-3.5973098278045654,-0.10229317098855972
1701865143357369300,8.107369384765626,-9.049654960632324,-3.6212379932403564,-0.1094716340303421
1701865143366962000,8.1169619140625,-9.018548965454102,-3.633202075958252,-0.10468599200248718
1701865143376555500,8.126555419921875,-8.982357025146484,-3.626023530960083,-0.0975075215101242
1701865143386148000,8.136148193359375,-8.987142562866211,-3.6355948448181152,-0.08793623000383377
1701865143395740000,8.145739990234375,-8.979964256286621,-3.6451661586761475,-0.08315058797597885
1701865143405332700,8.155332763671876,-8.970393180847168,-3.673880100250244,-0.08075776696205139
1701865143414926000,8.164926025390624,-8.953642845153809,-3.690629720687866,-0.06161518394947052
1701865143424519000,8.174518798828124,-8.956035614013672,-3.7073795795440674,-0.06161518394947052
1701865143434110700,8.18411083984375,-8.956035614013672,-3.7097723484039307,-0.0568295381963253
1701865143443703600,8.19370361328125,-8.965607643127441,-3.7169508934020996,-0.06161518394947052
1701865143453297000,8.203296875,-8.953642845153809,-3.7241294384002686,-0.032602209597826004
1701865143462889700,8.2128896484375,-8.944071769714355,-3.728914976119995,-0.01824527233839035
1701865143472481500,8.2224814453125,-8.932107925415039,-3.719343662261963,0.0032901312224566936
1701865143482074000,8.23207421875,-8.939286231994629,-3.7145581245422363,0.015254244208335876
1701865143491667700,8.241667724609375,-8.951250076293945,-3.7337005138397217,0.0032901312224566936
1701865143501260300,8.25126025390625,-8.941679000854492,-3.760021686553955,0.015254244208335876
1701865143510852400,8.260852294921875,-8.968000411987305,-3.7791643142700195,0.022432712838053703
1701865143520445000,8.27044482421875,-8.958429336547852,-3.783949851989746,0.03200400248169899
1701865143530038500,8.28003857421875,-8.953642845153809,-3.7767715454101562,0.05353940650820732
1701865143539631000,8.289631103515624,-8.929715156555176,-3.7624144554138184,0.07746763527393341
1701865143549223200,8.29922314453125,-8.941679000854492,-3.7384862899780273,0.08703892678022385
1701865143558815700,8.308815673828125,-8.91775131225586,-3.760021686553955,0.0726819857954979
1701865143568409300,8.318409423828125,-8.915358543395996,-3.743271827697754,0.046360939741134644
1701865143578002000,8.328001953125,-8.929715156555176,-3.7384862899780273,0.02961117960512638
1701865143587593700,8.33759375,-8.963214874267578,-3.7337005138397217,0.012861421331763268
1701865143597186600,8.3471865234375,-8.982357025146484,-3.7145581245422363,-0.0038883367087692022
1701865143606780200,8.3567802734375,-8.999106407165527,-3.719343662261963,0.0032901312224566936
1701865143616372700,8.366372802734375,-9.025727272033691,-3.721736431121826,0.022432712838053703
1701865143625964500,8.375964599609375,-9.044869422912598,-3.7384862899780273,0.03678964823484421
1701865143635557400,8.385557373046876,-9.025727272033691,-3.743271827697754,0.03439682722091675
1701865143645150700,8.395150634765624,-9.001500129699707,-3.750450372695923,0.05832505226135254
1701865143654743600,8.40474365234375,-8.987142562866211,-3.7313077449798584,0.05593222752213478
1701865143664335400,8.41433544921875,-8.977571487426758,-3.7313077449798584,0.05593222752213478
1701865143673928200,8.42392822265625,-8.970393180847168,-3.7145581245422363,0.041575293987989426
1701865143683521500,8.433521484375,-8.953642845153809,-3.728914976119995,0.03200400248169899
1701865143693114000,8.443114013671876,-8.944071769714355,-3.750450372695923,-0.0038883367087692022
1701865143702706200,8.4527060546875,-8.936893463134766,-3.774378538131714,-0.0062811593525111675
1701865143712298800,8.462298828125,-8.956035614013672,-3.7695930004119873,-0.04486542567610741
1701865143721892400,8.471892333984375,-8.946464538574219,-3.7695930004119873,-0.06161518394947052
1701865143731485000,8.48148486328125,-8.91775131225586,-3.757628917694092,-0.0687936544418335
1701865143741077000,8.491076904296875,-8.929715156555176,-3.750450372695923,-0.07836493849754333
1701865143750669600,8.500669677734376,-8.92492961883545,-3.752843141555786,-0.07836493849754333
1701865143760263200,8.51026318359375,-8.922536849975586,-3.7552361488342285,-0.049651071429252625
1701865143769855700,8.519855712890624,-8.922536849975586,-3.750450372695923,-0.04247260093688965
1701865143779447800,8.52944775390625,-8.951250076293945,-3.750450372695923,-0.027816563844680786
1701865143789040400,8.539040283203125,-8.946464538574219,-3.7624144554138184,-0.013459627516567707
1701865143798634000,8.548634033203125,-8.936893463134766,-3.750450372695923,-0.00867398176342249
1701865143808226600,8.5582265625,-8.951250076293945,-3.767200231552124,0.0032901312224566936
1701865143817818400,8.567818359375,-8.979964256286621,-3.767200231552124,0.005682953633368015
1701865143827411200,8.5774111328125,-8.991928100585938,-3.7624144554138184,0.015254244208335876
1701865143837004800,8.5870048828125,-8.979964256286621,-3.757628917694092,0.022432712838053703
1701865143846597400,8.596597412109375,-8.984749794006348,-3.750450372695923,0.022432712838053703
1701865143856189200,8.606189208984375,-8.982357025146484,-3.7408790588378906,0.012861421331763268
1701865143865782000,8.615781982421876,-8.953642845153809,-3.7241294384002686,0.027218356728553772
1701865143875375400,8.625375244140624,-8.90817928314209,-3.719343662261963,0.024825535714626312
1701865143884968200,8.63496826171875,-8.927322387695312,-3.688236951828003,0.017647067084908485
1701865143894560000,8.64456005859375,-8.881858825683594,-3.6858441829681396,0.0008973084622994065
1701865143904152800,8.65415283203125,-8.948857307434082,-3.664308786392212,0.05832505226135254
1701865143913746200,8.66374609375,-8.956035614013672,-3.664308786392212,0.03918246924877167
1701865143923338800,8.6733388671875,-8.975178718566895,-3.6762728691101074,0.0487537607550621
1701865143932930800,8.682930908203126,-9.00389289855957,-3.6762728691101074,0.0487537607550621
1701865143942523400,8.6925234375,-8.9943208694458,-3.6858441829681396,0.06550352275371552
1701865143952117000,8.702116943359375,-8.979964256286621,-3.6690943241119385,0.0726819857954979
1701865143961709600,8.71170947265625,-8.977571487426758,-3.6858441829681396,0.0726819857954979
1701865143971301600,8.721301513671875,-8.939286231994629,-3.664308786392212,0.06550352275371552
1701865143980894200,8.730894287109376,-8.963214874267578,-3.642773389816284,0.08225327730178833
1701865143990487800,8.74048779296875,-8.972785949707031,-3.6236307621002197,0.05114658549427986
1701865144000080400,8.750080322265624,-8.958429336547852,-3.6044881343841553,0.02961117960512638
1701865144009672200,8.759672119140625,-8.977571487426758,-3.587738513946533,0.012861421331763268
1701865144019265000,8.76926513671875,-8.982357025146484,-3.58534574508667,-0.00867398176342249
1701865144028858600,8.778858642578125,-9.001500129699707,-3.5685958862304688,-0.027816563844680786
1701865144038451200,8.788451171875,-9.00389289855957,-3.5614173412323,-0.054436713457107544
1701865144048043000,8.79804296875,-9.01107120513916,-3.5590245723724365,-0.049651071429252625
1701865144057635800,8.8076357421875,-9.023334503173828,-3.5350964069366455,-0.04486542567610741
1701865144067229400,8.8172294921875,-9.001500129699707,-3.5446677207946777,-0.0568295381963253
1701865144076822000,8.826822021484375,-8.989535331726074,-3.53031063079834,-0.032602209597826004
1701865144086413800,8.836413818359375,-9.008678436279297,-3.5183465480804443,-0.03529413416981697
1701865144096006700,8.846006591796876,-9.018548965454102,-3.5446677207946777,-0.04007977992296219
1701865144105600000,8.85560009765625,-9.028120040893555,-3.5566318035125732,-0.04247260093688965
1701865144115192800,8.86519287109375,-8.999106407165527,-3.5757744312286377,-0.052043892443180084
1701865144124784600,8.87478466796875,-8.984749794006348,-3.602095365524292,-0.054436713457107544
1701865144134377200,8.884377197265625,-8.999106407165527,-3.618845224380493,-0.08315058797597885
1701865144143970800,8.893970703125,-9.068798065185547,-3.58534574508667,-0.06640082597732544
1701865144153563400,8.9035634765625,-9.032905578613281,-3.5973098278045654,-0.0687936544418335
1701865144163155500,8.913155517578126,-9.059226989746094,-3.626023530960083,-0.0568295381963253
1701865144172748000,8.922748046875,-9.042476654052734,-3.6355948448181152,-0.054436713457107544
1701865144182341600,8.932341552734375,-9.042476654052734,-3.6451661586761475,-0.05922235921025276
1701865144191934200,8.941934326171875,-9.020941734313965,-3.657130241394043,-0.06400800496339798
1701865144201526300,8.9515263671875,-9.00389289855957,-3.657130241394043,-0.03529413416981697
1701865144211118800,8.961118896484376,-8.977571487426758,-3.6619160175323486,-0.011066804639995098
1701865144220712400,8.97071240234375,-8.970393180847168,-3.657130241394043,0.0032901312224566936
1701865144230305000,8.980304931640624,-9.008678436279297,-3.6523447036743164,0.005682953633368015
1701865144239896800,8.989896728515625,-8.968000411987305,-3.666701555252075,0.015254244208335876
1701865144249489700,8.99948974609375,-8.920144081115723,-3.697808265686035,0.03439682722091675
1701865144259083000,9.0090830078125,-8.939286231994629,-3.6858441829681396,0.02961117960512638
1701865144268675800,9.01867578125,-8.939286231994629,-3.6834514141082764,0.027218356728553772
1701865144278267600,9.028267578125,-8.941679000854492,-3.6595232486724854,0.03439682722091675
1701865144287860500,9.037860595703124,-8.920144081115723,-3.6451661586761475,0.005682953633368015
1701865144297453800,9.047453857421875,-8.946464538574219,-3.6355948448181152,-0.0062811593525111675
1701865144307046700,9.057046630859375,-8.975178718566895,-3.6284165382385254,-0.023030918091535568
1701865144316638500,9.066638427734375,-9.006285667419434,-3.642773389816284,-0.01824527233839035
1701865144326231000,9.07623095703125,-8.987142562866211,-3.671487331390381,-0.01585244946181774
1701865144335824600,9.08582470703125,-9.030512809753418,-3.6786656379699707,-0.01585244946181774
1701865144345417200,9.095417236328124,-9.040083885192871,-3.6930227279663086,-0.01585244946181774
1701865144355009300,9.10500927734375,-9.030512809753418,-3.6930227279663086,0.010468599386513233
1701865144364601900,9.114601806640625,-9.008678436279297,-3.6834514141082764,-0.0014955141814425588
1701865144374195500,9.124195556640625,-8.958429336547852,-3.6595232486724854,-0.0038883367087692022
1701865144383788000,9.1337880859375,-8.939286231994629,-3.6284165382385254,-0.00867398176342249
1701865144393380000,9.143380126953126,-8.963214874267578,-3.6212379932403564,-0.00867398176342249
1701865144402972700,9.15297265625,-8.9943208694458,-3.602095365524292,0.008075776509940624
1701865144412566300,9.162566162109375,-9.042476654052734,-3.5662031173706055,0.0008973084622994065
1701865144422158800,9.172158935546875,-9.07119083404541,-3.5662031173706055,0.017647067084908485
1701865144431750700,9.181750732421875,-9.095118522644043,-3.5662031173706055,0.010468599386513233
1701865144441343500,9.191343505859376,-9.114261627197266,-3.5494532585144043,0.010468599386513233
1701865144450937000,9.20093701171875,-9.08554744720459,-3.5255250930786133,-0.00867398176342249
1701865144460529700,9.21052978515625,-9.078369140625,-3.5039896965026855,-0.00867398176342249
1701865144470121500,9.22012158203125,-9.059226989746094,-3.4896326065063477,-0.023030918091535568
1701865144479714300,9.22971435546875,-9.044869422912598,-3.4896326065063477,-0.023030918091535568
1701865144489307600,9.2393076171875,-9.044869422912598,-3.52313232421875,-0.023030918091535568
1701865144498900500,9.248900390625,-8.996713638305664,-3.563810110092163,-0.03529413416981697
1701865144508492300,9.2584921875,-8.982357025146484,-3.5925240516662598,-0.04247260093688965
1701865144518085000,9.268085205078124,-8.956035614013672,-3.6379876136779785,-0.032602209597826004
1701865144527678500,9.277678466796875,-8.979964256286621,-3.640380620956421,-0.03529413416981697
1701865144537271000,9.28727099609375,-8.991928100585938,-3.6355948448181152,-0.03768695518374443
1701865144546863000,9.296863037109375,-9.001500129699707,-3.626023530960083,-0.025423740968108177
1701865144556455700,9.30645556640625,-8.979964256286621,-3.5829527378082275,-0.04007977992296219
1701865144566049300,9.31604931640625,-8.90817928314209,-3.420240879058838,-0.09990034252405167
1701865144575641900,9.325641845703124,-8.929715156555176,-3.611666679382324,0.11096715182065964
1701865144585234000,9.33523388671875,-9.035298347473145,-3.642773389816284,0.046360939741134644
1701865144594826500,9.344826416015625,-8.963214874267578,-3.6284165382385254,0.08225327730178833
1701865144604420000,9.354420166015625,-8.979964256286621,-3.6212379932403564,0.06550352275371552
1701865144614012700,9.3640126953125,-8.953642845153809,-3.587738513946533,0.041575293987989426
1701865144623604700,9.373604736328126,-8.960822105407715,-3.602095365524292,0.05353940650820732
1701865144633197300,9.383197265625,-8.979964256286621,-3.6355948448181152,0.05114658549427986
1701865144642791000,9.392791015625,-9.052047729492188,-3.6308093070983887,0.03678964823484421
1701865144652383500,9.402383544921875,-9.018548965454102,-3.6140594482421875,0.0032901312224566936
1701865144661975300,9.411975341796875,-8.991928100585938,-3.6236307621002197,0.020039889961481094
1701865144671568100,9.421568115234376,-8.982357025146484,-3.642773389816284,0.027218356728553772
1701865144681161700,9.43116162109375,-8.979964256286621,-3.6595232486724854,0.024825535714626312
1701865144690754300,9.44075439453125,-9.00389289855957,-3.6786656379699707,0.012861421331763268
1701865144700346000,9.45034619140625,-8.982357025146484,-3.618845224380493,-0.013459627516567707
1701865144709939000,9.45993896484375,-8.987142562866211,-3.5925240516662598,-0.01585244946181774
1701865144719532300,9.4695322265625,-9.018548965454102,-3.5829527378082275,-0.011066804639995098
1701865144729125000,9.479125,-9.013463973999023,-3.5422747135162354,-0.02063809521496296
1701865144738717000,9.488717041015626,-8.970393180847168,-3.539881944656372,-0.01824527233839035
1701865144748309800,9.498309814453124,-8.951250076293945,-3.5518460273742676,0.0032901312224566936
1701865144757903000,9.507903076171875,-8.984749794006348,-3.5279178619384766,-0.0014955141814425588
1701865144767495700,9.51749560546875,-9.015856742858887,-3.5207393169403076,-0.0062811593525111675
1701865144777087700,9.527087646484375,-9.032905578613281,-3.5207393169403076,0.017647067084908485
1701865144786680300,9.536680419921876,-9.068798065185547,-3.506382465362549,0.05114658549427986
1701865144796274000,9.54627392578125,-9.08554744720459,-3.5207393169403076,0.1013958603143692
1701865144805866500,9.555866455078124,-9.061619758605957,-3.5446677207946777,0.1372881978750229
1701865144815458600,9.56545849609375,-9.06401252746582,-3.563810110092163,0.1779661774635315
1701865144825051100,9.575051025390625,-9.080761909484863,-3.5973098278045654,0.17318053543567657
1701865144834644700,9.584644775390625,-9.08554744720459,-3.649951934814453,0.18514464795589447
1701865144844237300,9.5942373046875,-9.140582084655762,-3.726522207260132,0.1660020649433136
1701865144853829000,9.6038291015625,-9.020941734313965,-3.8703906536102295,0.2186441719532013
1701865144863422000,9.613421875,-9.061619758605957,-3.6308093070983887,0.046360939741134644
1701865144873015300,9.623015380859375,-9.07119083404541,-3.702594041824341,0.02961117960512638
1701865144882608000,9.632608154296875,-8.984749794006348,-3.7002010345458984,-0.04247260093688965
1701865144892200000,9.642199951171875,-8.970393180847168,-3.6930227279663086,0.06311069428920746
1701865144901792800,9.651792724609376,-8.9943208694458,-3.7241294384002686,0.015254244208335876
1701865144911386000,9.66138623046875,-8.953642845153809,-3.7097723484039307,-0.023030918091535568
1701865144920979000,9.67097900390625,-8.989535331726074,-3.7097723484039307,0.015254244208335876
1701865144930570800,9.68057080078125,-8.944071769714355,-3.6786656379699707,0.027218356728553772
1701865144940163300,9.690163330078125,-8.774181365966797,-3.681058645248413,-0.0014955141814425588
1701865144949757000,9.6997568359375,-8.817252159118652,-3.6379876136779785,0.02961117960512638
1701865144959349800,9.709349853515626,-8.826823234558105,-3.618845224380493,0.005682953633368015
1701865144968941600,9.718941650390626,-8.929715156555176,-3.752843141555786,0.14446666836738586
1701865144978534100,9.7285341796875,-9.047262191772461,-3.7169508934020996,0.13250255584716797
1701865144988127700,9.738127685546875,-9.059226989746094,-3.6834514141082764,0.09661021083593369
1701865144997720300,9.74772021484375,-9.018548965454102,-3.7169508934020996,0.05832505226135254
1701865145007312400,9.7573125,-9.018548965454102,-3.7002010345458984,0.03918246924877167
1701865145016905000,9.766905029296876,-8.991928100585938,-3.6451661586761475,0.03439682722091675
1701865145026498600,9.77649853515625,-8.984749794006348,-3.616452217102051,0.027218356728553772
1701865145036091100,9.786091064453124,-8.953642845153809,-3.570988655090332,0.0032901312224566936
1701865145045683200,9.79568310546875,-8.946464538574219,-3.6068811416625977,0.03200400248169899
1701865145055275800,9.80527587890625,-8.956035614013672,-3.6451661586761475,0.06789634376764297
1701865145064869400,9.814869384765625,-8.979964256286621,-3.6786656379699707,0.07028916478157043
1701865145074462000,9.8244619140625,-9.020941734313965,-3.664308786392212,0.0726819857954979
1701865145084053800,9.8340537109375,-9.083154678344727,-3.6523447036743164,0.08225327730178833
1701865145093646600,9.843646484375,-8.735896110534668,-3.312563896179199,-0.1381855010986328
1701865145103240000,9.853239990234375,-9.09990406036377,-3.506382465362549,-0.00867398176342249
1701865145112832800,9.862832763671875,-8.977571487426758,-3.8464624881744385,0.16121642291545868
1701865145122424600,9.872424560546875,-8.958429336547852,-3.844069480895996,0.1133599728345871
1701865145132017400,9.882017333984376,-8.972785949707031,-3.7863426208496094,0.09421738982200623
1701865145141610800,9.89161083984375,-8.960822105407715,-3.781557083129883,0.09661021083593369
1701865145151203300,9.901203369140624,-8.927322387695312,-3.7480576038360596,0.03678964823484421
1701865145160795400,9.91079541015625,-8.965607643127441,-3.7337005138397217,0.03918246924877167
1701865145170388000,9.920387939453125,-8.975178718566895,-3.671487331390381,0.05353940650820732
1701865145179981600,9.929981689453125,-8.999106407165527,-3.6523447036743164,0.0726819857954979
1701865145189574100,9.93957421875,-8.977571487426758,-3.539881944656372,0.06550352275371552
1701865145199166200,9.949166259765626,-8.790931701660156,-3.611666679382324,-0.05922235921025276
1701865145208758800,9.9587587890625,-9.078369140625,-3.697808265686035,-0.03768695518374443
1701865145218352400,9.968352294921875,-8.927322387695312,-3.743271827697754,-0.0062811593525111675
1701865145227945000,9.977945068359375,-8.946464538574219,-3.704986810684204,-0.0062811593525111675
1701865145237537000,9.987537109375,-8.968000411987305,-3.681058645248413,0.005682953633368015
1701865145247129600,9.997129638671876,-8.999106407165527,-3.5207393169403076,0.0032901312224566936
1701865145256723200,10.00672314453125,-9.030512809753418,-3.5327036380767822,0.0894317477941513
1701865145266315800,10.016315673828124,-9.00389289855957,-3.5614173412323,0.046360939741134644
1701865145275907600,10.025907470703125,-9.05444049835205,-3.5494532585144043,0.05114658549427986
1701865145285500400,10.03550048828125,-9.052047729492188,-3.5494532585144043,0.05114658549427986
1701865145295094000,10.045093994140625,-9.01107120513916,-3.5422747135162354,0.043968115001916885
1701865145304686600,10.0546865234375,-8.999106407165527,-3.5590245723724365,0.008075776509940624
1701865145314278400,10.0642783203125,-8.987142562866211,-3.5518460273742676,-0.02063809521496296
1701865145323871200,10.073871337890624,-8.977571487426758,-3.5662031173706055,-0.04247260093688965
1701865145333464600,10.083464599609375,-9.00389289855957,-3.5733814239501953,0.005682953633368015
1701865145343057400,10.093057373046875,-8.975178718566895,-3.55423903465271,-0.0014955141814425588
1701865145352649200,10.102649169921875,-9.28893756866455,-3.6595232486724854,0.16121642291545868
1701865145362242000,10.112241943359376,-8.898608207702637,-3.5279178619384766,-0.1381855010986328
1701865145371835400,10.12183544921875,-8.929715156555176,-3.458526134490967,-0.15254244208335876
1701865145381428000,10.131427978515624,-8.956035614013672,-3.46091890335083,-0.09511470049619675
1701865145391020000,10.14102001953125,-9.018548965454102,-3.4417762756347656,-0.07836493849754333
1701865145400612600,10.150612548828125,-8.968000411987305,-3.4345977306365967,-0.09511470049619675
1701865145410206200,10.160206298828125,-8.996713638305664,-3.482454299926758,-0.06640082597732544
1701865145419798800,10.169798828125,-9.040083885192871,-3.4896326065063477,-0.07118647545576096
1701865145429390800,10.179390869140626,-9.013463973999023,-3.446561813354492,-0.10707881301641464
1701865145438983400,10.1889833984375,-9.030512809753418,-3.46809720993042,-0.09032905846834183
1701865145448577000,10.198576904296875,-9.042476654052734,-3.5039896965026855,-0.030209386721253395
1701865145458169600,10.208169677734375,-9.075976371765137,-3.4944183826446533,-0.01824527233839035
1701865145467761400,10.217761474609375,-9.059226989746094,-3.451347589492798,-0.030209386721253395
1701865145477354200,10.227354248046876,-9.013463973999023,-3.46809720993042,-0.01585244946181774
1701865145486947600,10.236947509765624,-8.996713638305664,-3.49920392036438,-0.032602209597826004
1701865145496540400,10.24654052734375,-8.963214874267578,-3.5350964069366455,-0.05922235921025276
1701865145506132200,10.25613232421875,-8.984749794006348,-3.58534574508667,-0.04007977992296219
1701865145515725000,10.26572509765625,-8.996713638305664,-3.616452217102051,-0.01585244946181774
1701865145525318400,10.275318359375,-8.9943208694458,-3.618845224380493,-0.0038883367087692022
1701865145534911200,10.2849111328125,-8.960822105407715,-3.704986810684204,0.0032901312224566936
1701865145544503000,10.2945029296875,-8.979964256286621,-3.7384862899780273,0.041575293987989426
1701865145554095600,10.304095703125,-8.972785949707031,-3.7384862899780273,0.06071787327528
1701865145563689200,10.313689208984375,-8.984749794006348,-3.7337005138397217,0.06311069428920746
1701865145573282000,10.323281982421875,-8.987142562866211,-3.7002010345458984,0.0726819857954979
1701865145582873900,10.332873779296875,-8.989535331726074,-3.6930227279663086,0.07028916478157043
1701865145592466400,10.342466552734376,-9.023334503173828,-3.6930227279663086,0.09661021083593369
1701865145602060000,10.35206005859375,-9.023334503173828,-3.6523447036743164,0.09900303930044174
1701865145611652600,10.361652587890624,-9.020941734313965,-3.6140594482421875,0.1013958603143692
1701865145621244700,10.37124462890625,-9.01107120513916,-3.5829527378082275,0.06789634376764297
1701865145630837200,10.380837158203125,-9.01107120513916,-3.5111682415008545,0.024825535714626312
1701865145640430800,10.390430908203125,-9.056833267211914,-3.4704902172088623,0.0487537607550621
1701865145650023400,10.4000234375,-9.07119083404541,-3.55423903465271,0.18514464795589447
1701865145659615500,10.409615478515626,-9.073583602905273,-3.5685958862304688,0.12293126434087753
1701865145669208000,10.4192080078125,-9.078369140625,-3.570988655090332,0.08225327730178833
1701865145678801700,10.4288017578125,-9.078369140625,-3.55423903465271,0.0487537607550621
1701865145688394200,10.438394287109375,-9.07119083404541,-3.594916820526123,0.06789634376764297
1701865145697986000,10.447986083984375,-9.025727272033691,-3.5973098278045654,0.05832505226135254
1701865145707579000,10.457578857421876,-8.989535331726074,-3.578167200088501,0.05114658549427986
1701865145717172200,10.467172119140624,-8.977571487426758,-3.5733814239501953,0.03200400248169899
1701865145726765000,10.47676513671875,-8.968000411987305,-3.55423903465271,0.015254244208335876
1701865145736356900,10.48635693359375,-8.9943208694458,-3.5757744312286377,0.012861421331763268
1701865145745949700,10.49594970703125,-9.047262191772461,-3.688236951828003,0.05114658549427986
1701865145755543000,10.50554296875,-8.972785949707031,-3.7313077449798584,0.010468599386513233
1701865145765135600,10.515135498046876,-8.987142562866211,-3.690629720687866,-0.02063809521496296
1701865145774727700,10.524727783203126,-9.025727272033691,-3.664308786392212,-0.027816563844680786
1701865145784320300,10.5343203125,-9.001500129699707,-3.750450372695923,0.0032901312224566936
1701865145793913900,10.543913818359375,-8.979964256286621,-3.7767715454101562,0.027218356728553772
1701865145803506400,10.55350634765625,-8.975178718566895,-3.695415496826172,0.03678964823484421
1701865145813098500,10.563098388671875,-8.941679000854492,-3.697808265686035,0.008075776509940624
1701865145822691000,10.572691162109376,-8.927322387695312,-3.6834514141082764,0.015254244208335876
1701865145832284700,10.58228466796875,-8.922536849975586,-3.6044881343841553,0.020039889961481094
1701865145841877200,10.591877197265624,-8.951250076293945,-3.5829527378082275,-0.032602209597826004
1701865145851469000,10.601468994140625,-8.987142562866211,-3.539881944656372,-0.01824527233839035
1701865145861062000,10.611061767578125,-8.970393180847168,-3.5255250930786133,-0.0062811593525111675
1701865145870655500,10.620655517578125,-8.960822105407715,-3.5446677207946777,-0.0038883367087692022
1701865145880248000,10.630248046875,-8.972785949707031,-3.578167200088501,0.008075776509940624
1701865145889839900,10.63983984375,-8.948857307434082,-3.6475589275360107,0.024825535714626312
1701865145899432700,10.6494326171875,-8.912964820861816,-3.688236951828003,0.012861421331763268
1701865145909026300,10.6590263671875,-8.996713638305664,-3.712165117263794,0.024825535714626312
1701865145918619000,10.668618896484375,-9.061619758605957,-3.7073795795440674,0.05593222752213478
1701865145928210700,10.678210693359375,-9.030512809753418,-3.6930227279663086,0.05832505226135254
1701865145937803500,10.687803466796876,-9.035298347473145,-3.7169508934020996,0.09900303930044174
1701865145947396900,10.69739697265625,-9.023334503173828,-3.752843141555786,0.06311069428920746
1701865145956989700,10.70698974609375,-9.023334503173828,-3.8057844638824463,0.05593222752213478
1701865145966581500,10.71658154296875,-9.013463973999023,-3.8030924797058105,0.06550352275371552
1701865145976174000,10.726174072265625,-9.018548965454102,-3.7959139347076416,0.05114658549427986
1701865145985767700,10.735767578125,-8.9943208694458,-3.767200231552124,0.06789634376764297
1701865145995360300,10.7453603515625,-8.958429336547852,-3.7073795795440674,0.1013958603143692
1701865146004952300,10.754952392578126,-8.968000411987305,-3.6762728691101074,0.12053844332695007
1701865146014545000,10.764544921875,-8.889037132263184,-3.611666679382324,0.09421738982200623
1701865146024138500,10.774138427734375,-8.91775131225586,-3.690629720687866,0.11814561486244202
1701865146033731000,10.78373095703125,-8.927322387695312,-3.695415496826172,0.08703892678022385
1701865146043323100,10.7933232421875,-8.951250076293945,-3.6834514141082764,0.07507480680942535
1701865146052915700,10.802915771484376,-8.991928100585938,-3.721736431121826,0.06311069428920746
1701865146062509300,10.81250927734375,-8.972785949707031,-3.7480576038360596,0.024825535714626312
1701865146072102000,10.822101806640624,-9.00389289855957,-3.791128396987915,0.0008973084622994065
1701865146081693700,10.831693603515625,-9.037691116333008,-3.8225340843200684,0.017647067084908485
1701865146091286500,10.84128662109375,-9.126225471496582,-3.9637107849121094,0.02961117960512638
1701865146100880100,10.850880126953125,-8.991928100585938,-3.889533281326294,0.017647067084908485
1701865146110472700,10.86047265625,-8.920144081115723,-3.8703906536102295,-0.01824527233839035
1701865146120064500,10.870064453125,-8.841180801391602,-3.8392839431762695,-0.032602209597826004
1701865146129657300,10.8796572265625,-8.929715156555176,-3.8536407947540283,-0.011066804639995098
1701865146139250700,10.889250732421875,-8.965607643127441,-3.8871402740478516,0.041575293987989426
1701865146148843500,10.898843505859375,-8.891429901123047,-3.760021686553955,0.03678964823484421
1701865146158435300,10.908435302734375,-8.922536849975586,-3.750450372695923,0.043968115001916885
1701865146168028000,10.91802783203125,-8.912964820861816,-3.7241294384002686,0.0894317477941513
1701865146177621500,10.92762158203125,-8.934500694274902,-3.757628917694092,0.1372881978750229
1701865146187214000,10.937214111328124,-8.934500694274902,-3.7624144554138184,0.17318053543567657
1701865146196806100,10.94680615234375,-8.982357025146484,-3.750450372695923,0.1827518343925476
1701865146206398700,10.956398681640625,-9.00389289855957,-3.743271827697754,0.19232311844825745
1701865146215992300,10.965992431640625,-9.00389289855957,-3.7456648349761963,0.20189441740512848
1701865146225585000,10.9755849609375,-8.975178718566895,-3.781557083129883,0.20428723096847534
1701865146235177000,10.985177001953126,-8.996713638305664,-3.7648072242736816,0.1947159469127655
1701865146244769500,10.99476953125,-9.006285667419434,-3.7408790588378906,0.2066800594329834
1701865146254363100,11.004363037109375,-9.006285667419434,-3.7337005138397217,0.20189441740512848
1701865146263955700,11.013955810546875,-8.999106407165527,-3.7145581245422363,0.1947159469127655
1701865146273547800,11.0235478515625,-8.987142562866211,-3.726522207260132,0.21385852992534637
1701865146283140400,11.033140380859376,-8.975178718566895,-3.721736431121826,0.19950158894062042
1701865146292734000,11.04273388671875,-9.013463973999023,-3.681058645248413,0.22582264244556427
1701865146302326500,11.052326416015624,-9.087940216064453,-3.666701555252075,0.21385852992534637
1701865146311918300,11.06191845703125,-9.06401252746582,-3.6595232486724854,0.16121642291545868
1701865146321511200,11.07151123046875,-8.927322387695312,-3.736093521118164,0.1779661774635315
1701865146331104500,11.0811044921875,-9.142974853515625,-3.750450372695923,0.29760730266571045
1701865146340697300,11.090697265625,-8.975178718566895,-3.712165117263794,0.2186441719532013
1701865146350289200,11.1002890625,-8.9010009765625,-3.673880100250244,0.1707877218723297
1701865146359882000,11.109882080078124,-8.812466621398926,-3.5757744312286377,0.07028916478157043
1701865146369475300,11.119475341796875,-9.047262191772461,-3.5350964069366455,0.1420738399028778
1701865146379068000,11.12906787109375,-8.826823234558105,-3.736093521118164,0.19950158894062042
1701865146388660000,11.138659912109375,-8.884251594543457,-3.6355948448181152,0.10857433080673218
1701865146398252500,11.14825244140625,-8.834002494812012,-3.475275754928589,0.022432712838053703
1701865146407846100,11.15784619140625,-8.836395263671875,-3.4106695652008057,-0.02063809521496296
1701865146417438700,11.167438720703124,-8.862715721130371,-3.6690943241119385,0.07746763527393341
1701865146427030800,11.17703076171875,-8.867501258850098,-3.6284165382385254,0.05832505226135254
1701865146436623400,11.186623291015625,-8.896215438842773,-3.673880100250244,0.041575293987989426
1701865146446217000,11.196217041015625,-8.869894027709961,-3.681058645248413,0.03200400248169899
1701865146455809500,11.2058095703125,-8.869894027709961,-3.736093521118164,0.06789634376764297
1701865146465401300,11.2154013671875,-8.944071769714355,-3.721736431121826,0.07507480680942535
1701865146474994200,11.224994140625,-8.987142562866211,-3.7648072242736816,0.11096715182065964
1701865146484587800,11.234587890625,-9.01107120513916,-3.728914976119995,0.12053844332695007
1701865146494180400,11.244180419921875,-9.066405296325684,-3.7648072242736816,0.09900303930044174
1701865146503772200,11.253772216796875,-9.121439933776855,-3.889533281326294,0.16121642291545868
1701865146513365000,11.263364990234376,-9.10229778289795,-3.9637107849121094,0.1660020649433136
1701865146522958300,11.272958251953124,-9.111868858337402,-3.8703906536102295,0.13250255584716797
1701865146532551200,11.28255126953125,-9.272188186645508,-3.844069480895996,0.20907287299633026
1701865146542143000,11.29214306640625,-9.159725189208984,-3.9349968433380127,0.125324085354805
1701865146551735600,11.301735595703125,-8.948857307434082,-3.8919260501861572,-0.0038883367087692022
1701865146561329200,11.3113291015625,-9.05444049835205,-3.760021686553955,0.09182456880807877
1701865146570922000,11.320921875,-9.133403778076172,-3.7145581245422363,0.0894317477941513
1701865146580513800,11.330513671875,-9.135796546936035,-3.913461446762085,0.0726819857954979
1701865146590106400,11.3401064453125,-8.848359107971191,-3.53031063079834,0.03439682722091675
1701865146599700000,11.349699951171875,-8.719146728515625,-3.5135610103607178,0.02961117960512638
1701865146609292500,11.35929248046875,-9.025727272033691,-3.36759877204895,0.07746763527393341
1701865146618884600,11.368884521484375,-8.939286231994629,-3.310171127319336,0.09900303930044174
1701865146628477200,11.378477294921876,-9.095118522644043,-3.5733814239501953,0.14446666836738586
1701865146638070800,11.38807080078125,-9.08554744720459,-3.5350964069366455,0.11814561486244202
1701865146647663400,11.397663330078124,-8.786145210266113,-3.381955623626709,-0.04007977992296219
1701865146657255400,11.40725537109375,-8.874680519104004,-3.2237303256988525,0.010468599386513233
1701865146666848000,11.416847900390625,-8.905786514282227,-3.5207393169403076,0.1013958603143692
1701865146676441600,11.426441650390625,-9.07119083404541,-3.5925240516662598,0.09661021083593369
1701865146686034200,11.4360341796875,-9.020941734313965,-3.446561813354492,0.03200400248169899
1701865146695626000,11.4456259765625,-9.090332984924316,-3.587738513946533,0.041575293987989426
1701865146705218800,11.45521875,-8.960822105407715,-3.4896326065063477,0.005682953633368015
1701865146714812400,11.4648125,-8.948857307434082,-3.3939197063446045,-0.027816563844680786
1701865146724405000,11.474405029296875,-8.9010009765625,-3.4633116722106934,0.022432712838053703
1701865146733996800,11.483996826171875,-8.934500694274902,-3.4250264167785645,0.022432712838053703
1701865146743589600,11.493589599609376,-9.044869422912598,-3.6834514141082764,0.09421738982200623
1701865146753183000,11.503182861328124,-9.030512809753418,-3.5733814239501953,0.043968115001916885
1701865146762775600,11.512775634765624,-9.035298347473145,-3.396312713623047,-0.01824527233839035
1701865146772367600,11.52236767578125,-9.028120040893555,-3.4393835067749023,0.0008973084622994065
1701865146781960200,11.531960205078125,-8.968000411987305,-3.5446677207946777,-0.1501496136188507
1701865146791553800,11.5415537109375,-9.190832138061523,-3.673880100250244,0.19710876047611237
1701865146801146400,11.551146484375,-9.236295700073242,-3.6236307621002197,0.1660020649433136
1701865146810738400,11.560738525390626,-9.32004451751709,-3.7384862899780273,0.17557336390018463
1701865146820331000,11.5703310546875,-9.138189315795898,-3.6236307621002197,0.0894317477941513
1701865146829924600,11.579924560546875,-9.049654960632324,-3.4657044410705566,0.06550352275371552
1701865146839517200,11.58951708984375,-9.023334503173828,-3.2766714096069336,0.03439682722091675
1701865146849109200,11.599109130859375,-8.810073852539062,-3.070589542388916,-0.11186445504426956
1701865146858701800,11.608701904296876,-8.79332447052002,-3.187838077545166,-0.07836493849754333
1701865146868295400,11.61829541015625,-9.104690551757812,-3.688236951828003,0.1899302899837494
1701865146877888000,11.627887939453124,-9.135796546936035,-3.5422747135162354,0.10857433080673218
1701865146887480000,11.63747998046875,-9.128618240356445,-3.4010982513427734,0.010468599386513233
1701865146897072600,11.64707275390625,-9.109476089477539,-3.286242723464966,0.010468599386513233
1701865146906666200,11.656666259765625,-8.968000411987305,-3.118446111679077,-0.025423740968108177
1701865146916258800,11.6662587890625,-8.977571487426758,-3.015554666519165,-0.09990034252405167
1701865146925850600,11.6758505859375,-8.996713638305664,-3.0897321701049805,-0.06400800496339798
1701865146935443500,11.685443359375,-8.982357025146484,-3.1758737564086914,-0.06161518394947052
1701865146945036800,11.695036865234375,-8.953642845153809,-3.3077781200408936,-0.11186445504426956
1701865146954629600,11.704629638671875,-8.958429336547852,-3.3939197063446045,-0.09511470049619675
1701865146964221400,11.714221435546875,-8.987142562866211,-3.4417762756347656,-0.1094716340303421
1701865146973814300,11.723814208984376,-9.023334503173828,-3.5805599689483643,-0.04007977992296219
1701865146983407600,11.73340771484375,-9.09272575378418,-3.5039896965026855,-0.0062811593525111675
1701865146993000200,11.743000244140624,-9.142974853515625,-3.52313232421875,0.043968115001916885
1701865147002592300,11.75259228515625,-9.20997428894043,-3.5207393169403076,0.07986045628786087
1701865147012184800,11.762184814453125,-9.200403213500977,-3.4322049617767334,0.015254244208335876
1701865147021778400,11.7717783203125,-9.145368576049805,-3.374777317047119,-0.04247260093688965
1701865147031371000,11.78137109375,-8.999106407165527,-3.2069804668426514,-0.15493527054786682
1701865147040963000,11.790963134765626,-8.934500694274902,-3.228515863418579,-0.14775680005550385
1701865147050555600,11.8005556640625,-8.874680519104004,-3.1758737564086914,-0.1908276081085205
1701865147060149200,11.810149169921875,-8.874680519104004,-3.1998021602630615,-0.23629122972488403
1701865147069741800,11.819741943359375,-8.903393745422363,-3.3388848304748535,-0.2721835672855377
1701865147079333600,11.829333740234375,-8.920144081115723,-3.4106695652008057,-0.32721850275993347
1701865147088926500,11.838926513671876,-9.032905578613281,-3.3317065238952637,-0.2841476798057556
1701865147098520000,11.84852001953125,-9.035298347473145,-3.326920747756958,-0.24586252868175507
1701865147108112600,11.858112548828124,-9.025727272033691,-3.312563896179199,-0.24586252868175507
1701865147117704400,11.867704345703125,-8.989535331726074,-3.2069804668426514,-0.22911277413368225
1701865147127297300,11.87729736328125,-8.963214874267578,-3.1686954498291016,-0.1788634955883026
1701865147136890600,11.886890625,-9.044869422912598,-3.4633116722106934,-0.13579268753528595
1701865147146483500,11.8964833984375,-9.267401695251465,-3.899104595184326,-0.027816563844680786
1701865147156075300,11.9060751953125,-9.32722282409668,-3.9254255294799805,0.015254244208335876
1701865147165668000,11.915668212890624,-9.233902931213379,-3.8392839431762695,0.017647067084908485
1701865147175261400,11.925261474609375,-9.001500129699707,-3.484847068786621,-0.10707881301641464
1701865147184854300,11.934854248046875,-9.042476654052734,-3.365206003189087,-0.06161518394947052
1701865147194446000,11.944446044921875,-9.097511291503906,-3.317349433898926,-0.08075776696205139
1701865147204038700,11.95403857421875,-9.20279598236084,-3.173480987548828,-0.06640082597732544
1701865147213632300,11.96363232421875,-9.365508079528809,-3.6547374725341797,-0.025423740968108177
1701865147223224800,11.973224853515624,-8.817252159118652,-2.848057270050049,-0.34636107087135315
1701865147232817000,11.98281689453125,-9.001500129699707,-3.063411235809326,-0.3248256742954254
1701865147242409500,11.992409423828125,-8.910572052001953,-3.171088218688965,-0.35114672780036926
1701865147252003000,12.002003173828125,-9.154939651489258,-3.2814571857452393,-0.1333998590707779
1701865147261595600,12.011595703125,-9.142974853515625,-3.6068811416625977,0.03439682722091675
1701865147271187700,12.021187744140626,-9.133403778076172,-3.781557083129883,0.06311069428920746
1701865147280780300,12.0307802734375,-9.147761344909668,-3.8321053981781006,0.07507480680942535
1701865147290374000,12.040373779296875,-9.142974853515625,-3.757628917694092,0.06550352275371552
1701865147299966500,12.049966552734375,-9.284152030944824,-3.851248025894165,0.12293126434087753
1701865147309558300,12.059558349609375,-8.855537414550781,-3.858426570892334,-0.13100704550743103
1701865147319151000,12.069151123046876,-9.068798065185547,-3.8368911743164062,-0.0568295381963253
1701865147328744700,12.07874462890625,-9.090332984924316,-3.923032760620117,-0.047258246690034866
1701865147338337300,12.088337158203124,-9.123832702636719,-3.8608193397521973,-0.07597211748361588
1701865147347929000,12.09792919921875,-9.190832138061523,-3.695415496826172,-0.06161518394947052
1701865147357522000,12.10752197265625,-9.181260108947754,-3.6523447036743164,-0.04486542567610741
1701865147367115300,12.117115234375,-9.159725189208984,-3.7073795795440674,-0.030209386721253395
1701865147376708000,12.1267080078125,-9.164510726928711,-3.6523447036743164,-0.054436713457107544
1701865147386300000,12.1362998046875,-9.10229778289795,-3.5446677207946777,-0.14057832956314087
1701865147395892500,12.145892578125,-9.080761909484863,-3.3604202270507812,-0.28654050827026367
1701865147405486000,12.155486083984375,-9.075976371765137,-3.4322049617767334,-0.22432711720466614
1701865147415079000,12.165078857421875,-9.073583602905273,-3.5183465480804443,-0.08554340898990631
1701865147424670700,12.174670654296875,-9.114261627197266,-3.46809720993042,-0.0687936544418335
1701865147434263300,12.18426318359375,-9.207581520080566,-3.515953779220581,0.043968115001916885
1701865147443857000,12.19385693359375,-9.22433090209961,-3.365206003189087,-0.08554340898990631
