time,seconds_elapsed,z,y,x
1701714471647900400,0.094900390625,0,0,0
1701714471657493800,0.10449365234375,0.03988075256347656,0.20162391662597656,0.0164681077003479
1701714471667086300,0.11408642578125,-0.09287166595458984,0.3610548973083496,-0.23960036039352417
1701714471676680000,0.123679931640625,-0.4599771499633789,-0.2540287971496582,-0.47294729948043823
1701714471686274000,0.133274169921875,-1.1986565589904785,-1.4819016456604004,-0.22828353941440582
1701714471695867400,0.142867431640625,-1.520218849182129,-0.6299896240234375,-1.5987138748168945
1701714471705460000,0.1524599609375,-1.211620807647705,-0.38080644607543945,-1.8470394611358643
1701714471715053600,0.162053466796875,-0.4050278663635254,-0.6295366287231445,-1.2547341585159302
1701714471724647700,0.171647705078125,0.6966867446899414,-0.644134521484375,-0.6673821806907654
1701714471734241000,0.181240966796875,1.7056636810302734,-0.6595754623413086,-0.2801957130432129
1701714471743833600,0.19083349609375,2.5861244201660156,-0.6851181983947754,-0.002244293689727783
1701714471753427000,0.200427001953125,2.604900360107422,-0.6084370613098145,0.19301939010620117
1701714471763021300,0.210021240234375,1.4144268035888672,-0.370790958404541,0.005848228931427002
1701714471772614700,0.21961474609375,0.3649892807006836,-0.5934534072875977,-0.3788275718688965
1701714471782207200,0.229207275390625,-0.3253793716430664,-0.11152791976928711,-0.709409236907959
1701714471791800600,0.238800537109375,-1.1102333068847656,-0.11924362182617188,-0.660539984703064
1701714471801395000,0.24839501953125,-1.3687963485717773,-0.40383386611938477,-0.24930226802825928
1701714471810988300,0.25798828125,-1.161529541015625,-0.08875465393066406,-0.30048251152038574
1701714471820580900,0.267580810546875,-0.8180265426635742,0.2287149429321289,-0.3805043697357178
1701714471830174200,0.27717431640625,-0.5789079666137695,0.317169189453125,-0.4066320061683655
1701714471839768600,0.2867685546875,-0.5864458084106445,0.11079168319702148,-0.3528526723384857
1701714471849362000,0.29636181640625,-0.5303993225097656,-0.06229400634765625,-0.31484711170196533
1701714471858954500,0.30595458984375,-0.4011344909667969,0.03498697280883789,-0.5239366292953491
1701714471868547800,0.3155478515625,-0.10103702545166016,0.18732500076293945,-0.8080689311027527
1701714471878142000,0.325141845703125,0.07104682922363281,0.10156965255737305,-0.8684362769126892
1701714471887735300,0.3347353515625,0.16547584533691406,-0.14165687561035156,-0.772683322429657
1701714471897327900,0.344327880859375,0.20938968658447266,-0.22060918807983398,-0.7029463052749634
1701714471906921500,0.35392138671875,0.26291942596435547,-0.1904916763305664,-0.6535781621932983
1701714471916515600,0.363515625,0.18631935119628906,-0.2382335662841797,-0.29216474294662476
1701714471926109000,0.37310888671875,-0.0174407958984375,-0.21993017196655273,0.2086656391620636
1701714471935701500,0.382701416015625,-0.30894947052001953,-0.30448055267333984,0.6586344242095947
1701714471945295000,0.392295166015625,-0.6371927261352539,-0.2723689079284668,0.605925977230072
1701714471954889200,0.40188916015625,-0.9581851959228516,-0.16919851303100586,0.32360929250717163
1701714471964482600,0.411482666015625,-0.9468164443969727,-0.17557096481323242,-0.04559990391135216
1701714471974075100,0.4210751953125,-0.7111783027648926,-0.07664728164672852,-0.156793475151062
1701714471983668700,0.430668701171875,-0.44044971466064453,-0.0821385383605957,0.1550605297088623
1701714471993262800,0.440262939453125,-0.04857635498046875,-0.15150117874145508,0.5699815154075623
1701714472002856200,0.449856201171875,0.2890939712524414,-0.1744847297668457,0.6010001301765442
1701714472012448800,0.45944873046875,0.18980121612548828,-0.13637781143188477,0.3538561463356018
1701714472022042000,0.4690419921875,-0.1778573989868164,-0.04884052276611328,-0.01639217883348465
1701714472031636500,0.478636474609375,-0.34859466552734375,-0.04692411422729492,-0.18988916277885437
1701714472041229800,0.488229736328125,-0.4026479721069336,-0.07860708236694336,0.12351507693529129
1701714472050822400,0.497822509765625,-0.4576864242553711,-0.03041839599609375,0.6773585677146912
1701714472060415700,0.507415771484375,-0.6248126029968262,0.02030038833618164,0.8663901686668396
1701714472070010000,0.517010009765625,-0.8709077835083008,0.027278423309326172,0.7833240628242493
1701714472079603500,0.526603515625,-1.1467981338500977,0.09898853302001953,0.5507640242576599
1701714472089196000,0.536196044921875,-1.3354215621948242,0.042606353759765625,0.5392746925354004
1701714472098789400,0.545789306640625,-1.2550530433654785,0.007221698760986328,0.4902713894844055
1701714472108383700,0.5553837890625,-1.0031204223632812,-0.028934001922607422,0.5233925580978394
1701714472117976800,0.564976806640625,-0.7381777763366699,-0.04745149612426758,0.5285874009132385
1701714472127569700,0.574569580078125,-0.5575346946716309,-0.11631011962890625,0.4848904013633728
1701714472137163000,0.5841630859375,-0.30895471572875977,-0.19250249862670898,0.41663625836372375
1701714472146757000,0.593757080078125,-0.2590446472167969,-0.2007617950439453,0.2593848705291748
1701714472156350500,0.6033505859375,-0.31275415420532227,-0.25022268295288086,0.21510685980319977
1701714472165943300,0.612943359375,-0.22918701171875,-0.30382633209228516,0.16331815719604492
1701714472175536600,0.62253662109375,-0.15896892547607422,-0.25071191787719727,0.08408606052398682
1701714472185130800,0.632130859375,-0.03317070007324219,-0.23434019088745117,0.10145172476768494
1701714472194724000,0.64172412109375,0.051471710205078125,-0.2502713203430176,0.25163596868515015
1701714472204317000,0.65131689453125,0.07938575744628906,-0.33593177795410156,0.4144240617752075
1701714472213910300,0.66091015625,0.030127525329589844,-0.3887515068054199,0.3422508239746094
1701714472223504400,0.67050439453125,-0.010619163513183594,-0.3476390838623047,0.2305905818939209
1701714472233097700,0.68009765625,-0.09504508972167969,-0.36226749420166016,0.2797287404537201
1701714472242690300,0.689690185546875,-0.024168014526367188,-0.3688230514526367,0.4148927927017212
1701714472252284000,0.699283935546875,0.09433174133300781,-0.37323808670043945,0.5963315963745117
1701714472261878000,0.7088779296875,0.19679737091064453,-0.36928606033325195,0.7377947568893433
1701714472271471400,0.718471435546875,0.21323394775390625,-0.33856201171875,0.7164333462715149
1701714472281064000,0.72806396484375,0.14003276824951172,-0.36806201934814453,1.154233694076538
1701714472290657500,0.737657470703125,0.05616188049316406,-0.0036611557006835938,0.5049821734428406
1701714472300251600,0.747251708984375,-0.9825882911682129,0.11356401443481445,0.14910712838172913
1701714472309845000,0.756844970703125,-1.2843775749206543,0.047374725341796875,0.14719974994659424
1701714472319437600,0.7664375,-1.7019901275634766,0.012798786163330078,0.2424120306968689
1701714472329031000,0.776031005859375,-1.5377240180969238,0.06836080551147461,0.23784306645393372
1701714472338625300,0.785625244140625,-1.0835070610046387,0.0828094482421875,0.3144581913948059
1701714472348218600,0.795218505859375,-0.5219888687133789,-0.04674577713012695,0.44266393780708313
1701714472357811200,0.804811279296875,0.07083511352539062,-0.1243281364440918,0.35155487060546875
1701714472367404500,0.814404541015625,0.4395723342895508,-0.1322956085205078,0.28413188457489014
1701714472376999000,0.8239990234375,0.657322883605957,-0.11586570739746094,0.3175250291824341
1701714472386592300,0.83359228515625,0.7102346420288086,-0.11859273910522461,0.45989668369293213
1701714472396184800,0.843184814453125,0.5285110473632812,-0.037070274353027344,0.446181058883667
1701714472405778200,0.852778076171875,0.11303329467773438,0.052332401275634766,0.30149608850479126
1701714472415372500,0.86237255859375,-0.37321901321411133,0.07774925231933594,0.2399619221687317
1701714472424965600,0.871965576171875,-0.7171669006347656,0.08860254287719727,0.28525155782699585
1701714472434558500,0.881558349609375,-0.8675751686096191,0.1504216194152832,0.37261348962783813
1701714472444151800,0.89115185546875,-0.9149918556213379,0.16387510299682617,0.335249662399292
1701714472453746000,0.900745849609375,-0.7155132293701172,0.14730215072631836,0.34179073572158813
1701714472463339300,0.91033935546875,-0.32652997970581055,0.16196823120117188,0.44899189472198486
1701714472472932000,0.91993212890625,-0.022600173950195312,0.19784021377563477,0.5704210996627808
1701714472482525400,0.929525390625,0.2223052978515625,0.2508673667907715,0.6226568222045898
1701714472492119600,0.93911962890625,0.19131088256835938,0.28293704986572266,0.4041667580604553
1701714472501713200,0.948713134765625,0.10725975036621094,0.2595367431640625,0.07558202743530273
1701714472511305700,0.9583056640625,-0.017751693725585938,0.22444963455200195,-0.0332643985748291
1701714472520899000,0.967899169921875,-0.04376411437988281,0.20397472381591797,-0.082508385181427
1701714472530493200,0.9774931640625,0.09002399444580078,0.08817911148071289,0.05263030529022217
1701714472540086500,0.98708642578125,0.23523902893066406,0.0640559196472168,0.24913275241851807
1701714472549679000,0.99667919921875,0.2421102523803711,0.08333635330200195,0.3098353147506714
1701714472559272700,1.006272705078125,0.1653881072998047,0.07398080825805664,0.1926025152206421
1701714472568866800,1.01586669921875,0.02145671844482422,0.09000968933105469,0.05268514156341553
1701714472578460200,1.025460205078125,-0.02757549285888672,0.06448841094970703,0.05191695690155029
1701714472588052700,1.035052734375,0.029509544372558594,0.05434894561767578,0.12256741523742676
1701714472597646300,1.044646240234375,0.010162353515625,0.07075071334838867,0.09227538108825684
1701714472607240400,1.054240478515625,0.00075531005859375,0.070709228515625,0.08133697509765625
1701714472616833800,1.063833740234375,0.03434181213378906,0.10821962356567383,0.016665101051330566
1701714472626426400,1.07342626953125,0.11042499542236328,0.11122322082519531,-0.006961822509765625
1701714472636020000,1.08302001953125,0.14084815979003906,0.06594038009643555,-0.11430954933166504
1701714472645614000,1.092614013671875,0.1899871826171875,0.06210470199584961,-0.14457666873931885
1701714472655207400,1.10220751953125,0.29541969299316406,0.0284271240234375,-0.02292454242706299
1701714472664800000,1.111800048828125,0.36696910858154297,0.047486305236816406,0.04314422607421875
1701714472674393300,1.121393310546875,0.32758235931396484,0.09707355499267578,-0.0018434524536132812
1701714472683987700,1.13098779296875,0.22588539123535156,0.14947080612182617,-0.1042470932006836
1701714472693581000,1.1405810546875,0.09555912017822266,0.22428512573242188,-0.18445217609405518
1701714472703173600,1.150173583984375,-0.0824127197265625,0.2585921287536621,-0.19815945625305176
1701714472712767200,1.159767333984375,-0.1687793731689453,0.23948001861572266,-0.14126408100128174
1701714472722361300,1.169361328125,-0.13930988311767578,0.18665552139282227,-0.03286397457122803
1701714472731954700,1.17895458984375,-0.0287322998046875,0.18487834930419922,0.0003139972686767578
1701714472741547300,1.18854736328125,0.02261066436767578,0.1318974494934082,-0.12161099910736084
1701714472751140600,1.198140625,0.008330345153808594,0.059702396392822266,-0.2290949821472168
1701714472760735000,1.20773486328125,0.1486654281616211,0.015693187713623047,-0.19171524047851562
1701714472770328300,1.217328369140625,0.29797840118408203,0.026617050170898438,-0.10275661945343018
1701714472779921000,1.2269208984375,0.3839406967163086,0.0009813308715820312,-0.03404676914215088
1701714472789514200,1.23651416015625,0.4527254104614258,0.012500286102294922,-0.07532477378845215
1701714472799108600,1.246108642578125,0.4318685531616211,-0.007390499114990234,-0.274747371673584
1701714472808702000,1.255701904296875,0.36772823333740234,-0.10546016693115234,-0.377874493598938
1701714472818294500,1.26529443359375,0.4264078140258789,-0.19228506088256836,-0.25973278284072876
1701714472827887900,1.274887939453125,0.45306396484375,-0.2285909652709961,-0.20568013191223145
1701714472837482200,1.284482177734375,0.3750019073486328,-0.29493141174316406,-0.16501867771148682
1701714472847075300,1.294075439453125,0.3327188491821289,-0.25902271270751953,-0.0021347999572753906
1701714472856668200,1.303668212890625,0.20729732513427734,-0.2300124168395996,-0.010589599609375
1701714472866261500,1.313261474609375,0.025061607360839844,-0.20151233673095703,-0.11491560935974121
1701714472875855600,1.322855712890625,-0.04609394073486328,-0.1730337142944336,-0.09769654273986816
1701714472885449200,1.33244921875,-0.09724903106689453,-0.06957101821899414,-0.05052042007446289
1701714472895041800,1.342041748046875,-0.2228231430053711,-0.026334285736083984,-0.03666198253631592
1701714472904635100,1.35163525390625,-0.34635114669799805,0.07121086120605469,-0.08779501914978027
1701714472914229200,1.361229248046875,-0.45408201217651367,0.11922550201416016,-0.07630801200866699
1701714472923822600,1.370822509765625,-0.4897117614746094,0.085205078125,-0.006708025932312012
1701714472933415200,1.380415283203125,-0.38104963302612305,0.06615972518920898,0.14475560188293457
1701714472943008800,1.3900087890625,-0.19813919067382812,0.027402877807617188,0.36728835105895996
1701714472952603000,1.399602783203125,-0.12107658386230469,0.036756038665771484,0.5191031694412231
1701714472962196500,1.409196533203125,-0.15324974060058594,0.0350804328918457,0.5148416757583618
1701714472971789000,1.4187890625,-0.30082082748413086,0.07131290435791016,0.4028921127319336
1701714472981382400,1.42838232421875,-0.4967231750488281,0.11327886581420898,0.22628700733184814
1701714472990976500,1.4379765625,-0.6224141120910645,0.09766149520874023,0.09037017822265625
1701714473000569900,1.44756982421875,-0.6645679473876953,0.08179569244384766,-0.009745121002197266
1701714473010162400,1.457162353515625,-0.6024880409240723,0.10005378723144531,-0.019839167594909668
1701714473019756000,1.466756103515625,-0.5812587738037109,0.05011701583862305,0.04504513740539551
1701714473029350100,1.47635009765625,-0.5773105621337891,0.09843730926513672,0.06079912185668945
1701714473038943500,1.485943603515625,-0.5371036529541016,0.10979080200195312,0.09245049953460693
1701714473048536000,1.4955361328125,-0.5256905555725098,0.061840057373046875,0.008482217788696289
1701714473058129700,1.505129638671875,-0.4300956726074219,0.03153800964355469,-0.14162397384643555
1701714473067723800,1.514723876953125,-0.2746095657348633,0.025399208068847656,-0.25841522216796875
1701714473077317000,1.524317138671875,0.01659870147705078,-0.026802539825439453,-0.2815314531326294
1701714473086909700,1.53390966796875,0.2761259078979492,-0.011513710021972656,-0.29425764083862305
1701714473096503300,1.54350341796875,0.44435787200927734,-0.010921955108642578,-0.3651829957962036
1701714473106097400,1.553097412109375,0.5209074020385742,-0.0062808990478515625,-0.4360553026199341
1701714473115690800,1.562690673828125,0.48093223571777344,-0.025377273559570312,-0.46143263578414917
1701714473125283300,1.572283447265625,0.43375492095947266,-0.05060625076293945,-0.3828762173652649
1701714473134877000,1.581876953125,0.39960384368896484,-0.06685972213745117,-0.19894921779632568
1701714473144471000,1.591470947265625,0.3420734405517578,-0.07128381729125977,-0.0522160530090332
1701714473154064400,1.601064453125,0.3391084671020508,-0.10636568069458008,0.11959874629974365
1701714473163657000,1.610656982421875,0.35948848724365234,-0.08964681625366211,0.21488213539123535
1701714473173250600,1.62025048828125,0.3442211151123047,-0.09293603897094727,0.1875762939453125
1701714473182844700,1.6298447265625,0.22550296783447266,-0.12031364440917969,0.06989049911499023
1701714473192438000,1.63943798828125,0.11576271057128906,-0.09572744369506836,0.026488423347473145
1701714473202030600,1.649030517578125,-0.03684425354003906,-0.06664085388183594,-0.0901787281036377
1701714473211624200,1.658624267578125,-0.06158924102783203,-0.11827993392944336,-0.052100300788879395
1701714473221218300,1.66821826171875,0.012129783630371094,-0.10988092422485352,0.17974841594696045
1701714473230811600,1.677811767578125,-0.019514083862304688,-0.0832366943359375,0.3259861469268799
1701714473240404200,1.687404296875,-0.21965646743774414,-0.12866544723510742,0.2546358108520508
1701714473249997800,1.696997802734375,-0.4926605224609375,-0.06646490097045898,-0.013969779014587402
1701714473259592000,1.706592041015625,-0.6710429191589355,-0.02877330780029297,-0.22786688804626465
1701714473269185300,1.716185302734375,-0.7846226692199707,-0.11379766464233398,-0.19382870197296143
1701714473278777900,1.72577783203125,-0.8034777641296387,-0.0490412712097168,-0.3317979574203491
1701714473288371500,1.735371337890625,-0.7970423698425293,-0.09387683868408203,-0.33214378356933594
1701714473297965600,1.744965576171875,-0.8009734153747559,-0.09615707397460938,-0.21264749765396118
1701714473307559000,1.754558837890625,-0.8555855751037598,-0.08672809600830078,-0.13679754734039307
1701714473317151500,1.7641513671875,-0.8310933113098145,-0.11705636978149414,0.05509388446807861
1701714473326745000,1.7737451171875,-0.8187255859375,-0.08485889434814453,0.06572520732879639
1701714473336339200,1.783339111328125,-0.7980132102966309,-0.13381195068359375,0.04113733768463135
1701714473345932500,1.7929326171875,-0.6937389373779297,-0.14516592025756836,0.021083474159240723
1701714473355525000,1.802525146484375,-0.4287247657775879,-0.20053386688232422,0.05827736854553223
1701714473365118700,1.81211865234375,-0.08428335189819336,-0.2018585205078125,0.036637187004089355
1701714473374712800,1.821712890625,0.221832275390625,-0.2459416389465332,0.020093083381652832
1701714473384306200,1.83130615234375,0.45827198028564453,-0.2675962448120117,0.008563041687011719
1701714473393899000,1.84089892578125,0.5157041549682617,-0.2695026397705078,-0.058347344398498535
1701714473403492400,1.850492431640625,0.5640792846679688,-0.2538723945617676,-0.08428406715393066
1701714473413086500,1.86008642578125,0.61541748046875,-0.23794269561767578,0.037311673164367676
1701714473422679800,1.8696796875,0.601409912109375,-0.19393634796142578,0.15998470783233643
1701714473432272600,1.879272705078125,0.5414762496948242,-0.13336706161499023,0.10255062580108643
1701714473441866000,1.888865966796875,0.45713233947753906,-0.10044431686401367,-0.040840983390808105
1701714473451460000,1.898460205078125,0.38168811798095703,-0.08522701263427734,-0.20041877031326294
1701714473461053400,1.908053466796875,0.4452991485595703,-0.058003902435302734,-0.199820876121521
1701714473470646300,1.917646240234375,0.5642538070678711,-0.022606849670410156,-0.12323468923568726
1701714473480239600,1.927239501953125,0.47894763946533203,0.015825271606445312,-0.1705378293991089
1701714473489833700,1.936833740234375,0.32157421112060547,0.004418849945068359,-0.21378624439239502
1701714473499427300,1.94642724609375,0.11359786987304688,0.04653310775756836,-0.20050859451293945
1701714473509020000,1.95602001953125,0.012981414794921875,0.04779767990112305,-0.07383215427398682
1701714473518613200,1.96561328125,-0.057900428771972656,0.09169626235961914,0.03911411762237549
1701714473528207400,1.975207275390625,-0.0973978042602539,0.1283421516418457,0.10355782508850098
1701714473537801000,1.984801025390625,-0.042191505432128906,0.15022850036621094,0.24098873138427734
1701714473547393500,1.9943935546875,-0.025536537170410156,0.17151117324829102,0.31348395347595215
1701714473556987000,2.00398681640625,-0.009141921997070312,0.16881847381591797,0.37798798084259033
1701714473566581200,2.013581298828125,-0.11361026763916016,0.22336101531982422,0.3125847578048706
1701714473576174600,2.023174560546875,-0.1701374053955078,0.1722559928894043,0.27501380443573
1701714473585767200,2.03276708984375,-0.2055196762084961,0.10189247131347656,0.3202204704284668
1701714473595360500,2.042360595703125,-0.21802139282226562,0.11676788330078125,0.21057045459747314
1701714473604955000,2.051954833984375,-0.19344139099121094,0.014822959899902344,0.17379987239837646
1701714473614548200,2.06154833984375,-0.1291646957397461,-0.01734161376953125,0.2014918327331543
1701714473624140800,2.071140869140625,0.024364471435546875,-0.10418939590454102,0.1285930871963501
1701714473633734400,2.080734375,0.1533365249633789,-0.18237018585205078,0.11012256145477295
1701714473643328500,2.09032861328125,0.4952249526977539,-0.2163090705871582,0.2859833240509033
1701714473652921900,2.099921875,0.7630195617675781,-0.06967592239379883,0.48429203033447266
1701714473662514400,2.109514404296875,0.5731630325317383,0.043825626373291016,0.448077917098999
1701714473672108000,2.11910791015625,0.18932628631591797,0.09337997436523438,0.07816708087921143
1701714473681702100,2.1287021484375,-0.2543520927429199,0.08401107788085938,-0.09006190299987793
1701714473691295500,2.13829541015625,-0.5117974281311035,0.0898890495300293,-0.2101743221282959
1701714473700888000,2.14788818359375,-0.36421823501586914,0.056072235107421875,-0.009399890899658203
1701714473710481700,2.157481689453125,-0.09418869018554688,0.05350208282470703,0.2559551000595093
1701714473720075800,2.16707568359375,-0.09130191802978516,0.11567306518554688,0.35385918617248535
1701714473729669000,2.176669189453125,-0.2091693878173828,0.1754283905029297,0.35142600536346436
1701714473739262000,2.186261962890625,-0.43613338470458984,0.29207420349121094,0.39277970790863037
1701714473748855300,2.195855224609375,-0.6905536651611328,0.31438159942626953,0.5522103309631348
1701714473758449400,2.205449462890625,-0.9612436294555664,0.41741943359375,0.41080617904663086
1701714473768043000,2.21504296875,-1.240321159362793,0.3479642868041992,0.1919645071029663
1701714473777635600,2.224635498046875,-1.1721773147583008,0.29703807830810547,0.13821256160736084
1701714473787229000,2.23422900390625,-0.6257963180541992,0.20645427703857422,0.23629868030548096
1701714473796823300,2.2438232421875,-0.07931137084960938,0.11718893051147461,0.3297114372253418
1701714473806416600,2.253416748046875,0.2689504623413086,0.0643625259399414,0.2997363805770874
1701714473816009200,2.26300927734375,0.269439697265625,0.016759395599365234,0.2696411609649658
1701714473825602600,2.2726025390625,0.03979778289794922,0.016311168670654297,0.26216864585876465
1701714473835197000,2.282197021484375,-0.1538534164428711,-0.0015225410461425781,0.23715853691101074
1701714473844790300,2.291790283203125,-0.06812572479248047,-0.14363574981689453,0.01251375675201416
1701714473854382800,2.3013828125,0.2076702117919922,-0.26335716247558594,-0.11151289939880371
1701714473863976400,2.3109765625,0.35730648040771484,-0.31726741790771484,-0.06746780872344971
1701714473873570600,2.320570556640625,0.35894298553466797,-0.24228906631469727,-0.23261761665344238
1701714473883164000,2.330163818359375,0.34935951232910156,-0.3582892417907715,0.08971273899078369
1701714473892756500,2.339756591796875,0.35019874572753906,-0.20411014556884766,0.10361266136169434
1701714473902350000,2.34935009765625,0.18384838104248047,-0.30417299270629883,0.19811022281646729
1701714473911944200,2.358944091796875,-0.008540153503417969,-0.4973769187927246,0.0736994743347168
1701714473921537500,2.36853759765625,-0.044631004333496094,-0.6556587219238281,-0.29219651222229004
1701714473931130400,2.37813037109375,0.17198848724365234,-0.8389348983764648,-0.5521301031112671
1701714473940723700,2.3877236328125,0.6109428405761719,-1.0512757301330566,-0.6578322649002075
1701714473950318000,2.397318115234375,1.2863025665283203,-1.198969841003418,-0.8088696599006653
1701714473959911400,2.406911376953125,1.9611711502075195,-1.4544398784637451,-0.9207149744033813
1701714473969504000,2.41650390625,2.5770912170410156,-1.7565994262695312,-1.1409159898757935
1701714473979097600,2.42609765625,3.2304039001464844,-1.0416440963745117,-3.4929988384246826
1701714473988691700,2.435691650390625,2.4722604751586914,-1.970998764038086,-2.5326457023620605
1701714473998285000,2.44528515625,1.87666654586792,-3.01645565032959,-1.710829734802246
1701714474007877600,2.454877685546875,1.5658774375915527,-3.40285062789917,-1.670892357826233
1701714474017471200,2.46447119140625,1.5367364883422852,-3.672783374786377,-2.9653968811035156
1701714474027065300,2.4740654296875,1.2547149658203125,-4.240346431732178,-3.327451705932617
1701714474036659000,2.483658935546875,1.1260557174682617,-4.878443241119385,-3.2869057655334473
1701714474046251500,2.49325146484375,0.7240962982177734,-5.166222095489502,-2.6313343048095703
1701714474055844900,2.502844970703125,0.7561125755310059,-5.4100518226623535,-2.194242000579834
1701714474065439200,2.512439208984375,-0.00009584426879882812,-5.497586727142334,-1.9733977317810059
1701714474075032600,2.522032470703125,-1.2350664138793945,-5.414837837219238,-1.9426045417785645
1701714474084625200,2.531625244140625,-1.4797697067260742,-5.350336074829102,-3.6236066818237305
1701714474094218800,2.54121875,-1.249591588973999,-5.44277811050415,-6.663007736206055
1701714474103812900,2.550812744140625,-1.1123015880584717,-6.2629594802856445,-7.7507171630859375
1701714474113406200,2.56040625,-0.6547501087188721,-7.2253241539001465,-6.193559646606445
1701714474122998800,2.569998779296875,0.10385441780090332,-7.278905868530273,-4.371392250061035
1701714474132592400,2.57959228515625,0.9701974391937256,-6.975546360015869,-3.4346680641174316
1701714474142186500,2.5891865234375,1.2255589962005615,-6.866467475891113,-3.276249408721924
1701714474151780000,2.598780029296875,0.8224060535430908,-6.852415561676025,-3.5563583374023438
1701714474161372700,2.60837255859375,0.17075848579406738,-6.846025466918945,-3.8894715309143066
1701714474170966000,2.617966064453125,-0.334696888923645,-6.537016868591309,-2.869739532470703
1701714474180560400,2.627560302734375,-0.6679307222366333,-6.035943031311035,-1.2828922271728516
1701714474190153700,2.63715380859375,-0.8859689831733704,-5.0223798751831055,0.3207893371582031
1701714474199746300,2.646746337890625,-1.412758231163025,-4.059500694274902,1.7184867858886719
1701714474209340000,2.65633984375,-2.089784622192383,-3.321718215942383,3.153036117553711
1701714474218934000,2.66593408203125,-2.4140331745147705,-2.332115650177002,3.8707761764526367
1701714474228527400,2.67552734375,-2.6583781242370605,-1.0945463180541992,3.612154960632324
1701714474238118400,2.685118408203125,-2.473144292831421,0.5322774648666382,2.6218080520629883
1701714474247712000,2.6947119140625,-2.891873598098755,0.7798366546630859,2.9580326080322266
1701714474257306000,2.70430615234375,-7.5899505615234375,1.3235028982162476,7.050604820251465
1701714474266899500,2.7138994140625,-29.200258255004883,2.371861457824707,25.522689819335938
1701714474276492300,2.7234921875,-28.499446868896484,8.79416275024414,18.68931770324707
1701714474286085600,2.733085693359375,-20.696714401245117,10.139264106750488,1.388901710510254
1701714474295679700,2.7426796875,-17.209928512573242,9.15053653717041,-11.044204711914062
1701714474305273300,2.7522734375,-11.621634483337402,3.985668897628784,-9.521875381469727
1701714474314866000,2.761865966796875,-4.681511878967285,0.17085933685302734,-5.496591567993164
1701714474324459500,2.77145947265625,0.8381300568580627,-1.9031271934509277,-7.045655250549316
1701714474334053600,2.7810537109375,14.959720611572266,-9.782212257385254,14.95685863494873
1701714474343647000,2.79064697265625,26.073944091796875,-9.172115325927734,24.28601837158203
1701714474353239600,2.800239501953125,19.232791900634766,-3.8222079277038574,3.481441020965576
1701714474362833200,2.809833251953125,-7.274697303771973,-4.056763648986816,2.5884976387023926
1701714474372427300,2.81942724609375,-17.822547912597656,-0.9709715843200684,1.9868183135986328
1701714474382020900,2.829020751953125,-5.315000534057617,-0.7025313377380371,0.7891316413879395
1701714474391613400,2.838613525390625,-2.2454047203063965,-0.8518433570861816,0.661684513092041
1701714474401206800,2.848206787109375,-0.3181889057159424,-1.333348274230957,-0.34572649002075195
1701714474410801200,2.85780126953125,1.3934848308563232,-0.27947568893432617,-0.39884233474731445
1701714474420394500,2.86739453125,-0.30823564529418945,-0.5717310905456543,-0.5657100677490234
1701714474429987000,2.876987060546875,-0.5644721984863281,-0.7518997192382812,-0.4203033447265625
1701714474439580700,2.88658056640625,-0.6122393608093262,-0.9394621849060059,-1.3733057975769043
1701714474449174800,2.8961748046875,-0.4399096965789795,-0.9453577995300293,-1.887402057647705
1701714474458768400,2.905768310546875,-0.19913578033447266,-1.111940860748291,-3.034613847732544
1701714474468361000,2.91536083984375,0.05085110664367676,-1.3405041694641113,-3.4403011798858643
1701714474477954300,2.924954345703125,0.8824496269226074,0.15534114837646484,-6.683592319488525
1701714474487548700,2.934548583984375,0.48039090633392334,-0.8781270980834961,-3.3964383602142334
1701714474497142000,2.94414208984375,-1.0530478954315186,-0.29737424850463867,-0.9375991821289062
1701714474506734600,2.953734619140625,0.09782147407531738,-0.7015633583068848,-0.31325244903564453
1701714474516328200,2.963328125,1.9167252779006958,-0.028357982635498047,-3.0990025997161865
1701714474525922300,2.97292236328125,3.3618388175964355,1.294255256652832,-3.928522825241089
1701714474535516000,2.982515869140625,-1.9747984409332275,0.19565200805664062,0.3654336929321289
1701714474545108500,2.9921083984375,-0.6139259338378906,1.7329778671264648,0.9256563186645508
1701714474554702000,3.0017021484375,0.3956637382507324,1.6069273948669434,2.1257214546203613
1701714474564296200,3.011296142578125,0.17953944206237793,1.621279239654541,1.8983306884765625
1701714474573889500,3.0208896484375,-0.09297716617584229,1.5556941032409668,0.07722902297973633
1701714474583482400,3.030482421875,1.7121059894561768,-0.027807235717773438,3.1943259239196777
1701714474593075700,3.04007568359375,0.790942907333374,0.6945633888244629,3.4698338508605957
1701714474602670000,3.049670166015625,-0.3801710605621338,2.2916831970214844,2.165687084197998
1701714474612263400,3.059263427734375,-1.1098389625549316,3.259122848510742,0.9648728370666504
1701714474621856000,3.06885595703125,-2.217484712600708,4.070187091827393,2.228560447692871
1701714474631449600,3.07844970703125,-0.8304898738861084,5.091031074523926,0.2166585922241211
1701714474641043700,3.088043701171875,1.1288166046142578,4.239237308502197,0.34598350524902344
1701714474650637300,3.09763720703125,0.39503538608551025,4.199097156524658,0.40305185317993164
1701714474660230000,3.10722998046875,-0.5002014636993408,4.463808536529541,0.5047035217285156
1701714474669823200,3.1168232421875,1.5527384281158447,2.596787929534912,0.10881185531616211
1701714474679417600,3.12641748046875,2.9019787311553955,-1.4004945755004883,-0.5310392379760742
1701714474689011000,3.136010986328125,-0.726844072341919,-3.1579294204711914,2.892578125
1701714474698603800,3.145603759765625,-0.2152104377746582,-5.214862823486328,1.6219863891601562
1701714474708197000,3.155197021484375,-0.35792601108551025,-4.491229057312012,1.1193790435791016
1701714474717791500,3.16479150390625,-2.0898680686950684,-5.271636962890625,2.830303192138672
1701714474727384800,3.174384765625,0.5980027914047241,-6.710110664367676,3.3534064292907715
1701714474736977400,3.183977294921875,0.02305889129638672,-6.526426315307617,1.972945213317871
1701714474746571000,3.193571044921875,-1.3883508443832397,-6.793430328369141,1.1426911354064941
1701714474756165000,3.2031650390625,-0.38807356357574463,-7.332423210144043,-0.917508602142334
1701714474765758700,3.2127587890625,-0.17195343971252441,-6.843538284301758,-3.892000198364258
1701714474775351300,3.222351318359375,-0.5296000242233276,-3.1956043243408203,-2.287978410720825
1701714474784944600,3.231944580078125,-1.035765290260315,3.02956485748291,-4.069897174835205
1701714474794539000,3.2415390625,-0.29779064655303955,1.4209179878234863,-1.0491666793823242
1701714474804132400,3.25113232421875,0.43931448459625244,0.559323787689209,-0.67889404296875
1701714474813725200,3.26072509765625,0.31059759855270386,0.5314111709594727,-1.0233144760131836
1701714474823318500,3.270318603515625,0.32119065523147583,0.8748407363891602,-1.3171532154083252
1701714474832913000,3.279912841796875,-0.219038188457489,0.6962919235229492,-0.4132556915283203
1701714474842506200,3.28950634765625,-0.4254298210144043,0.06509780883789062,-0.37779808044433594
1701714474852098800,3.299098876953125,-0.3726852536201477,-0.6936941146850586,-0.45209503173828125
1701714474861692400,3.3086923828125,-0.4784266948699951,-0.5016670227050781,-1.2484421730041504
1701714474871286500,3.31828662109375,-0.19356638193130493,0.49581336975097656,-2.1428987979888916
1701714474880880000,3.327880126953125,-0.643136739730835,0.4126014709472656,-2.8804593086242676
1701714474890472700,3.33747265625,-0.6092616319656372,0.37013816833496094,-1.8741888999938965
1701714474900066300,3.34706640625,-0.5039821863174438,0.05352592468261719,-0.6175682544708252
1701714474909660400,3.356660400390625,-0.0472872257232666,-0.23934650421142578,0.5241298675537109
1701714474919254000,3.36625390625,0.3138057589530945,-0.6244430541992188,1.136889934539795
1701714474928846600,3.3758466796875,0.32511281967163086,-0.9985017776489258,1.7457530498504639
1701714474938440000,3.38543994140625,0.10803556442260742,-1.2714567184448242,2.1257376670837402
1701714474948034300,3.395034423828125,0.010599374771118164,-1.5057973861694336,2.6090519428253174
1701714474957627600,3.404627685546875,-0.08877718448638916,-1.6972026824951172,2.6119675636291504
1701714474967220500,3.414220458984375,-0.13926243782043457,-1.1018905639648438,1.571199893951416
1701714474976813800,3.423813720703125,-5.255092144012451,11.004833221435547,-5.233249187469482
1701714474986408200,3.433408203125,1.8011908531188965,7.12596321105957,-3.4830000400543213
1701714474996001500,3.44300146484375,3.567215919494629,4.317304611206055,0.5686209201812744
1701714475005594000,3.452593994140625,1.1231392621994019,7.225130081176758,-1.1111795902252197
1701714475015187700,3.462187744140625,2.044386863708496,7.793006420135498,-1.8306719064712524
1701714475024782000,3.471781982421875,2.3986639976501465,8.003868103027344,-1.7958977222442627
1701714475034375400,3.48137548828125,2.359097719192505,9.095390319824219,-1.069399356842041
1701714475043968000,3.490968017578125,2.0486717224121094,9.303921699523926,-0.5436565279960632
1701714475053561600,3.5005615234375,-0.42231285572052,7.440079689025879,0.8246033787727356
1701714475063155700,3.51015576171875,-3.6375699043273926,5.718709468841553,1.8548173904418945
1701714475072749300,3.519749267578125,-6.017996311187744,3.9352946281433105,2.8189775943756104
1701714475082342000,3.529341796875,-5.365015029907227,0.8753862380981445,4.3770060539245605
1701714475091935500,3.538935546875,-1.4366087913513184,0.08095645904541016,2.0745432376861572
1701714475101529600,3.548529541015625,-1.5880697965621948,-35.603363037109375,-7.011471748352051
1701714475111123200,3.558123291015625,-3.2544922828674316,-35.09960174560547,-3.642997980117798
1701714475120715800,3.5677158203125,9.42569637298584,-8.873834609985352,5.070777416229248
1701714475130309000,3.57730908203125,4.688491344451904,-5.291399002075195,0.08281579613685608
1701714475139903500,3.586903564453125,1.3172194957733154,-2.5358400344848633,-1.1601667404174805
1701714475149496800,3.596496826171875,0.5381469130516052,-2.0488052368164062,-0.7552932500839233
1701714475159089700,3.606089599609375,-0.09657526016235352,-1.5787200927734375,-0.14812830090522766
1701714475168683000,3.61568310546875,-0.5206316709518433,-0.014516830444335938,-1.0100666284561157
1701714475178277400,3.62527734375,-1.048327922821045,0.8320760726928711,-1.159409761428833
1701714475187870700,3.63487060546875,-1.3411790132522583,0.9244070053100586,-0.7024543285369873
1701714475197463300,3.64446337890625,-1.0985145568847656,0.8211860656738281,-0.22214312851428986
1701714475207057000,3.654056884765625,-0.35835063457489014,0.5906076431274414,-0.06822855770587921
1701714475216651000,3.663651123046875,0.09932243824005127,0.2527751922607422,0.1039508581161499
1701714475226244600,3.67324462890625,0.4284152388572693,0.10228919982910156,0.2558576762676239
1701714475235837200,3.682837158203125,0.3552042245864868,-0.057384490966796875,0.4452650547027588
1701714475245430800,3.6924306640625,-0.48855018615722656,-0.4990806579589844,0.5194332003593445
1701714475255025000,3.70202490234375,1.30091392993927,1.7923622131347656,-1.849694013595581
1701714475264618500,3.711618408203125,0.009242892265319824,-1.7346467971801758,0.3996054530143738
1701714475274211000,3.721211181640625,-0.20059800148010254,-2.00260066986084,0.5336588621139526
1701714475283804700,3.7308046875,-0.060890793800354004,-1.615412712097168,-0.09760260581970215
1701714475293398800,3.740398681640625,-0.2249455451965332,-1.3698978424072266,-0.19442062079906464
1701714475302992400,3.749992431640625,-0.2292945384979248,-1.1796913146972656,-0.13217663764953613
1701714475312585000,3.7595849609375,-0.1530979871749878,-0.9157295227050781,-0.10444088280200958
1701714475322178300,3.76917822265625,-0.027895092964172363,-0.58056640625,-0.13171972334384918
1701714475331772700,3.778772705078125,0.0245513916015625,-0.2245655059814453,-0.13901647925376892
1701714475341366000,3.788365966796875,0.07681679725646973,0.054198265075683594,-0.15684956312179565
1701714475350958800,3.797958740234375,0.039278507232666016,0.44443798065185547,-0.17200839519500732
1701714475360552200,3.80755224609375,-0.17860841751098633,0.9576330184936523,-0.21453121304512024
1701714475370146600,3.817146484375,-0.6258989572525024,1.6790351867675781,-0.3099609911441803
1701714475379740000,3.826739990234375,-1.0626983642578125,2.6126651763916016,-0.5335072875022888
1701714475389332700,3.836332763671875,-0.23360049724578857,2.02236270904541,-0.20308361947536469
1701714475398926000,3.845926025390625,0.13643419742584229,1.416895866394043,-0.10614395141601562
1701714475408520400,3.8555205078125,0.1540539264678955,1.0066003799438477,0.17183539271354675
1701714475418113800,3.86511376953125,0.043256282806396484,0.6381998062133789,0.35157763957977295
1701714475427706400,3.874706298828125,-0.09763216972351074,0.31156253814697266,0.24048268795013428
1701714475437300000,3.884300048828125,-0.17655539512634277,-0.011732101440429688,0.1417641043663025
1701714475446894300,3.893894287109375,-0.22990882396697998,-0.5422248840332031,0.4139321446418762
1701714475456487700,3.90348779296875,-0.5316375494003296,-1.0456304550170898,0.6768112182617188
1701714475466080300,3.913080322265625,-0.8179608583450317,-1.070601463317871,0.38655203580856323
1701714475475673900,3.922673828125,-0.7489832639694214,-1.2130279541015625,0.35274744033813477
1701714475485268200,3.932268310546875,-0.514069676399231,-1.5039167404174805,0.6436705589294434
1701714475494861600,3.941861572265625,-0.49801671504974365,-1.6421489715576172,0.913822591304779
1701714475504454100,3.9514541015625,-0.5707416534423828,-1.6688814163208008,1.0055046081542969
1701714475514047700,3.9610478515625,-0.26722216606140137,-1.770782470703125,1.1736352443695068
1701714475523641900,3.970641845703125,-0.04044020175933838,-1.6774682998657227,0.8702936172485352
1701714475533235500,3.9802353515625,-0.25137555599212646,-1.085597038269043,0.3258403539657593
1701714475542828000,3.989828125,-0.587384819984436,-0.39480018615722656,-0.05411648750305176
1701714475552421600,3.999421630859375,-0.8995537757873535,-0.39105892181396484,0.05611872673034668
1701714475562015700,4.009015625,-1.1696827411651611,-0.4851388931274414,-0.09608519077301025
1701714475571609300,4.018609375,-1.4577794075012207,-0.3802070617675781,-0.3450215458869934
1701714475581202000,4.028201904296875,-1.536231279373169,-0.29132938385009766,-0.5346155762672424
1701714475590795300,4.037795166015625,-1.4975439310073853,-0.18251705169677734,-0.7181072235107422
1701714475600389600,4.0473896484375,-1.7107981443405151,-0.034789085388183594,-0.7968233823776245
1701714475609983000,4.05698291015625,-1.0322602987289429,0.23293399810791016,-0.8507044911384583
1701714475619575800,4.066575927734375,-1.0525950193405151,0.414825439453125,-0.852480947971344
1701714475629169200,4.076169189453125,-0.9559338092803955,0.5036993026733398,-0.7420129179954529
1701714475638763500,4.085763427734375,-0.8483567237854004,0.40643310546875,-0.6698472499847412
1701714475648356900,4.09535693359375,-0.7215300798416138,0.28333187103271484,-0.5284957885742188
1701714475657949700,4.10494970703125,-0.5811773538589478,0.2776927947998047,-0.3769404888153076
1701714475667543000,4.11454296875,-0.601264238357544,0.2934989929199219,-0.27147555351257324
1701714475677137400,4.124137451171875,-0.7853825092315674,0.3760242462158203,-0.2713923454284668
1701714475686730800,4.133730712890625,-0.9175857305526733,0.508357048034668,-0.2972574830055237
1701714475696323600,4.143323486328125,-0.9932042360305786,0.7692451477050781,-0.29122769832611084
1701714475705917000,4.1529169921875,-1.0481364727020264,0.9028291702270508,-0.11492645740509033
1701714475715511300,4.16251123046875,-1.1200282573699951,0.9285154342651367,0.01917731761932373
1701714475725104600,4.172104736328125,-1.208675503730774,0.9110603332519531,0.1974163055419922
1701714475734697200,4.181697265625,-1.1115599870681763,0.87451171875,0.493566632270813
1701714475744290800,4.191290771484375,-0.9919209480285645,0.7306175231933594,0.7783641815185547
1701714475753885200,4.20088525390625,-0.8319231271743774,0.6685028076171875,0.9803181886672974
1701714475763478500,4.210478515625,-0.720550537109375,0.7263469696044922,1.1099135875701904
1701714475773071000,4.220071044921875,-0.6930649280548096,0.8561611175537109,1.209063172340393
1701714475782664700,4.229664794921875,-0.6990659236907959,0.9981050491333008,1.3498719930648804
1701714475792258800,4.2392587890625,-0.8261752128601074,1.0469226837158203,1.4052635431289673
1701714475801852400,4.248852294921875,-0.8517278432846069,0.9048023223876953,1.4296303987503052
1701714475811445000,4.258445068359375,-0.9073679447174072,0.7799615859985352,1.367862343788147
1701714475821038600,4.26803857421875,-1.0092028379440308,0.660304069519043,1.3297841548919678
1701714475830632700,4.2776328125,-1.146924376487732,0.6292572021484375,1.2480746507644653
1701714475840226300,4.287226318359375,-1.28724205493927,0.581456184387207,1.2509678602218628
1701714475849819000,4.29681884765625,-1.4158504009246826,0.47136783599853516,1.2959978580474854
1701714475859412500,4.30641259765625,-1.556968331336975,0.3444080352783203,1.3626853227615356
1701714475869006600,4.316006591796875,-1.6221504211425781,0.24836349487304688,1.2719179391860962
1701714475878600200,4.32560009765625,-1.6537405252456665,0.2762622833251953,1.0392640829086304
1701714475888192800,4.33519287109375,-1.6985564231872559,0.3297920227050781,0.8829687833786011
1701714475897786400,4.344786376953125,-1.7200044393539429,0.32044506072998047,0.7911808490753174
1701714475907380500,4.35438037109375,-1.7181696891784668,0.30333709716796875,0.6231576204299927
1701714475916974000,4.36397412109375,-1.6219199895858765,0.3574361801147461,0.42993056774139404
1701714475926566700,4.373566650390625,-1.5610002279281616,0.5042219161987305,0.1764432191848755
1701714475936160300,4.38316015625,-1.516983985900879,0.7126359939575195,-0.06946134567260742
1701714475945754400,4.39275439453125,-1.4785375595092773,0.9204978942871094,-0.28648126125335693
1701714475955347700,4.40234765625,-1.5484766960144043,1.0274124145507812,-0.40621769428253174
1701714475964940500,4.4119404296875,-1.6196614503860474,1.0719490051269531,-0.5170429944992065
1701714475974534000,4.421533935546875,-1.5176202058792114,1.1526737213134766,-0.6893517971038818
1701714475984128300,4.431128173828125,-1.367095708847046,1.3298587799072266,-0.9281340837478638
1701714475993721600,4.4407216796875,-1.3338522911071777,1.5558996200561523,-1.1716539859771729
1701714476003314200,4.450314208984375,-1.7566955089569092,1.5912771224975586,-1.6367467641830444
1701714476012907800,4.45990771484375,-2.6667823791503906,0.8830404281616211,-2.6647520065307617
1701714476022502100,4.469502197265625,-2.4486663341522217,-0.9142942428588867,-3.7949366569519043
1701714476032095500,4.479095458984375,-0.48998773097991943,-4.220247268676758,-2.916689395904541
1701714476041688300,4.488688232421875,2.3496828079223633,-6.803839683532715,-1.1830461025238037
1701714476051281700,4.49828173828125,3.645294189453125,-7.915849685668945,-1.7764168977737427
1701714476060876000,4.5078759765625,1.8016051054000854,-7.581223487854004,-2.359036684036255
1701714476070469400,4.517469482421875,-1.215155005455017,-5.0803070068359375,-1.1014225482940674
1701714476080062000,4.52706201171875,-3.1396007537841797,-2.8402252197265625,-0.6903179287910461
1701714476089655600,4.536655517578125,-3.300510883331299,-1.5739049911499023,-0.8389384746551514
1701714476099250000,4.54625,-1.3634047508239746,-1.2870254516601562,-0.7043399810791016
1701714476108843300,4.55584326171875,0.8912708759307861,-1.182673454284668,-0.3824763298034668
1701714476118435800,4.565435791015625,2.3914425373077393,-0.6721048355102539,0.426241397857666
1701714476128029400,4.575029541015625,2.483010768890381,0.5828237533569336,1.4597256183624268
1701714476137623600,4.58462353515625,1.95908784866333,2.344109535217285,1.8304295539855957
1701714476147217200,4.594217041015625,1.8453577756881714,3.777660369873047,1.4844712018966675
1701714476156809700,4.603809814453125,2.0069220066070557,4.562582015991211,0.727096676826477
1701714476166403300,4.6134033203125,2.46584415435791,4.768038272857666,-0.1230689287185669
1701714476175997400,4.62299755859375,3.4738919734954834,4.2266716957092285,-0.95625901222229
1701714476185591000,4.632591064453125,4.8078107833862305,2.736441135406494,-1.0932468175888062
1701714476195183600,4.64218359375,4.604671478271484,0.5763683319091797,-0.520649790763855
1701714476204777200,4.651777099609375,3.883819580078125,-1.221999168395996,-0.21366477012634277
1701714476214371300,4.661371337890625,2.5292978286743164,-2.359137535095215,-0.7109743356704712
1701714476223965000,4.67096484375,-0.034485816955566406,-3.0900192260742188,-2.044703722000122
1701714476233557500,4.6805576171875,-3.1167232990264893,-3.9152936935424805,-2.818331718444824
1701714476243151000,4.690151123046875,-4.749366283416748,-4.874454498291016,-0.5774776339530945
1701714476252745200,4.6997451171875,-4.065523147583008,-4.94544792175293,2.038250684738159
1701714476262338800,4.7093388671875,-1.5728495121002197,-3.323558807373047,2.4548754692077637
1701714476271931400,4.718931396484375,0.5836879014968872,-0.5331392288208008,1.111255407333374
1701714476281525000,4.72852490234375,1.6977126598358154,1.8846487998962402,-0.5173519253730774
1701714476291119000,4.738119140625,1.9091286659240723,3.3800525665283203,-1.231201410293579
1701714476300712700,4.747712646484375,1.6182918548583984,4.163468360900879,-1.3396053314208984
1701714476310305300,4.75730517578125,1.3920565843582153,4.590266227722168,-1.2602283954620361
1701714476319898600,4.766898681640625,1.6269421577453613,4.668027400970459,-0.8168348073959351
1701714476329493000,4.776492919921875,1.7695677280426025,4.193520545959473,-0.15052223205566406
1701714476339086300,4.78608642578125,1.185823917388916,3.2526965141296387,0.6093991994857788
1701714476348679000,4.795678955078125,0.017107903957366943,2.098803997039795,0.9669274091720581
1701714476358272500,4.8052724609375,-1.2178890705108643,1.0468320846557617,1.254178524017334
1701714476367867000,4.814866943359375,-2.1004199981689453,0.34436702728271484,1.7425830364227295
1701714476377460200,4.824460205078125,-2.1197140216827393,0.18178558349609375,1.877439260482788
1701714476387052800,4.834052734375,-1.208724856376648,0.16419601440429688,1.5650320053100586
1701714476396646400,4.843646484375,0.3927609920501709,0.21770381927490234,1.1025391817092896
1701714476406240800,4.85324072265625,1.8890894651412964,0.31380367279052734,0.8216887712478638
1701714476415834000,4.862834228515625,2.0620765686035156,0.6338272094726562,0.5424823760986328
1701714476425426700,4.8724267578125,1.4056963920593262,1.212656021118164,0.2978479862213135
1701714476435020300,4.882020263671875,0.4168770909309387,1.7698955535888672,-0.005364537239074707
1701714476444614700,4.89161474609375,-0.6474781036376953,2.037940502166748,-0.34952205419540405
1701714476454208000,4.9012080078125,-1.5051838159561157,2.3136043548583984,-0.4778595566749573
1701714476463800600,4.910800537109375,-1.798926591873169,2.7499709129333496,-0.6274020075798035
1701714476473394200,4.920394287109375,-1.6736254692077637,3.261007308959961,-0.8338133692741394
1701714476482988300,4.92998828125,-1.5202815532684326,3.803915023803711,-1.0228221416473389
1701714476492582000,4.939581787109375,-1.398030161857605,4.2835564613342285,-1.3616294860839844
1701714476502174500,4.949174560546875,-1.2608997821807861,4.600125312805176,-1.3021339178085327
1701714476511768000,4.95876806640625,-0.7569565176963806,4.632489204406738,-0.955224871635437
1701714476521362200,4.968362060546875,-0.1596771478652954,4.362947463989258,-0.8583170175552368
1701714476530955800,4.977955810546875,0.4786745011806488,3.828711986541748,-0.7021844983100891
1701714476540548400,4.98754833984375,0.9684438705444336,3.3101511001586914,-0.1393219232559204
1701714476550142000,4.997141845703125,1.2299778461456299,2.931253433227539,0.659561038017273
1701714476559736000,5.006736083984375,1.3937482833862305,2.6384811401367188,1.5423446893692017
1701714476569329700,5.01632958984375,1.0353952646255493,2.318601131439209,2.2149710655212402
1701714476578922200,5.025922119140625,0.5662624835968018,1.7131643295288086,2.4644935131073
1701714476588515600,5.035515625,0.21781843900680542,0.8151493072509766,2.7231969833374023
1701714476598110000,5.04510986328125,-0.1430245041847229,-0.2106943130493164,3.110506296157837
1701714476607703300,5.054703369140625,-0.2985769510269165,-1.073561668395996,3.508805513381958
1701714476617296100,5.064296142578125,-0.48470163345336914,-1.470926284790039,3.261990547180176
1701714476626889500,5.073889404296875,-0.18761152029037476,-1.6447677612304688,2.4778990745544434
1701714476636483800,5.08348388671875,0.19755923748016357,-2.196902275085449,1.3980141878128052
1701714476646077400,5.093077392578125,0.6650668382644653,-2.8442821502685547,0.5541418790817261
1701714476655670000,5.102669921875,1.0616384744644165,-3.359585762023926,-0.13768607378005981
1701714476665263400,5.112263427734375,1.087522268295288,-3.8195743560791016,-0.8106003999710083
1701714476674857700,5.121857666015625,0.7892055511474609,-4.377322196960449,-1.7542378902435303
1701714476684451000,5.131451171875,0.4956285357475281,-5.027726173400879,-2.7409045696258545
1701714476694043600,5.141043701171875,0.10692465305328369,-5.870927810668945,-2.964993953704834
1701714476703637200,5.15063720703125,-0.6608909368515015,-5.9891252517700195,-3.591096878051758
1701714476713231600,5.160231689453125,-1.4882618188858032,-6.69020938873291,-4.3980584144592285
1701714476722825000,5.169824951171875,-2.5292060375213623,-7.495293617248535,-4.760218620300293
1701714476732417500,5.17941748046875,-3.2595763206481934,-8.319145202636719,-3.674513339996338
1701714476742011100,5.18901123046875,-3.6263790130615234,-9.525046348571777,-2.396488666534424
1701714476751605500,5.19860546875,-3.644864082336426,-10.206433296203613,-0.9691283702850342
1701714476761198800,5.20819873046875,-2.713440418243408,-8.40623664855957,1.6784802675247192
1701714476770791400,5.21779150390625,-3.302976131439209,-5.454537391662598,4.75485372543335
1701714476780385000,5.227385009765625,-1.912144422531128,-2.2598791122436523,5.640603065490723
1701714476789979100,5.236979248046875,0.7974764108657837,0.8699750900268555,4.089707851409912
1701714476799572700,5.24657275390625,3.259153366088867,2.427727699279785,1.9923409223556519
1701714476809165300,5.256165283203125,5.167243480682373,2.87943696975708,0.32840633392333984
1701714476818759000,5.265759033203125,5.981868267059326,3.1914286613464355,-0.8584230542182922
1701714476828353000,5.27535302734375,5.7677507400512695,3.54477596282959,-1.087568998336792
1701714476837946600,5.284946533203125,4.57125186920166,3.5406084060668945,-0.9425236582756042
1701714476847539200,5.294539306640625,2.5660743713378906,3.6936373710632324,-1.752741813659668
1701714476857132800,5.3041328125,0.35205602645874023,3.844353199005127,-2.8967785835266113
1701714476866727000,5.313726806640625,-1.3505724668502808,3.766922950744629,-3.4319863319396973
1701714476876320500,5.323320556640625,-2.2559030055999756,3.444087505340576,-2.9156250953674316
1701714476885913000,5.3329130859375,-3.2240421772003174,3.3847498893737793,-2.408158779144287
1701714476895506700,5.342506591796875,-3.641274929046631,4.078171253204346,-1.7286911010742188
1701714476905100800,5.352100830078125,-2.684873104095459,4.1329755783081055,-1.0176503658294678
1701714476914694400,5.3616943359375,-1.4774229526519775,3.6748409271240234,-0.4085279703140259
1701714476924287000,5.371286865234375,-1.0350775718688965,3.588942050933838,-0.3913933038711548
1701714476933880300,5.38088037109375,-1.1594165563583374,3.7149577140808105,-0.7661466598510742
1701714476943474700,5.390474609375,-1.3179484605789185,3.787642478942871,-1.0985639095306396
1701714476953068000,5.400068115234375,-1.2943966388702393,3.6042914390563965,-1.3173669576644897
1701714476962660900,5.409660888671875,-0.8294799327850342,3.361757755279541,-1.3728524446487427
1701714476972254200,5.419254150390625,-0.005097031593322754,2.6469383239746094,-0.5291752815246582
1701714476981848600,5.4288486328125,0.8148926496505737,1.6946744918823242,0.6255605220794678
1701714476991442000,5.43844189453125,1.076656699180603,1.3055105209350586,0.9093266725540161
1701714477001034500,5.448034423828125,1.0528230667114258,1.5762920379638672,0.4480942487716675
1701714477010628000,5.457628173828125,0.6606587171554565,2.2434659004211426,-0.7799912095069885
1701714477020222500,5.467222412109375,0.09355020523071289,3.004045009613037,-2.570692539215088
1701714477029815800,5.47681591796875,-0.15682262182235718,3.354482650756836,-4.039536476135254
1701714477039408400,5.486408447265625,-0.290128231048584,3.479555130004883,-5.078508377075195
1701714477049002000,5.496001953125,-0.6079462170600891,3.560534954071045,-5.340135097503662
1701714477058596400,5.505596435546875,-1.361313819885254,3.374040126800537,-4.655241012573242
1701714477068189700,5.515189697265625,-2.3170578479766846,2.733241558074951,-3.6721112728118896
1701714477077782300,5.5247822265625,-2.777301788330078,1.9228019714355469,-3.3668878078460693
1701714477087376000,5.5343759765625,-1.8366032838821411,0.5635519027709961,-3.692991256713867
1701714477096970000,5.543969970703125,0.1599687933921814,-1.4972991943359375,-4.582633018493652
1701714477106563600,5.5535634765625,1.3803428411483765,-3.5880632400512695,-5.981660842895508
1701714477116156200,5.56315625,3.352017641067505,-4.967451095581055,-6.4418253898620605
1701714477125749800,5.572749755859375,5.547795295715332,-5.026344299316406,-5.14572811126709
1701714477135343900,5.58234375,4.909573554992676,-5.8109130859375,-2.859325408935547
1701714477144937500,5.5919375,3.0054378509521484,-6.9645280838012695,-0.5145432949066162
1701714477154530000,5.601530029296875,0.7225647568702698,-7.866451263427734,1.6913666725158691
1701714477164123600,5.61112353515625,-0.9875726699829102,-8.761579513549805,2.950697660446167
1701714477173717800,5.6207177734375,-0.6618512868881226,-10.175333023071289,3.6422510147094727
1701714477183311400,5.630311279296875,2.9246163368225098,-10.209396362304688,4.553661346435547
1701714477192904000,5.639904052734375,4.887853145599365,-8.578836441040039,8.918347358703613
1701714477202497500,5.64949755859375,4.179053783416748,-6.231721878051758,12.618383407592773
1701714477212091600,5.659091552734375,2.5493292808532715,-3.7086124420166016,11.907414436340332
1701714477221685200,5.668685302734375,0.9868361949920654,-1.9419336318969727,7.394262790679932
1701714477231277800,5.67827783203125,0.367287278175354,-0.9432973861694336,3.380125045776367
1701714477240871200,5.68787109375,-0.05543696880340576,0.5931062698364258,1.361095905303955
1701714477250465500,5.697465576171875,-0.770409107208252,2.4749841690063477,-0.2847859859466553
1701714477260059000,5.707058837890625,-1.3040441274642944,4.328848361968994,-1.5979394912719727
1701714477269651700,5.716651611328125,-1.42684006690979,5.865862846374512,-2.3836522102355957
1701714477279245000,5.7262451171875,-0.5504113435745239,5.9803948402404785,-4.244619846343994
1701714477288839400,5.73583935546875,1.0587446689605713,4.659005641937256,-5.419213771820068
1701714477298432800,5.745432861328125,1.5170507431030273,2.865828037261963,-4.877658367156982
1701714477308025600,5.755025634765625,1.0383422374725342,1.6752452850341797,-2.878725051879883
1701714477317619000,5.764618896484375,0.05857682228088379,0.8043737411499023,-0.5657550096511841
1701714477327213300,5.77421337890625,-0.7797840237617493,0.42511463165283203,1.3034131526947021
1701714477336806700,5.783806640625,-1.1897053718566895,0.3636131286621094,1.9858413934707642
1701714477346399200,5.793399169921875,-0.7846046090126038,0.5740633010864258,1.7174004316329956
1701714477355992800,5.802992919921875,0.17488998174667358,0.8243913650512695,1.746962547302246
1701714477365587200,5.812587158203125,1.3365411758422852,0.858942985534668,1.93833589553833
1701714477375180500,5.8221806640625,1.5245201587677002,0.5727224349975586,2.2524795532226562
1701714477384773000,5.831773193359375,0.5658501386642456,0.06838417053222656,2.4781270027160645
1701714477394366700,5.84136669921875,-0.7853748798370361,-0.27431297302246094,2.1119961738586426
1701714477403961000,5.850961181640625,-1.847642183303833,-0.19550418853759766,1.3967618942260742
1701714477413554400,5.860554443359375,-2.1349704265594482,0.14158916473388672,1.036912441253662
1701714477423147000,5.87014697265625,-1.7365535497665405,0.5218782424926758,1.09389066696167
1701714477432740600,5.87974072265625,-1.1712336540222168,0.8836746215820312,1.5075995922088623
1701714477442334700,5.889334716796875,-0.8459183573722839,1.3229475021362305,2.0080199241638184
1701714477451928300,5.89892822265625,-0.9081765413284302,1.8253507614135742,2.284166097640991
1701714477461521000,5.90852099609375,-1.2660462856292725,2.2952141761779785,2.2487142086029053
1701714477471114500,5.918114501953125,-1.1067757606506348,2.2979464530944824,1.978929042816162
1701714477480708600,5.92770849609375,-1.0499188899993896,2.116384983062744,0.9988139867782593
1701714477490302200,5.93730224609375,-0.7376322746276855,1.7199878692626953,-0.2851184010505676
1701714477499894800,5.946894775390625,0.4324488043785095,0.8204479217529297,-0.9990630745887756
1701714477509488000,5.956488037109375,1.6163134574890137,-0.4304485321044922,-1.4252156019210815
1701714477519082500,5.96608251953125,2.143617868423462,-1.3437776565551758,-1.6325430870056152
1701714477528675800,5.97567578125,2.5908384323120117,-1.3752288818359375,-1.4972680807113647
1701714477538268700,5.9852685546875,2.9398529529571533,-1.8070440292358398,-1.0728273391723633
1701714477547862000,5.994862060546875,3.3268613815307617,-3.1378211975097656,-1.0305395126342773
1701714477557456400,6.004456298828125,3.2790517807006836,-4.986116409301758,-0.9357430934906006
1701714477567049700,6.0140498046875,2.2068557739257812,-6.3888702392578125,-0.8280007839202881
1701714477576642600,6.023642578125,-0.9981081485748291,-7.057317733764648,-0.5234686136245728
1701714477586236000,6.03323583984375,-2.7588610649108887,-7.373774528503418,-0.6031079888343811
1701714477595830300,6.042830322265625,-1.918654441833496,-8.299053192138672,-0.6628780961036682
1701714477605423600,6.052423583984375,-1.721351146697998,-10.656387329101562,-1.6952441930770874
1701714477615016400,6.062016357421875,-2.0902442932128906,-12.180435180664062,-1.6160370111465454
1701714477624609800,6.07160986328125,-3.0011777877807617,-11.134917259216309,1.1207128763198853
1701714477634204200,6.0812041015625,-4.707137584686279,-8.155332565307617,2.8954572677612305
1701714477643797500,6.090797607421875,-4.12558650970459,-4.719478607177734,3.227170944213867
1701714477653390000,6.10039013671875,-2.0334362983703613,-1.9114322662353516,2.16719388961792
1701714477662983700,6.109983642578125,1.1017937660217285,0.15234851837158203,0.8680229187011719
1701714477672578000,6.119578125,3.6053295135498047,2.478550434112549,-0.12121641635894775
1701714477682171400,6.12917138671875,4.826638221740723,4.947458744049072,-0.8221200108528137
1701714477691764000,6.138763916015625,5.74190092086792,6.867559909820557,-1.3787341117858887
1701714477701357600,6.148357666015625,5.639772891998291,8.001585006713867,-1.6176155805587769
1701714477710951700,6.15795166015625,4.235904693603516,7.786411285400391,-1.8373167514801025
1701714477720545300,6.167545166015625,1.1501091718673706,7.3979387283325195,-2.220309257507324
1701714477730137900,6.177137939453125,-0.06957757472991943,6.773516654968262,-1.800214409828186
1701714477739731500,6.1867314453125,-1.1757798194885254,6.132983684539795,-1.4498356580734253
1701714477749325600,6.19632568359375,-2.2267916202545166,5.50560188293457,-1.840443730354309
1701714477758919200,6.205919189453125,-3.430680274963379,4.858466625213623,-2.4082188606262207
1701714477768511700,6.21551171875,-3.7471394538879395,3.797426223754883,-2.574310302734375
1701714477778105300,6.225105224609375,-3.514888048171997,3.0014796257019043,-2.3470652103424072
1701714477787699500,6.234699462890625,-3.2036147117614746,3.0812864303588867,-1.7945476770401
1701714477797293000,6.24429296875,-2.663961172103882,3.686333656311035,-1.1857643127441406
1701714477806885600,6.2538857421875,-2.3902387619018555,4.481770992279053,-1.0659995079040527
1701714477816479000,6.26347900390625,-2.3881173133850098,4.944532871246338,-1.0985510349273682
1701714477826073300,6.2730732421875,-2.1597273349761963,4.370068073272705,-0.7012225389480591
1701714477835666700,6.282666748046875,-1.2873834371566772,3.139812469482422,-0.2862011194229126
1701714477845259500,6.292259521484375,-0.18845456838607788,1.3498563766479492,0.3550126552581787
1701714477854852900,6.301852783203125,1.1519358158111572,-0.3356170654296875,1.504249930381775
1701714477864447200,6.311447265625,1.4682996273040771,-0.6222429275512695,1.3208767175674438
1701714477874040600,6.32104052734375,1.2007919549942017,-0.09758949279785156,0.14862656593322754
1701714477883633200,6.330633056640625,0.8431561589241028,0.8314723968505859,-1.1796140670776367
1701714477893226800,6.340226806640625,0.2894951105117798,1.4600791931152344,-2.3077807426452637
1701714477902821000,6.349821044921875,-0.06278631091117859,1.7031135559082031,-2.7850537300109863
1701714477912414500,6.35941455078125,-0.572049617767334,2.0459818840026855,-2.9192798137664795
1701714477922007000,6.369007080078125,-1.6834770441055298,2.3466992378234863,-2.6906590461730957
1701714477931600600,6.3786005859375,-3.6776535511016846,2.167813301086426,-3.1816811561584473
1701714477941194800,6.38819482421875,-5.2865166664123535,1.711904525756836,-5.2828545570373535
1701714477950788400,6.397788330078125,-4.6369428634643555,0.4600791931152344,-8.031847953796387
1701714477960381000,6.407380859375,-1.2668812274932861,-2.30387020111084,-9.300089836120605
1701714477969974500,6.416974609375,4.456279277801514,-4.378364562988281,-8.665303230285645
1701714477979568600,6.426568603515625,9.47350788116455,-4.974856376647949,-4.801738739013672
1701714477989162200,6.436162353515625,7.272768020629883,-5.413740158081055,-1.6054885387420654
1701714477998754800,6.4457548828125,4.22368860244751,-6.831063270568848,1.0927886962890625
1701714478008348400,6.455348388671875,0.9383527040481567,-8.230114936828613,4.018800735473633
1701714478017942500,6.464942626953125,-0.8466578722000122,-8.438796997070312,6.0402984619140625
1701714478027536100,6.4745361328125,-0.4545506536960602,-8.143157958984375,7.223825454711914
1701714478037128700,6.484128662109375,1.2833150625228882,-8.07021713256836,8.501996040344238
1701714478046722300,6.493722412109375,3.2856061458587646,-8.061079978942871,8.708442687988281
1701714478056316400,6.50331640625,3.399864673614502,-7.088580131530762,8.03384017944336
1701714478065910000,6.512909912109375,2.7376949787139893,-5.145310401916504,6.394703388214111
1701714478075502600,6.522502685546875,1.9179680347442627,-3.036808967590332,3.260651111602783
1701714478085096200,6.53209619140625,0.8137974739074707,-1.4642276763916016,0.8411893844604492
1701714478094690300,6.541690185546875,-0.46101194620132446,-0.23017501831054688,-0.35368019342422485
1701714478104283600,6.55128369140625,-2.0718865394592285,0.9257011413574219,-0.5098238587379456
1701714478113876500,6.56087646484375,-2.9068636894226074,2.3228402137756348,-0.42332154512405396
1701714478123469800,6.5704697265625,-2.531308650970459,3.511406898498535,-0.6467475891113281
1701714478133064200,6.580064208984375,-1.4662725925445557,4.186154842376709,-0.961898922920227
1701714478142657500,6.589657470703125,-0.2237715721130371,4.525261402130127,-1.2502808570861816
1701714478152250000,6.59925,1.135474681854248,4.458579063415527,-1.7957348823547363
1701714478161843700,6.60884375,2.125408887863159,4.174010753631592,-2.1576898097991943
1701714478171438000,6.61843798828125,2.481112003326416,3.664888381958008,-1.9740447998046875
1701714478181031400,6.628031494140625,1.9419128894805908,2.7731189727783203,-1.0512840747833252
1701714478190624000,6.6376240234375,0.9389705657958984,1.9786162376403809,-0.15541136264801025
1701714478200217600,6.647217529296875,-0.024235248565673828,1.4165582656860352,0.4106608033180237
1701714478209812000,6.65681201171875,-1.0164943933486938,0.8566789627075195,0.8043015599250793
1701714478219405300,6.6664052734375,-1.9735153913497925,0.2604351043701172,1.3029741048812866
1701714478228998000,6.675997802734375,-2.6324825286865234,-0.10467338562011719,1.6186261177062988
1701714478238591500,6.685591552734375,-2.6837313175201416,0.10486984252929688,1.5270416736602783
1701714478248185600,6.695185546875,-2.174708604812622,0.6800222396850586,1.2668521404266357
1701714478257779200,6.704779296875,-1.4035370349884033,1.3454208374023438,0.9689644575119019
1701714478267371800,6.714371826171875,-0.2995719313621521,2.1324052810668945,0.6929545402526855
1701714478276965400,6.72396533203125,0.5326998233795166,2.9269213676452637,0.4195544719696045
1701714478286559500,6.7335595703125,0.8983179926872253,3.612616539001465,0.5792102813720703
1701714478296153000,6.743153076171875,0.8800066709518433,4.154173851013184,1.1612330675125122
1701714478305745700,6.75274560546875,0.8831332325935364,4.377583980560303,1.7482131719589233
1701714478315339300,6.76233935546875,0.8520761728286743,4.113670825958252,2.085537910461426
1701714478324933400,6.771933349609375,0.398476243019104,3.821898937225342,1.8302843570709229
1701714478334527000,6.78152685546875,0.29052621126174927,2.933866500854492,1.0886930227279663
1701714478344119600,6.79111962890625,0.6255736351013184,1.5320024490356445,0.48373472690582275
1701714478353713000,6.800712890625,0.6722570657730103,0.38878440856933594,-0.4367102384567261
1701714478363307300,6.810307373046875,0.4623240828514099,-0.771296501159668,-1.2847591638565063
1701714478372900600,6.819900634765625,0.9955439567565918,-2.4564638137817383,-2.037818431854248
1701714478382493400,6.829493408203125,1.7545418739318848,-4.5284271240234375,-2.8850998878479004
1701714478392086800,6.839086669921875,2.7148993015289307,-6.096242904663086,-4.524410247802734
1701714478401681200,6.84868115234375,4.007026195526123,-7.528537750244141,-4.70951509475708
1701714478411274500,6.8582744140625,3.6333727836608887,-8.946742057800293,-3.3733153343200684
1701714478420867300,6.867867431640625,0.6657220125198364,-10.542074203491211,-1.3407864570617676
1701714478430460700,6.877460693359375,-2.3607373237609863,-12.253941535949707,0.18467295169830322
1701714478440055000,6.887054931640625,-4.781071662902832,-13.211370468139648,1.3894679546356201
1701714478449648400,6.8966484375,-5.2146897315979,-12.87373161315918,2.86213755607605
1701714478459241000,6.906240966796875,-4.021896839141846,-11.178516387939453,4.202206611633301
1701714478468834600,6.91583447265625,-3.4157660007476807,-8.075912475585938,4.467045307159424
1701714478478429000,6.925428955078125,-2.748631715774536,-5.17220401763916,4.092255115509033
1701714478488022300,6.935022216796875,-1.1601053476333618,-2.8463306427001953,3.174530029296875
1701714478497614800,6.94461474609375,1.177083969116211,-0.8746881484985352,1.460513710975647
1701714478507208400,6.95420849609375,3.5982580184936523,0.976466178894043,-0.027288079261779785
1701714478516802600,6.963802490234375,4.7742156982421875,2.889401435852051,-0.8598926067352295
1701714478526396200,6.973396240234375,4.5916643142700195,4.657527446746826,-1.895855188369751
1701714478535988700,6.98298876953125,3.711505889892578,6.155126094818115,-1.9093043804168701
1701714478545582300,6.992582275390625,2.196267604827881,6.8949503898620605,-1.7049012184143066
1701714478555176400,7.002176513671875,0.8778591156005859,7.023113250732422,-1.7734966278076172
1701714478564770000,7.01177001953125,-0.632775604724884,6.571179389953613,-1.581488013267517
1701714478574362600,7.021362548828125,-1.8405025005340576,6.094372749328613,-1.325324296951294
1701714478583956200,7.030956298828125,-2.9809722900390625,5.769684314727783,-1.2528733015060425
1701714478593550300,7.04055029296875,-4.1659440994262695,5.790779113769531,-1.4325716495513916
1701714478603144000,7.05014404296875,-4.522401809692383,5.856071472167969,-1.400146484375
1701714478612736500,7.059736572265625,-4.37399959564209,5.928754806518555,-1.1666823625564575
1701714478622329900,7.069329833984375,-3.3880648612976074,6.127831935882568,-1.063806414604187
1701714478631924200,7.07892431640625,-2.417452335357666,6.422257423400879,-1.157914400100708
1701714478641517600,7.088517578125,-1.6969372034072876,6.597423553466797,-1.386355996131897
1701714478651110400,7.0981103515625,-0.8806198835372925,6.424637794494629,-1.3824008703231812
1701714478660703700,7.107703857421875,0.010479211807250977,5.4742865562438965,-1.028804898262024
1701714478670298000,7.117298095703125,1.435882329940796,2.9767842292785645,0.8828747272491455
1701714478679891500,7.126891357421875,2.3297362327575684,1.2467041015625,2.255429267883301
1701714478689484300,7.136484375,1.5191787481307983,0.9395771026611328,1.5994622707366943
1701714478699077600,7.14607763671875,0.5806666016578674,1.05902099609375,0.390153169631958
1701714478708672000,7.155672119140625,0.045759618282318115,1.2899560928344727,-1.6081559658050537
1701714478718265300,7.165265380859375,-0.10717982053756714,1.4373159408569336,-3.0726606845855713
1701714478727858000,7.17485791015625,0.04207092523574829,1.628067970275879,-3.6360573768615723
1701714478737451500,7.184451416015625,-0.24252736568450928,1.5983448028564453,-3.6006269454956055
1701714478747045600,7.194045654296875,-1.1669015884399414,1.2613039016723633,-3.680551528930664
1701714478756639200,7.20363916015625,-1.6518502235412598,1.0193805694580078,-4.689665794372559
1701714478766231800,7.213231689453125,-1.6271345615386963,0.5996294021606445,-6.672067165374756
1701714478775825400,7.222825439453125,-1.4004427194595337,-0.5934848785400391,-7.648433208465576
1701714478785419500,7.23241943359375,-0.5738580226898193,-2.115633964538574,-7.879045009613037
1701714478795013000,7.24201318359375,3.418900728225708,-2.9224166870117188,-6.740231513977051
1701714478804605700,7.251605712890625,6.727171421051025,-3.7449331283569336,-4.051868915557861
1701714478814199300,7.26119921875,6.562394142150879,-5.850033760070801,-1.1512107849121094
1701714478823793400,7.27079345703125,4.849788188934326,-8.178727149963379,2.1494851112365723
1701714478833387000,7.280386962890625,2.3829257488250732,-8.8839111328125,5.904532432556152
1701714478842979600,7.2899794921875,1.1288301944732666,-8.06008529663086,7.002724647521973
1701714478852573200,7.2995732421875,1.063971757888794,-8.377099990844727,4.218258380889893
1701714478862167300,7.309167236328125,2.1922104358673096,-10.265356063842773,2.0365428924560547
1701714478871761000,7.318760986328125,1.775268793106079,-11.569380760192871,3.5186538696289062
1701714478881353500,7.328353515625,-2.753283977508545,-8.90866756439209,8.023009300231934
1701714478890947000,7.337947021484375,-5.7237701416015625,-4.476980209350586,9.230608940124512
1701714478900541200,7.347541259765625,-4.972009658813477,-1.6928234100341797,7.773406505584717
1701714478910134800,7.357134765625,-1.1880912780761719,0.03203773498535156,4.011340618133545
1701714478919727400,7.366727294921875,2.3029963970184326,0.8129072189331055,1.8045810461044312
1701714478929320700,7.37632080078125,4.210785388946533,2.1643619537353516,1.5539238452911377
1701714478938915000,7.3859150390625,4.337778091430664,3.4676599502563477,1.606441855430603
1701714478948508400,7.39550830078125,3.56770658493042,4.1339616775512695,0.9086804389953613
1701714478958101000,7.40510107421875,2.051198959350586,4.021139144897461,-0.639774739742279
1701714478967694600,7.414694580078125,0.03212061524391174,3.167858123779297,-3.0117850303649902
1701714478977289000,7.4242890625,-1.3589540719985962,1.9941978454589844,-4.0918707847595215
1701714478986882300,7.43388232421875,-1.8997234106063843,0.9580373764038086,-2.65018892288208
1701714478996475000,7.443474853515625,-1.933179497718811,0.28443336486816406,-0.6139936447143555
1701714479006068500,7.453068359375,-1.5125656127929688,-0.042449951171875,0.49946773052215576
1701714479015662800,7.462662841796875,-1.0035395622253418,-0.08343696594238281,0.9707347750663757
1701714479025256200,7.472256103515625,-1.2121204137802124,0.012491226196289062,1.3649578094482422
1701714479034848800,7.481848876953125,-2.0079057216644287,0.008576393127441406,1.1123692989349365
1701714479044442400,7.4914423828125,-2.2904975414276123,-0.2479228973388672,0.7595404386520386
1701714479054036500,7.501036376953125,-2.331538200378418,0.2900409698486328,-0.6522682905197144
1701714479063630000,7.510630126953125,-2.278123378753662,1.248337745666504,-1.7529938220977783
1701714479073222700,7.52022265625,-1.6860615015029907,2.2510643005371094,-1.800304889678955
1701714479082816300,7.529816162109375,-0.8678854703903198,3.312473773956299,-1.4252629280090332
1701714479092410400,7.539410400390625,-0.0773400366306305,4.39436674118042,-1.0182816982269287
1701714479102004000,7.54900390625,0.5355156064033508,5.439700603485107,-0.7008728981018066
1701714479111596500,7.558596435546875,0.9358137249946594,5.978298664093018,-0.18113231658935547
1701714479121190100,7.568190185546875,0.8508390188217163,5.684150218963623,0.24262690544128418
1701714479130784300,7.5777841796875,-0.7856356501579285,5.1967387199401855,-0.19108927249908447
1701714479140377900,7.5873779296875,-1.6923468112945557,4.647209644317627,-0.7104319334030151
1701714479149970400,7.596970458984375,-1.8311272859573364,4.1689958572387695,-1.940200924873352
1701714479159564000,7.60656396484375,-1.6171194314956665,3.7402725219726562,-3.1200063228607178
1701714479169158100,7.616158203125,-0.6434813737869263,3.4043526649475098,-4.065048694610596
1701714479178751700,7.625751708984375,0.6325703263282776,2.693694591522217,-4.536742210388184
1701714479188344300,7.63534423828125,1.9386125802993774,1.0751934051513672,-5.0516767501831055
1701714479197937700,7.644937744140625,5.381655693054199,-2.330885887145996,-5.1888837814331055
1701714479207532000,7.654531982421875,7.508356094360352,-5.070612907409668,-4.481309413909912
1701714479217125400,7.66412548828125,6.329372406005859,-7.386046409606934,-3.1723761558532715
1701714479226718200,7.67371826171875,1.698913335800171,-10.17500114440918,-2.3943700790405273
1701714479236311600,7.6833115234375,-4.9857096672058105,-14.237101554870605,-0.07633662223815918
1701714479245906000,7.692906005859375,-9.364082336425781,-16.225215911865234,3.931523084640503
1701714479255499300,7.702499267578125,-6.575848579406738,-13.316863059997559,5.555491924285889
1701714479265091800,7.712091796875,-2.8648109436035156,-9.329840660095215,5.781680107116699
1701714479274685400,7.721685546875,-1.9981027841567993,-6.150416374206543,4.660853385925293
1701714479284279800,7.73127978515625,-0.47443056106567383,-3.534897804260254,3.4862122535705566
1701714479293873200,7.740873046875,-0.3199121952056885,-1.94720458984375,2.0752062797546387
1701714479303465700,7.7504658203125,-0.45128726959228516,-0.9430065155029297,0.3940443992614746
1701714479313059300,7.760059326171875,-0.07705867290496826,-0.20513534545898438,-0.499556303024292
1701714479322653700,7.76965380859375,0.21870207786560059,0.49474620819091797,-1.4850947856903076
1701714479332247000,7.7792470703125,1.3443670272827148,1.622908592224121,-1.507179617881775
1701714479341839600,7.788839599609375,2.0606961250305176,2.7812719345092773,-0.8728853464126587
1701714479351433200,7.79843310546875,0.6965030431747437,4.874452114105225,-0.8190978765487671
1701714479361027300,7.80802734375,-0.16351640224456787,7.3096113204956055,-1.2840285301208496
1701714479370621000,7.817620849609375,-0.8594757318496704,9.081101417541504,-2.527515172958374
1701714479380213500,7.827213623046875,-1.5765115022659302,9.585041046142578,-3.364853858947754
1701714479389807000,7.83680712890625,-3.041442394256592,8.675549507141113,-2.7982964515686035
1701714479399401200,7.846401123046875,-4.67685079574585,7.0608720779418945,-2.5314688682556152
1701714479408994800,7.855994873046875,-6.0746283531188965,6.415121078491211,-3.0149974822998047
1701714479418587400,7.86558740234375,-7.026233673095703,6.280272006988525,-3.150639057159424
1701714479428181000,7.875180908203125,-6.76650333404541,5.417854309082031,-3.019045829772949
1701714479437775000,7.884775146484375,-4.824997425079346,3.1899709701538086,-2.118130922317505
1701714479447368700,7.89436865234375,-2.0139870643615723,0.83355712890625,-0.13125717639923096
1701714479456961300,7.903961181640625,0.5412087440490723,-1.7076711654663086,1.6507987976074219
1701714479466555000,7.913554931640625,2.5077977180480957,-5.538110733032227,5.097889423370361
1701714479476149000,7.92314892578125,2.307185173034668,-4.641812324523926,4.089357376098633
1701714479485742600,7.93274267578125,-0.37428826093673706,-0.3495445251464844,0.44236111640930176
1701714479495335200,7.942335205078125,-1.7409043312072754,2.387004852294922,-3.9455785751342773
1701714479504928500,7.951928466796875,-1.1684484481811523,2.574211597442627,-7.679614543914795
1701714479514523000,7.96152294921875,0.6802955865859985,2.018242835998535,-9.420100212097168
1701714479524116200,7.9711162109375,2.7425057888031006,1.013284683227539,-8.90345287322998
1701714479533709000,7.980708984375,4.369578838348389,-0.10061836242675781,-6.831299781799316
1701714479543302400,7.990302490234375,4.893767356872559,-2.021151542663574,-4.876920700073242
1701714479552896800,7.999896728515625,3.863074779510498,-4.803136825561523,-4.401277542114258
1701714479562490000,8.009489990234375,2.9723966121673584,-7.177050590515137,-2.889780044555664
1701714479572082700,8.019082763671875,3.747682571411133,-8.605330467224121,-0.5901601910591125
1701714479581676300,8.02867626953125,4.238606929779053,-8.406566619873047,3.3840079307556152
1701714479591270700,8.038270751953124,2.148909330368042,-7.471836090087891,7.7349138259887695
1701714479600864000,8.047864013671875,-0.335820734500885,-6.413944244384766,9.356651306152344
1701714479610456600,8.05745654296875,-1.993697166442871,-4.895139694213867,4.706275939941406
1701714479620050200,8.06705029296875,-0.9778926968574524,-3.3453779220581055,0.4199838638305664
1701714479629644300,8.076644287109374,-0.1500307321548462,-2.788206100463867,-0.6168843507766724
1701714479639238000,8.08623779296875,0.08045190572738647,-2.785637855529785,0.3971806764602661
1701714479648830500,8.09583056640625,-0.1732749342918396,-2.4832592010498047,1.2583117485046387
1701714479658424000,8.105424072265626,-0.3395259380340576,-1.3203754425048828,1.4220073223114014
1701714479668018200,8.11501806640625,-0.08464622497558594,-0.2066650390625,1.3801050186157227
1701714479677611800,8.12461181640625,0.02048701047897339,0.39882373809814453,1.307832956314087
1701714479687204400,8.134204345703125,-0.10477599501609802,0.5993003845214844,0.8046404719352722
1701714479696798000,8.1437978515625,0.013266980648040771,0.5912370681762695,-0.11726504564285278
1701714479706392000,8.15339208984375,0.055033281445503235,0.396575927734375,-0.8502627611160278
1701714479715985700,8.162985595703125,0.1579016149044037,0.09931659698486328,-1.1731295585632324
1701714479725578200,8.172578125,0.10360918194055557,-0.10222911834716797,-1.1404156684875488
1701714479735171800,8.182171875,0.16515903174877167,-0.1655445098876953,-0.9967106580734253
1701714479744766000,8.191765869140625,-0.4515729546546936,0.3483772277832031,-1.4357229471206665
1701714479754359600,8.201359619140625,-1.0998603105545044,1.2185859680175781,-2.356736421585083
1701714479763952000,8.2109521484375,-1.396845817565918,2.13639497756958,-2.93056583404541
1701714479773545500,8.22054541015625,-1.0368303060531616,2.679080009460449,-2.528825044631958
1701714479783139800,8.230139892578125,-1.2450432777404785,3.0602102279663086,-1.8651089668273926
1701714479792733200,8.239733154296875,-1.5851259231567383,3.13460111618042,-1.0923985242843628
1701714479802326000,8.249325927734375,-1.1901987791061401,2.8861846923828125,-0.08652997016906738
1701714479811919400,8.25891943359375,-2.022243022918701,2.296787738800049,0.4376424252986908
1701714479821513700,8.268513671875,-2.933379650115967,1.8714971542358398,0.8564965724945068
1701714479831107000,8.278107177734375,-3.270446538925171,1.8944072723388672,0.8655490875244141
1701714479840699600,8.28769970703125,-3.132143259048462,2.216653823852539,0.4895034730434418
1701714479850293200,8.297293212890626,-2.895876884460449,2.6465587615966797,0.07456997036933899
1701714479859887600,8.3068876953125,-1.9828681945800781,2.6940407752990723,0.19391459226608276
1701714479869481000,8.31648095703125,-0.7979774475097656,2.240222454071045,0.668678879737854
1701714479879073500,8.326073486328125,0.24112579226493835,2.031003475189209,1.9900572299957275
1701714479888667100,8.335667236328124,0.7207996845245361,2.175323009490967,3.3729207515716553
1701714479898261500,8.345261474609375,1.0457638502120972,2.512144088745117,4.204352378845215
1701714479907854800,8.354854736328125,1.0828876495361328,2.9096107482910156,4.626835823059082
1701714479917447400,8.364447509765625,0.6509681940078735,3.3652501106262207,4.696315288543701
1701714479927041000,8.374041015625,-0.2695358395576477,3.687929153442383,4.262148857116699
1701714479936635100,8.38363525390625,-0.4077833294868469,3.2449541091918945,3.8553929328918457
1701714479946228700,8.393228759765625,-0.43413299322128296,2.549522876739502,2.4885993003845215
1701714479955821300,8.4028212890625,-0.8309144377708435,1.8152275085449219,0.5061323046684265
1701714479965415000,8.412414794921874,-0.5640298128128052,1.1425065994262695,-1.4494520425796509
1701714479975009000,8.422009033203125,-0.6822848320007324,0.015085220336914062,-3.137704849243164
1701714479984602600,8.4316025390625,-1.1188393831253052,-2.1059913635253906,-4.9028730392456055
1701714479994195200,8.4411953125,-0.16940633952617645,-4.980044364929199,-6.5450029373168945
1701714480003788800,8.450788818359374,1.4700473546981812,-7.272960662841797,-8.10021686553955
1701714480013383000,8.4603828125,1.5676374435424805,-8.646834373474121,-8.938238143920898
1701714480022976300,8.469976318359375,-1.0259050130844116,-9.346479415893555,-9.83329963684082
1701714480032569000,8.479569091796876,-4.195407390594482,-9.25376033782959,-9.278592109680176
1701714480042162400,8.489162353515624,-5.442630290985107,-9.195966720581055,-7.149869918823242
1701714480051756800,8.4987568359375,-4.883528709411621,-9.799880981445312,-5.512263298034668
1701714480061350100,8.50835009765625,-2.7642862796783447,-9.904799461364746,-4.823282718658447
1701714480070943000,8.51794287109375,-0.6404415369033813,-9.797515869140625,-3.4983420372009277
1701714480080536300,8.527536376953124,0.9843096733093262,-8.978191375732422,-2.4601025581359863
1701714480090130700,8.537130615234375,2.7761950492858887,-6.574648857116699,-1.9488415718078613
1701714480099724000,8.54672412109375,3.2429652214050293,-2.9633026123046875,0.25030946731567383
1701714480109316600,8.556316650390626,4.425004005432129,0.13118267059326172,3.533292770385742
1701714480118910200,8.56591015625,6.166131496429443,1.8075141906738281,6.0303521156311035
1701714480128504600,8.575504638671875,6.967415809631348,2.070352077484131,4.999338150024414
1701714480138098000,8.585097900390625,5.813587188720703,1.586176872253418,1.1794451475143433
1701714480147690500,8.5946904296875,4.047994613647461,0.676274299621582,-1.339342474937439
1701714480157284000,8.6042841796875,1.108344554901123,-0.029064178466796875,-1.664392113685608
1701714480166878200,8.613878173828125,-3.2842531204223633,-0.8092584609985352,-1.4137901067733765
1701714480176471800,8.623471923828125,-6.797567367553711,-1.4657325744628906,-1.1301748752593994
1701714480186064400,8.633064453125,-7.622881889343262,-2.1897497177124023,-0.9367715120315552
1701714480195658000,8.642657958984374,-5.551602363586426,-2.148726463317871,-0.8652859330177307
1701714480205252000,8.652252197265625,-3.5988659858703613,-1.2513599395751953,-0.88362717628479
1701714480214845700,8.661845703125,-1.7406641244888306,-0.13666725158691406,-1.002073049545288
1701714480224438300,8.671438232421876,0.21931356191635132,0.3740978240966797,0.021451115608215332
1701714480234031900,8.681031982421874,1.15349543094635,0.21916484832763672,0.6281650066375732
1701714480243626000,8.6906259765625,0.7344045639038086,0.33473873138427734,0.557199239730835
1701714480253219300,8.70021923828125,0.8378674983978271,0.6534719467163086,1.2013331651687622
1701714480262812200,8.709812255859376,0.6126112341880798,1.2298173904418945,1.6098047494888306
1701714480272405500,8.719405517578124,0.40863412618637085,1.960625171661377,1.8371708393096924
1701714480282000000,8.728999755859375,0.04694986343383789,2.9652528762817383,1.6732250452041626
1701714480291593200,8.73859326171875,-0.2111276388168335,3.851637840270996,1.5444084405899048
1701714480301186000,8.74818603515625,-0.6956179738044739,4.5102691650390625,1.3828420639038086
1701714480310779400,8.757779296875,-1.1021654605865479,4.913269519805908,1.1716777086257935
1701714480320373800,8.767373779296875,-0.7808516621589661,4.994491100311279,1.3525006771087646
1701714480329967000,8.776967041015626,-0.5963547229766846,4.728419780731201,1.682402491569519
1701714480339560000,8.786559814453126,-0.7733641862869263,4.344757556915283,2.277005672454834
1701714480349153300,8.7961533203125,-0.9063401222229004,3.7764134407043457,2.8931021690368652
1701714480358747600,8.80574755859375,-0.8489199876785278,3.3989996910095215,2.7745838165283203
1701714480368341000,8.815341064453126,-0.6181716918945312,3.0285143852233887,2.173107862472534
1701714480377933600,8.82493359375,-0.5335578918457031,2.8272061347961426,1.6276938915252686
1701714480387527200,8.834527099609375,-0.9126281142234802,2.53159236907959,0.8486350774765015
1701714480397121300,8.844121337890625,-1.4682531356811523,2.1342220306396484,0.27587956190109253
1701714480406715000,8.85371484375,-2.2617578506469727,1.5247821807861328,-0.32690733671188354
1701714480416307500,8.863307373046876,-2.977886199951172,0.2896385192871094,-0.48012450337409973
1701714480425901000,8.872901123046875,-3.230803966522217,-0.8149795532226562,-1.2311115264892578
1701714480435495200,8.8824951171875,-3.728583335876465,-1.5214424133300781,-2.16333270072937
1701714480445088800,8.8920888671875,-3.81382155418396,-1.823103904724121,-2.9202332496643066
1701714480454681300,8.901681396484374,-4.4333696365356445,-1.6395330429077148,-3.7046775817871094
1701714480464275000,8.91127490234375,-4.13408899307251,-1.1800107955932617,-3.491673231124878
1701714480473869000,8.920869140625,-3.7970216274261475,-1.2147216796875,-2.72891902923584
1701714480483462400,8.93046240234375,-4.267831325531006,-1.365797996520996,-3.4406065940856934
1701714480493055200,8.94005517578125,-4.4755096435546875,-2.1619176864624023,-6.138686180114746
1701714480502648600,8.949648681640625,-4.178077220916748,-4.457030296325684,-8.275042533874512
1701714480512243000,8.959242919921875,-0.5575776100158691,-6.889543533325195,-5.8250250816345215
1701714480521836300,8.968836181640626,4.758304119110107,-7.643279075622559,-5.209869861602783
1701714480531429000,8.97842919921875,4.793703079223633,-8.846250534057617,-9.16780948638916
1701714480541022500,8.9880224609375,0.6614314317703247,-10.478816986083984,-9.555394172668457
1701714480550616800,8.997616943359375,-1.7807549238204956,-7.490390777587891,-4.224145412445068
1701714480560210200,9.007210205078126,-2.5667552947998047,-3.0581226348876953,0.26886415481567383
1701714480569802800,9.016802734375,-1.3379387855529785,-1.034942626953125,1.4407014846801758
1701714480579396400,9.026396240234375,0.2747776508331299,-0.16735267639160156,0.8573472499847412
1701714480588990700,9.03599072265625,2.0857954025268555,0.42348670959472656,-0.266684353351593
1701714480598584000,9.045583984375,5.169142723083496,0.6258172988891602,-1.136054277420044
1701714480608176600,9.0551767578125,6.947526931762695,1.8198699951171875,-0.5294191241264343
1701714480617770200,9.064770263671875,7.315114974975586,3.078601837158203,1.0573925971984863
1701714480627364400,9.0743642578125,7.512502670288086,4.3604865074157715,1.1921403408050537
1701714480636958000,9.0839580078125,6.532505989074707,5.052920341491699,-0.3819468319416046
1701714480646550500,9.093550537109374,4.480894565582275,5.416529655456543,-2.514909029006958
1701714480656144100,9.10314404296875,2.157426595687866,5.490875720977783,-4.791405200958252
1701714480665738200,9.11273828125,0.38743141293525696,4.698111057281494,-6.387767314910889
1701714480675331800,9.122331787109376,0.14672601222991943,2.004115104675293,-7.090439319610596
1701714480684924400,9.13192431640625,0.7187046408653259,-0.5475234985351562,-7.827725410461426
1701714480694518000,9.14151806640625,1.1512001752853394,-2.6463747024536133,-6.037535667419434
1701714480704112000,9.151112060546875,1.2256298065185547,-3.6567420959472656,-2.6205368041992188
1701714480713705500,9.16070556640625,1.3519518375396729,-3.5720396041870117,-0.5393980741500854
1701714480723298300,9.17029833984375,1.5808937549591064,-2.9918251037597656,-0.612345278263092
1701714480732891600,9.1798916015625,2.459153890609741,-1.9956436157226562,-1.6150189638137817
1701714480742486000,9.189486083984375,2.967439889907837,-1.0904512405395508,-2.277975082397461
1701714480752079400,9.199079345703124,2.9827818870544434,-0.7726268768310547,-2.133514165878296
1701714480761672000,9.208671875,2.9244275093078613,-0.6609354019165039,-2.118462085723877
1701714480771265500,9.218265625,2.523772954940796,-0.4373140335083008,-2.123403310775757
1701714480780860000,9.22785986328125,2.2481884956359863,-0.004116058349609375,-1.9109749794006348
1701714480790453200,9.237453369140624,2.179095983505249,0.45923328399658203,-1.8138489723205566
1701714480800045800,9.2470458984375,2.423577308654785,0.8143062591552734,-1.6904234886169434
1701714480809639400,9.256639404296875,2.9298291206359863,1.0354242324829102,-1.6694499254226685
1701714480819233800,9.26623388671875,3.512294292449951,0.8220510482788086,-1.1026716232299805
1701714480828827100,9.2758271484375,4.069214820861816,0.5714302062988281,-0.11700385808944702
1701714480838419700,9.285419677734374,4.051458835601807,0.1472024917602539,1.2595441341400146
1701714480848013300,9.295013427734375,4.044658660888672,-0.20213699340820312,2.4736127853393555
1701714480857607400,9.304607421875,3.9191782474517822,-0.5608463287353516,3.8472728729248047
1701714480867201000,9.314200927734374,3.617903232574463,-0.5376462936401367,4.543458938598633
1701714480876793600,9.323793701171875,2.3667409420013428,-0.39897632598876953,5.140342712402344
1701714480886387200,9.33338720703125,0.5123265385627747,-0.31459808349609375,4.885255813598633
1701714480895981300,9.342981201171876,-0.7627805471420288,-0.12145328521728516,4.206954002380371
1701714480905574700,9.35257470703125,-1.3485114574432373,0.2596712112426758,3.3847532272338867
1701714480915167500,9.36216748046875,-1.3940954208374023,0.9246683120727539,2.1333658695220947
1701714480924760800,9.3717607421875,-0.7010395526885986,1.8183612823486328,1.355974555015564
1701714480934355200,9.381355224609376,0.05230465531349182,2.5892090797424316,1.0694735050201416
1701714480943948500,9.390948486328124,0.32426345348358154,3.182621479034424,0.9984678030014038
1701714480953541400,9.400541259765625,0.30901509523391724,3.3959741592407227,1.2015326023101807
1701714480963134700,9.410134765625,0.09667262434959412,3.2300186157226562,1.5049991607666016
1701714480972729000,9.41972900390625,-0.6834404468536377,2.9814586639404297,1.8371682167053223
1701714480982322400,9.429322509765624,-0.7884521484375,2.3966569900512695,2.9835329055786133
1701714480991915000,9.4389150390625,-1.011326789855957,2.3622918128967285,3.236741781234741
1701714481001508600,9.448508544921875,-1.356593132019043,2.3515682220458984,3.368025541305542
1701714481011102700,9.458102783203126,-1.8293850421905518,2.151979923248291,3.384249448776245
1701714481020696300,9.4676962890625,-2.001955986022949,1.5847845077514648,3.52123761177063
1701714481030289000,9.477288818359375,-1.7320284843444824,0.7866592407226562,4.250449180603027
1701714481039882500,9.486882568359375,-1.3543264865875244,0.1447916030883789,5.32957124710083
1701714481049476600,9.4964765625,-0.966636598110199,0.07446575164794922,5.72277307510376
1701714481059070200,9.5060703125,-0.9278544783592224,0.33086681365966797,6.0179548263549805
1701714481068662800,9.515662841796875,-0.6189084649085999,0.3472623825073242,6.302493572235107
1701714481078256400,9.52525634765625,-0.2285439521074295,0.0025844573974609375,6.2129645347595215
1701714481087850500,9.5348505859375,0.28634384274482727,-0.9074716567993164,5.322727203369141
1701714481097443800,9.54444384765625,0.8206163048744202,-2.4435958862304688,4.345178127288818
1701714481107036700,9.55403662109375,0.13894161581993103,-3.34786319732666,3.196848154067993
1701714481116630000,9.563630126953125,0.3675045371055603,-3.4901418685913086,1.7028849124908447
1701714481126224400,9.573224365234376,1.700079083442688,-3.3638315200805664,-0.41568446159362793
1701714481135817700,9.582817626953124,2.402902364730835,-3.4158802032470703,-2.2115278244018555
1701714481145410600,9.59241064453125,2.5865509510040283,-4.1142683029174805,-3.0137884616851807
1701714481155004000,9.60200390625,1.9484502077102661,-4.582027435302734,-3.015699863433838
1701714481164598300,9.611598388671876,0.2898893356323242,-4.658660888671875,-2.567749261856079
1701714481174191600,9.621191650390625,-2.8033478260040283,-4.737578392028809,-2.6088333129882812
1701714481183784200,9.6307841796875,-5.729927062988281,-4.198219299316406,-3.7064528465270996
1701714481193377800,9.640377685546875,-7.484726905822754,-3.4653892517089844,-5.215867042541504
1701714481202972000,9.649971923828126,-6.159820556640625,-2.6132984161376953,-6.69456672668457
1701714481212565500,9.6595654296875,-3.472351551055908,-2.200037956237793,-7.0569562911987305
1701714481222158000,9.669157958984375,-1.3723633289337158,-1.7426872253417969,-7.147507667541504
1701714481231751700,9.678751708984375,-0.5346411466598511,-1.7228889465332031,-6.402283668518066
1701714481241345800,9.688345703125,1.136649250984192,-1.6513347625732422,-5.279219627380371
1701714481250939400,9.697939453125,2.630558729171753,-0.868896484375,-5.57882022857666
1701714481260532000,9.707531982421875,3.0385804176330566,0.15523910522460938,-4.577040672302246
1701714481270125600,9.71712548828125,3.350475788116455,1.5017633438110352,-0.38099920749664307
1701714481279719700,9.7267197265625,4.056270122528076,2.4508438110351562,3.7350287437438965
1701714481289313000,9.73631298828125,5.08983850479126,2.173943519592285,5.647428512573242
1701714481298905900,9.74590576171875,5.3905229568481445,1.1431303024291992,4.787552833557129
1701714481308499200,9.755499267578125,3.924482822418213,0.5076541900634766,2.4869203567504883
1701714481318093600,9.765093505859374,1.62164306640625,0.6822891235351562,0.4117908477783203
1701714481327687000,9.77468701171875,0.13076317310333252,1.005080223083496,-0.12310647964477539
1701714481337279500,9.784279541015625,-0.4770927429199219,1.1410226821899414,-0.38143670558929443
1701714481346873000,9.793873046875,-0.6447567343711853,1.16961669921875,-1.0015466213226318
1701714481356467200,9.80346728515625,-0.8432340621948242,1.0762901306152344,-1.2053242921829224
1701714481366060800,9.813060791015625,-1.0525223016738892,0.7910680770874023,-0.8374918103218079
1701714481375653400,9.8226533203125,-1.1637237071990967,0.5887031555175781,-0.607411801815033
1701714481385247000,9.8322470703125,-1.2510178089141846,0.4377727508544922,-0.4507054090499878
1701714481394841000,9.841841064453124,-1.452713966369629,0.3334169387817383,-0.5076265335083008
1701714481404434700,9.8514345703125,-1.6011466979980469,0.32362937927246094,-0.6054399609565735
1701714481414027300,9.86102734375,-1.7830804586410522,0.4252357482910156,-0.6272487044334412
1701714481423620900,9.870620849609375,-1.8885438442230225,0.662144660949707,-0.5398914813995361
1701714481433215000,9.880215087890624,-2.0404231548309326,1.266188621520996,-0.5542734861373901
1701714481442808300,9.889808349609375,-1.9630980491638184,2.1915340423583984,-0.6201772689819336
1701714481452401200,9.899401123046875,-1.658875584602356,3.3616185188293457,-0.7227232456207275
1701714481461994500,9.908994384765625,-1.0083388090133667,4.342086315155029,-0.8260304927825928
1701714481471588900,9.9185888671875,-0.23994910717010498,4.3786492347717285,-0.6617631912231445
1701714481481182200,9.92818212890625,0.6037169098854065,4.211299896240234,-0.45306479930877686
1701714481490774800,9.93777490234375,1.095139980316162,4.607682228088379,-0.7180500030517578
1701714481500368400,9.947368408203126,1.6451210975646973,4.967441082000732,-0.8878629207611084
1701714481509962800,9.956962646484374,1.7202211618423462,5.362562656402588,-1.0130257606506348
1701714481519556000,9.96655615234375,1.568708062171936,5.534818649291992,-1.039926290512085
1701714481529148700,9.976148681640625,1.26454758644104,5.326601505279541,-1.027087926864624
1701714481538742300,9.9857421875,0.9071996212005615,4.795669078826904,-1.2130038738250732
1701714481548336400,9.99533642578125,0.5233423113822937,3.9967751502990723,-1.1705116033554077
1701714481557930000,10.004929931640625,0.22433096170425415,2.65208101272583,-0.5641250610351562
1701714481567522600,10.0145224609375,-0.23901063203811646,1.514883041381836,-0.5523048639297485
1701714481577116200,10.0241162109375,-0.9684526324272156,0.48899269104003906,-0.43169546127319336
1701714481586710300,10.033710205078124,-1.6021541357040405,-0.3399982452392578,-0.3663332462310791
1701714481596303600,10.0433037109375,-2.188518524169922,-1.2092218399047852,-0.5846461653709412
1701714481605896400,10.052896484375,-2.750438928604126,-1.8135080337524414,-0.33391857147216797
1701714481615489800,10.06248974609375,-2.665757179260254,-1.981389045715332,-0.7655376195907593
1701714481625084200,10.072084228515624,-3.0049052238464355,-1.577620506286621,-1.2521227598190308
1701714481634677500,10.081677490234375,-3.3878793716430664,-0.6802959442138672,-1.6317640542984009
1701714481644270000,10.09127001953125,-3.3567535877227783,0.14811325073242188,-1.8076595067977905
1701714481653863700,10.10086376953125,-1.1976652145385742,0.8681659698486328,-1.265576720237732
1701714481663458000,10.1104580078125,1.2230587005615234,1.4766340255737305,-0.4960263967514038
1701714481673051400,10.120051513671875,2.8401100635528564,2.22115421295166,-0.41125380992889404
1701714481682644000,10.12964404296875,3.392256736755371,2.8226466178894043,-0.7060038447380066
1701714481692237600,10.139237548828126,2.7945404052734375,3.2934036254882812,-0.9808220267295837
1701714481701831700,10.148831787109375,2.091465950012207,3.676112651824951,-0.8757426738739014
1701714481711425300,10.15842529296875,1.3719446659088135,3.876694679260254,-0.27096450328826904
1701714481721017900,10.168017822265625,0.5791465640068054,3.871061325073242,0.14273953437805176
1701714481730611200,10.177611083984376,0.06918114423751831,3.4227399826049805,0.3543081283569336
1701714481740205600,10.18720556640625,0.3513339161872864,2.575495719909668,-0.13568377494812012
1701714481749799000,10.196798828125,0.7218847274780273,1.3454914093017578,-1.6158478260040283
1701714481759391700,10.206391845703125,-0.7366558313369751,-0.2125558853149414,-3.183837413787842
1701714481768985000,10.215985107421876,-2.5498926639556885,-1.3572988510131836,-3.288522720336914
1701714481778579500,10.225579345703125,-1.892701268196106,-1.892709732055664,-3.8281543254852295
1701714481788172800,10.2351728515625,2.0248324871063232,-1.970412254333496,-3.6174001693725586
1701714481797765400,10.244765380859375,4.2098917961120605,-2.5534238815307617,-0.9127851724624634
1701714481807359000,10.25435888671875,4.460124492645264,-3.6177425384521484,1.235849380493164
1701714481816953000,10.263953125,3.7044718265533447,-4.974156379699707,2.412644386291504
1701714481826546700,10.273546630859375,2.3958687782287598,-6.06832218170166,2.672898530960083
1701714481836139300,10.28313916015625,0.6103337407112122,-6.911164283752441,2.3926949501037598
1701714481845732900,10.29273291015625,0.628976583480835,-7.663846015930176,3.0349373817443848
1701714481855327000,10.302326904296875,1.794213056564331,-7.2137556076049805,4.056996822357178
1701714481864920600,10.311920654296875,1.7640968561172485,-5.152701377868652,3.809525966644287
1701714481874513200,10.32151318359375,0.3903769254684448,-2.394314765930176,3.296539783477783
1701714481884106800,10.331106689453126,-0.7998420596122742,-0.16060829162597656,2.5738983154296875
1701714481893700900,10.340700927734375,-0.9549449682235718,1.0584697723388672,1.679502248764038
1701714481903294200,10.350294189453125,-0.2978171110153198,2.0502920150756836,0.6538476943969727
1701714481912887000,10.359886962890625,0.6043438911437988,3.092081069946289,-0.5894619822502136
1701714481922480400,10.36948046875,1.633687973022461,4.01377534866333,-2.046158790588379
1701714481932074800,10.37907470703125,2.2022740840911865,4.3203558921813965,-3.59158992767334
1701714481941668000,10.388668212890625,2.162966251373291,3.7005629539489746,-4.274242401123047
1701714481951260700,10.3982607421875,0.68760085105896,2.6465401649475098,-3.4580893516540527
1701714481960854300,10.407854248046876,-0.9811002612113953,1.5434627532958984,-1.5282732248306274
1701714481970448600,10.41744873046875,-2.185858964920044,0.3681659698486328,0.24349761009216309
1701714481980042000,10.4270419921875,-2.409519672393799,-0.7582035064697266,1.532684564590454
1701714481989634600,10.436634521484375,-1.9405258893966675,-1.5904064178466797,2.9314279556274414
1701714481999228200,10.446228271484374,-1.6253420114517212,-2.1058473587036133,4.219335556030273
1701714482008822300,10.455822265625,-1.113574504852295,-2.4131460189819336,5.327173233032227
1701714482018415900,10.465415771484375,-0.6026881337165833,-2.3168792724609375,5.276732444763184
1701714482028008400,10.475008544921875,0.0682036280632019,-1.7123517990112305,4.385214328765869
1701714482037601800,10.484601806640624,0.48052912950515747,-0.5566873550415039,2.6543331146240234
1701714482047196200,10.494196044921875,0.7377262711524963,0.6383876800537109,1.7190656661987305
1701714482056789500,10.50378955078125,0.7154566049575806,1.6819162368774414,1.452153205871582
1701714482066382300,10.51338232421875,0.15551608800888062,2.488436698913574,1.1981008052825928
1701714482075975700,10.5229755859375,0.2705520987510681,2.753209114074707,0.5313190221786499
1701714482085570000,10.532570068359375,0.6228779554367065,2.819547176361084,-0.5092827677726746
1701714482095163400,10.542163330078125,0.5172430276870728,3.003376007080078,-1.8171042203903198
1701714482104756000,10.551755859375,0.7576773166656494,2.7620034217834473,-2.421433448791504
1701714482114349600,10.561349609375,0.6724438071250916,1.866684913635254,-2.894108533859253
1701714482123943700,10.570943603515625,0.4568910002708435,0.9326305389404297,-3.187943458557129
1701714482133537300,10.580537353515625,0.4936447739601135,-0.5248785018920898,-3.4625139236450195
1701714482143129900,10.5901298828125,1.1284161806106567,-2.020565986633301,-2.836388111114502
1701714482152723500,10.599723388671874,0.8682428002357483,-3.1667966842651367,-4.177811145782471
1701714482162317600,10.609317626953125,3.3149306774139404,-4.306573867797852,-4.786238193511963
1701714482171911200,10.6189111328125,4.230413913726807,-5.430316925048828,-3.334141254425049
1701714482181503700,10.628503662109376,1.9615283012390137,-6.649864196777344,-1.4466475248336792
1701714482191097000,10.63809716796875,-0.23026680946350098,-7.653436660766602,-0.46289706230163574
1701714482200691500,10.64769140625,-1.1368309259414673,-8.953097343444824,0.2933727502822876
1701714482210284800,10.657284912109375,-1.9601318836212158,-9.927016258239746,0.541754961013794
1701714482219877400,10.66687744140625,-1.9590615034103394,-9.154645919799805,1.7308598756790161
1701714482229471000,10.676470947265624,-2.2022814750671387,-7.222301483154297,2.8673508167266846
1701714482239065300,10.6860654296875,-1.9949063062667847,-4.93887996673584,2.558973789215088
1701714482248658700,10.69565869140625,-0.5183253288269043,-2.600160598754883,1.7868536710739136
1701714482258251300,10.705251220703126,1.4630613327026367,-1.162759780883789,1.8655827045440674
1701714482267844900,10.714844970703124,2.986781120300293,0.3593931198120117,1.1197211742401123
1701714482277439000,10.72443896484375,3.5072808265686035,2.070359230041504,0.18130218982696533
1701714482287032600,10.734032470703125,3.061208963394165,3.722062110900879,-1.2084518671035767
1701714482296625200,10.743625244140626,2.6887288093566895,5.119608402252197,-2.1286849975585938
1701714482306218500,10.753218505859374,2.3701529502868652,5.504302978515625,-2.9972476959228516
1701714482315812900,10.762812744140625,1.3778915405273438,5.139834403991699,-3.121457576751709
1701714482325406200,10.77240625,0.18367314338684082,4.428306579589844,-2.1814069747924805
1701714482334999000,10.7819990234375,-1.0684024095535278,3.925778865814209,-1.1070518493652344
1701714482344592400,10.79159228515625,-2.156156063079834,3.840939521789551,-0.6365317106246948
1701714482354186800,10.801186767578125,-2.4134836196899414,4.122723579406738,-0.639832615852356
1701714482363780000,10.810780029296875,-3.0313720703125,4.579613208770752,-1.161672592163086
1701714482373372700,10.82037255859375,-2.9626433849334717,4.939304828643799,-1.3121788501739502
1701714482382966300,10.82996630859375,-2.326284885406494,4.896064758300781,-0.9187659025192261
1701714482392560400,10.839560302734375,-1.1835334300994873,4.472025394439697,-0.20862269401550293
1701714482402154000,10.849154052734375,0.4256919026374817,3.6205334663391113,0.8431650400161743
1701714482411746600,10.85874658203125,1.62931489944458,2.791706085205078,1.627020001411438
1701714482421340200,10.868340087890624,2.1592648029327393,2.592771530151367,1.3331859111785889
1701714482430934300,10.877934326171875,1.9630545377731323,2.65329647064209,-0.18078851699829102
1701714482440527600,10.887527587890625,1.4750020503997803,3.0455217361450195,-2.302154779434204
1701714482450120400,10.897120361328126,0.8508418798446655,3.446160316467285,-3.3237850666046143
1701714482459713800,10.9067138671875,0.2815569043159485,3.684922218322754,-3.586038112640381
1701714482469308200,10.91630810546875,0.07732284069061279,3.537269115447998,-3.4904584884643555
1701714482478901500,10.925901611328126,0.3512836992740631,3.000753402709961,-2.925830841064453
1701714482488494000,10.935494140625,0.06732010841369629,2.160506248474121,-2.1156580448150635
1701714482498087700,10.945087646484374,-0.5743996500968933,1.4798107147216797,-2.656752109527588
1701714482507682000,10.95468212890625,-0.8197413682937622,0.46015167236328125,-4.5470871925354
1701714482517275400,10.964275390625,-0.3395065665245056,-1.0664243698120117,-6.083337306976318
1701714482526868000,10.973867919921876,0.945622444152832,-2.0862321853637695,-5.9757771492004395
1701714482536461600,10.983461669921875,3.6370859146118164,-2.557612419128418,-3.934741258621216
1701714482546055700,10.9930556640625,5.25766658782959,-3.441965103149414,-1.7256524562835693
1701714482555649300,11.002649169921876,4.691555976867676,-5.254321098327637,0.042420029640197754
1701714482565241900,11.012241943359374,3.578232765197754,-7.624800682067871,1.255635380744934
1701714482574835500,11.02183544921875,2.9746150970458984,-9.44167709350586,2.0279479026794434
1701714482584429600,11.0314296875,1.2277936935424805,-9.591919898986816,3.3841488361358643
1701714482594023000,11.04102294921875,-0.9624800086021423,-7.959515571594238,5.227768898010254
1701714482603615500,11.050615478515626,-3.519150972366333,-7.081830024719238,7.149571418762207
1701714482613209000,11.060208984375,-2.8287272453308105,-6.287285804748535,7.526376724243164
1701714482622803500,11.069803466796875,0.13850629329681396,-4.175254821777344,5.551908493041992
1701714482632396800,11.079396728515626,2.8709895610809326,-1.6324214935302734,2.710141181945801
1701714482641989400,11.0889892578125,4.54983377456665,0.0878133773803711,0.7019823789596558
1701714482651583000,11.0985830078125,4.0366129875183105,1.0062808990478516,0.1963086724281311
1701714482661177000,11.108177001953125,1.7158746719360352,1.3870210647583008,0.5517997145652771
1701714482670770700,11.117770751953126,-1.1307482719421387,1.5672121047973633,0.3811846375465393
1701714482680363300,11.12736328125,-2.9424564838409424,1.8249940872192383,-0.4329131543636322
1701714482689956900,11.136956787109375,-3.1959567070007324,2.3266849517822266,-0.844936192035675
1701714482699551000,11.146551025390625,-2.190788745880127,2.553196907043457,-0.37831294536590576
1701714482709144600,11.15614453125,-0.47175538539886475,2.4003381729125977,0.5626063346862793
1701714482718737200,11.165737060546874,1.3405892848968506,2.075162410736084,1.340578317642212
1701714482728330500,11.17533056640625,2.7026596069335938,1.815403938293457,1.8081170320510864
1701714482737924900,11.1849248046875,3.2821199893951416,1.6691837310791016,2.148581027984619
1701714482747518200,11.194518310546876,2.4498682022094727,1.7409229278564453,2.2503769397735596
1701714482757110800,11.20411083984375,0.94170743227005,1.9193124771118164,1.7861971855163574
1701714482766704400,11.213704345703125,-0.5873488187789917,2.0195364952087402,0.8994389772415161
1701714482776298500,11.223298583984375,-1.9556578397750854,2.1488194465637207,0.06801170110702515
1701714482785892000,11.23289208984375,-3.093430280685425,2.3377327919006348,-0.47742265462875366
1701714482795484700,11.242484619140624,-3.3399038314819336,2.4882140159606934,-0.8030589818954468
1701714482805078300,11.252078369140625,-2.5986690521240234,2.66318416595459,-1.0051201581954956
1701714482814672400,11.26167236328125,-1.2120863199234009,3.004457950592041,-0.7098300457000732
1701714482824266000,11.271265869140626,-0.26448071002960205,3.1444454193115234,0.04655098915100098
1701714482833858600,11.280858642578124,0.5140689015388489,3.129326820373535,0.7232571244239807
1701714482843452000,11.290451904296875,1.2144476175308228,2.7539896965026855,0.6948793530464172
1701714482853046300,11.30004638671875,1.53882896900177,2.3770298957824707,-0.051676273345947266
1701714482862639600,11.3096396484375,1.385422945022583,1.7445859909057617,-1.015277624130249
1701714482872232200,11.319232177734374,1.0213652849197388,1.1453514099121094,-1.9238016605377197
1701714482881825800,11.32882568359375,1.0129342079162598,0.9369525909423828,-2.9943432807922363
1701714482891420000,11.338419921875,1.747286081314087,1.0328216552734375,-3.6485304832458496
1701714482901013500,11.348013427734376,2.4767003059387207,0.16347312927246094,-5.073706150054932
1701714482910606000,11.357606201171874,4.14044713973999,-2.397787094116211,-5.604601860046387
1701714482920199700,11.36719970703125,4.839972496032715,-4.980968475341797,-4.086128234863281
1701714482929793800,11.376793701171875,4.496572971343994,-8.906180381774902,0.18158453702926636
1701714482939387400,11.386387451171874,1.0254298448562622,-10.825637817382812,1.8861104249954224
1701714482948980000,11.39597998046875,-2.200610637664795,-12.282845497131348,3.182373523712158
1701714482958573300,11.4055732421875,-3.403700828552246,-11.680302619934082,2.5446410179138184
1701714482968167700,11.415167724609375,-3.3688905239105225,-10.169034957885742,2.922607898712158
1701714482977761000,11.424760986328126,-3.0631349086761475,-8.469919204711914,2.791325092315674
1701714482987353600,11.434353515625,-2.605053424835205,-7.406368255615234,2.8283395767211914
1701714482996947200,11.443947265625,-1.4491972923278809,-5.512544631958008,2.591012954711914
1701714483006541300,11.453541259765625,-0.2670745849609375,-2.7561349868774414,2.116034984588623
1701714483016135000,11.463135009765624,0.13972115516662598,-0.3348360061645508,1.0099042654037476
1701714483025727500,11.4727275390625,1.6813764572143555,1.2090892791748047,0.3505507707595825
1701714483035321000,11.482321044921875,1.9258604049682617,2.683147430419922,0.2756725549697876
1701714483044915200,11.491915283203125,1.673181414604187,3.8608016967773438,0.10554051399230957
1701714483054508500,11.501508544921874,1.7195160388946533,4.796748161315918,-0.7000835537910461
1701714483064101400,11.511101318359374,2.151766538619995,5.637371063232422,-1.381209135055542
1701714483073694700,11.52069482421875,2.1644513607025146,6.240285873413086,-1.8946573734283447
1701714483083289000,11.5302890625,1.381927490234375,6.69539213180542,-2.639693021774292
1701714483092882400,11.53988232421875,0.08420848846435547,6.6592512130737305,-3.0156004428863525
1701714483102475000,11.54947509765625,-1.664841890335083,6.050698280334473,-2.8322620391845703
1701714483112068600,11.559068603515625,-3.1229357719421387,5.287891387939453,-2.4877889156341553
1701714483121662700,11.568662841796876,-3.984205722808838,4.238790035247803,-1.9990774393081665
1701714483131256300,11.57825634765625,-3.8735947608947754,2.9377307891845703,-1.6056807041168213
1701714483140849000,11.587848876953124,-3.095315456390381,1.6107301712036133,-1.1879758834838867
1701714483150442500,11.5974423828125,-2.282392978668213,0.5855216979980469,-0.4184352159500122
1701714483160036600,11.60703662109375,-1.3200525045394897,-0.1961832046508789,0.9741265773773193
1701714483169630000,11.6166298828125,-0.3235126733779907,-0.6087379455566406,1.964800477027893
1701714483179222800,11.626222900390625,0.3479653000831604,-0.5889348983764648,2.296921730041504
1701714483188816100,11.635816162109375,0.08093476295471191,0.13910388946533203,1.5609755516052246
1701714483198410500,11.645410400390626,-0.2189112901687622,1.358987808227539,0.436822772026062
1701714483208003800,11.65500390625,-0.7273616790771484,2.52518367767334,-0.827068030834198
1701714483217596400,11.664596435546875,-0.7285414934158325,3.45644474029541,-1.7794618606567383
1701714483227190000,11.67418994140625,0.10193002223968506,4.17989444732666,-2.334477663040161
1701714483236784000,11.6837841796875,1.301551342010498,4.524511814117432,-2.6633572578430176
1701714483246377700,11.693377685546874,2.4765682220458984,4.369748592376709,-3.1067233085632324
1701714483255970300,11.70297021484375,3.22184157371521,4.142531871795654,-4.132920265197754
1701714483265564000,11.71256396484375,3.6013753414154053,3.4833827018737793,-5.802353382110596
1701714483275158000,11.722157958984376,3.0089914798736572,1.7510175704956055,-7.613452911376953
1701714483284751400,11.73175146484375,0.859463632106781,-0.3831310272216797,-6.654293537139893
1701714483294344200,11.74134423828125,-0.899383008480072,-2.188847541809082,-4.632877349853516
1701714483303937500,11.7509375,0.07241171598434448,-3.399928092956543,-2.9884588718414307
1701714483313532000,11.760531982421876,2.173020601272583,-4.760361671447754,-1.6075325012207031
1701714483323125200,11.770125244140624,3.996009588241577,-6.52000617980957,-0.39999741315841675
1701714483332717800,11.7797177734375,4.809937477111816,-8.379053115844727,0.5328779220581055
1701714483342311400,11.7893115234375,4.4519758224487305,-9.664542198181152,2.1869986057281494
1701714483351905500,11.798905517578126,1.5583267211914062,-9.995101928710938,4.361228942871094
1701714483361499100,11.8084990234375,-2.1102359294891357,-9.436763763427734,5.822640895843506
1701714483371091700,11.818091796875,-2.756610870361328,-8.78470230102539,6.504764080047607
1701714483380685300,11.827685302734375,-0.4138699769973755,-6.659365653991699,5.413573741912842
1701714483390279400,11.837279541015626,1.9236013889312744,-3.4913644790649414,3.501790761947632
1701714483399872800,11.846872802734374,3.386029005050659,-0.9496746063232422,2.528195858001709
1701714483409465600,11.856465576171875,4.388772010803223,0.5297889709472656,2.4618821144104004
1701714483419059000,11.866058837890625,4.421038627624512,1.2175474166870117,1.9663149118423462
1701714483428653300,11.8756533203125,3.5288822650909424,1.8500709533691406,1.3379578590393066
1701714483438246700,11.88524658203125,2.099780559539795,2.7935447692871094,1.2602283954620361
1701714483447839200,11.894839111328125,0.16268569231033325,3.367382526397705,0.8326154947280884
1701714483457432800,11.904432861328125,-1.2632040977478027,3.218564510345459,-0.16313767433166504
1701714483467027000,11.91402685546875,-1.4453409910202026,2.4447364807128906,-0.5201388597488403
1701714483476620500,11.92362060546875,-0.7816470861434937,1.5873479843139648,-0.2802281379699707
1701714483486213000,11.933213134765625,0.34094876050949097,0.8210554122924805,0.3733745813369751
1701714483495806700,11.942806640625,1.4083850383758545,0.3487520217895508,0.952905535697937
1701714483505400800,11.95240087890625,1.617276906967163,0.05961894989013672,1.1135050058364868
1701714483514994200,11.961994140625,0.6067299842834473,-0.1670999526977539,1.2783753871917725
1701714483524587000,11.9715869140625,-0.8426111340522766,-0.3276538848876953,1.27593994140625
1701714483534180400,11.981180419921875,-2.092505931854248,-0.42001914978027344,0.7313950061798096
1701714483543774700,11.990774658203126,-2.5990021228790283,-0.3078584671020508,-0.01394343376159668
1701714483553368000,12.0003681640625,-2.197347402572632,0.1472930908203125,-0.509392261505127
1701714483562960600,12.009960693359375,-1.3438787460327148,0.7776575088500977,-0.5713743567466736
1701714483572554200,12.01955419921875,-0.4799506664276123,1.3343467712402344,0.02967965602874756
1701714483582148400,12.0291484375,-0.1680120825767517,1.7289438247680664,0.8190664052963257
1701714483591742000,12.038741943359375,-0.017007648944854736,2.1144962310791016,1.627632975578308
1701714483601334500,12.04833447265625,-0.3087949752807617,2.8731656074523926,1.727223515510559
1701714483610928000,12.05792822265625,-0.12926000356674194,3.5337038040161133,1.8867452144622803
1701714483620522200,12.067522216796876,0.08205562829971313,4.005807399749756,2.030813217163086
1701714483630115600,12.077115478515625,0.19410568475723267,4.4980387687683105,1.7517772912979126
1701714483639708400,12.08670849609375,0.14005279541015625,4.762261867523193,1.3286821842193604
1701714483649301800,12.0963017578125,0.019169270992279053,4.808671474456787,0.9886031150817871
1701714483658896100,12.105896240234374,-0.12516015768051147,4.415365219116211,0.7156404256820679
1701714483668489500,12.115489501953125,-0.1573237180709839,3.9029083251953125,0.3647555112838745
1701714483678082000,12.12508203125,-0.16177523136138916,3.249624252319336,-0.2197335958480835
1701714483687675600,12.134675537109375,0.25273585319519043,2.3597774505615234,-0.8430441617965698
1701714483697269800,12.144269775390624,0.5799127221107483,1.4460668563842773,-1.5248156785964966
1701714483706863400,12.15386328125,0.7283260822296143,0.44852256774902344,-2.2231016159057617
