time,seconds_elapsed,z,y,x
1701714471638306300,0.085306396484375,0.12751436233520508,-0.478751540184021,-0.3552076816558838
1701714471647900400,0.094900390625,-0.13026317954063416,-0.2441861927509308,-0.18783552944660187
1701714471657493800,0.10449365234375,-0.4124746024608612,-0.10369132459163666,-0.041232191026210785
1701714471667086300,0.11408642578125,-0.6604785919189453,-0.026724567636847496,0.08582404255867004
1701714471676680000,0.123679931640625,-0.835180938243866,-0.1122431829571724,0.09559759497642517
1701714471686274000,0.133274169921875,-0.8742751479148865,-0.22341738641262054,-0.040010496973991394
1701714471695867400,0.142867431640625,-0.6934643387794495,-0.14156384766101837,-0.19150061905384064
1701714471705460000,0.1524599609375,-0.4796678125858307,-0.062153708189725876,-0.328330397605896
1701714471715053600,0.162053466796875,-0.3733803927898407,-0.08170082420110703,-0.41018393635749817
1701714471724647700,0.171647705078125,-0.35261157155036926,-0.18310146033763885,-0.3674246370792389
1701714471734241000,0.181240966796875,-0.37826716899871826,-0.39078953862190247,-0.20127417147159576
1701714471743833600,0.19083349609375,-0.4259132444858551,-0.742637574672699,0.04306473210453987
1701714471753427000,0.200427001953125,-0.4943281412124634,-1.0676082372665405,0.3167243003845215
1701714471763021300,0.210021240234375,-0.5737382769584656,-1.162900447845459,0.5146388411521912
1701714471772614700,0.21961474609375,-0.5932853817939758,-1.2398672103881836,0.5708367824554443
1701714471782207200,0.229207275390625,-0.566408097743988,-1.2618577480316162,0.5378510355949402
1701714471791800600,0.238800537109375,-0.5285356044769287,-1.2142115831375122,0.44255882501602173
1701714471801395000,0.24839501953125,-0.5041016936302185,-1.1250278949737549,0.3313846290111542
1701714471810988300,0.25798828125,-0.48577627539634705,-0.9894198179244995,0.25319617986679077
1701714471820580900,0.267580810546875,-0.47233763337135315,-0.8379297256469727,0.21165858209133148
1701714471830174200,0.27717431640625,-0.46867257356643677,-0.691326379776001,0.1835595965385437
1701714471839768600,0.2867685546875,-0.4747810363769531,-0.5887040495872498,0.15057384967803955
1701714471849362000,0.29636181640625,-0.47355934977531433,-0.5483881235122681,0.11270131915807724
1701714471858954500,0.30595458984375,-0.4405735731124878,-0.5276193022727966,0.08826743066310883
1701714471868547800,0.3155478515625,-0.37948885560035706,-0.5227325558662415,0.09437590092420578
1701714471878142000,0.325141845703125,-0.31351736187934875,-0.5398362874984741,0.12369657307863235
1701714471887735300,0.3347353515625,-0.24998924136161804,-0.5752654075622559,0.17622943222522736
1701714471897327900,0.344327880859375,-0.1901262104511261,-0.631463348865509,0.24708771705627441
1701714471906921500,0.35392138671875,-0.14858859777450562,-0.7010999321937561,0.3264978528022766
1701714471916515600,0.363515625,-0.13392825424671173,-0.7756233215332031,0.38636088371276855
1701714471926109000,0.37310888671875,-0.14614520967006683,-0.7108734846115112,0.4156815707683563
1701714471935701500,0.382701416015625,-0.1522536724805832,-0.4909684956073761,0.4169032573699951
1701714471945295000,0.392295166015625,-0.12781979143619537,-0.24785128235816956,0.3802524209022522
1701714471954889200,0.40188916015625,-0.08872556686401367,-0.04749337583780289,0.2910687327384949
1701714471964482600,0.411482666015625,-0.04230117425322533,0.03680354729294777,0.1701209545135498
1701714471974075100,0.4210751953125,0.010231691412627697,0.05390727147459984,0.07605048269033432
1701714471983668700,0.430668701171875,0.033443886786699295,0.05390727147459984,0.03695625811815262
1701714471993262800,0.440262939453125,0.011453386396169662,0.03436015918850899,0.050394900143146515
1701714472002856200,0.449856201171875,-0.020310672000050545,-0.020616095513105392,0.1041494607925415
1701714472012448800,0.45944873046875,-0.022754060104489326,-0.08292251825332642,0.16279079020023346
1701714472022042000,0.4690419921875,0.017561858519911766,-0.12934690713882446,0.20310671627521515
1701714472031636500,0.478636474609375,0.07375980913639069,-0.16966283321380615,0.22509720921516418
1701714472041229800,0.488229736328125,0.10063708573579788,-0.19287502765655518,0.2360924631357193
1701714472050822400,0.497822509765625,0.0847550556063652,-0.1769929975271225,0.24097923934459686
1701714472060415700,0.507415771484375,0.04932591691613197,-0.13301199674606323,0.22509720921516418
1701714472070010000,0.517010009765625,0.02367033064365387,-0.08047912269830704,0.17256435751914978
1701714472079603500,0.526603515625,0.020005248486995697,-0.01695101149380207,0.09315420687198639
1701714472089196000,0.536196044921875,0.01511846948415041,0.04291202127933502,0.00519220158457756
1701714472098789400,0.545789306640625,0.0016798300202935934,0.05757235363125801,-0.06810946762561798
1701714472108383700,0.5553837890625,-0.025197450071573257,0.024586603045463562,-0.10964708030223846
1701714472117976800,0.564976806640625,-0.05329642444849014,-0.01572931744158268,-0.1169772520661354
1701714472127569700,0.574569580078125,-0.07406523078680038,-0.05604523420333862,-0.09987352788448334
1701714472137163000,0.5841630859375,-0.08750387281179428,-0.12201674282550812,-0.08032641559839249
1701714472146757000,0.593757080078125,-0.09239064902067184,-0.14034216105937958,-0.060779303312301636
1701714472156350500,0.6033505859375,-0.08750387281179428,-0.08292251825332642,-0.04367557913064957
1701714472165943300,0.612943359375,-0.0716218426823616,-0.029167955741286278,-0.040010496973991394
1701714472175536600,0.62253662109375,-0.04963133856654167,-0.01695101149380207,-0.040010496973991394
1701714472185130800,0.632130859375,-0.037414394319057465,-0.05482354015111923,-0.03390202298760414
1701714472194724000,0.64172412109375,-0.0459662564098835,-0.10369132459163666,-0.016798298805952072
1701714472204317000,0.65131689453125,-0.06306997686624527,-0.13301199674606323,0.003970507066696882
1701714472213910300,0.66091015625,-0.06551336497068405,-0.1256818175315857,0.02229592576622963
1701714472223504400,0.67050439453125,-0.05085303261876106,-0.09513945877552032,0.03573456406593323
1701714472233097700,0.68009765625,-0.03130592033267021,-0.03771981969475746,0.046729814261198044
1701714472242690300,0.689690185546875,-0.017867282032966614,0.025808297097682953,0.0662769302725792
1701714472252284000,0.699283935546875,-0.019088976085186005,0.06978929787874222,0.09926267713308334
1701714472261878000,0.7088779296875,-0.037414394319057465,0.06245913356542587,0.14202198386192322
1701714472271471400,0.718471435546875,-0.07406523078680038,-0.029167955741286278,0.18844637274742126
1701714472281064000,0.72806396484375,-0.14736689627170563,-0.2148655205965042,0.22509720921516418
1701714472290657500,0.737657470703125,-0.1913478970527649,-0.372464120388031,0.25808295607566833
1701714472300251600,0.747251708984375,-0.1913478970527649,-0.39445462822914124,0.24342262744903564
1701714472309845000,0.756844970703125,-0.17057909071445465,-0.41766682267189026,0.15423893928527832
1701714472319437600,0.7664375,-0.15591876208782196,-0.3749074935913086,0.033291175961494446
1701714472329031000,0.776031005859375,-0.14003673195838928,-0.2954973578453064,-0.08765657991170883
1701714472338625300,0.785625244140625,-0.11560284346342087,-0.20753535628318787,-0.17561858892440796
1701714472348218600,0.795218505859375,-0.09727742522954941,-0.1256818175315857,-0.2086043357849121
1701714472357811200,0.804811279296875,-0.08017370104789734,-0.08780929446220398,-0.18539214134216309
1701714472367404500,0.814404541015625,-0.06306997686624527,-0.12201674282550812,-0.12430741637945175
1701714472376999000,0.8239990234375,-0.0594048947095871,-0.23319093883037567,-0.041232191026210785
1701714472386592300,0.83359228515625,-0.07895200699567795,-0.39078953862190247,0.049173206090927124
1701714472396184800,0.843184814453125,-0.09239064902067184,-0.5312843918800354,0.12003148347139359
1701714472405778200,0.852778076171875,-0.08383878320455551,-0.6021426916122437,0.1579040139913559
1701714472415372500,0.86237255859375,-0.06429167091846466,-0.60825115442276,0.14690876007080078
1701714472424965600,0.871965576171875,-0.04474456235766411,-0.5703786015510559,0.08826743066310883
1701714472434558500,0.881558349609375,-0.02764083817601204,-0.49829864501953125,0.010078979656100273
1701714472444151800,0.89115185546875,-0.0032069480512291193,-0.3993414044380188,-0.07543963938951492
1701714472453746000,0.900745849609375,0.016340164467692375,-0.31382277607917786,-0.14629791676998138
1701714472463339300,0.91033935546875,0.016340164467692375,-0.266176700592041,-0.18050536513328552
1701714472472932000,0.91993212890625,-0.01175880990922451,-0.2698417901992798,-0.1841704547405243
1701714472482525400,0.929525390625,-0.054518118500709534,-0.3199312388896942,-0.1707318127155304
1701714472492119600,0.93911962890625,-0.08017370104789734,-0.372464120388031,-0.15484978258609772
1701714472501713200,0.948713134765625,-0.08261708915233612,-0.42133188247680664,-0.14629791676998138
1701714472511305700,0.9583056640625,-0.07528692483901978,-0.46897798776626587,-0.1438545286655426
1701714472520899000,0.967899169921875,-0.06429167091846466,-0.50196373462677,-0.1426328420639038
1701714472530493200,0.9774931640625,-0.06062658876180649,-0.510515570640564,-0.1316375881433487
1701714472540086500,0.98708642578125,-0.06429167091846466,-0.4665345847606659,-0.10720369219779968
1701714472549679000,0.99667919921875,-0.06917845457792282,-0.39201122522354126,-0.08399149775505066
1701714472559272700,1.006272705078125,-0.06917845457792282,-0.32603973150253296,-0.08399149775505066
1701714472568866800,1.01586669921875,-0.06184828653931618,-0.26251161098480225,-0.10353861004114151
1701714472578460200,1.025460205078125,-0.06306997686624527,-0.22463907301425934,-0.12552911043167114
1701714472588052700,1.035052734375,-0.08017370104789734,-0.22586077451705933,-0.13896775245666504
1701714472597646300,1.044646240234375,-0.10338589549064636,-0.2527380585670471,-0.14874130487442017
1701714472607240400,1.054240478515625,-0.1241547018289566,-0.2967190444469452,-0.1560714691877365
1701714472616833800,1.063833740234375,-0.14003673195838928,-0.3345915973186493,-0.1572931706905365
1701714472626426400,1.07342626953125,-0.1522536724805832,-0.34314343333244324,-0.14751961827278137
1701714472636020000,1.08302001953125,-0.14492350816726685,-0.29916244745254517,-0.1316375881433487
1701714472645614000,1.092614013671875,-0.12781979143619537,-0.22708246111869812,-0.10720369219779968
1701714472655207400,1.10220751953125,-0.1241547018289566,-0.18432316184043884,-0.08521319180727005
1701714472664800000,1.111800048828125,-0.13026317954063416,-0.1501157134771347,-0.060779303312301636
1701714472674393300,1.121393310546875,-0.13270656764507294,-0.1122431829571724,-0.03390202298760414
1701714472683987700,1.13098779296875,-0.13514995574951172,-0.10491301864385605,-0.020463382825255394
1701714472693581000,1.1405810546875,-0.14003673195838928,-0.11712995916604996,-0.018019994720816612
1701714472703173600,1.150173583984375,-0.14736689627170563,-0.13179029524326324,-0.02901524491608143
1701714472712767200,1.159767333984375,-0.1644706279039383,-0.14645062386989594,-0.04856235533952713
1701714472722361300,1.169361328125,-0.1901262104511261,-0.15500248968601227,-0.06933116167783737
1701714472731954700,1.17895458984375,-0.2145601063966751,-0.14645062386989594,-0.08276980370283127
1701714472741547300,1.18854736328125,-0.22311195731163025,-0.111021488904953,-0.091321662068367
1701714472751140600,1.198140625,-0.22066856920719147,-0.07070557028055191,-0.1047603040933609
1701714472760735000,1.20773486328125,-0.21944688260555267,-0.0462716780602932,-0.1181989461183548
1701714472770328300,1.217328369140625,-0.22555534541606903,-0.014507622458040714,-0.11942064017057419
1701714472779921000,1.2269208984375,-0.2304421216249466,0.013591351918876171,-0.10598199814558029
1701714472789514200,1.23651416015625,-0.23288552463054657,0.0050394898280501366,-0.09376505762338638
1701714472799108600,1.246108642578125,-0.2157817929983139,-0.027946261689066887,-0.08276980370283127
1701714472808702000,1.255701904296875,-0.1913478970527649,-0.05726693198084831,-0.06810946762561798
1701714472818294500,1.26529443359375,-0.17424418032169342,-0.06826218217611313,-0.037567105144262314
1701714472827887900,1.274887939453125,-0.15469707548618317,-0.06704048812389374,0.00030542362947016954
1701714472837482200,1.284482177734375,-0.1388150453567505,-0.06581879407167435,0.033291175961494446
1701714472847075300,1.294075439453125,-0.13514995574951172,-0.05726693198084831,0.0650552362203598
1701714472856668200,1.303668212890625,-0.1241547018289566,-0.03894151374697685,0.08704573661088943
1701714472866261500,1.313261474609375,-0.10216420143842697,-0.01817270554602146,0.09071081876754761
1701714472875855600,1.322855712890625,-0.08017370104789734,-0.007177455350756645,0.08826743066310883
1701714472885449200,1.33244921875,-0.06184828653931618,0.00015271181473508477,0.08948912471532822
1701714472895041800,1.342041748046875,-0.04840964451432228,-0.01572931744158268,0.08704573661088943
1701714472904635100,1.35163525390625,-0.038636088371276855,-0.05482354015111923,0.07727217674255371
1701714472914229200,1.361229248046875,-0.03008422814309597,-0.10246963053941727,0.05894676223397255
1701714472923822600,1.370822509765625,-0.02886253222823143,-0.1391204595565796,0.04428642615675926
1701714472933415200,1.380415283203125,-0.037414394319057465,-0.16721943020820618,0.0393996499478817
1701714472943008800,1.3900087890625,-0.058183200657367706,-0.17332790791988373,0.051616594195365906
1701714472952603000,1.399602783203125,-0.08017370104789734,-0.14156384766101837,0.07360709458589554
1701714472962196500,1.409196533203125,-0.0984991192817688,-0.10002623498439789,0.08948912471532822
1701714472971789000,1.4187890625,-0.1119377613067627,-0.0719272643327713,0.08460234850645065
1701714472981382400,1.42838232421875,-0.11804623156785965,-0.05360184609889984,0.06261184066534042
1701714472990976500,1.4379765625,-0.11926792562007904,-0.05360184609889984,0.03695625811815262
1701714473000569900,1.44756982421875,-0.12293300777673721,-0.07925742864608765,0.01252236869186163
1701714473010162400,1.457162353515625,-0.13392825424671173,-0.13179029524326324,-0.0009162708884105086
1701714473019756000,1.466756103515625,-0.15591876208782196,-0.18432316184043884,-0.009468132629990578
1701714473029350100,1.47635009765625,-0.17302247881889343,-0.20875705778598785,-0.024128466844558716
1701714473038943500,1.485943603515625,-0.18646112084388733,-0.1916533261537552,-0.04611896723508835
1701714473048536000,1.4955361328125,-0.18279604613780975,-0.1244601309299469,-0.07299624383449554
1701714473058129700,1.505129638671875,-0.16691401600837708,-0.042606595903635025,-0.10598199814558029
1701714473067723800,1.514723876953125,-0.1498102843761444,0.00259610079228878,-0.13530266284942627
1701714473077317000,1.524317138671875,-0.1375933438539505,0.00992626789957285,-0.1450762301683426
1701714473086909700,1.53390966796875,-0.12904147803783417,-0.007177455350756645,-0.12186402827501297
1701714473096503300,1.54350341796875,-0.11926792562007904,-0.05604523420333862,-0.08521319180727005
1701714473106097400,1.553097412109375,-0.10460758954286575,-0.12201674282550812,-0.04367557913064957
1701714473115690800,1.562690673828125,-0.08383878320455551,-0.17454960942268372,-0.008246437646448612
1701714473125283300,1.572283447265625,-0.06429167091846466,-0.19287502765655518,0.017409147694706917
1701714473134877000,1.581876953125,-0.04963133856654167,-0.17332790791988373,0.030847785994410515
1701714473144471000,1.591470947265625,-0.04352286830544472,-0.12323843687772751,0.03451287001371384
1701714473154064400,1.601064453125,-0.0459662564098835,-0.07314895838499069,0.03573456406593323
1701714473163657000,1.610656982421875,-0.054518118500709534,-0.026724567636847496,0.04184303805232048
1701714473173250600,1.62025048828125,-0.058183200657367706,0.01969982497394085,0.0528382882475853
1701714473182844700,1.6298447265625,-0.05329642444849014,0.06612421572208405,0.06139015033841133
1701714473192438000,1.63943798828125,-0.0459662564098835,0.09300149232149124,0.0662769302725792
1701714473202030600,1.649030517578125,-0.037414394319057465,0.0856713280081749,0.0650552362203598
1701714473211624200,1.658624267578125,-0.038636088371276855,0.051463883370161057,0.06749862432479858
1701714473221218300,1.66821826171875,-0.0594048947095871,0.024586603045463562,0.09071081876754761
1701714473230811600,1.677811767578125,-0.08994726091623306,0.012369656935334206,0.12247487902641296
1701714473240404200,1.687404296875,-0.1119377613067627,0.016034740954637527,0.1322484314441681
1701714473249997800,1.696997802734375,-0.10582929104566574,0.04169032722711563,0.12125317752361298
1701714473259592000,1.706592041015625,-0.0850604772567749,0.06612421572208405,0.09315420687198639
1701714473269185300,1.716185302734375,-0.06551336497068405,0.07345438003540039,0.06139015033841133
1701714473278777900,1.72577783203125,-0.04474456235766411,0.06245913356542587,0.033291175961494446
1701714473288371500,1.735371337890625,-0.03008422814309597,0.025808297097682953,0.007635590620338917
1701714473297965600,1.744965576171875,-0.02886253222823143,-0.007177455350756645,-0.015576604753732681
1701714473307559000,1.754558837890625,-0.03497100621461868,-0.0328330397605896,-0.04611896723508835
1701714473317151500,1.7641513671875,-0.05207473039627075,-0.04993676394224167,-0.08521319180727005
1701714473326745000,1.7737451171875,-0.06673506647348404,-0.04871506989002228,-0.1291942000389099
1701714473336339200,1.783339111328125,-0.06917845457792282,-0.01572931744158268,-0.1841704547405243
1701714473345932500,1.7929326171875,-0.06673506647348404,0.04046862944960594,-0.23425991833209991
1701714473355525000,1.802525146484375,-0.06673506647348404,0.07711946964263916,-0.2721324563026428
1701714473365118700,1.81211865234375,-0.06673506647348404,0.0856713280081749,-0.2892361879348755
1701714473374712800,1.821712890625,-0.06551336497068405,0.08689302206039429,-0.28312769532203674
1701714473384306200,1.83130615234375,-0.06062658876180649,0.09055810421705246,-0.25747212767601013
1701714473393899000,1.84089892578125,-0.05085303261876106,0.07834116369485855,-0.23181653022766113
1701714473403492400,1.850492431640625,-0.039857782423496246,0.05268557742238045,-0.21226942539215088
1701714473413086500,1.86008642578125,-0.036192700266838074,0.03924693539738655,-0.18783552944660187
1701714473422679800,1.8696796875,-0.039857782423496246,0.046577103435993195,-0.1585148572921753
1701714473432272600,1.879272705078125,-0.036192700266838074,0.06001574173569679,-0.13774605095386505
1701714473441866000,1.888865966796875,-0.019088976085186005,0.07345438003540039,-0.12552911043167114
1701714473451460000,1.898460205078125,0.013896775431931019,0.0978882759809494,-0.11209046840667725
1701714473461053400,1.908053466796875,0.04321744292974472,0.11377029865980148,-0.08399149775505066
1701714473470646300,1.917646240234375,0.06032116711139679,0.10277505218982697,-0.041232191026210785
1701714473480239600,1.927239501953125,0.07742489129304886,0.08078455179929733,0.00519220158457756
1701714473489833700,1.936833740234375,0.09452861547470093,0.04291202127933502,0.03451287001371384
1701714473499427300,1.94642724609375,0.10796725004911423,0.012369656935334206,0.046729814261198044
1701714473509020000,1.95602001953125,0.11407572776079178,-0.005955760832875967,0.049173206090927124
1701714473518613200,1.96561328125,0.11285403370857239,-0.004734066314995289,0.04550812020897865
1701714473528207400,1.975207275390625,0.10918894410133362,-0.0010689827613532543,0.03817795217037201
1701714473537801000,1.984801025390625,0.09697200357913971,0.0050394898280501366,0.03695625811815262
1701714473547393500,1.9943935546875,0.08231166750192642,0.007482878863811493,0.03817795217037201
1701714473556987000,2.00398681640625,0.06520794332027435,0.00015271181473508477,0.03695625811815262
1701714473566581200,2.013581298828125,0.05787777900695801,0.0038177953101694584,0.027182703837752342
1701714473576174600,2.023174560546875,0.05421269312500954,0.012369656935334206,0.011300674639642239
1701714473585767200,2.03276708984375,0.04810422286391258,0.03558185324072838,-0.003359660040587187
1701714473595360500,2.042360595703125,0.052990999072790146,0.05512896552681923,-0.024128466844558716
1701714473604955000,2.051954833984375,0.06154286116361618,0.06612421572208405,-0.037567105144262314
1701714473614548200,2.06154833984375,0.06154286116361618,0.06978929787874222,-0.03512371703982353
1701714473624140800,2.071140869140625,0.06765133142471313,0.05757235363125801,-0.020463382825255394
1701714473633734400,2.080734375,0.07498150318861008,0.05024218559265137,0.008857285603880882
1701714473643328500,2.09032861328125,0.06032116711139679,-0.007177455350756645,0.06016845628619194
1701714473652921900,2.099921875,0.0261137206107378,-0.09636115282773972,0.1322484314441681
1701714473662514400,2.109514404296875,0.005344913341104984,-0.14645062386989594,0.19088977575302124
1701714473672108000,2.11910791015625,0.02244863659143448,-0.13545538485050201,0.20432840287685394
1701714473681702100,2.1287021484375,0.07742489129304886,-0.03771981969475746,0.17256435751914978
1701714473691295500,2.13829541015625,0.13240113854408264,0.09666658192873001,0.10781454294919968
1701714473700888000,2.14788818359375,0.15087927877902985,0.18340688943862915,0.04428642615675926
1701714473710481700,2.157481689453125,0.14110571146011353,0.23349636793136597,0.011300674639642239
1701714473720075800,2.16707568359375,0.1250709742307663,0.27625566720962524,-0.005803049076348543
1701714473729669000,2.176669189453125,0.10308047384023666,0.26403874158859253,-0.021685076877474785
1701714473739262000,2.186261962890625,0.04932591691613197,0.18585027754306793,-0.04734066128730774
1701714473748855300,2.195855224609375,-0.03008422814309597,0.08689302206039429,-0.08154810965061188
1701714473758449400,2.205449462890625,-0.08017370104789734,0.0038177953101694584,-0.1328592747449875
1701714473768043000,2.21504296875,-0.10216420143842697,-0.03771981969475746,-0.2110477238893509
1701714473777635600,2.224635498046875,-0.11438114941120148,-0.0584886260330677,-0.2855710983276367
1701714473787229000,2.23422900390625,-0.13148486614227295,-0.09636115282773972,-0.3124483823776245
1701714473796823300,2.2438232421875,-0.14858859777450562,-0.14645062386989594,-0.28190600872039795
1701714473806416600,2.253416748046875,-0.1632489264011383,-0.20875705778598785,-0.21837788820266724
1701714473816009200,2.26300927734375,-0.1766875684261322,-0.28572380542755127,-0.15484978258609772
1701714473825602600,2.2726025390625,-0.19501298666000366,-0.3761292099952698,-0.1181989461183548
1701714473835197000,2.282197021484375,-0.21211670339107513,-0.4628695249557495,-0.10964708030223846
1701714473844790300,2.291790283203125,-0.20600824058055878,-0.5190674662590027,-0.11209046840667725
1701714473854382800,2.3013828125,-0.17302247881889343,-0.4934118688106537,-0.0925433561205864
1701714473863976400,2.3109765625,-0.11926792562007904,-0.4127800464630127,-0.057114217430353165
1701714473873570600,2.320570556640625,-0.06429167091846466,-0.3333698809146881,-0.02901524491608143
1701714473883164000,2.330163818359375,-0.0325276181101799,-0.28572380542755127,-0.005803049076348543
1701714473892756500,2.339756591796875,0.007788302376866341,-0.31260108947753906,0.002748812548816204
1701714473902350000,2.34935009765625,0.05787777900695801,-0.39201122522354126,-0.021685076877474785
1701714473911944200,2.358944091796875,0.1435490995645523,-0.46897798776626587,-0.058335911482572556
1701714473921537500,2.36853759765625,0.2852656841278076,-0.5154023766517639,-0.07543963938951492
1701714473931130400,2.37813037109375,0.46729815006256104,-0.5716003179550171,-0.04611896723508835
1701714473940723700,2.3877236328125,0.6713211536407471,-0.6986565589904785,0.049173206090927124
1701714473950318000,2.397318115234375,0.8826742768287659,-0.9344435930252075,0.22509720921516418
1701714473959911400,2.406911376953125,1.1160179376602173,-1.264301061630249,0.47676628828048706
1701714473969504000,2.41650390625,1.4959648847579956,-1.7248799800872803,0.7540909647941589
1701714473979097600,2.42609765625,2.2436420917510986,-2.389634370803833,0.9874345660209656
1701714473988691700,2.435691650390625,2.7298765182495117,-2.8428831100463867,1.29163658618927
1701714473998285000,2.44528515625,2.97910213470459,-3.182514190673828,1.6080553531646729
1701714474007877600,2.454877685546875,3.2393229007720947,-3.4476218223571777,1.9269176721572876
1701714474017471200,2.46447119140625,3.625378370285034,-3.6235458850860596,2.2579967975616455
1701714474027065300,2.4740654296875,4.0395331382751465,-3.6931824684143066,2.6049580574035645
1701714474036659000,2.483658935546875,4.397489547729492,-3.6467580795288086,2.9494760036468506
1701714474046251500,2.49325146484375,4.608842372894287,-3.4867162704467773,3.255052328109741
1701714474055844900,2.502844970703125,4.654045104980469,-3.294910192489624,3.509164810180664
1701714474065439200,2.512439208984375,4.545314311981201,-3.0395760536193848,3.619117259979248
1701714474075032600,2.522032470703125,4.373055458068848,-2.748812675476074,3.5274901390075684
1701714474084625200,2.531625244140625,4.426810264587402,-2.577775478363037,3.3601181507110596
1701714474094218800,2.54121875,4.87272834777832,-2.4837050437927246,3.2672693729400635
1701714474103812900,2.550812744140625,5.426156044006348,-2.436058759689331,3.24894380569458
1701714474113406200,2.56040625,5.785487174987793,-2.5557849407196045,3.2269532680511475
1701714474122998800,2.569998779296875,5.9980621337890625,-2.8306663036346436,3.2611608505249023
1701714474132592400,2.57959228515625,6.158103942871094,-3.118986129760742,3.4358630180358887
1701714474142186500,2.5891865234375,6.33891487121582,-3.301018476486206,3.688753843307495
1701714474151780000,2.598780029296875,6.588140487670898,-3.3364477157592773,3.908658981323242
1701714474161372700,2.60837255859375,6.823927402496338,-3.3046836853027344,4.038158416748047
1701714474170966000,2.617966064453125,6.922884464263916,-3.3107922077178955,4.087026119232178
1701714474180560400,2.627560302734375,6.8605780601501465,-3.303462028503418,4.096799850463867
1701714474190153700,2.63715380859375,6.6724371910095215,-3.246042251586914,4.117568492889404
1701714474199746300,2.646746337890625,6.356018543243408,-3.1336464881896973,4.107795238494873
1701714474209340000,2.65633984375,5.961410999298096,-2.936953544616699,4.008837699890137
1701714474218934000,2.66593408203125,5.543591499328613,-2.5826621055603027,3.887890100479126
1701714474228527400,2.67552734375,5.186704158782959,-2.1587343215942383,3.769385814666748
1701714474238118700,2.68511865234375,4.958247184753418,-1.8873653411865234,3.6288907527923584
1701714474247712000,2.6947119140625,4.702913284301758,-1.7651958465576172,3.4896175861358643
1701714474257306000,2.70430615234375,3.801302433013916,-3.115320920944214,2.366727590560913
1701714474266899500,2.7138994140625,1.7183133363723755,-5.495182037353516,-0.4187358021736145
1701714474276492300,2.7234921875,0.8020424246788025,-5.200753688812256,-2.4261326789855957
1701714474286085600,2.733085693359375,1.946770191192627,-3.184957504272461,-3.4095966815948486
1701714474295679700,2.7426796875,3.8232929706573486,-0.2148655205965042,-3.457242727279663
1701714474305273300,2.7522734375,5.012001991271973,2.212641477584839,-2.8451738357543945
1701714474314866000,2.761865966796875,5.395613670349121,2.7465219497680664,-2.0839054584503174
1701714474324459500,2.77145947265625,5.3504109382629395,1.7044165134429932,-1.3704358339309692
1701714474334053600,2.7810537109375,3.2698652744293213,-0.2967190444469452,-0.3258870244026184
1701714474343647000,2.79064697265625,1.4629791975021362,-3.167853832244873,0.6355865597724915
1701714474353239600,2.800239501953125,1.7439689636230469,-4.760943412780762,1.2378820180892944
1701714474362833200,2.809833251953125,1.8722468614578247,-3.468390703201294,0.6807892918586731
1701714474372427300,2.81942724609375,1.9162278175354004,-1.107924222946167,-0.11086877435445786
1701714474382020900,2.829020751953125,1.9589871168136597,-0.05604523420333862,-0.2990097403526306
1701714474391613400,2.838613525390625,1.836817741394043,0.08322793990373611,-0.31855684518814087
1701714474401206800,2.848206787109375,1.623021125793457,-0.13056860864162445,-0.15362808108329773
1701714474410801200,2.85780126953125,1.4556490182876587,-0.4091149568557739,0.08582404255867004
1701714474420394500,2.86739453125,1.3273711204528809,-0.3871244490146637,0.1432436853647232
1701714474429987000,2.876987060546875,1.2516260147094727,-0.09513945877552032,0.06383354216814041
1701714474439580700,2.88658056640625,1.2369656562805176,0.3202366828918457,-0.09009996801614761
1701714474449174800,2.8961748046875,1.2613996267318726,0.6635328531265259,-0.2367033064365387
1701714474458768400,2.905768310546875,1.349361538887024,0.8492304086685181,-0.38575005531311035
1701714474468361000,2.91536083984375,1.4935215711593628,0.9713998436927795,-0.4688252806663513
1701714474477954300,2.924954345703125,1.7561858892440796,1.1363285779953003,-0.3967452943325043
1701714474487548700,2.934548583984375,1.6779974699020386,1.2927055358886719,-0.31122666597366333
1701714474497142000,2.94414208984375,1.3762388229370117,1.2035218477249146,-0.2513636350631714
1701714474506734600,2.953734619140625,1.166107416152954,1.006829023361206,-0.04611896723508835
1701714474516328200,2.963328125,1.2589561939239502,0.6048914790153503,0.27885177731513977
1701714474525922300,2.97292236328125,1.3505833148956299,0.1626380831003189,0.545181155204773
1701714474535516000,2.982515869140625,1.2284138202667236,0.2786990702152252,0.4095730781555176
1701714474545108500,2.9921083984375,1.2491827011108398,0.37887802720069885,0.1713426560163498
1701714474554702000,3.0017021484375,1.2894985675811768,0.4631749391555786,-0.021685076877474785
1701714474564296200,3.011296142578125,1.4361019134521484,0.5047125220298767,-0.2098260372877121
1701714474573889500,3.0208896484375,1.646233320236206,0.626882016658783,-0.33443886041641235
1701714474583482400,3.030482421875,1.576596736907959,0.4387410581111908,-0.3173351585865021
1701714474593075700,3.04007568359375,1.4922997951507568,0.11865708231925964,-0.23059484362602234
1701714474602670000,3.049670166015625,1.5497194528579712,-0.15500248968601227,-0.12308572232723236
1701714474612263400,3.059263427734375,1.6596720218658447,-0.2307475507259369,-0.05100574716925621
1701714474621856000,3.06885595703125,1.6804407835006714,-0.3455868363380432,-0.15362808108329773
1701714474631449600,3.07844970703125,1.6975445747375488,-0.3480302393436432,-0.21471281349658966
1701714474641043700,3.088043701171875,1.6254645586013794,-0.39323291182518005,-0.08643488585948944
1701714474650637300,3.09763720703125,1.4800828695297241,-0.2954973578453064,-0.0021379655227065086
1701714474660230000,3.10722998046875,1.299272060394287,-0.0975828468799591,-0.01435491070151329
1701714474669823200,3.1168232421875,1.0683718919754028,-0.21364383399486542,0.10903623700141907
1701714474679417600,3.12641748046875,0.8961129188537598,-0.42011019587516785,0.2910687327384949
1701714474689011000,3.136010986328125,0.5955760478973389,-0.13545538485050201,0.430341899394989
1701714474698603800,3.145603759765625,0.27915719151496887,0.22738789021968842,0.5818319916725159
1701714474708197000,3.155197021484375,-0.13026317954063416,0.2664821147918701,0.6026008129119873
1701714474717791500,3.16479150390625,-0.6299362182617188,0.46928340196609497,0.5183038711547852
1701714474727384800,3.174384765625,-1.0440906286239624,0.7124006152153015,0.5952706336975098
1701714474736977400,3.183977294921875,-1.3263020515441895,1.1228899955749512,0.7528692483901978
1701714474746571000,3.193571044921875,-1.5828579664230347,1.5077236890792847,0.870151937007904
1701714474756165000,3.2031650390625,-1.6146219968795776,1.5920206308364868,1.016755223274231
1701714474765758700,3.2127587890625,-1.1784770488739014,1.2584980726242065,1.0387457609176636
1701714474775351300,3.222351318359375,-0.46012070775032043,0.7954758405685425,0.9422318935394287
1701714474784944600,3.231944580078125,0.26938363909721375,0.2945810854434967,0.4987567961215973
1701714474794539000,3.2415390625,0.46851983666419983,-0.0010689827613532543,0.18722468614578247
1701714474804132400,3.25113232421875,0.7116370797157288,-0.07559234648942947,0.1566823273897171
1701714474813725200,3.26072509765625,1.041494607925415,-0.0719272643327713,0.26785650849342346
1701714474823318500,3.270318603515625,1.2980504035949707,-0.0584886260330677,0.430341899394989
1701714474832913000,3.279912841796875,1.3017154932022095,-0.05115845799446106,0.5036435723304749
1701714474842506200,3.28950634765625,1.1966497898101807,-0.19287502765655518,0.4584408700466156
1701714474852098800,3.299098876953125,1.2320789098739624,-0.6021426916122437,0.3533751368522644
1701714474861692400,3.3086923828125,1.6254645586013794,-0.7291989326477051,0.24708771705627441
1701714474871286500,3.31828662109375,2.299839973449707,-0.6791094541549683,0.1322484314441681
1701714474880880000,3.327880126953125,2.9485597610473633,-0.6045860648155212,0.00030542362947016954
1701714474890472700,3.33747265625,3.3077378273010254,-0.4359922409057617,-0.12186402827501297
1701714474900066300,3.34706640625,3.3395018577575684,-0.27595025300979614,-0.22692975401878357
1701714474909660400,3.356660400390625,3.0902762413024902,-0.28694549202919006,-0.26602399349212646
1701714474919254000,3.36625390625,2.693225622177124,-0.36757734417915344,-0.20371755957603455
1701714474928846600,3.3758466796875,2.1911091804504395,-0.3749074935913086,-0.09865183383226395
1701714474938440000,3.38543994140625,1.5668232440948486,-0.32603973150253296,-0.021685076877474785
1701714474948034300,3.395034423828125,0.846023440361023,-0.2515163719654083,0.03695625811815262
1701714474957627600,3.404627685546875,0.15332266688346863,-0.12690351903438568,0.0784938707947731
1701714474967220500,3.414220458984375,-0.10582929104566574,-0.03527642786502838,-0.11575555801391602
1701714474976813800,3.423813720703125,0.8704573512077332,-0.3309265077114105,-1.2006202936172485
1701714474986408200,3.433408203125,1.5203988552093506,-0.4653128981590271,-1.0576820373535156
1701714474996001500,3.44300146484375,1.5509412288665771,-0.08903098851442337,-0.26724568009376526
1701714475005594000,3.452593994140625,1.9125627279281616,-0.2954973578453064,0.08215895295143127
1701714475015187700,3.462187744140625,2.380471706390381,-0.705986738204956,0.4572191834449768
1701714475024782000,3.471781982421875,2.7518668174743652,-1.0321791172027588,0.8225058317184448
1701714475034375400,3.48137548828125,2.900913715362549,-1.4328949451446533,1.1267077922821045
1701714475043968000,3.490968017578125,2.7811875343322754,-1.774969458580017,1.267202615737915
1701714475053561600,3.5005615234375,2.3474860191345215,-1.9301246404647827,1.0595145225524902
1701714475063155700,3.51015576171875,1.6865493059158325,-1.870261549949646,0.4572191834449768
1701714475072749300,3.519749267578125,0.786160409450531,-1.398687481880188,-0.2721324563026428
1701714475082342000,3.529341796875,-0.23777230083942413,-0.6632274389266968,-0.7852441668510437
1701714475091935500,3.538935546875,-0.5346440672874451,-0.2283041626214981,-0.9074136018753052
1701714475101529600,3.548529541015625,0.6945333480834961,0.3324536085128784,-1.3288981914520264
1701714475111123200,3.558123291015625,1.6425682306289673,0.9261971712112427,-1.4278554916381836
1701714475120715800,3.5677158203125,0.7886037826538086,-0.14278554916381836,-0.647192656993866
1701714475130309000,3.57730908203125,0.3243598937988281,-0.6400152444839478,-0.022906772792339325
1701714475139903500,3.586903564453125,0.08842013776302338,-0.6510104537010193,0.3179459869861603
1701714475149496800,3.596496826171875,-0.06306997686624527,-0.6155813336372375,0.5244123935699463
1701714475159089700,3.606089599609375,-0.13026317954063416,-0.60825115442276,0.6368082761764526
1701714475168683000,3.61568310546875,-0.11804623156785965,-0.6180247068405151,0.6233696341514587
1701714475178277400,3.62527734375,-0.072843536734581,-0.5874823331832886,0.49142661690711975
1701714475187870700,3.63487060546875,-0.03130592033267021,-0.4384356141090393,0.3142809271812439
1701714475197463300,3.64446337890625,0.0029015245381742716,-0.2429644912481308,0.1566823273897171
1701714475207057000,3.654056884765625,0.03588727489113808,-0.15622419118881226,0.06139015033841133
1701714475216651000,3.663651123046875,0.05787777900695801,-0.14889401197433472,0.02229592576622963
1701714475226244600,3.67324462890625,0.08842013776302338,-0.24785128235816956,0.033291175961494446
1701714475235837200,3.682837158203125,0.06887302547693253,-0.1782146841287613,0.03451287001371384
1701714475245430800,3.6924306640625,0.0590994730591774,-0.2429644912481308,-0.020463382825255394
1701714475255025000,3.70202490234375,0.07620319724082947,-0.2710634768009186,0.008857285603880882
1701714475264618500,3.711618408203125,0.050547610968351364,-0.1916533261537552,-0.03390202298760414
1701714475274211000,3.721211181640625,-0.0068720318377017975,-0.16599774360656738,-0.025350160896778107
1701714475283804700,3.7308046875,-0.04474456235766411,-0.1892099380493164,-0.003359660040587187
1701714475293398800,3.740398681640625,-0.09116895496845245,-0.17943638563156128,0.02351761981844902
1701714475302992400,3.749992431640625,-0.15347537398338318,-0.17088451981544495,0.05650337040424347
1701714475312585000,3.7595849609375,-0.2157817929983139,-0.18432316184043884,0.08948912471532822
1701714475322178300,3.76917822265625,-0.2707580327987671,-0.2160872220993042,0.12613995373249054
1701714475331772700,3.778772705078125,-0.3171824514865875,-0.2515163719654083,0.16156910359859467
1701714475341366000,3.788365966796875,-0.358720064163208,-0.29794076085090637,0.18966807425022125
1701714475350958800,3.797958740234375,-0.3843756318092346,-0.3248180150985718,0.20555010437965393
1701714475360552200,3.80755224609375,-0.36727190017700195,-0.29916244745254517,0.19455485045909882
1701714475370146600,3.817146484375,-0.2829749882221222,-0.19409671425819397,0.12247487902641296
1701714475379740000,3.826739990234375,-0.18035265803337097,-0.027946261689066887,0.016187451779842377
1701714475389332700,3.836332763671875,-0.15591876208782196,0.01847812905907631,-0.027793550863862038
1701714475398926000,3.845926025390625,-0.1656923145055771,0.027029991149902344,-0.019241688773036003
1701714475408520400,3.8555205078125,-0.1913478970527649,0.04413371533155441,0.010078979656100273
1701714475418113800,3.86511376953125,-0.23655059933662415,0.06001574173569679,0.05405998229980469
1701714475427706400,3.874706298828125,-0.27808821201324463,0.05512896552681923,0.09804098308086395
1701714475437300000,3.884300048828125,-0.30740886926651,0.00992626789957285,0.1310267299413681
1701714475446894300,3.893894287109375,-0.36360684037208557,-0.07803573459386826,0.145687073469162
1701714475456487700,3.90348779296875,-0.43568679690361023,-0.12690351903438568,0.15057384967803955
1701714475466080300,3.913080322265625,-0.46867257356643677,-0.11590826511383057,0.14690876007080078
1701714475475673900,3.922673828125,-0.4931064546108246,-0.12690351903438568,0.13591352105140686
1701714475485268200,3.932268310546875,-0.5493044257164001,-0.16111096739768982,0.12491826713085175
1701714475494861600,3.941861572265625,-0.6116108298301697,-0.17332790791988373,0.11147962510585785
1701714475504454100,3.9514541015625,-0.6751389503479004,-0.18310146033763885,0.091932512819767
1701714475514047700,3.9610478515625,-0.755770742893219,-0.24540787935256958,0.08704573661088943
1701714475523641900,3.970641845703125,-0.7973083853721619,-0.3333698809146881,0.09315420687198639
1701714475533235500,3.9802353515625,-0.7618792653083801,-0.4091149568557739,0.07971556484699249
1701714475542828000,3.989828125,-0.6824691295623779,-0.453095942735672,0.051616594195365906
1701714475552421600,3.999421630859375,-0.6152759194374084,-0.5031854510307312,0.018630841746926308
1701714475562015700,4.009015625,-0.5407525300979614,-0.5667135715484619,-0.02901524491608143
1701714475571609300,4.018609375,-0.43324342370033264,-0.5862606763839722,-0.08032641559839249
1701714475581202000,4.028201904296875,-0.31596073508262634,-0.5752654075622559,-0.1181989461183548
1701714475590795300,4.037795166015625,-0.2011214643716812,-0.5349494814872742,-0.14751961827278137
1701714475600389600,4.0473896484375,-0.09972081333398819,-0.4640912115573883,-0.1707318127155304
1701714475609983000,4.05698291015625,-0.015423892997205257,-0.45920443534851074,-0.17684027552604675
1701714475619575800,4.066575927734375,0.05787777900695801,-0.429883748292923,-0.1829487532377243
1701714475629169200,4.076169189453125,0.111632339656353,-0.4017847776412964,-0.18661384284496307
1701714475638763500,4.085763427734375,0.14110571146011353,-0.38101598620414734,-0.1817270666360855
1701714475648356900,4.09535693359375,0.1435490995645523,-0.36513394117355347,-0.16340164840221405
1701714475657949700,4.10494970703125,0.12995775043964386,-0.349251925945282,-0.13530266284942627
1701714475667543000,4.11454296875,0.10308047384023666,-0.32726141810417175,-0.11209046840667725
1701714475677137400,4.124137451171875,0.07986827939748764,-0.30282753705978394,-0.09743013978004456
1701714475686730800,4.133730712890625,0.06032116711139679,-0.2808370292186737,-0.08887827396392822
1701714475696323600,4.143323486328125,0.0456608310341835,-0.26006820797920227,-0.08032641559839249
1701714475705917000,4.1529169921875,0.029778804630041122,-0.2441861927509308,-0.07177454978227615
1701714475715511300,4.16251123046875,0.018783552572131157,-0.23196925222873688,-0.06933116167783737
1701714475725104600,4.172104736328125,0.011453386396169662,-0.21364383399486542,-0.06933116167783737
1701714475734697200,4.181697265625,0.0004581354442052543,-0.20997874438762665,-0.06200099736452103
1701714475744290800,4.191290771484375,-0.012980503961443901,-0.22219568490982056,-0.04856235533952713
1701714475753885200,4.20088525390625,-0.023975754156708717,-0.22708246111869812,-0.022906772792339325
1701714475763478500,4.210478515625,-0.02764083817601204,-0.23563432693481445,0.008857285603880882
1701714475773071000,4.220071044921875,-0.020310672000050545,-0.2527380585670471,0.03695625811815262
1701714475782664700,4.229664794921875,-0.009315420873463154,-0.27350685000419617,0.0650552362203598
1701714475792258800,4.2392587890625,-0.0007635590736754239,-0.2820587158203125,0.08460234850645065
1701714475801852400,4.248852294921875,-0.0007635590736754239,-0.2942756712436676,0.10170606523752213
1701714475811445000,4.258445068359375,-0.004428642801940441,-0.31260108947753906,0.12003148347139359
1701714475821038600,4.26803857421875,-0.01175880990922451,-0.3382566571235657,0.13347013294696808
1701714475830632700,4.2776328125,-0.022754060104489326,-0.3602471649646759,0.13957859575748444
1701714475840226300,4.287226318359375,-0.04107947647571564,-0.3712424337863922,0.14690876007080078
1701714475849819000,4.29681884765625,-0.07528692483901978,-0.36879903078079224,0.15301723778247833
1701714475859412500,4.30641259765625,-0.12048961967229843,-0.3480302393436432,0.16034740209579468
1701714475869006600,4.316006591796875,-0.1656923145055771,-0.3309265077114105,0.16767756640911102
1701714475878600200,4.32560009765625,-0.20356485247612,-0.32603973150253296,0.16767756640911102
1701714475888192800,4.33519287109375,-0.23532891273498535,-0.3211529552936554,0.1566823273897171
1701714475897786400,4.344786376953125,-0.26342788338661194,-0.31137940287590027,0.13713520765304565
1701714475907380500,4.35438037109375,-0.28786176443099976,-0.29916244745254517,0.1175880953669548
1701714475916974000,4.36397412109375,-0.3049654960632324,-0.28694549202919006,0.10292776674032211
1701714475926566700,4.373566650390625,-0.31351736187934875,-0.2673983871936798,0.09315420687198639
1701714475936160300,4.38316015625,-0.3110739588737488,-0.23319093883037567,0.08948912471532822
1701714475945754400,4.39275439453125,-0.30740886926651,-0.1769929975271225,0.08948912471532822
1701714475955347700,4.40234765625,-0.3110739588737488,-0.1122431829571724,0.08948912471532822
1701714475964940500,4.4119404296875,-0.31229567527770996,-0.04749337583780289,0.09559759497642517
1701714475974534000,4.421533935546875,-0.30130040645599365,0.006261184345930815,0.12736165523529053
1701714475984128300,4.431128173828125,-0.2695363461971283,0.05268557742238045,0.18722468614578247
1701714475993721600,4.4407216796875,-0.21822518110275269,0.09544488787651062,0.25686126947402954
1701714476003314200,4.450314208984375,-0.15836215019226074,0.1650814712047577,0.27029991149902344
1701714476012907800,4.45990771484375,-0.10094250738620758,0.24937839806079865,0.13957859575748444
1701714476022502100,4.469502197265625,-0.05329642444849014,0.19195875525474548,-0.07055285573005676
1701714476032095500,4.479095458984375,-0.10094250738620758,0.06123743951320648,-0.1291942000389099
1701714476041688300,4.488688232421875,-0.15836215019226074,0.1895153671503067,0.13591352105140686
1701714476051281700,4.49828173828125,-0.054518118500709534,0.515707790851593,0.5109737515449524
1701714476060876000,4.5078759765625,0.09452861547470093,0.7392778992652893,0.6844543814659119
1701714476070469400,4.517469482421875,0.1238492801785469,0.8309049606323242,0.5696150660514832
1701714476080062000,4.52706201171875,0.11896250396966934,0.8614473342895508,0.22509720921516418
1701714476089655600,4.536655517578125,0.14721418917179108,0.880994439125061,-0.14751961827278137
1701714476099250000,4.54625,0.17286977171897888,0.7624900937080383,-0.3674246370792389
1701714476108843300,4.55584326171875,0.183865025639534,0.48638713359832764,-0.40041038393974304
1701714476118435800,4.565435791015625,0.16798299551010132,0.072232685983181,-0.32100024819374084
1701714476128029400,4.575029541015625,0.12140589207410812,-0.31504446268081665,-0.20371755957603455
1701714476137623600,4.58462353515625,0.08719844371080399,-0.50196373462677,-0.08276980370283127
1701714476147217200,4.594217041015625,0.0981936976313591,-0.47142136096954346,0.03451287001371384
1701714476156809700,4.603809814453125,0.16187451779842377,-0.23441264033317566,0.14813046157360077
1701714476166403300,4.6134033203125,0.2730487287044525,0.19684553146362305,0.27152159810066223
1701714476175997400,4.62299755859375,0.42331716418266296,0.5804576277732849,0.43645036220550537
1701714476185591000,4.632591064453125,0.5222744345664978,0.6671979427337646,0.6184828281402588
1701714476195183600,4.64218359375,0.4868452548980713,0.6305471062660217,0.7345438003540039
1701714476204777200,4.651777099609375,0.35978904366493225,0.6036698222160339,0.7907418012619019
1701714476214371300,4.661371337890625,0.24128466844558716,0.626882016658783,0.7650861740112305
1701714476223965000,4.67096484375,0.18875180184841156,0.5938962697982788,0.559841513633728
1701714476233557500,4.6805576171875,0.15332266688346863,0.4289674758911133,0.16767756640911102
1701714476243151000,4.690151123046875,-0.022754060104489326,0.2786990702152252,-0.24036839604377747
1701714476252745200,4.6997451171875,-0.31229567527770996,0.36666107177734375,-0.4627167880535126
1701714476262338800,4.7093388671875,-0.5285356044769287,0.5462501645088196,-0.44072631001472473
1701714476271931400,4.718931396484375,-0.5847335457801819,0.668419599533081,-0.27946263551712036
1701714476281525000,4.72852490234375,-0.5028799772262573,0.6537593007087708,-0.09620844572782516
1701714476291119000,4.738119140625,-0.3501681983470917,0.5572454333305359,0.06261184066534042
1701714476300712700,4.747712646484375,-0.1632489264011383,0.43018919229507446,0.1847812980413437
1701714476310305300,4.75730517578125,0.04321744292974472,0.30068957805633545,0.2874036431312561
1701714476319898600,4.766898681640625,0.2241809368133545,0.15652960538864136,0.3900259733200073
1701714476329493000,4.776492919921875,0.3402419090270996,0.06001574173569679,0.49142661690711975
1701714476339086300,4.78608642578125,0.38666632771492004,0.029473381116986275,0.5476245880126953
1701714476348679000,4.795678955078125,0.3927747905254364,0.0038177953101694584,0.5146388411521912
1701714476358272500,4.8052724609375,0.363454133272171,-0.042606595903635025,0.3924693763256073
1701714476367867000,4.814866943359375,0.2987042963504791,-0.07803573459386826,0.2104368805885315
1701714476377460200,4.824460205078125,0.2351761907339096,-0.05115845799446106,0.0393996499478817
1701714476387052800,4.834052734375,0.183865025639534,0.025808297097682953,-0.060779303312301636
1701714476396646400,4.843646484375,0.12995775043964386,0.06368082761764526,-0.042453885078430176
1701714476406240800,4.85324072265625,0.06765133142471313,0.05512896552681923,0.06994201242923737
1701714476415834000,4.862834228515625,0.0016798300202935934,0.06978929787874222,0.1847812980413437
1701714476425426700,4.8724267578125,-0.06917845457792282,0.09910997003316879,0.2348707765340805
1701714476435020300,4.882020263671875,-0.1388150453567505,0.14431266486644745,0.20066332817077637
1701714476444614700,4.89161474609375,-0.19989976286888123,0.2017323076725006,0.08215895295143127
1701714476454208000,4.9012080078125,-0.24876753985881805,0.2591519355773926,-0.09009996801614761
1701714476463800600,4.910800537109375,-0.27197974920272827,0.3239017724990845,-0.2599155008792877
1701714476473394200,4.920394287109375,-0.2683146595954895,0.3739912211894989,-0.40041038393974304
1701714476482988300,4.92998828125,-0.24021568894386292,0.3605526089668274,-0.4993676245212555
1701714476492582000,4.939581787109375,-0.18646112084388733,0.34100547432899475,-0.5531222224235535
1701714476502174500,4.949174560546875,-0.12171131372451782,0.35200074315071106,-0.5653391480445862
1701714476511768000,4.95876806640625,-0.056961506605148315,0.36543938517570496,-0.5360184907913208
1701714476521362200,4.968362060546875,0.03955236077308655,0.3642176687717438,-0.4749337434768677
1701714476530955800,4.977955810546875,0.16431790590286255,0.31412819027900696,-0.38575005531311035
1701714476540548400,4.98754833984375,0.2999260127544403,0.2163926362991333,-0.27946263551712036
1701714476550142000,4.997141845703125,0.4318690001964569,0.0978882759809494,-0.1829487532377243
1701714476559736000,5.006736083984375,0.527161180973053,-0.0022906772792339325,-0.09987352788448334
1701714476569329700,5.01632958984375,0.5772506594657898,0.00015271181473508477,-0.03634541109204292
1701714476578922200,5.025922119140625,0.5943543910980225,0.04291202127933502,0.003970507066696882
1701714476588515600,5.035515625,0.573585569858551,0.07711946964263916,0.02473931387066841
1701714476598110000,5.04510986328125,0.5002838969230652,0.09666658192873001,0.011300674639642239
1701714476607703300,5.054703369140625,0.3671191930770874,0.047798797488212585,-0.04978405311703682
1701714476617296100,5.064296142578125,0.21196399629116058,-0.043828289955854416,-0.1438545286655426
1701714476626889500,5.073889404296875,0.09086353331804276,-0.18432316184043884,-0.2354816198348999
1701714476636483800,5.08348388671875,0.007788302376866341,-0.3443651497364044,-0.3002314269542694
1701714476646077400,5.093077392578125,-0.06673506647348404,-0.5056288242340088,-0.33077380061149597
1701714476655670000,5.102669921875,-0.1388150453567505,-0.6510104537010193,-0.33443886041641235
1701714476665263400,5.112263427734375,-0.19745637476444244,-0.7548545002937317,-0.3527642786502838
1701714476674857700,5.121857666015625,-0.2292204350233078,-0.7670714259147644,-0.4089622497558594
1701714476684451000,5.131451171875,-0.24510246515274048,-0.6339067220687866,-0.46638187766075134
1701714476694043600,5.141043701171875,-0.28786176443099976,-0.35169529914855957,-0.49448084831237793
1701714476703637200,5.15063720703125,-0.3171824514865875,-0.007177455350756645,-0.5042544007301331
1701714476713231600,5.160231689453125,-0.3184041380882263,0.28725093603134155,-0.5201364159584045
1701714476722825000,5.169824951171875,-0.2695363461971283,0.3764346241950989,-0.6007682681083679
1701714476732417500,5.17941748046875,-0.21211670339107513,0.22250111401081085,-0.7608102560043335
1701714476742011100,5.18901123046875,-0.12904147803783417,-0.060932014137506485,-0.9428427219390869
1701714476751605500,5.19860546875,-0.036192700266838074,-0.44698747992515564,-1.060125470161438
1701714476761198800,5.20819873046875,-0.020310672000050545,-1.0272923707962036,-1.0845593214035034
1701714476770791400,5.21779150390625,-0.1901262104511261,-1.0969289541244507,-1.027139663696289
1701714476780385000,5.227385009765625,-0.42957833409309387,-0.37002071738243103,-0.8243383765220642
1701714476789979100,5.236979248046875,-0.5285356044769287,0.5291464328765869,-0.5482354164123535
1701714476799572700,5.24657275390625,-0.5163186192512512,1.0508099794387817,-0.26602399349212646
1701714476809165300,5.256165283203125,-0.4503471553325653,1.0972343683242798,0.03451287001371384
1701714476818759000,5.265759033203125,-0.34405970573425293,0.862669050693512,0.37047886848449707
1701714476828353000,5.27535302734375,-0.26220619678497314,0.5267030596733093,0.7015580534934998
1701714476837946600,5.284946533203125,-0.2279987335205078,0.23593975603580475,0.9678874611854553
1701714476847539200,5.294539306640625,-0.16080553829669952,0.00259610079228878,1.1047172546386719
1701714476857132800,5.3041328125,-0.03374931216239929,-0.24907296895980835,1.0815050601959229
1701714476866727000,5.313726806640625,0.0981936976313591,-0.5679352283477783,0.930014967918396
1701714476876320500,5.323320556640625,0.16431790590286255,-0.8330429196357727,0.7357655167579651
1701714476885913000,5.3329130859375,0.18997350335121155,-0.8232693672180176,0.531742513179779
1701714476895506700,5.342506591796875,0.20707722008228302,-0.6094728708267212,0.3509317636489868
1701714476905100800,5.352100830078125,0.17775654792785645,-0.4225535988807678,0.2507528066635132
1701714476914694400,5.3616943359375,0.0847550556063652,-0.3578037917613983,0.21165858209133148
1701714476924287000,5.371286865234375,-0.017867282032966614,-0.30404922366142273,0.20677179098129272
1701714476933880300,5.38088037109375,-0.0850604772567749,-0.20509196817874908,0.21410197019577026
1701714476943474700,5.390474609375,-0.11804623156785965,-0.12323843687772751,0.21410197019577026
1701714476953068000,5.400068115234375,-0.13148486614227295,-0.06826218217611313,0.20432840287685394
1701714476962660900,5.409660888671875,-0.12781979143619537,-0.0719272643327713,0.2092151790857315
1701714476972254200,5.419254150390625,-0.17302247881889343,-0.11835165321826935,0.26785650849342346
1701714476981848600,5.4288486328125,-0.27686652541160583,-0.15378080308437347,0.3765873312950134
1701714476991442000,5.43844189453125,-0.3721587061882019,-0.20020519196987152,0.4853181540966034
1701714477001034500,5.448034423828125,-0.42224815487861633,-0.27595025300979614,0.5842754244804382
1701714477010628000,5.457628173828125,-0.3880407214164734,-0.31382277607917786,0.6502469182014465
1701714477020222500,5.467222412109375,-0.24632415175437927,-0.23685602843761444,0.6820109486579895
1701714477029815800,5.47681591796875,-0.054518118500709534,-0.10369132459163666,0.6856760382652283
1701714477039408400,5.486408447265625,0.14965757727622986,0.016034740954637527,0.6465818285942078
1701714477049002000,5.496001953125,0.32069480419158936,0.07589777559041977,0.5696150660514832
1701714477058596400,5.505596435546875,0.4062134325504303,0.16630317270755768,0.4706578254699707
1701714477068189700,5.515189697265625,0.4086568057537079,0.37887802720069885,0.34971004724502563
1701714477077782300,5.5247822265625,0.37567105889320374,0.6378772258758545,0.1713426560163498
1701714477087376000,5.5343759765625,0.33291175961494446,0.8235748410224915,0.013744063675403595
1701714477096970000,5.543969970703125,0.3280249834060669,0.8883246183395386,-0.04734066128730774
1701714477106563600,5.5535634765625,0.40254834294319153,0.9494093656539917,-0.05344913527369499
1701714477116156200,5.56315625,0.5259394645690918,1.0214893817901611,0.02351761981844902
1701714477125749800,5.572749755859375,0.6151232123374939,0.8590039610862732,0.1298050433397293
1701714477135343900,5.58234375,0.6762079000473022,0.6024481058120728,0.12369657307863235
1701714477144937500,5.5919375,0.7116370797157288,0.4143071472644806,-0.038788799196481705
1701714477154530000,5.601530029296875,0.7116370797157288,0.282364159822464,-0.3674246370792389
1701714477164123600,5.61112353515625,0.7299624681472778,0.18218518793582916,-0.8023478984832764
1701714477173717800,5.6207177734375,0.8044858574867249,-0.07925742864608765,-1.152974247932434
1701714477183311400,5.630311279296875,0.8716790676116943,-0.43232715129852295,-1.2189457416534424
1701714477192904000,5.639904052734375,0.6529957056045532,-0.5288410186767578,-1.1114366054534912
1701714477202497500,5.64949755859375,0.13499724864959717,-0.372464120388031,-0.9477295279502869
1701714477212091600,5.659091552734375,-0.37948885560035706,-0.1122431829571724,-0.7266027927398682
1701714477221685200,5.668685302734375,-0.654370129108429,0.14309096336364746,-0.47859883308410645
1701714477231277800,5.67827783203125,-0.7643226385116577,0.24449162185192108,-0.26602399349212646
1701714477240871200,5.68787109375,-0.8083036541938782,0.254265159368515,-0.11086877435445786
1701714477250465500,5.697465576171875,-0.798530101776123,0.31657159328460693,0.002748812548816204
1701714477260059000,5.707058837890625,-0.7569924592971802,0.3348970115184784,0.06994201242923737
1701714477269651700,5.716651611328125,-0.6739172339439392,0.2970244884490967,0.08582404255867004
1701714477279245000,5.7262451171875,-0.45889899134635925,0.1907370537519455,0.09071081876754761
1701714477288839400,5.73583935546875,-0.13514995574951172,0.0050394898280501366,0.14690876007080078
1701714477298432800,5.745432861328125,0.1948602795600891,-0.12079504877328873,0.24586601555347443
1701714477308025600,5.755025634765625,0.44042086601257324,-0.18798823654651642,0.3277195692062378
1701714477317619000,5.764618896484375,0.5601469278335571,-0.17210622131824493,0.38391751050949097
1701714477327213300,5.77421337890625,0.5601469278335571,-0.06337540596723557,0.4169032573699951
1701714477336806700,5.783806640625,0.5234960913658142,0.08933641016483307,0.41201648116111755
1701714477346399200,5.793399169921875,0.5198310017585754,0.18585027754306793,0.4059080183506012
1701714477355992800,5.802992919921875,0.5137225389480591,0.27625566720962524,0.4340069890022278
1701714477365587200,5.812587158203125,0.48806697130203247,0.362995982170105,0.4865398406982422
1701714477375180500,5.8221806640625,0.4330907166004181,0.47417017817497253,0.5158604979515076
1701714477384773000,5.831773193359375,0.3439069986343384,0.6012263894081116,0.45355409383773804
1701714477394366700,5.84136669921875,0.25350162386894226,0.6513158679008484,0.28129515051841736
1701714477403961000,5.850961181640625,0.182643324136734,0.5865660905838013,0.04306473210453987
1701714477413554400,5.860554443359375,0.1238492801785469,0.43385425209999084,-0.1829487532377243
1701714477423147000,5.87014697265625,0.06765133142471313,0.27381229400634766,-0.31855684518814087
1701714477432740600,5.87974072265625,-0.0032069480512291193,0.18096350133419037,-0.34421244263648987
1701714477442334700,5.889334716796875,-0.0850604772567749,0.1895153671503067,-0.29656633734703064
1701714477451928300,5.89892822265625,-0.1644706279039383,0.27747735381126404,-0.22937314212322235
1701714477461521000,5.90852099609375,-0.23410721123218536,0.4253024160861969,-0.1707318127155304
1701714477471114500,5.918114501953125,-0.30130040645599365,0.5938962697982788,-0.11575555801391602
1701714477480708600,5.92770849609375,-0.3342861533164978,0.7319477200508118,-0.11331216990947723
1701714477490302200,5.93730224609375,-0.31351736187934875,0.7466080784797668,-0.1695101112127304
1701714477499894800,5.946894775390625,-0.2683146595954895,0.5596888065338135,-0.24281178414821625
1701714477509488000,5.956488037109375,-0.19989976286888123,0.2151709496974945,-0.33566057682037354
1701714477519082500,5.96608251953125,-0.10094250738620758,-0.17943638563156128,-0.4297310411930084
1701714477528675800,5.97567578125,0.02244863659143448,-0.5716003179550171,-0.46516019105911255
1701714477538268700,5.9852685546875,0.09941539168357849,-0.872137188911438,-0.4431696832180023
1701714477547862000,5.994862060546875,0.09452861547470093,-0.9918632507324219,-0.38819342851638794
1701714477557456400,6.004456298828125,0.0016798300202935934,-0.8733588457107544,-0.30756160616874695
1701714477567049700,6.0140498046875,-0.17424418032169342,-0.4653128981590271,-0.2208212912082672
1701714477576642600,6.023642578125,-0.4234698712825775,0.19195875525474548,-0.20616094768047333
1701714477586236000,6.03323583984375,-0.6409314870834351,0.6610894203186035,-0.26846736669540405
1701714477595830300,6.042830322265625,-0.783869743347168,0.6781931519508362,-0.35887277126312256
1701714477605423600,6.052423583984375,-0.7508839964866638,0.3495573401451111,-0.46760356426239014
1701714477615016400,6.062016357421875,-0.5761816501617432,-0.2038702666759491,-0.5018110275268555
1701714477624609800,6.07160986328125,-0.48333290219306946,-0.6558972597122192,-0.48104220628738403
1701714477634204200,6.0812041015625,-0.5505260825157166,-0.9478822350502014,-0.5677825212478638
1701714477643797500,6.090797607421875,-0.7154548764228821,-1.0883771181106567,-0.6716265678405762
1701714477653390000,6.10039013671875,-0.8706100583076477,-1.1348015069961548,-0.661853015422821
1701714477662983700,6.109983642578125,-0.9549070000648499,-1.2362021207809448,-0.4590517282485962
1701714477672578000,6.119578125,-0.9561286568641663,-1.1103676557540894,-0.08276980370283127
1701714477682171400,6.12917138671875,-0.8706100583076477,-0.533727765083313,0.3692571818828583
1701714477691764000,6.138763916015625,-0.6836907863616943,0.20784078538417816,0.8249492049217224
1701714477701357600,6.148357666015625,-0.46012070775032043,0.626882016658783,1.132816195487976
1701714477710951700,6.15795166015625,-0.23899398744106293,0.6610894203186035,1.1816840171813965
1701714477720545300,6.167545166015625,-0.037414394319057465,0.6158867478370667,1.0301939249038696
1701714477730137900,6.177137939453125,0.0847550556063652,0.40453359484672546,0.8616000413894653
1701714477739731500,6.1867314453125,0.13988402485847473,0.1516428291797638,0.7247702479362488
1701714477749325600,6.19632568359375,0.1985253542661667,-0.059710320085287094,0.6123743653297424
1701714477758919200,6.205919189453125,0.2767138183116913,-0.16966283321380615,0.5073086619377136
1701714477768511700,6.21551171875,0.33535513281822205,-0.27595025300979614,0.41445985436439514
1701714477778105300,6.225105224609375,0.3658975064754486,-0.3883461356163025,0.34482327103614807
1701714477787699500,6.234699462890625,0.37689274549484253,-0.3993414044380188,0.3106158375740051
1701714477797293000,6.24429296875,0.38666632771492004,-0.3309265077114105,0.324054479598999
1701714477806885600,6.2538857421875,0.4428642690181732,-0.23807771503925323,0.3533751368522644
1701714477816479000,6.26347900390625,0.5381564497947693,-0.12812520563602448,0.37170055508613586
1701714477826073300,6.2730732421875,0.5723638534545898,-0.010842538438737392,0.41079479455947876
1701714477835666700,6.282666748046875,0.5430431962013245,0.001374406274408102,0.46332764625549316
1701714477845259500,6.292259521484375,0.4367557764053345,-0.10491301864385605,0.5097520351409912
1701714477854852900,6.301852783203125,0.23028941452503204,-0.2845021188259125,0.5793886184692383
1701714477864447200,6.311447265625,0.04688252881169319,-0.4506525695323944,0.638029932975769
1701714477874040600,6.32104052734375,-0.039857782423496246,-0.553274929523468,0.6563553810119629
1701714477883633200,6.330633056640625,-0.02641914412379265,-0.585038959980011,0.6355865597724915
1701714477893226800,6.340226806640625,0.03955236077308655,-0.5483881235122681,0.5903838872909546
1701714477902821000,6.349821044921875,0.10674555599689484,-0.44576579332351685,0.5561764240264893
1701714477912414500,6.35941455078125,0.1435490995645523,-0.2710634768009186,0.5341859459877014
1701714477922007000,6.369007080078125,0.11896250396966934,-0.05360184609889984,0.4706578254699707
1701714477931600600,6.3786005859375,0.07009471952915192,0.1882936656475067,0.22754059731960297
1701714477941194800,6.38819482421875,0.10674555599689484,0.3874298632144928,-0.21715620160102844
1701714477950788400,6.397788330078125,0.25472331047058105,0.5108210444450378,-0.6447492837905884
1701714477960381000,6.407380859375,0.45019441843032837,0.7062921524047852,-0.7913526296615601
1701714477969974500,6.416974609375,0.6041279435157776,0.8907679915428162,-0.5201364159584045
1701714477979568600,6.426568603515625,0.6603258848190308,0.5829010009765625,-0.0778830274939537
1701714477989162200,6.436162353515625,0.7140804529190063,0.31412819027900696,0.16401249170303345
1701714477998754800,6.4457548828125,0.731184184551239,0.27503398060798645,0.1579040139913559
1701714478008348400,6.455348388671875,0.6322268843650818,0.2982461750507355,-0.09498675167560577
1701714478017942500,6.464942626953125,0.4831801950931549,0.21028417348861694,-0.41262730956077576
1701714478027536100,6.4745361328125,0.2987042963504791,-0.10491301864385605,-0.6349757313728333
1701714478037128700,6.484128662109375,0.0713164210319519,-0.5386145710945129,-0.6740699410438538
1701714478046722300,6.493722412109375,-0.17302247881889343,-0.5813738703727722,-0.5299099683761597
1701714478056316400,6.50331640625,-0.3965925872325897,-0.14767232537269592,-0.39918869733810425
1701714478065910000,6.512909912109375,-0.5224271416664124,0.12110047042369843,-0.34665581583976746
1701714478075502600,6.522502685546875,-0.4662291705608368,0.08078455179929733,-0.2757975459098816
1701714478085096200,6.53209619140625,-0.30374380946159363,-0.13179029524326324,-0.17928366363048553
1701714478094690300,6.541690185546875,-0.13392825424671173,-0.33947837352752686,-0.091321662068367
1701714478104283600,6.55128369140625,-0.017867282032966614,-0.3749074935913086,-0.060779303312301636
1701714478113876500,6.56087646484375,0.04810422286391258,-0.30038413405418396,-0.07421794533729553
1701714478123469800,6.5704697265625,0.08719844371080399,-0.2038702666759491,-0.08521319180727005
1701714478133064200,6.580064208984375,0.10185877978801727,-0.11835165321826935,-0.07177454978227615
1701714478142657500,6.589657470703125,0.10308047384023666,-0.05726693198084831,-0.013133215717971325
1701714478152250000,6.59925,0.12873606383800507,-0.07314895838499069,0.11025793105363846
1701714478161843700,6.60884375,0.18142163753509521,-0.1501157134771347,0.30084228515625
1701714478171438000,6.61843798828125,0.23273280262947083,-0.18676654994487762,0.5207473039627075
1701714478181031400,6.628031494140625,0.23028941452503204,-0.11346487700939178,0.7003363966941833
1701714478190624000,6.6376240234375,0.182643324136734,0.08322793990373611,0.8029587268829346
1701714478200217600,6.647217529296875,0.11285403370857239,0.3605526089668274,0.8139539957046509
1701714478209812000,6.65681201171875,0.028557108715176582,0.6671979427337646,0.7149966955184937
1701714478219405300,6.6664052734375,-0.0850604772567749,0.9445225596427917,0.4938700199127197
1701714478228998000,6.675997802734375,-0.21333840489387512,1.1607625484466553,0.17256435751914978
1701714478238591500,6.685591552734375,-0.3171824514865875,1.2951488494873047,-0.19394400715827942
1701714478248185600,6.695185546875,-0.38193225860595703,1.2939271926879883,-0.5433486104011536
1701714478257779200,6.704779296875,-0.40514445304870605,1.1827529668807983,-0.799904465675354
1701714478267371800,6.714371826171875,-0.38193225860595703,1.0080506801605225,-0.9184088706970215
1701714478276965400,6.72396533203125,-0.31229567527770996,0.8101361989974976,-0.911078691482544
1701714478286559500,6.7335595703125,-0.23655059933662415,0.6696413159370422,-0.8084563612937927
1701714478296153000,6.743153076171875,-0.18523943424224854,0.598783016204834,-0.6655181050300598
1701714478305745700,6.75274560546875,-0.16813570261001587,0.5535803437232971,-0.5079194903373718
1701714478315339300,6.76233935546875,-0.19256959855556488,0.520594596862793,-0.3698680102825165
1701714478324933400,6.771933349609375,-0.21333840489387512,0.49860408902168274,-0.29290124773979187
1701714478334527000,6.78152685546875,-0.21333840489387512,0.46073153614997864,-0.27091076970100403
1701714478344119600,6.79111962890625,-0.21089501678943634,0.3361186981201172,-0.2916795611381531
1701714478353713000,6.800712890625,-0.19256959855556488,0.14797775447368622,-0.36009445786476135
1701714478363307300,6.810307373046875,-0.17302247881889343,-0.042606595903635025,-0.45294323563575745
1701714478372900600,6.819900634765625,-0.14614520967006683,-0.28938889503479004,-0.4957025647163391
1701714478382493400,6.829493408203125,-0.09116895496845245,-0.4494308829307556,-0.47615543007850647
1701714478392086800,6.839086669921875,0.04932591691613197,-0.43232715129852295,-0.4040754735469818
1701714478401681200,6.84868115234375,0.16065283119678497,-0.39201122522354126,-0.25380703806877136
1701714478411274500,6.8582744140625,0.12140589207410812,-0.22097399830818176,-0.0925433561205864
1701714478420867300,6.867867431640625,-0.03374931216239929,0.029473381116986275,-0.058335911482572556
1701714478430460700,6.877460693359375,-0.20845162868499756,0.12232216447591782,-0.20493926107883453
1701714478440055000,6.887054931640625,-0.3342861533164978,0.05024218559265137,-0.49203747510910034
1701714478449648400,6.8966484375,-0.44668206572532654,-0.15378080308437347,-0.7021689414978027
1701714478459241000,6.906240966796875,-0.5602996349334717,-0.4653128981590271,-0.7473716139793396
1701714478468834600,6.91583447265625,-0.6763606071472168,-0.7817317843437195,-0.7119424939155579
1701714478478429000,6.925428955078125,-0.8217422962188721,-0.950325608253479,-0.6594096422195435
1701714478488022300,6.935022216796875,-0.9756757616996765,-0.9491039514541626,-0.564117431640625
1701714478497614800,6.94461474609375,-1.0636377334594727,-0.9087880253791809,-0.3637595474720001
1701714478507208400,6.95420849609375,-1.0795198678970337,-0.8049439787864685,-0.008246437646448612
1701714478516802600,6.963802490234375,-1.0233218669891357,-0.4017847776412964,0.45477578043937683
1701714478526396200,6.973396240234375,-0.835180938243866,0.18340688943862915,0.8689302206039429
1701714478535988700,6.98298876953125,-0.5798467397689819,0.5657972693443298,1.0790616273880005
1701714478545582300,6.992582275390625,-0.3611634373664856,0.69651859998703,1.0973870754241943
1701714478555176400,7.002176513671875,-0.18035265803337097,0.5767925381660461,1.0240854024887085
1701714478564770000,7.01177001953125,-0.05207473039627075,0.36666107177734375,0.9129112362861633
1701714478574362600,7.021362548828125,0.04932591691613197,0.0856713280081749,0.7882983684539795
1701714478583956200,7.030956298828125,0.1569877415895462,-0.2588465213775635,0.634364902973175
1701714478593550300,7.04055029296875,0.3035911023616791,-0.5202891230583191,0.42789849638938904
1701714478603144000,7.05014404296875,0.46363306045532227,-0.6607840061187744,0.20555010437965393
1701714478612736500,7.059736572265625,0.5723638534545898,-0.6510104537010193,0.018630841746926308
1701714478622329900,7.069329833984375,0.6383354067802429,-0.6326850652694702,-0.08887827396392822
1701714478631924200,7.07892431640625,0.70308518409729,-0.6449019908905029,-0.1328592747449875
1701714478641517600,7.088517578125,0.7934905886650085,-0.668114185333252,-0.14141114056110382
1701714478651110400,7.0981103515625,0.8936695456504822,-0.7047650218009949,-0.11209046840667725
1701714478660703700,7.107703857421875,0.9254335761070251,-0.7401941418647766,-0.01435491070151329
1701714478670298000,7.117298095703125,0.6823163628578186,-0.797613799571991,0.22876229882240295
1701714478679891500,7.126891357421875,0.3158080279827118,-0.9417737722396851,0.5060869455337524
1701714478689484300,7.136484375,0.0590994730591774,-0.9808679819107056,0.6844543814659119
1701714478699077600,7.14607763671875,-0.09483403712511063,-0.9210049510002136,0.7895200848579407
1701714478708672000,7.155672119140625,-0.1253764033317566,-0.8452599048614502,0.855491578578949
1701714478718265300,7.165265380859375,-0.072843536734581,-0.7096518278121948,0.9287932515144348
1701714478727858000,7.17485791015625,-0.004428642801940441,-0.4408790171146393,1.0338590145111084
1701714478737451500,7.184451416015625,0.020005248486995697,-0.12323843687772751,1.1034955978393555
1701714478747045600,7.194045654296875,-0.0032069480512291193,0.07834116369485855,1.0020949840545654
1701714478756639200,7.20363916015625,0.018783552572131157,0.11621369421482086,0.7382088899612427
1701714478766231800,7.213231689453125,0.1569877415895462,0.10766182839870453,0.4327852725982666
1701714478775825400,7.222825439453125,0.3658975064754486,0.030695075169205666,0.09315420687198639
1701714478785419500,7.23241943359375,0.6322268843650818,0.1369825005531311,-0.18905723094940186
1701714478795013000,7.24201318359375,0.8997780084609985,0.362995982170105,-0.23181653022766113
1701714478804605700,7.251605712890625,1.1074661016464233,0.4521796703338623,-0.14874130487442017
1701714478814199300,7.26119921875,1.2516260147094727,0.48272204399108887,-0.09865183383226395
1701714478823793400,7.27079345703125,1.1880979537963867,0.5951179265975952,-0.1450762301683426
1701714478833387000,7.280386962890625,0.8496885299682617,0.7136223316192627,-0.33566057682037354
1701714478842979600,7.2899794921875,0.47829338908195496,0.6952968835830688,-0.5653391480445862
1701714478852573200,7.2995732421875,0.28282228112220764,0.5914528369903564,-0.6997255086898804
1701714478862167300,7.309167236328125,0.20585553348064423,0.1895153671503067,-0.6337540149688721
1701714478871761000,7.318760986328125,0.04932591691613197,-0.4396573007106781,-0.5189147591590881
1701714478881353500,7.328353515625,-0.28786176443099976,-0.6387935280799866,-0.6007682681083679
1701714478890947000,7.337947021484375,-0.6055023670196533,-0.5080721974372864,-0.7986828088760376
1701714478900541200,7.347541259765625,-0.7850914597511292,-0.2698417901992798,-0.8524373769760132
1701714478910134800,7.357134765625,-0.7350019812583923,-0.013285927474498749,-0.6093201637268066
1701714478919727400,7.366727294921875,-0.6164975762367249,0.11621369421482086,-0.17806197702884674
1701714478929320700,7.37632080078125,-0.5407525300979614,0.19318044185638428,0.3252761662006378
1701714478938915000,7.3859150390625,-0.4955498278141022,0.2518217861652374,0.7638645172119141
1701714478948508400,7.39550830078125,-0.4283566474914551,0.21028417348861694,1.0582928657531738
1701714478958101000,7.40510107421875,-0.26098448038101196,0.05512896552681923,1.1621369123458862
1701714478967694600,7.414694580078125,0.04688252881169319,-0.14278554916381836,1.086391806602478
1701714478977289000,7.4242890625,0.38422292470932007,-0.31626617908477783,0.9080244302749634
1701714478986882300,7.43388232421875,0.5833591222763062,-0.35413870215415955,0.6930062174797058
1701714478996475000,7.443474853515625,0.6236750483512878,-0.23441264033317566,0.47920966148376465
1701714479006068500,7.453068359375,0.5699204802513123,-0.042606595903635025,0.3045073449611664
1701714479015662800,7.462662841796875,0.45263782143592834,0.16752485930919647,0.1969982385635376
1701714479025256200,7.472256103515625,0.2852656841278076,0.4937172830104828,0.11636640131473541
1701714479034848800,7.481848876953125,0.10185877978801727,0.9506310224533081,0.028404397889971733
1701714479044442400,7.4914423828125,-0.10216420143842697,1.3379082679748535,-0.08399149775505066
1701714479054036500,7.501036376953125,-0.24510246515274048,1.5590349435806274,-0.22937314212322235
1701714479063630000,7.510630126953125,-0.3220692276954651,1.6237847805023193,-0.4040754735469818
1701714479073222700,7.52022265625,-0.36971530318260193,1.5126105546951294,-0.5653391480445862
1701714479082816300,7.529816162109375,-0.3965925872325897,1.3269129991531372,-0.6862868666648865
1701714479092410400,7.539410400390625,-0.4002576768398285,1.1424371004104614,-0.7559235095977783
1701714479102004000,7.54900390625,-0.37704548239707947,0.9506310224533081,-0.776692271232605
1701714479111596500,7.558596435546875,-0.35138988494873047,0.7930324673652649,-0.7547017931938171
1701714479121190100,7.568190185546875,-0.34039464592933655,0.7478297352790833,-0.7339329719543457
1701714479130784300,7.5777841796875,-0.3171824514865875,0.9261971712112427,-0.7913526296615601
1701714479140377900,7.5873779296875,-0.3061871826648712,1.141215443611145,-0.9220739603042603
1701714479149970400,7.596970458984375,-0.28908345103263855,1.268271565437317,-1.0882244110107422
1701714479159564000,7.60656396484375,-0.2573194205760956,1.3110309839248657,-1.2433795928955078
1701714479169158100,7.616158203125,-0.1779092699289322,1.1595407724380493,-1.365549087524414
1701714479178751700,7.625751708984375,-0.058183200657367706,0.8822161555290222,-1.4266337156295776
1701714479188344300,7.63534423828125,0.06398624926805496,0.6378772258758545,-1.3936480283737183
1701714479197937700,7.644937744140625,0.11285403370857239,0.4289674758911133,-1.1651911735534668
1701714479207532000,7.654531982421875,0.05543438717722893,0.4387410581111908,-0.7620319724082947
1701714479217125400,7.66412548828125,-0.001985253533348441,0.47294849157333374,-0.351542592048645
1701714479226718200,7.67371826171875,0.05421269312500954,0.3080197274684906,-0.16095824539661407
1701714479236311600,7.6833115234375,0.06765133142471313,0.08933641016483307,-0.3637595474720001
1701714479245906000,7.692906005859375,-0.12293300777673721,0.3642176687717438,-0.6740699410438538
1701714479255499300,7.702499267578125,-0.37704548239707947,0.6989619731903076,-0.7021689414978027
1701714479265091800,7.712091796875,-0.5981721878051758,0.6610894203186035,-0.5042544007301331
1701714479274685400,7.721685546875,-0.783869743347168,0.5719057321548462,-0.2880144715309143
1701714479284279800,7.73127978515625,-0.9231429100036621,0.2945810854434967,-0.07055285573005676
1701714479293873200,7.740873046875,-0.9744541049003601,0.01725643500685692,0.09437590092420578
1701714479303465700,7.7504658203125,-0.936581552028656,-0.27839362621307373,0.16156910359859467
1701714479313059300,7.760059326171875,-0.8522846102714539,-0.39078953862190247,0.1957765519618988
1701714479322653700,7.76965380859375,-0.7398887276649475,-0.2588465213775635,0.2360924631357193
1701714479332247000,7.7792470703125,-0.6824691295623779,-0.12323843687772751,0.3692571818828583
1701714479341839600,7.788839599609375,-0.7252284288406372,0.13087402284145355,0.6062659025192261
1701714479351433200,7.79843310546875,-0.755770742893219,0.538919985294342,0.8383878469467163
1701714479361027300,7.80802734375,-0.6409314870834351,0.8956547975540161,1.0216420888900757
1701714479370621000,7.817620849609375,-0.3245126008987427,1.1534323692321777,1.119377613067627
1701714479380213500,7.827213623046875,0.08231166750192642,1.2878187894821167,1.127929449081421
1701714479389807000,7.83680712890625,0.3817795515060425,1.3427950143814087,1.0130901336669922
1701714479399401200,7.846401123046875,0.6004628539085388,1.3195828199386597,0.8151756525039673
1701714479408994800,7.855994873046875,0.8533536195755005,1.362342119216919,0.5867187976837158
1701714479418587400,7.86558740234375,1.1648857593536377,1.4295352697372437,0.2910687327384949
1701714479428181000,7.875180908203125,1.5191770792007446,1.4759596586227417,-0.042453885078430176
1701714479437775000,7.884775146484375,1.7818413972854614,1.4576343297958374,-0.2611372172832489
1701714479447368700,7.89436865234375,1.7879499197006226,1.3122526407241821,-0.26724568009376526
1701714479456961300,7.903961181640625,1.3811256885528564,0.9420791864395142,-0.08521319180727005
1701714479466555000,7.913554931640625,0.49295374751091003,0.37887802720069885,0.20188501477241516
1701714479476149000,7.92314892578125,-0.11926792562007904,0.12232216447591782,0.45355409383773804
1701714479485742600,7.93274267578125,-0.32695600390434265,0.4619532525539398,0.5586197972297668
1701714479495335200,7.942335205078125,-0.2658712565898895,0.733169436454773,0.4975350797176361
1701714479504928500,7.951928466796875,0.017561858519911766,0.7307260632514954,0.40712970495224
1701714479514523000,7.96152294921875,0.3903313875198364,0.6244385838508606,0.39857783913612366
1701714479524116200,7.9711162109375,0.6762079000473022,0.6048914790153503,0.4486673176288605
1701714479533709000,7.980708984375,0.8008207678794861,0.7136223316192627,0.49264830350875854
1701714479543302400,7.990302490234375,0.9229902029037476,0.8590039610862732,0.4340069890022278
1701714479552896800,7.999896728515625,1.1490037441253662,1.1888614892959595,0.21776704490184784
1701714479562490000,8.009489990234375,1.3628002405166626,1.7496192455291748,-0.06200099736452103
1701714479572082700,8.019082763671875,1.4800828695297241,2.0868070125579834,-0.23303823173046112
1701714479581676300,8.02867626953125,1.3371446132659912,1.9524205923080444,-0.2904578745365143
1701714479591270700,8.038270751953124,0.8753440976142883,1.714190125465393,-0.4065188467502594
1701714479600864000,8.047864013671875,0.3414636254310608,1.5700302124023438,-0.6032116413116455
1701714479610456600,8.05745654296875,0.07742489129304886,1.4185400009155273,-0.7876875400543213
1701714479620050200,8.06705029296875,0.012675080448389053,1.000720500946045,-0.8377770185470581
1701714479629644300,8.076644287109374,0.009009997360408306,0.6415423154830933,-0.7021689414978027
1701714479639238000,8.08623779296875,0.02367033064365387,0.49616068601608276,-0.4614951014518738
1701714479648830500,8.09583056640625,0.051769305020570755,0.515707790851593,-0.19883078336715698
1701714479658424000,8.105424072265626,0.08353336155414581,0.7124006152153015,0.08215895295143127
1701714479668018200,8.11501806640625,0.1238492801785469,1.0202676057815552,0.36192700266838074
1701714479677611800,8.12461181640625,0.16431790590286255,1.3489034175872803,0.5561764240264893
1701714479687204400,8.134204345703125,0.20219044387340546,1.6042375564575195,0.6282563805580139
1701714479696798000,8.1437978515625,0.2473931461572647,1.684869408607483,0.6074876189231873
1701714479706392000,8.15339208984375,0.288930743932724,1.6384450197219849,0.5586197972297668
1701714479715985700,8.162985595703125,0.3011476993560791,1.5113887786865234,0.5280774831771851
1701714479725578200,8.172578125,0.25472331047058105,1.377002477645874,0.5305208563804626
1701714479735171800,8.182171875,0.13362284004688263,1.284153699874878,0.5757235288619995
1701714479744766000,8.191765869140625,0.004123218823224306,1.2817102670669556,0.6258130073547363
1701714479754359600,8.201359619140625,-0.06184828653931618,1.3354648351669312,0.6453601121902466
1701714479763952000,8.2109521484375,-0.06062658876180649,1.385554313659668,0.6331431865692139
1701714479773545500,8.22054541015625,-0.04718795046210289,1.4270919561386108,0.6123743653297424
1701714479783139800,8.230139892578125,-0.03130592033267021,1.5724735260009766,0.5720584392547607
1701714479792733200,8.239733154296875,-0.01175880990922451,1.7435108423233032,0.5280774831771851
1701714479802326000,8.249325927734375,-0.014202198944985867,1.8693453073501587,0.5146388411521912
1701714479811919400,8.25891943359375,-0.022754060104489326,2.0587079524993896,0.4682144224643707
1701714479821513700,8.268513671875,-0.02886253222823143,2.250514030456543,0.36192700266838074
1701714479831107000,8.278107177734375,-0.021532366052269936,2.403225898742676,0.2214321345090866
1701714479840699600,8.28769970703125,0.016340164467692375,2.4655323028564453,0.0528382882475853
1701714479850293200,8.297293212890626,0.07498150318861008,2.4777491092681885,-0.12430741637945175
1701714479859887600,8.3068876953125,0.1423274129629135,2.371461868286133,-0.25747212767601013
1701714479869481000,8.31648095703125,0.20707722008228302,2.163773775100708,-0.3161134421825409
1701714479879073500,8.326073486328125,0.22540263831615448,1.870566964149475,-0.30756160616874695
1701714479888667100,8.335667236328124,0.19241689145565033,1.6164546012878418,-0.24281178414821625
1701714479898261500,8.345261474609375,0.13866232335567474,1.4564125537872314,-0.1291942000389099
1701714479907854800,8.354854736328125,0.08353336155414581,1.3317997455596924,0.00519220158457756
1701714479917447400,8.364447509765625,0.0261137206107378,1.2291773557662964,0.1175880953669548
1701714479927041000,8.374041015625,-0.0459662564098835,1.187639832496643,0.19455485045909882
1701714479936635100,8.38363525390625,-0.19623468816280365,1.0996778011322021,0.25563958287239075
1701714479946228700,8.393228759765625,-0.37704548239707947,0.8736643195152283,0.21532365679740906
1701714479955821300,8.4028212890625,-0.5285356044769287,0.69651859998703,0.06872031837701797
1701714479965415000,8.412414794921874,-0.6421532034873962,0.5095993280410767,-0.0925433561205864
1701714479975009000,8.422009033203125,-0.7618792653083801,0.3067980408668518,-0.23914669454097748
1701714479984602600,8.4316025390625,-0.9109259843826294,0.26159533858299255,-0.4065188467502594
1701714479994195200,8.4411953125,-1.0501991510391235,0.40331190824508667,-0.5164713859558105
1701714480003788800,8.450788818359374,-1.1161706447601318,0.69651859998703,-0.4871506989002228
1701714480013383000,8.4603828125,-1.130831003189087,1.048366665840149,-0.4199574887752533
1701714480022976300,8.469976318359375,-1.0795198678970337,1.4246485233306885,-0.540905237197876
1701714480032569000,8.479569091796876,-1.0221002101898193,1.7190768718719482,-0.882979691028595
1701714480042162400,8.489162353515624,-1.0392038822174072,1.9059962034225464,-1.2555965185165405
1701714480051756800,8.4987568359375,-1.0489774942398071,2.0416042804718018,-1.5121524333953857
1701714480061350100,8.50835009765625,-0.9353598356246948,1.8082605600357056,-1.5475815534591675
1701714480070943000,8.51794287109375,-0.7960866689682007,1.3953278064727783,-1.411973476409912
1701714480080536300,8.527536376953124,-0.6397097706794739,0.9054283499717712,-1.2116155624389648
1701714480090130700,8.537130615234375,-0.4136963188648224,0.5108210444450378,-0.9037485122680664
1701714480099724000,8.54672412109375,-0.2793098986148834,0.9298622608184814,-0.5360184907913208
1701714480109316600,8.556316650390626,-0.3465031087398529,1.9108829498291016,-0.17561858892440796
1701714480118910200,8.56591015625,-0.5346440672874451,2.632904291152954,0.09926267713308334
1701714480128504600,8.575504638671875,-0.5676298141479492,2.7465219497680664,0.25441789627075195
1701714480138098000,8.585097900390625,-0.3220692276954651,2.49363112449646,0.34848836064338684
1701714480147690500,8.5946904296875,0.03955236077308655,1.935316801071167,0.3680354654788971
1701714480157284000,8.6042841796875,0.3402419090270996,1.3098092079162598,0.2079934924840927
1701714480166878200,8.613878173828125,0.5479300022125244,0.8883246183395386,-0.2098260372877121
1701714480176471800,8.623471923828125,0.6517740488052368,0.811357855796814,-0.7339329719543457
1701714480186064400,8.633064453125,0.6505523324012756,0.9213103652000427,-1.1419789791107178
1701714480195658000,8.642657958984374,0.5931326746940613,0.9860602021217346,-1.3460019826889038
1701714480205252000,8.652252197265625,0.5222744345664978,1.0691354274749756,-1.414416790008545
1701714480214845700,8.661845703125,0.444085955619812,1.1607625484466553,-1.3582189083099365
1701714480224438300,8.671438232421876,0.30847787857055664,1.1570974588394165,-1.1688562631607056
1701714480234031900,8.681031982421874,0.1582094430923462,1.172979474067688,-0.9074136018753052
1701714480243626000,8.6906259765625,0.04199574887752533,1.2316207885742188,-0.6728482842445374
1701714480253219300,8.70021923828125,-0.07040014863014221,1.2230689525604248,-0.457830011844635
1701714480262812200,8.709812255859376,-0.17180079221725464,1.1937482357025146,-0.26846736669540405
1701714480272405500,8.719405517578124,-0.23655059933662415,1.1509889364242554,-0.10842538625001907
1701714480282000000,8.728999755859375,-0.23410721123218536,1.094791054725647,0.0015271181473508477
1701714480291593200,8.73859326171875,-0.1632489264011383,0.9335273504257202,0.04550812020897865
1701714480301186000,8.74818603515625,-0.03497100621461868,0.6781931519508362,0.006413896102458239
1701714480310779400,8.757779296875,0.13621893525123596,0.35322242975234985,-0.07666133344173431
1701714480320373800,8.767373779296875,0.2999260127544403,-0.014507622458040714,-0.13408097624778748
1701714480329967000,8.776967041015626,0.4355340898036957,-0.32726141810417175,-0.1426328420639038
1701714480339560000,8.786559814453126,0.5198310017585754,-0.5325061082839966,-0.11209046840667725
1701714480349153300,8.7961533203125,0.5430431962013245,-0.6949914693832397,-0.04978405311703682
1701714480358747600,8.80574755859375,0.5564818382263184,-0.8073873519897461,0.046729814261198044
1701714480368341000,8.815341064453126,0.5686988234519958,-0.8452599048614502,0.1823379099369049
1701714480377933600,8.82493359375,0.5650337338447571,-0.8538117408752441,0.3289412558078766
1701714480387527200,8.834527099609375,0.5625903010368347,-0.797613799571991,0.4462239146232605
1701714480397121300,8.844121337890625,0.5650337338447571,-0.6901046633720398,0.5146388411521912
1701714480406715000,8.85371484375,0.555260181427002,-0.50685054063797,0.5231906771659851
1701714480416307500,8.863307373046876,0.46485477685928345,-0.30404922366142273,0.487761527299881
1701714480425901000,8.872901123046875,0.3903313875198364,-0.1623326539993286,0.4181249439716339
1701714480435495200,8.8824951171875,0.3695625960826874,0.09177979826927185,0.3411581814289093
1701714480445088800,8.8920888671875,0.3781144618988037,0.3752129375934601,0.2886253297328949
1701714480454681300,8.901681396484374,0.420873761177063,0.7111788988113403,0.2360924631357193
1701714480464275000,8.91127490234375,0.42576053738594055,0.8382351398468018,0.17745113372802734
1701714480473869000,8.920869140625,0.3573456406593323,0.80280601978302,0.1041494607925415
1701714480483462400,8.93046240234375,0.3255815804004669,0.9127585291862488,-0.10231691598892212
1701714480493055200,8.94005517578125,0.395218163728714,0.968956470489502,-0.5213581323623657
1701714480502648600,8.949648681640625,0.4868452548980713,0.6794148683547974,-0.9355126023292542
1701714480512243000,8.959242919921875,0.4428642690181732,0.8651124238967896,-0.7840224504470825
1701714480521836300,8.968836181640626,0.4819584786891937,1.6457751989364624,-0.15240639448165894
1701714480531429000,8.97842919921875,0.8289197087287903,2.24807071685791,0.275186687707901
1701714480541022500,8.9880224609375,1.1551121473312378,2.4313247203826904,0.24464432895183563
1701714480550616800,8.997616943359375,1.1001359224319458,2.64389967918396,-0.06444438546895981
1701714480560210200,9.007210205078126,0.7751652002334595,2.924889326095581,-0.540905237197876
1701714480569802800,9.016802734375,0.395218163728714,3.1105868816375732,-0.9770501852035522
1701714480579396400,9.026396240234375,0.06887302547693253,3.1570112705230713,-1.2568182945251465
1701714480588990700,9.03599072265625,-0.16691401600837708,2.9578752517700195,-1.3130161762237549
1701714480598584000,9.045583984375,-0.3232909142971039,2.5986969470977783,-1.0198094844818115
1701714480608176600,9.0551767578125,-0.49921491742134094,2.2871649265289307,-0.5030327439308167
1701714480617770200,9.064770263671875,-0.7435538172721863,2.4972963333129883,0.16523417830467224
1701714480627364400,9.0743642578125,-0.9292513728141785,3.0018560886383057,0.8591566681861877
1701714480636958000,9.0839580078125,-0.9463551044464111,3.5138988494873047,1.3844853639602661
1701714480646550500,9.093550537109374,-0.7459971904754639,3.830317735671997,1.614163875579834
1701714480656144100,9.10314404296875,-0.3855973184108734,3.726473808288574,1.4907727241516113
1701714480665738200,9.11273828125,-0.023975754156708717,3.124025583267212,1.0448542833328247
1701714480675331800,9.122331787109376,0.18997350335121155,2.3616881370544434,0.5207473039627075
1701714480684924400,9.13192431640625,0.40010493993759155,1.9389818906784058,0.1847812980413437
1701714480694518000,9.14151806640625,0.5344913601875305,1.9316517114639282,0.016187451779842377
1701714480704112000,9.151112060546875,0.4966188073158264,2.193094253540039,-0.0778830274939537
1701714480713705500,9.16070556640625,0.3671191930770874,2.5473856925964355,-0.13652436435222626
1701714480723298300,9.17029833984375,0.2376195788383484,2.899233818054199,-0.18050536513328552
1701714480732891600,9.1798916015625,0.16187451779842377,3.1020350456237793,-0.19394400715827942
1701714480742486000,9.189486083984375,0.12018419802188873,3.210765838623047,-0.17439688742160797
1701714480752079400,9.199079345703124,0.08231166750192642,3.326826810836792,-0.13408097624778748
1701714480761672000,9.208671875,0.05665608495473862,3.4467055797576904,-0.09620844572782516
1701714480771265500,9.218265625,0.0456608310341835,3.5444412231445312,-0.09376505762338638
1701714480780860000,9.22785986328125,0.04443913698196411,3.656837224960327,-0.10109522193670273
1701714480790453200,9.237453369140624,0.06642963737249374,3.786336660385132,-0.09009996801614761
1701714480800045800,9.2470458984375,0.11407572776079178,3.8523082733154297,-0.07543963938951492
1701714480809639400,9.256639404296875,0.2107423096895218,3.849864959716797,-0.04489727318286896
1701714480819233800,9.26623388671875,0.312142938375473,3.786336660385132,0.003970507066696882
1701714480828827100,9.2758271484375,0.37200596928596497,3.703261613845825,0.06994201242923737
1701714480838419700,9.285419677734374,0.37444937229156494,3.691044569015503,0.1566823273897171
1701714480848013300,9.295013427734375,0.3170297145843506,3.714256763458252,0.2739650011062622
1701714480857607400,9.304607421875,0.17286977171897888,3.754572629928589,0.4181249439716339
1701714480867201000,9.314200927734374,-0.010537114925682545,3.7851150035858154,0.5573981404304504
1701714480876793600,9.323793701171875,-0.21333840489387512,3.8657469749450684,0.6209262609481812
1701714480886387200,9.33338720703125,-0.3746020793914795,3.96348237991333,0.5732801556587219
1701714480895981300,9.342981201171876,-0.465007483959198,3.946378707885742,0.44011545181274414
1701714480905574700,9.35257470703125,-0.48455458879470825,3.8596384525299072,0.26907822489738464
1701714480915167500,9.36216748046875,-0.4112529158592224,3.7325820922851562,0.09804098308086395
1701714480924760800,9.3717607421875,-0.28541839122772217,3.5163421630859375,-0.027793550863862038
1701714480934355200,9.381355224609376,-0.14125843346118927,3.292619466781616,-0.09009996801614761
1701714480943948500,9.390948486328124,0.009009997360408306,3.095926523208618,-0.1304158866405487
1701714480953541400,9.400541259765625,0.15454435348510742,2.9200026988983154,-0.16340164840221405
1701714480963134700,9.410134765625,0.288930743932724,2.7953896522521973,-0.1829487532377243
1701714480972729000,9.41972900390625,0.37444937229156494,2.7404134273529053,-0.21959958970546722
1701714480982322400,9.429322509765624,0.36101073026657104,2.67322039604187,-0.2513636350631714
1701714480991915000,9.4389150390625,0.32069480419158936,2.629239320755005,-0.2782409191131592
1701714481001508600,9.448508544921875,0.25716668367385864,2.57181978225708,-0.33077380061149597
1701714481011102700,9.458102783203126,0.18997350335121155,2.4899661540985107,-0.42728766798973083
1701714481020696300,9.4676962890625,0.11651911586523056,2.3739051818847656,-0.5238015055656433
1701714481030289000,9.477288818359375,0.009009997360408306,2.1918725967407227,-0.5665608048439026
1701714481039882500,9.486882568359375,-0.12048961967229843,1.9646375179290771,-0.5421269536018372
1701714481049476600,9.4964765625,-0.21211670339107513,1.7154117822647095,-0.4724903404712677
1701714481059070200,9.5060703125,-0.2707580327987671,1.5174973011016846,-0.39918869733810425
1701714481068662800,9.515662841796875,-0.3196258246898651,1.3244695663452148,-0.32222193479537964
1701714481078256400,9.52525634765625,-0.3501681983470917,1.0862390995025635,-0.222042977809906
1701714481087850500,9.5348505859375,-0.358720064163208,0.8968765139579773,-0.07666133344173431
1701714481097443800,9.54444384765625,-0.3709369897842407,0.5401417016983032,0.006413896102458239
1701714481107036700,9.55403662109375,-0.358720064163208,0.09177979826927185,-0.018019994720816612
1701714481116630000,9.563630126953125,-0.3061871826648712,-0.25029465556144714,-0.024128466844558716
1701714481126224400,9.573224365234376,-0.20845162868499756,-0.4885250926017761,0.010078979656100273
1701714481135817700,9.582817626953124,-0.0850604772567749,-0.6290199756622314,0.006413896102458239
1701714481145410600,9.59241064453125,-0.005650337319821119,-0.6742226481437683,-0.022906772792339325
1701714481155004000,9.60200390625,-0.04840964451432228,-0.5630484819412231,-0.060779303312301636
1701714481164598300,9.611598388671876,-0.23899398744106293,-0.31260108947753906,-0.13408097624778748
1701714481174191600,9.621191650390625,-0.4955498278141022,0.06490252166986465,-0.30633988976478577
1701714481183784200,9.6307841796875,-0.7276718020439148,0.47539186477661133,-0.610541820526123
1701714481193377800,9.640377685546875,-0.9060391783714294,0.8846595287322998,-0.9965972900390625
1701714481202972000,9.649971923828126,-0.9585720896720886,1.0764656066894531,-1.2690352201461792
1701714481212565500,9.6595654296875,-0.9219212532043457,1.1118947267532349,-1.3313416242599487
1701714481222158000,9.669157958984375,-0.7997517585754395,1.0886825323104858,-1.258039951324463
1701714481231751700,9.678751708984375,-0.6678087711334229,1.078908920288086,-1.155417561531067
1701714481241345800,9.688345703125,-0.5224271416664124,0.8871029615402222,-1.0075925588607788
1701714481250939400,9.697939453125,-0.2536543309688568,0.5853443741798401,-0.8292251825332642
1701714481260532000,9.707531982421875,0.02244863659143448,0.36910444498062134,-0.6447492837905884
1701714481270125600,9.71712548828125,0.10430216789245605,0.5340332388877869,-0.4468347728252411
1701714481279719700,9.7267197265625,-0.008093725889921188,0.9738432168960571,-0.26602399349212646
1701714481289313000,9.73631298828125,-0.16691401600837708,1.2927055358886719,-0.11453386396169662
1701714481298905900,9.74590576171875,-0.2414373755455017,1.3049224615097046,0.02351761981844902
1701714481308499200,9.755499267578125,-0.1913478970527649,1.1228899955749512,0.08338065445423126
1701714481318093600,9.765093505859374,-0.06673506647348404,0.8357917666435242,0.02351761981844902
1701714481327687000,9.77468701171875,0.0261137206107378,0.5034908652305603,-0.09009996801614761
1701714481337279500,9.784279541015625,0.08719844371080399,0.2420482337474823,-0.17928366363048553
1701714481346873000,9.793873046875,0.15087927877902985,0.01847812905907631,-0.2367033064365387
1701714481356467200,9.80346728515625,0.17653486132621765,-0.17943638563156128,-0.27946263551712036
1701714481366060800,9.813060791015625,0.11896250396966934,-0.2942756712436676,-0.29412296414375305
1701714481375653400,9.8226533203125,0.007788302376866341,-0.31626617908477783,-0.2623589038848877
1701714481385247000,9.8322470703125,-0.13026317954063416,-0.3052709102630615,-0.2110477238893509
1701714481394841000,9.841841064453124,-0.26098448038101196,-0.2698417901992798,-0.16584503650665283
1701714481404434700,9.8514345703125,-0.3611634373664856,-0.20875705778598785,-0.12675081193447113
1701714481414027300,9.86102734375,-0.43324342370033264,-0.0975828468799591,-0.08887827396392822
1701714481423620900,9.870620849609375,-0.4760027229785919,0.0587940476834774,-0.059557609260082245
1701714481433215000,9.880215087890624,-0.47233763337135315,0.22250111401081085,-0.04856235533952713
1701714481442808300,9.889808349609375,-0.4246915578842163,0.34100547432899475,-0.0656660795211792
1701714481452401200,9.899401123046875,-0.32817769050598145,0.3972034156322479,-0.1047603040933609
1701714481461994500,9.908994384765625,-0.1901262104511261,0.36543938517570496,-0.13408097624778748
1701714481471588900,9.9185888671875,-0.07528692483901978,0.2652604281902313,-0.1426328420639038
1701714481481182200,9.92818212890625,0.0065666078589856625,0.13209572434425354,-0.12675081193447113
1701714481490774800,9.93777490234375,0.09697200357913971,0.05635065957903862,-0.07177454978227615
1701714481500368400,9.947368408203126,0.183865025639534,0.014813045971095562,0.03695625811815262
1701714481509962800,9.956962646484374,0.2718270421028137,-0.0035123717971146107,0.17500774562358856
1701714481519556000,9.96655615234375,0.34879377484321594,-0.005955760832875967,0.324054479598999
1701714481529148700,9.976148681640625,0.4159869849681854,-0.0035123717971146107,0.45355409383773804
1701714481538742300,9.9857421875,0.4831801950931549,-0.0462716780602932,0.5525113344192505
1701714481548336400,9.99533642578125,0.5112791657447815,-0.14767232537269592,0.6319214701652527
1701714481557930000,10.004929931640625,0.45263782143592834,-0.29916244745254517,0.7027797698974609
1701714481567522600,10.0145224609375,0.4049917459487915,-0.49585527181625366,0.7088882327079773
1701714481577116200,10.0241162109375,0.36223241686820984,-0.616802990436554,0.671015739440918
1701714481586710300,10.033710205078124,0.312142938375473,-0.6412369012832642,0.6123743653297424
1701714481596303600,10.0433037109375,0.2486148327589035,-0.5887040495872498,0.5219689607620239
1701714481605896400,10.052896484375,0.13744063675403595,-0.42133188247680664,0.40468630194664
1701714481615489800,10.06248974609375,0.03588727489113808,-0.22219568490982056,0.27029991149902344
1701714481625084200,10.072084228515624,-0.038636088371276855,0.01725643500685692,0.09437590092420578
1701714481634677500,10.081677490234375,-0.0984991192817688,0.18218518793582916,-0.16462333500385284
1701714481644270000,10.09127001953125,-0.14614520967006683,0.2591519355773926,-0.4297310411930084
1701714481653863700,10.10086376953125,-0.18279604613780975,0.27747735381126404,-0.5115845799446106
1701714481663458000,10.1104580078125,-0.21333840489387512,0.2554868757724762,-0.40285375714302063
1701714481673051400,10.120051513671875,-0.21211670339107513,0.24571330845355988,-0.17317520081996918
1701714481682644000,10.12964404296875,-0.18157434463500977,0.26159533858299255,0.08460234850645065
1701714481692237600,10.139237548828126,-0.12659808993339539,0.3190149664878845,0.3032856583595276
1701714481701831700,10.148831787109375,-0.07895200699567795,0.3752129375934601,0.46699273586273193
1701714481711425300,10.15842529296875,-0.07040014863014221,0.40697699785232544,0.5549547076225281
1701714481721017900,10.168017822265625,-0.07895200699567795,0.4815003573894501,0.5806103348731995
1701714481730611200,10.177611083984376,-0.10827267915010452,0.5877877473831177,0.5488462448120117
1701714481740205600,10.18720556640625,-0.15347537398338318,0.5352548956871033,0.47554460167884827
1701714481749799000,10.196798828125,-0.14370182156562805,0.254265159368515,0.3826957941055298
1701714481759391700,10.206391845703125,-0.03497100621461868,-0.07314895838499069,0.16523417830467224
1701714481768985000,10.215985107421876,0.111632339656353,-0.37979426980018616,-0.1963873952627182
1701714481778579500,10.225579345703125,0.3549022674560547,-0.5215108394622803,-0.4981459379196167
1701714481788172800,10.2351728515625,0.6126797795295715,-0.7768449783325195,-0.5897729992866516
1701714481797765400,10.244765380859375,0.7140804529190063,-0.9454388618469238,-0.5372401475906372
1701714481807359000,10.25435888671875,0.6920899152755737,-0.7915053367614746,-0.41262730956077576
1701714481816953000,10.263953125,0.5882459282875061,-0.4506525695323944,-0.28190600872039795
1701714481826546700,10.273546630859375,0.4611896872520447,-0.17210622131824493,-0.23181653022766113
1701714481836139300,10.28313916015625,0.3365768492221832,-0.09513945877552032,-0.3405473530292511
1701714481845732900,10.29273291015625,0.17897824943065643,-0.1513374149799347,-0.47615543007850647
1701714481855327000,10.302326904296875,-0.009315420873463154,-0.1892099380493164,-0.5506787896156311
1701714481864920600,10.311920654296875,-0.15714046359062195,-0.2808370292186737,-0.6068767309188843
1701714481874513200,10.32151318359375,-0.2536543309688568,-0.37857258319854736,-0.6789567470550537
1701714481884106800,10.331106689453126,-0.3184041380882263,-0.4140017330646515,-0.7595885396003723
1701714481893700900,10.340700927734375,-0.3611634373664856,-0.37979426980018616,-0.768140435218811
1701714481903294200,10.350294189453125,-0.37948885560035706,-0.30404922366142273,-0.6496360301971436
1701714481912887000,10.359886962890625,-0.35505497455596924,-0.241742804646492,-0.41140562295913696
1701714481922480400,10.36948046875,-0.2707580327987671,-0.23807771503925323,-0.08643488585948944
1701714481932074800,10.37907470703125,-0.11315945535898209,-0.266176700592041,0.27029991149902344
1701714481941668000,10.388668212890625,0.10185877978801727,-0.32848310470581055,0.583053708076477
1701714481951260700,10.3982607421875,0.30725616216659546,-0.3089359998703003,0.7418739795684814
1701714481960854300,10.407854248046876,0.4477510452270508,-0.24052110314369202,0.7186617851257324
1701714481970448600,10.41744873046875,0.5320479869842529,-0.11468657106161118,0.5610632300376892
1701714481980042000,10.4270419921875,0.5613686442375183,-0.0010689827613532543,0.3545968234539032
1701714481989634600,10.436634521484375,0.4978405237197876,0.08933641016483307,0.1713426560163498
1701714481999228200,10.446228271484374,0.33169007301330566,0.22005772590637207,0.028404397889971733
1701714482008822300,10.455822265625,0.08719844371080399,0.3507790267467499,-0.0778830274939537
1701714482018415900,10.465415771484375,-0.1522536724805832,0.47172680497169495,-0.1719534993171692
1701714482028008400,10.475008544921875,-0.3306210935115814,0.5242596864700317,-0.24403348565101624
1701714482037601800,10.484601806640624,-0.39292749762535095,0.49738237261772156,-0.305118203163147
1701714482047196200,10.494196044921875,-0.39414918422698975,0.3739912211894989,-0.3552076816558838
1701714482056789500,10.50378955078125,-0.3843756318092346,0.22738789021968842,-0.3955236077308655
1701714482066382300,10.51338232421875,-0.36605021357536316,0.12232216447591782,-0.4297310411930084
1701714482075975700,10.5229755859375,-0.3501681983470917,0.05024218559265137,-0.42240089178085327
1701714482085570000,10.532570068359375,-0.30985227227211,0.007482878863811493,-0.4040754735469818
1701714482095163400,10.542163330078125,-0.23532891273498535,-0.010842538438737392,-0.4175141155719757
1701714482104756000,10.551755859375,-0.18523943424224854,-0.06459710001945496,-0.4309527277946472
1701714482114349600,10.561349609375,-0.15714046359062195,-0.14767232537269592,-0.46760356426239014
1701714482123943700,10.570943603515625,-0.10949437320232391,-0.2527380585670471,-0.5384618639945984
1701714482133537300,10.580537353515625,-0.056961506605148315,-0.3834593594074249,-0.6080984473228455
1701714482143129900,10.5901298828125,-0.055739812552928925,-0.5215108394622803,-0.6777350306510925
1701714482152723500,10.599723388671874,0.018783552572131157,-0.47019967436790466,-0.7608102560043335
1701714482162317600,10.609317626953125,0.10918894410133362,-0.6192464232444763,-0.7204943299293518
1701714482171911200,10.6189111328125,0.09697200357913971,-0.7035433053970337,-0.592216432094574
1701714482181503700,10.628503662109376,-0.01175880990922451,-0.533727765083313,-0.5274665951728821
1701714482191097000,10.63809716796875,-0.1241547018289566,-0.3504736125469208,-0.5494571328163147
1701714482200691500,10.64769140625,-0.2279987335205078,-0.31260108947753906,-0.6019899845123291
1701714482210284800,10.657284912109375,-0.2927485406398773,-0.39445462822914124,-0.6642963886260986
1701714482219877400,10.66687744140625,-0.3599417507648468,-0.6277982592582703,-0.6899519562721252
1701714482229471000,10.676470947265624,-0.441795289516449,-0.7902836203575134,-0.6569662094116211
1701714482239065300,10.6860654296875,-0.5028799772262573,-0.7047650218009949,-0.5751127004623413
1701714482248658700,10.69565869140625,-0.571294903755188,-0.5789304971694946,-0.4297310411930084
1701714482258251300,10.705251220703126,-0.6812474131584167,-0.5373928546905518,-0.20127417147159576
1701714482267844900,10.714844970703124,-0.7496622800827026,-0.4677563011646271,0.11270131915807724
1701714482277439000,10.72443896484375,-0.7386670708656311,-0.1244601309299469,0.45477578043937683
1701714482287032600,10.734032470703125,-0.6103891134262085,0.5034908652305603,0.7601994276046753
1701714482296625200,10.743625244140626,-0.41980478167533875,0.9677347540855408,0.9458969831466675
1701714482306218500,10.753218505859374,-0.2047865390777588,0.987281858921051,0.984991192817688
1701714482315812900,10.762812744140625,-0.0068720318377017975,0.7392778992652893,0.9385668039321899
1701714482325406200,10.77240625,0.12995775043964386,0.43385425209999084,0.883590579032898
1701714482334999000,10.7819990234375,0.1985253542661667,0.19440214335918427,0.8127322793006897
1701714482344592400,10.79159228515625,0.23028941452503204,0.01969982497394085,0.7040014863014221
1701714482354186800,10.801186767578125,0.2644968628883362,-0.11835165321826935,0.5854970812797546
1701714482363780000,10.810780029296875,0.33291175961494446,-0.15866757929325104,0.4450022280216217
1701714482373372700,10.82037255859375,0.4074351191520691,-0.16966283321380615,0.32161107659339905
1701714482382966300,10.82996630859375,0.420873761177063,-0.18798823654651642,0.25319617986679077
1701714482392560400,10.839560302734375,0.36101073026657104,-0.266176700592041,0.24708771705627441
1701714482402154000,10.849154052734375,0.24006296694278717,-0.37735089659690857,0.3277195692062378
1701714482411746600,10.85874658203125,0.06887302547693253,-0.5080721974372864,0.48043137788772583
1701714482421340200,10.868340087890624,-0.06306997686624527,-0.6803311109542847,0.6575770974159241
1701714482430934300,10.877934326171875,-0.07895200699567795,-0.8098307251930237,0.8200624585151672
1701714482440527600,10.887527587890625,0.04321744292974472,-0.9466605186462402,0.9287932515144348
1701714482450120400,10.897120361328126,0.2229592502117157,-1.1005940437316895,0.9630007147789001
1701714482459713800,10.9067138671875,0.4037700295448303,-1.1531269550323486,0.9312366247177124
1701714482469308200,10.91630810546875,0.5638120174407959,-1.0358442068099976,0.8994725942611694
1701714482478901500,10.925901611328126,0.648108959197998,-0.8611419200897217,0.8921424150466919
1701714482488494000,10.935494140625,0.6273401379585266,-0.6497887969017029,0.8151756525039673
1701714482498087700,10.945087646484374,0.5906893014907837,-0.4750864505767822,0.5867187976837158
1701714482507682000,10.95468212890625,0.6358919739723206,-0.35536038875579834,0.30572906136512756
1701714482517275400,10.964275390625,0.7519529461860657,-0.23685602843761444,0.0198525357991457
1701714482526868000,10.973867919921876,0.8533536195755005,-0.10491301864385605,-0.21349111199378967
1701714482536461600,10.983461669921875,0.8777875304222107,0.014813045971095562,-0.28190600872039795
1701714482546055700,10.9930556640625,0.846023440361023,0.1369825005531311,-0.2757975459098816
1701714482555649300,11.002649169921876,0.7983773946762085,0.35200074315071106,-0.3161134421825409
1701714482565241900,11.012241943359374,0.7275190949440002,0.6427640318870544,-0.38941511511802673
1701714482574835500,11.02183544921875,0.6310052275657654,0.8492304086685181,-0.47982051968574524
1701714482584429600,11.0314296875,0.47707170248031616,0.6769714951515198,-0.6594096422195435
1701714482594023000,11.04102294921875,0.22540263831615448,0.13576079905033112,-0.9684983491897583
1701714482603615500,11.050615478515626,-0.11804623156785965,-0.2515163719654083,-1.3069076538085938
1701714482613209000,11.060208984375,-0.44546034932136536,-0.23685602843761444,-1.4070866107940674
1701714482622803500,11.069803466796875,-0.6372663974761963,-0.08780929446220398,-1.21650230884552
1701714482632396800,11.079396728515626,-0.6336013078689575,0.00015271181473508477,-0.7644753456115723
1701714482641989400,11.0889892578125,-0.4821111857891083,-0.012064233422279358,-0.17561858892440796
1701714482651583000,11.0985830078125,-0.3086305856704712,-0.04504998400807381,0.33504971861839294
1701714482661177000,11.108177001953125,-0.15591876208782196,-0.05115845799446106,0.6233696341514587
1701714482670770700,11.117770751953126,-0.0007635590736754239,-0.03527642786502838,0.638029932975769
1701714482680363300,11.12736328125,0.18630841374397278,-0.025502873584628105,0.45111069083213806
1701714482689956900,11.136956787109375,0.37322768568992615,-0.04749337583780289,0.18600298464298248
1701714482699551000,11.146551025390625,0.5063923597335815,-0.09636115282773972,-0.057114217430353165
1701714482709144600,11.15614453125,0.5540384650230408,-0.14400723576545715,-0.20493926107883453
1701714482718737200,11.165737060546874,0.5210527181625366,-0.15744587779045105,-0.22692975401878357
1701714482728330500,11.17533056640625,0.4196520745754242,-0.12201674282550812,-0.13774605095386505
1701714482737924900,11.1849248046875,0.2608317732810974,-0.027946261689066887,0.014965757727622986
1701714482747518200,11.194518310546876,0.06398624926805496,0.149199441075325,0.144465371966362
1701714482757110800,11.20411083984375,-0.11682453751564026,0.3202366828918457,0.1823379099369049
1701714482766704400,11.213704345703125,-0.24021568894386292,0.4558447599411011,0.1310267299413681
1701714482776298500,11.223298583984375,-0.2976353168487549,0.575570821762085,0.002748812548816204
1701714482785892000,11.23289208984375,-0.31351736187934875,0.6867450475692749,-0.18661384284496307
1701714482795484700,11.242484619140624,-0.31596073508262634,0.7710419297218323,-0.37353309988975525
1701714482805078300,11.252078369140625,-0.30007871985435486,0.7930324673652649,-0.4883723855018616
1701714482814672400,11.26167236328125,-0.27686652541160583,0.7356128096580505,-0.5128062963485718
1701714482824266000,11.271265869140626,-0.27197974920272827,0.673306405544281,-0.47615543007850647
1701714482833858600,11.280858642578124,-0.28664007782936096,0.6562026739120483,-0.4065188467502594
1701714482843452000,11.290451904296875,-0.3184041380882263,0.7014053463935852,-0.3393256664276123
1701714482853046300,11.30004638671875,-0.333064466714859,0.728282630443573,-0.3271087110042572
1701714482862639600,11.3096396484375,-0.32573428750038147,0.7111788988113403,-0.38697174191474915
1701714482872232200,11.319232177734374,-0.3171824514865875,0.7490514516830444,-0.5128062963485718
1701714482881825800,11.32882568359375,-0.2829749882221222,0.7502731680870056,-0.6838434934616089
1701714482891420000,11.338419921875,-0.2011214643716812,0.5474718809127808,-0.8451071977615356
1701714482901013500,11.348013427734376,-0.017867282032966614,0.3067980408668518,-0.9416210651397705
1701714482910606000,11.357606201171874,0.18875180184841156,-0.008399149402976036,-0.934290885925293
1701714482920199700,11.36719970703125,0.20219044387340546,-0.31137940287590027,-0.8768712282180786
1701714482929793800,11.376793701171875,-0.06062658876180649,-0.4384356141090393,-0.7876875400543213
1701714482939387400,11.386387451171874,-0.3232909142971039,-0.47019967436790466,-0.7815790772438049
1701714482948980000,11.39597998046875,-0.5212054252624512,-0.5190674662590027,-0.8255600929260254
1701714482958573300,11.4055732421875,-0.6079457402229309,-0.60825115442276,-0.8561024069786072
1701714482968167700,11.415167724609375,-0.6800256967544556,-0.7536327838897705,-0.8634325861930847
1701714482977761000,11.424760986328126,-0.6910209655761719,-0.9002361297607422,-0.776692271232605
1701714482987353600,11.434353515625,-0.6824691295623779,-0.9772028923034668,-0.5592306852340698
1701714482996947200,11.443947265625,-0.6445965766906738,-1.0272923707962036,-0.25625041127204895
1701714483006541300,11.453541259765625,-0.5981721878051758,-0.9576557874679565,0.06749862432479858
1701714483016135000,11.463135009765624,-0.5774033665657043,-0.5813738703727722,0.3374931216239929
1701714483025727500,11.4727275390625,-0.5798467397689819,-0.2710634768009186,0.5867187976837158
1701714483035321000,11.482321044921875,-0.5969504714012146,0.08322793990373611,0.7797465324401855
1701714483044915200,11.491915283203125,-0.5688515305519104,0.5535803437232971,0.8567132949829102
1701714483054508500,11.501508544921874,-0.4637857675552368,0.9860602021217346,0.8347227573394775
1701714483064101400,11.511101318359374,-0.32695600390434265,1.1656492948532104,0.7821899056434631
1701714483073694700,11.52069482421875,-0.2011214643716812,1.1448805332183838,0.7614210844039917
1701714483083289000,11.5302890625,-0.058183200657367706,1.0764656066894531,0.7699729800224304
1701714483092882400,11.53988232421875,0.08353336155414581,0.9469659924507141,0.7809682488441467
1701714483102475000,11.54947509765625,0.19119518995285034,0.7478297352790833,0.749204158782959
1701714483112068600,11.559068603515625,0.26816195249557495,0.5108210444450378,0.6636855602264404
1701714483121662700,11.568662841796876,0.3035911023616791,0.2970244884490967,0.5378510355949402
1701714483131256300,11.57825634765625,0.3170297145843506,0.11865708231925964,0.43889376521110535
1701714483140849000,11.587848876953124,0.3292466700077057,-0.07559234648942947,0.4022429287433624
1701714483150442500,11.5974423828125,0.32191649079322815,-0.26495498418807983,0.42423340678215027
1701714483160036600,11.60703662109375,0.2473931461572647,-0.37857258319854736,0.5073086619377136
1701714483169630000,11.6166298828125,0.11651911586523056,-0.4408790171146393,0.6355865597724915
1701714483179222800,11.626222900390625,-0.03497100621461868,-0.49829864501953125,0.7736380696296692
1701714483188816100,11.635816162109375,-0.13148486614227295,-0.50196373462677,0.8579349517822266
1701714483198410500,11.645410400390626,-0.13392825424671173,-0.48363831639289856,0.855491578578949
1701714483208003800,11.65500390625,-0.06551336497068405,-0.4274403750896454,0.7614210844039917
1701714483217596400,11.664596435546875,0.02489202655851841,-0.3443651497364044,0.6233696341514587
1701714483227190000,11.67418994140625,0.0981936976313591,-0.23685602843761444,0.5231906771659851
1701714483236784000,11.6837841796875,0.13744063675403595,-0.13179029524326324,0.5207473039627075
1701714483246377700,11.693377685546874,0.16187451779842377,-0.06948387622833252,0.5891621708869934
1701714483255970300,11.70297021484375,0.22784602642059326,-0.04504998400807381,0.6807892918586731
1701714483265564000,11.71256396484375,0.3915531039237976,-0.11590826511383057,0.7516475319862366
1701714483275158000,11.722157958984376,0.6395570635795593,-0.22463907301425934,0.7040014863014221
1701714483284751400,11.73175146484375,0.8228112459182739,-0.21975229680538177,0.43645036220550537
1701714483294344200,11.74134423828125,0.9303203821182251,-0.026724567636847496,0.04428642615675926
1701714483303937500,11.7509375,0.9730796813964844,0.19440214335918427,-0.2757975459098816
1701714483313532000,11.760531982421876,0.9681929349899292,0.39353835582733154,-0.43828290700912476
1701714483323125200,11.770125244140624,0.9278770089149475,0.6329904794692993,-0.45416492223739624
1701714483332717800,11.7797177734375,0.8435800671577454,0.8040276765823364,-0.3955236077308655
1701714483342311400,11.7893115234375,0.6358919739723206,0.7380561828613281,-0.36253786087036133
1701714483351905500,11.798905517578126,0.2999260127544403,0.4277457892894745,-0.509141206741333
1701714483361499100,11.8084990234375,-0.07650861889123917,0.15408621728420258,-0.828003466129303
1701714483371091700,11.818091796875,-0.42224815487861633,0.14431266486644745,-1.0698989629745483
1701714483380685300,11.827685302734375,-0.6384881138801575,0.18462859094142914,-1.0979979038238525
1701714483390279400,11.837279541015626,-0.7032378911972046,0.20906247198581696,-0.9318475127220154
1701714483399872800,11.846872802734374,-0.6739172339439392,0.2701472043991089,-0.6142069101333618
1701714483409465600,11.856465576171875,-0.6128324866294861,0.386208176612854,-0.20249587297439575
1701714483419059000,11.866058837890625,-0.5138752460479736,0.5621321797370911,0.18600298464298248
1701714483428653300,11.8756533203125,-0.3868190348148346,0.6293253898620605,0.45355409383773804
1701714483438246700,11.88524658203125,-0.27197974920272827,0.5841227173805237,0.5769452452659607
1701714483447839200,11.894839111328125,-0.14858859777450562,0.4900522232055664,0.5170822143554688
1701714483457432800,11.904432861328125,0.0016798300202935934,0.3239017724990845,0.33504971861839294
1701714483467027000,11.91402685546875,0.14965757727622986,0.16996824741363525,0.1701209545135498
1701714483476620500,11.92362060546875,0.25716668367385864,0.07956285774707794,0.08093725889921188
