time,seconds_elapsed,z,y,x
1697724230045783000,0.085782958984375,0.4692874848842621,-0.35378751158714294,-0.031075000762939453
1697724230055201800,0.095201904296875,0.41923749446868896,-0.07768750190734863,0.12168750166893005
1697724230064620800,0.104620849609375,0.21285000443458557,-0.15826250612735748,0.15097500383853912
1697724230074039600,0.11403955078125,-0.0719124972820282,-0.5846499800682068,0.06297499686479568
1697724230083458600,0.12345849609375,-0.3260124921798706,-1.2541375160217285,-0.06902500241994858
1697724230092877300,0.132877197265625,-0.4823499917984009,-2.039674997329712,-0.2241249978542328
1697724230102296000,0.142296142578125,-0.5421624779701233,-2.8106374740600586,-0.39393749833106995
1697724230111715000,0.151715087890625,-0.5238749980926514,-3.284600019454956,-0.5906999707221985
1697724230121134000,0.161134033203125,-0.4127750098705292,-3.266312599182129,-0.7738500237464905
1697724230130552800,0.170552734375,-0.23553749918937683,-2.696924924850464,-0.8801375031471252
1697724230139971600,0.1799716796875,-0.002199999988079071,-1.707474946975708,-0.8251374959945679
1697724230149390300,0.189390380859375,0.2689499855041504,-0.8362749814987183,-0.6675624847412109
1697724230158809300,0.198809326171875,0.5780500173568726,-0.20954999327659607,-0.4977499842643738
1697724230168228000,0.20822802734375,0.7148625254631042,0.09707500040531158,-0.44398748874664307
1697724230177647000,0.217647216796875,0.6232874989509583,-0.017737500369548798,-0.6247999668121338
1697724230187066000,0.227066162109375,0.4974749982357025,-0.3452624976634979,-0.8788999915122986
1697724230196484900,0.23648486328125,0.4119499921798706,-0.41359999775886536,-0.9998999834060669
1697724230205903600,0.245903564453125,0.3544749915599823,-0.19249999523162842,-1.0036125183105469
1697724230215322600,0.255322509765625,0.3619000017642975,0.026262499392032623,-0.9620875120162964
1697724230224741400,0.264741455078125,0.5022875070571899,0.020075000822544098,-0.8668000102043152
1697724230234160400,0.274160400390625,0.729574978351593,-0.20102499425411224,-0.6565625071525574
1697724230243579100,0.2835791015625,0.851812481880188,-0.6384124755859375,-0.3156999945640564
1697724230252998000,0.292997802734375,0.7528125047683716,-1.0770374536514282,0.09844999760389328
1697724230262417000,0.3024169921875,0.510949969291687,-1.2896125316619873,0.49665001034736633
1697724230271836000,0.3118359375,0.25189998745918274,-1.5424749851226807,0.8009374737739563
1697724230281254700,0.321254638671875,0.005087499972432852,-1.8088124990463257,0.9950875043869019
1697724230290673400,0.33067333984375,-0.2087250053882599,-2.175387382507324,0.990274965763092
1697724230300092400,0.340092529296875,-0.2747249901294708,-2.5833499431610107,0.8327000141143799
1697724230309511200,0.34951123046875,-0.11467500030994415,-2.6725873947143555,0.671412467956543
1697724230318930200,0.35893017578125,0.12856249511241913,-2.463587522506714,0.44536250829696655
1697724230328349000,0.368348876953125,0.328900009393692,-2.285249948501587,0.17902499437332153
1697724230337768000,0.377767822265625,0.48399999737739563,-2.053149938583374,0.06421250104904175
1697724230347186700,0.387186767578125,0.554812490940094,-2.0433874130249023,0.09226249903440475
1697724230356605400,0.39660546875,0.558525025844574,-2.3194875717163086,0.1742125004529953
1697724230366024400,0.4060244140625,0.6269999742507935,-2.6224000453948975,0.26083749532699585
1697724230375443200,0.415443115234375,0.8090500235557556,-2.992687463760376,0.29260000586509705
1697724230384862500,0.424862548828125,1.01419997215271,-3.555887460708618,0.24873749911785126
1697724230394281200,0.43428125,1.1999624967575073,-3.9835124015808105,0.2180749922990799
1697724230403700000,0.443699951171875,1.4931124448776245,-4.147137641906738,0.31226250529289246
1697724230413118700,0.45311865234375,1.9684499502182007,-4.084849834442139,0.430649995803833
1697724230422537500,0.462537353515625,2.3214125633239746,-3.884512424468994,0.3965499997138977
1697724230431956700,0.471956787109375,2.1895499229431152,-3.691462516784668,0.0494999997317791
1697724230441375200,0.481375244140625,1.8339749574661255,-3.3445498943328857,-0.518512487411499
1697724230450794200,0.490794189453125,1.2854875326156616,-2.296250104904175,-0.8557999730110168
1697724230460213200,0.500213134765625,0.6220499873161316,-1.008562445640564,-1.046375036239624
1697724230469632000,0.509632080078125,0.2934249937534332,0.15441249310970306,-1.2552374601364136
1697724230479050800,0.51905078125,0.24584999680519104,1.0451375246047974,-1.4702874422073364
1697724230488469800,0.5284697265625,0.3642374873161316,1.7744375467300415,-1.781862497329712
1697724230497888500,0.537888427734375,0.6721000075340271,2.2423501014709473,-2.114062547683716
1697724230507307300,0.547307373046875,1.2084875106811523,0.8435624837875366,-2.5013999938964844
1697724230516726300,0.556726318359375,2.3751749992370605,-1.662237524986267,-2.69073748588562
1697724230526145000,0.56614501953125,3.803387403488159,-3.0707874298095703,-2.9033124446868896
1697724230535564000,0.57556396484375,4.2664875984191895,-3.691462516784668,-3.0633625984191895
1697724230544983000,0.584983154296875,4.7917375564575195,-4.469712257385254,-2.864262580871582
1697724230554401800,0.59440185546875,5.692224979400635,-5.337062358856201,-2.1740124225616455
1697724230563820500,0.603820556640625,6.321287631988525,-6.1177873611450195,-1.0328999757766724
1697724230573239600,0.613239501953125,5.945087432861328,-6.362124919891357,0.227974995970726
1697724230582658300,0.622658203125,4.018437385559082,-5.844162464141846,1.4739999771118164
1697724230592077000,0.6320771484375,2.260362386703491,-6.822750091552734,2.214437484741211
1697724230601496000,0.64149609375,1.8389250040054321,-8.613687515258789,2.937687397003174
1697724230610914800,0.650914794921875,2.4228875637054443,-9.190361976623535,4.0250372886657715
1697724230620333800,0.660333740234375,3.172950029373169,-8.563637733459473,4.908337593078613
1697724230629752600,0.669752685546875,3.7350499629974365,-7.438475131988525,5.059724807739258
1697724230639171600,0.679171630859375,4.239537239074707,-6.718800067901611,4.547812461853027
1697724230648590300,0.68859033203125,4.777162551879883,-6.235074996948242,3.792799949645996
1697724230658009000,0.698009033203125,5.242599964141846,-5.930787563323975,3.32488751411438
1697724230667428000,0.707427978515625,5.578512668609619,-5.596112251281738,3.375074863433838
1697724230676847000,0.71684716796875,5.7557501792907715,-4.929100036621094,3.770937442779541
1697724230686266000,0.72626611328125,5.613987445831299,-4.020087242126465,4.345137596130371
1697724230695684900,0.735684814453125,5.047074794769287,-2.6958250999450684,4.555237293243408
1697724230705103600,0.745103515625,4.352012634277344,-1.807574987411499,4.297424793243408
1697724230714522400,0.7545224609375,3.6543374061584473,-1.86986243724823,4.453762531280518
1697724230723941000,0.763941162109375,2.8089873790740967,-2.0433874130249023,4.738524913787842
1697724230733360400,0.7733603515625,2.0465500354766846,-1.6475249528884888,4.666337490081787
1697724230742779000,0.78277880859375,1.52982497215271,-0.675125002861023,3.486175060272217
1697724230752198000,0.792197998046875,1.1034375429153442,0.5246999859809875,1.423949956893921
1697724230761617000,0.801616943359375,0.8016250133514404,1.5570499897003174,-0.527037501335144
1697724230771035600,0.81103564453125,0.5230500102043152,2.25211238861084,-1.6253875494003296
1697724230780454400,0.820454345703125,-0.17572499811649323,2.193537473678589,-1.4520000219345093
1697724230789873200,0.829873046875,-1.2056000232696533,1.6181000471115112,-0.9106624722480774
1697724230799292200,0.839292236328125,-1.8665624856948853,0.47946250438690186,-0.7030375003814697
1697724230808711200,0.848711181640625,-1.9948500394821167,-0.5504124760627747,-0.8153749704360962
1697724230818130000,0.8581298828125,-2.0278499126434326,-0.8790374994277954,-0.7726125121116638
1697724230827549000,0.867548828125,-2.173187494277954,-1.0305625200271606,-0.5722749829292297
1697724230836967700,0.8769677734375,-2.4395248889923096,-1.2406624555587769,-0.30717501044273376
1697724230846386400,0.886386474609375,-2.5715250968933105,-1.4911874532699585,-0.010312499478459358
1697724230855805200,0.89580517578125,-2.6533374786376953,-1.6805249452590942,-0.05678749829530716
1697724230865224400,0.905224365234375,-2.7266249656677246,-1.8050999641418457,-0.3634124994277954
1697724230874643500,0.9146435546875,-2.722912549972534,-1.9615750312805176,-0.7640874981880188
1697724230884062200,0.924062255859375,-2.5885748863220215,-1.9333875179290771,-0.8533250093460083
1697724230893481000,0.93348095703125,-2.2416625022888184,-1.4520000219345093,-0.255887508392334
1697724230902899700,0.942899658203125,-1.6588000059127808,-1.2186625003814697,0.40988749265670776
1697724230912318500,0.952318359375,-1.2923624515533447,-1.0452749729156494,0.609125018119812
1697724230921737500,0.961737548828125,-0.7328749895095825,-0.6164125204086304,0.963325023651123
1697724230931156200,0.97115625,-0.381012499332428,-0.6506500244140625,1.3261874914169312
1697724230940575000,0.980574951171875,-0.1891999989748001,-0.9878000020980835,1.6952375173568726
1697724230949994000,0.989993896484375,-0.18053749203681946,-1.112375020980835,1.9273375272750854
1697724230959412700,0.999412841796875,-0.31130000948905945,-1.1673749685287476,1.9846749305725098
1697724230968831700,1.008831787109375,-0.5373499989509583,-1.2309000492095947,1.8893874883651733
1697724230978250800,1.018250732421875,-0.7206375002861023,-1.292087435722351,1.6548124551773071
1697724230987669500,1.02766943359375,-0.8855000138282776,-1.1197999715805054,1.349424958229065
1697724230997088300,1.037088134765625,-0.8391624689102173,-0.9842249751091003,1.129562497138977
1697724231006507000,1.046507080078125,-0.682687520980835,-0.9010375142097473,1.0843249559402466
1697724231015926000,1.055926025390625,-0.44811248779296875,-0.7154124975204468,1.287137508392334
1697724231025344800,1.0653447265625,-0.06091250106692314,-0.42336249351501465,1.478950023651123
1697724231034763800,1.074763671875,0.3667125105857849,-0.09721250087022781,1.5437124967575073
1697724231044182500,1.0841826171875,0.37894999980926514,0.31212499737739563,1.658524990081787
1697724231053601500,1.0936015625,-0.0999625027179718,1.0769000053405762,2.064150094985962
1697724231063020300,1.103020263671875,-0.0999625027179718,2.3034000396728516,1.9969124794006348
1697724231072439000,1.11243896484375,0.22618749737739563,3.5190374851226807,1.3066624402999878
1697724231081858000,1.121858154296875,0.6305750012397766,4.21904993057251,0.7349374890327454
1697724231091276800,1.13127685546875,0.9556249976158142,3.9686625003814697,0.5931749939918518
1697724231100695600,1.140695556640625,1.3172500133514404,3.3334124088287354,0.688462495803833
1697724231110114600,1.150114501953125,1.4370124340057373,2.6454999446868896,0.8790374994277954
1697724231119533300,1.159533203125,1.417349934577942,2.101824998855591,0.9450374841690063
1697724231128952000,1.1689521484375,1.2659624814987183,1.8636749982833862,0.9645624756813049
1697724231138371000,1.17837109375,0.8639125227928162,1.9809625148773193,0.8949875235557556
1697724231147789800,1.187789794921875,0.28366249799728394,2.1727750301361084,0.7825124859809875
1697724231157208600,1.19720849609375,-0.2012999951839447,1.9724375009536743,0.5796999931335449
1697724231166627800,1.2066279296875,-0.4628250002861023,1.5655750036239624,0.5284125208854675
1697724231176046600,1.216046630859375,-0.5861625075340271,0.977899968624115,0.7044125199317932
1697724231185465300,1.22546533203125,-0.5801125168800354,0.5405125021934509,0.893750011920929
1697724231194884400,1.23488427734375,-0.525112509727478,0.20583750307559967,1.0500874519348145
1697724231204302800,1.244302734375,-0.22453749179840088,0.2521750032901764,0.9609875082969666
1697724231213722000,1.25372216796875,-0.05472499877214432,0.44398748874664307,0.7202249765396118
1697724231223140900,1.263140869140625,-0.12925000488758087,0.6785625219345093,0.522362470626831
1697724231232559900,1.272559814453125,-0.3870624899864197,0.8166124820709229,0.4343625009059906
1697724231241978600,1.281978515625,-0.7657374739646912,0.8557999730110168,0.39531248807907104
1697724231251397400,1.2913974609375,-1.194599986076355,0.9571374654769897,0.342787504196167
1697724231260816100,1.300816162109375,-1.6502749919891357,1.054900050163269,0.23154999315738678
1697724231270235000,1.31023486328125,-2.1476125717163086,1.1391874551773071,0.04221250116825104
1697724231279654000,1.31965380859375,-2.5641000270843506,1.1539000272750854,-0.11659999936819077
1697724231289072600,1.32907275390625,-2.5213375091552734,1.5936249494552612,-0.4647499918937683
1697724231298491400,1.338491455078125,-2.604525089263916,2.087249994277954,-0.942425012588501
1697724231307910700,1.34791064453125,-2.715625047683716,2.689500093460083,-1.5252875089645386
1697724231317329400,1.357329345703125,-2.871962547302246,3.5777499675750732,-2.4244000911712646
1697724231326748200,1.366748046875,-3.118774890899658,4.365762710571289,-3.330937385559082
1697724231336167000,1.3761669921875,-2.9966750144958496,4.691912651062012,-4.14947509765625
1697724231345586000,1.3855859375,-2.593524932861328,4.209287643432617,-4.551387310028076
1697724231355005000,1.3950048828125,-1.9215624332427979,2.7225000858306885,-4.35833740234375
1697724231364423400,1.40442333984375,-0.6289250254631042,0.780037522315979,-3.8966124057769775
1697724231373842400,1.413842529296875,0.9128624796867371,-1.475237488746643,-3.2918875217437744
1697724231383261400,1.423261474609375,2.161362409591675,-2.9731624126434326,-2.307112455368042
1697724231392680200,1.43268017578125,3.119187593460083,-3.677987575531006,-1.703624963760376
1697724231402099000,1.442098876953125,3.7081000804901123,-3.254075050354004,-1.615625023841858
1697724231411518000,1.45151806640625,3.9707250595092773,-2.2291500568389893,-2.1422500610351562
1697724231420936700,1.460936767578125,4.045249938964844,-1.1540374755859375,-3.2404625415802
1697724231430355700,1.470355712890625,3.556575059890747,-0.5076500177383423,-3.6986124515533447
1697724231439774200,1.479774169921875,2.540174961090088,-0.7507500052452087,-2.55145001411438
1697724231449193200,1.489193115234375,1.5713499784469604,-1.36537504196167,-0.5112249851226807
1697724231458612000,1.498612060546875,1.0471999645233154,-1.4227124452590942,1.5107125043869019
1697724231468031000,1.508031005859375,0.8383374810218811,-1.2443749904632568,2.0458624362945557
1697724231477450000,1.517449951171875,0.9189124703407288,-0.8241750001907349,1.6829999685287476
1697724231486868700,1.52686865234375,1.29277503490448,-0.5956500172615051,1.046512484550476
1697724231496287700,1.536287841796875,1.9280250072479248,-0.27431249618530273,0.40012499690055847
1697724231505706500,1.54570654296875,2.309312582015991,0.2461249977350235,-0.009074999950826168
1697724231515125200,1.555125244140625,2.013550043106079,0.9974250197410583,-0.33412501215934753
1697724231524544300,1.564544189453125,1.9292625188827515,2.0347249507904053,-0.9803749918937683
1697724231533963300,1.57396337890625,2.025787591934204,2.566162586212158,-1.5130499601364136
1697724231543382000,1.583382080078125,0.6452875137329102,3.1831250190734863,-1.0194250345230103
1697724231552800800,1.59280078125,-0.9685499668121338,3.427462577819824,-0.7482749819755554
1697724231562219500,1.602219482421875,-1.5122250318527222,3.1341750621795654,-0.5735124945640564
1697724231571638500,1.611638427734375,-1.6369374990463257,2.53439998626709,-0.37564998865127563
1697724231581057300,1.621057373046875,-1.6051750183105469,1.6913875341415405,-0.20707499980926514
1697724231590476000,1.63047607421875,-1.3681249618530273,0.05555000156164169,-0.3279374837875366
1697724231599895000,1.63989501953125,-0.9587875008583069,-1.9701000452041626,-0.657800018787384
1697724231609314000,1.64931396484375,-0.1256749927997589,-3.376312494277954,-0.9400874972343445
1697724231618732800,1.65873291015625,0.9751499891281128,-3.8979873657226562,-1.046375036239624
1697724231628151800,1.66815185546875,2.0880749225616455,-3.717175006866455,-0.9400874972343445
1697724231637570600,1.677570556640625,3.085087537765503,-3.4068374633789062,-0.8020374774932861
1697724231646989300,1.6869892578125,3.717862367630005,-2.7201623916625977,-0.6028000116348267
1697724231656408300,1.696408203125,3.8644375801086426,-1.015987515449524,-0.04936249926686287
1697724231665827300,1.705827392578125,3.73009991645813,1.121999979019165,0.505174994468689
1697724231675246000,1.71524609375,3.7496249675750732,2.1507749557495117,0.2780250012874603
1697724231684665000,1.7246650390625,4.139437675476074,2.605212450027466,-0.4049375057220459
1697724231694083600,1.73408349609375,5.028787612915039,2.7909750938415527,-1.4898124933242798
1697724231703502800,1.7435029296875,5.76303768157959,2.6565001010894775,-2.5599749088287354
1697724231712921600,1.752921630859375,6.314000129699707,1.8196749687194824,-2.9167873859405518
1697724231722340400,1.76234033203125,6.469237327575684,-0.016637500375509262,-2.594212532043457
1697724231731759400,1.77175927734375,6.514337539672852,-1.558424949645996,-2.1238250732421875
1697724231741178000,1.78117822265625,6.712337493896484,-2.3427250385284424,-1.7171000242233276
1697724231750596900,1.790596923828125,7.141062259674072,-2.477062463760376,-1.3994749784469604
1697724231760015600,1.800015625,7.308537483215332,-2.89739990234375,-1.0903749465942383
1697724231769434600,1.8094345703125,7.67140007019043,-4.27913761138916,-0.6675624847412109
1697724231778853600,1.818853515625,8.8173246383667,-6.0090250968933105,-0.2815999984741211
1697724231788272400,1.8282724609375,9.511287689208984,-7.31871223449707,0.2890250086784363
1697724231797691400,1.83769140625,9.043375015258789,-8.057912826538086,0.7752249836921692
1697724231807110100,1.847110107421875,7.621212482452393,-7.471475124359131,0.08249999582767487
1697724231816529000,1.85652880859375,5.508937358856201,-3.8368000984191895,-2.44035005569458
1697724231825948000,1.865947998046875,3.9194374084472656,-1.7489999532699585,-4.1457624435424805
1697724231835366700,1.87536669921875,2.995850086212158,-0.43683749437332153,-5.3894500732421875
1697724231844785700,1.88478564453125,2.5756499767303467,0.6700375080108643,-6.082174777984619
1697724231854204200,1.8942041015625,2.294600009918213,1.6108125448226929,-6.295987606048584
1697724231863623400,1.90362353515625,1.9989750385284424,2.0957748889923096,-6.090837478637695
1697724231873042000,1.9130419921875,1.6898750066757202,2.6089251041412354,-5.429874897003174
1697724231882461000,1.9224609375,1.2047749757766724,3.390749931335449,-4.217949867248535
1697724231891880000,1.9318798828125,0.49623748660087585,3.5727999210357666,-2.865499973297119
1697724231901298700,1.941298583984375,-0.0424874983727932,2.9265499114990234,-1.6388624906539917
1697724231910717400,1.950717529296875,-0.34306249022483826,2.0053000450134277,-0.4977499842643738
1697724231920136200,1.96013623046875,-0.533637523651123,1.196524977684021,0.43312498927116394
1697724231929555200,1.96955517578125,-0.6986374855041504,0.5124624967575073,0.9425625205039978
1697724231938974000,1.978973876953125,-0.8500249981880188,0.19593749940395355,0.9865624904632568
1697724231948393000,1.98839306640625,-0.9747374653816223,0.8776624798774719,0.41731250286102295
1697724231957812000,1.99781201171875,-0.9355499744415283,2.7066874504089355,-0.6419875025749207
1697724231967230700,2.007230712890625,-0.7657374739646912,4.259474754333496,-1.5655750036239624
1697724231976649500,2.0166494140625,-0.42611250281333923,4.897200107574463,-2.2387750148773193
1697724231986068200,2.026068115234375,-0.049912501126527786,4.000424861907959,-2.852025032043457
1697724231995487200,2.0354873046875,0.14561249315738678,2.0933001041412354,-3.31746244430542
1697724232004906200,2.04490625,0.21037499606609344,0.5564625263214111,-3.6510374546051025
1697724232014325000,2.054324951171875,0.22618749737739563,0.1153625026345253,-3.957662582397461
1697724232023744000,2.063743896484375,0.3777124881744385,0.2180749922990799,-4.223999977111816
1697724232033162800,2.073162841796875,0.455949991941452,0.7530875205993652,-4.214237689971924
1697724232042581500,2.08258154296875,0.40094998478889465,1.5265250205993652,-3.974712371826172
1697724232052000300,2.092000244140625,0.2909500002861023,2.0237250328063965,-3.6558499336242676
1697724232061419300,2.101419189453125,0.18466250598430634,1.987012505531311,-3.48122501373291
1697724232070838000,2.110838134765625,0.060087498277425766,1.349287509918213,-3.7096123695373535
1697724232080257000,2.120257080078125,-0.05843750014901161,0.9741874933242798,-4.162950038909912
1697724232089675800,2.12967578125,-0.1354375034570694,0.6773250102996826,-4.700437545776367
1697724232099094500,2.139094482421875,-0.2147749960422516,0.5149375200271606,-5.129300117492676
1697724232108513500,2.148513427734375,-0.20253749191761017,0.7628499865531921,-5.233112335205078
1697724232117932300,2.157932373046875,-0.1256749927997589,0.9314249753952026,-5.119537353515625
1697724232127351300,2.167351318359375,-0.022962499409914017,0.7873250246047974,-4.883725166320801
1697724232136770000,2.17677001953125,0.1676124930381775,0.5674625039100647,-4.511099815368652
1697724232146188800,2.186188720703125,0.37523749470710754,0.32436248660087585,-4.142187595367432
1697724232155607800,2.19560791015625,0.5255249738693237,0.16307500004768372,-3.7731375694274902
1697724232165026800,2.20502685546875,0.6245250105857849,0.18012499809265137,-3.328462600708008
1697724232174445600,2.214445556640625,0.6819999814033508,0.28036248683929443,-2.882550001144409
1697724232183864300,2.2238642578125,0.7235249876976013,0.5002250075340271,-2.4501125812530518
1697724232193283300,2.233283447265625,0.685575008392334,0.46722498536109924,-2.084774971008301
1697724232202702000,2.2427021484375,0.5817624926567078,0.46117499470710754,-1.7451499700546265
1697724232212120800,2.252120849609375,0.4632374942302704,0.3096500039100647,-1.492287516593933
1697724232221539800,2.261539794921875,0.35089999437332153,0.13859999179840088,-1.2857625484466553
1697724232230958600,2.27095849609375,0.2751374840736389,0.14836250245571136,-1.0609500408172607
1697724232240377600,2.280377685546875,0.20184999704360962,0.11783749610185623,-0.859375
1697724232249796400,2.28979638671875,0.1504250019788742,0.1288374960422516,-0.6542249917984009
1697724232259215000,2.299215087890625,0.10656250268220901,0.18507499992847443,-0.4244624972343445
1697724232268633900,2.3086337890625,0.09556250274181366,0.26936250925064087,-0.1886499971151352
1697724232278052900,2.318052978515625,0.04661250114440918,0.1886499971151352,-0.03231250122189522
1697724232287471900,2.327471923828125,-0.008387500420212746,0.22536249458789825,0.10573749989271164
1697724232296890400,2.336890380859375,-0.05224999785423279,0.25341248512268066,0.2217874974012375
1697724232306309400,2.346309326171875,-0.08167500048875809,0.26083749532699585,0.3110249936580658
1697724232315728100,2.35572802734375,-0.1280124932527542,0.20817500352859497,0.3770250082015991
1697724232325147100,2.365147216796875,-0.18301250040531158,0.09088750183582306,0.43931248784065247
1697724232334566100,2.374566162109375,-0.22948749363422394,-0.06902500241994858,0.5150749683380127
1697724232343985000,2.38398486328125,-0.24296249449253082,-0.16926249861717224,0.5565999746322632
1697724232353404000,2.39340380859375,-0.2330625057220459,-0.17297500371932983,0.5358374714851379
1697724232362822700,2.40282275390625,-0.19030000269412994,-0.1264999955892563,0.5016000270843506
1697724232372241400,2.412241455078125,-0.20996250212192535,0.023787500336766243,0.4636499881744385
1697724232381660200,2.42166015625,-0.26372501254081726,0.13255000114440918,0.47464999556541443
1697724232391079200,2.4310791015625,-0.27582499384880066,-0.4563624858856201,0.49665001034736633
1697724232400498000,2.440497802734375,-0.33082500100135803,-1.2309000492095947,0.5504124760627747
1697724232409917000,2.4499169921875,-0.28806251287460327,-1.2601875066757202,0.7104625105857849
1697724232419335700,2.459335693359375,-0.3260124921798706,-0.9340375065803528,0.5651249885559082
1697724232428754700,2.468754638671875,-0.30524998903274536,-0.7496500015258789,0.34402498602867126
1697724232438173400,2.47817333984375,-0.1671999990940094,-1.0793750286102295,0.27678748965263367
1697724232447592200,2.48759228515625,0.0002749999985098839,-1.549762487411499,0.2975499927997589
1697724232457011200,2.49701123046875,-0.14024999737739563,-1.61947500705719,0.5906999707221985
1697724232466430200,2.50643017578125,-0.43353748321533203,-1.35794997215271,1.0648000240325928
1697724232475849000,2.515848876953125,-0.5348749756813049,-1.287137508392334,1.527762532234192
1697724232485267700,2.525267822265625,-0.5031124949455261,-1.195562481880188,1.939574956893921
1697724232494686700,2.534686767578125,-0.4676375091075897,-1.0867999792099,2.346299886703491
1697724232504105500,2.54410546875,-0.4786374866962433,-0.9242749810218811,2.7581124305725098
1697724232513524500,2.5535244140625,-0.5018749833106995,-0.8057500123977661,3.0537374019622803
1697724232522943000,2.56294287109375,-0.4883999824523926,-0.7556999921798706,3.226024866104126
1697724232532362000,2.572362060546875,-0.4628250002861023,-0.802174985408783,3.4263625144958496
1697724232541780700,2.58178076171875,-0.45663750171661377,-0.7519875168800354,3.583937406539917
1697724232551199700,2.59119970703125,-0.45787498354911804,-0.7092249989509583,3.6694624423980713
1697724232560618800,2.60061865234375,-0.4591124951839447,-0.6774625182151794,3.73903751373291
1697724232570037500,2.61003759765625,-0.4395875036716461,-0.6433625221252441,3.8392748832702637
1697724232579456300,2.619456298828125,-0.3993000090122223,-0.6029375195503235,3.967562437057495
1697724232588875000,2.628875,-0.39077499508857727,-0.5516499876976013,4.133662700653076
1697724232598294000,2.6382939453125,-0.43834999203681946,-0.43683749437332153,4.349949836730957
1697724232607713000,2.647713134765625,-0.42006251215934753,-0.34759998321533203,4.539287567138672
1697724232617131800,2.6571318359375,-0.3577750027179718,-0.2877874970436096,4.657812595367432
1697724232626550800,2.66655078125,-0.24529999494552612,-0.21326249837875366,4.688337326049805
1697724232635969500,2.675969482421875,-0.12072499841451645,-0.11302500218153,4.623575210571289
1697724232645388300,2.68538818359375,0.0038499999791383743,-0.07026249915361404,4.436712265014648
1697724232654807300,2.694807373046875,0.16885000467300415,-0.15468749403953552,4.122662544250488
1697724232664226000,2.70422607421875,0.37523749470710754,-0.07026249915361404,3.7537500858306885
1697724232673644800,2.713644775390625,0.48028749227523804,0.009074999950826168,3.243074893951416
1697724232683063600,2.7230634765625,0.5022875070571899,0.07012499868869781,2.6848249435424805
1697724232692482600,2.732482666015625,0.5768125057220459,-0.10821250081062317,2.2254374027252197
1697724232701901600,2.741901611328125,0.6758124828338623,-0.4661250114440918,1.8662874698638916
1697724232711320300,2.7513203125,0.6465250253677368,-1.2443749904632568,1.2053250074386597
1697724232720739000,2.760739013671875,0.777287483215332,-1.221137523651123,1.0195624828338623
1697724232730158000,2.770157958984375,0.9690999984741211,-0.9915124773979187,1.0782749652862549
1697724232739576800,2.779576904296875,0.9909625053405762,-0.8167499899864197,1.1100374460220337
1697724232748995600,2.78899560546875,0.9153375029563904,-0.7789375185966492,1.08308744430542
1697724232758414300,2.798414306640625,0.8333874940872192,-0.8729875087738037,1.029325008392334
1697724232767833300,2.807833251953125,0.7882875204086304,-0.9535624980926514,1.0025124549865723
1697724232777252400,2.81725244140625,0.7185750007629395,-0.9682750105857849,0.9512249827384949
1697724232786671000,2.826671142578125,0.6428124904632568,-0.9670374989509583,0.8607500195503235
1697724232796089900,2.83608984375,0.5805249810218811,-1.0147500038146973,0.7556999921798706
1697724232805508900,2.8455087890625,0.5352874994277954,-1.091612458229065,0.6542249917984009
1697724232814928000,2.854927978515625,0.48276248574256897,-1.1650375127792358,0.5381749868392944
1697724232824346600,2.8643466796875,0.4156624972820282,-1.2321374416351318,0.46488749980926514
1697724232833765400,2.873765380859375,0.3679499924182892,-1.3054250478744507,0.47341248393058777
1697724232843184400,2.883184326171875,0.3264249861240387,-1.3861374855041504,0.5271750092506409
1697724232852603100,2.89260302734375,0.28737500309944153,-1.4569499492645264,0.6103624701499939
1697724232862022000,2.90202197265625,0.25189998745918274,-1.474137544631958,0.7006999850273132
1697724232871441000,2.91144091796875,0.21285000443458557,-1.4936624765396118,0.7899374961853027
1697724232880859600,2.920859619140625,0.16032500565052032,-1.5999499559402466,0.8570374846458435
1697724232890278700,2.930278564453125,0.043037500232458115,-1.624287486076355,0.9145125150680542
1697724232899697400,2.939697509765625,-0.06943749636411667,-1.5827624797821045,0.954800009727478
1697724232909116200,2.9491162109375,-0.1377750039100647,-1.4729000329971313,0.9743250012397766
1697724232918535200,2.95853515625,-0.19648750126361847,-1.2993749380111694,1.0073250532150269
1697724232927954000,2.967953857421875,-0.2367749959230423,-1.178375005722046,1.0818500518798828
1697724232937372700,2.97737255859375,-0.24901250004768372,-1.1442749500274658,1.1966625452041626
1697724232946791700,2.986791748046875,-0.21972499787807465,-1.155137538909912,1.300612449645996
1697724232956210700,2.996210693359375,-0.22220000624656677,-1.1320375204086304,1.3641375303268433
1697724232965629400,3.00562939453125,-0.2868250012397766,-1.033037543296814,1.366612434387207
1697724232975048200,3.015048095703125,-0.3503499925136566,-0.8754624724388123,1.3213750123977661
1697724232984467000,3.024467041015625,-0.3772999942302704,-0.7104625105857849,1.2431374788284302
1697724232993886000,3.033885986328125,-0.3503499925136566,-0.5931749939918518,1.1588499546051025
1697724233003305000,3.043304931640625,-0.30758750438690186,-0.5736500024795532,1.1100374460220337
1697724233012723700,3.0527236328125,-0.29672500491142273,-0.7068874835968018,1.08308744430542
1697724233022142700,3.062142822265625,-0.27953749895095825,-0.8559374809265137,1.0685124397277832
1697724233031561500,3.0715615234375,-0.2624875009059906,-0.9437999725341797,1.029325008392334
1697724233040980200,3.080980224609375,-0.26372501254081726,-0.9829875230789185,0.963325023651123
1697724233050399200,3.090399169921875,-0.2722499966621399,-0.993987500667572,0.9132750034332275
1697724233059818000,3.09981787109375,-0.25753748416900635,-0.9622250199317932,0.8998000025749207
1697724233069236700,3.10923681640625,-0.24296249449253082,-0.8888000249862671,0.8962249755859375
1697724233078655500,3.118655517578125,-0.2147749960422516,-0.8265125155448914,0.8705124855041504
1697724233088074500,3.128074462890625,-0.18672500550746918,-0.7239375114440918,0.8522250056266785
1697724233097493200,3.1374931640625,-0.1769624948501587,-0.6249374747276306,0.8339374661445618
1697724233106912300,3.146912353515625,-0.20996250212192535,-0.5003625154495239,0.8119375109672546
1697724233116331000,3.1563310546875,-0.26001250743865967,-0.3647874891757965,0.7739874720573425
1697724233125749800,3.165749755859375,-0.3125374913215637,-0.21697500348091125,0.679937481880188
1697724233135168800,3.175168701171875,-0.30758750438690186,-0.09102500230073929,0.5248374938964844
1697724233144587800,3.184587890625,-0.2307250052690506,-0.006737499963492155,0.284074991941452
1697724233154006500,3.194006591796875,-0.049912501126527786,0.17159999907016754,0.014162499457597733
1697724233163425500,3.203425537109375,0.09913749992847443,0.4171749949455261,-0.2595999836921692
1697724233172844300,3.21284423828125,0.18713749945163727,0.5674625039100647,-0.47341248393058777
1697724233182263000,3.222262939453125,0.27761250734329224,0.6700375080108643,-0.5649874806404114
1697724233191681800,3.231681884765625,0.39476248621940613,0.7005624771118164,-0.6125624775886536
1697724233201100800,3.241100830078125,0.39118748903274536,0.6162750124931335,-0.7408499717712402
1697724233210519800,3.250519775390625,0.2849000096321106,0.5857499837875366,-0.9571374654769897
1697724233219938300,3.259938232421875,0.23485000431537628,0.723800003528595,-1.1867624521255493
1697724233229357300,3.269357421875,0.24461250007152557,0.9168499708175659,-1.375
1697724233238776300,3.2787763671875,0.2591874897480011,1.020662546157837,-1.5142874717712402
1697724233248195000,3.288195068359375,0.2591874897480011,0.9791374802589417,-1.6425750255584717
1697724233257613800,3.29761376953125,0.24089999496936798,0.8936125040054321,-1.8111499547958374
1697724233267032600,3.307032470703125,0.21642500162124634,0.9913749694824219,-2.0249624252319336
1697724233276451600,3.31645166015625,0.17242500185966492,1.2979999780654907,-2.2680625915527344
1697724233285870300,3.325870361328125,0.08813749998807907,1.6926250457763672,-2.5062124729156494
1697724233295289300,3.335289306640625,0.03684999793767929,2.0762500762939453,-2.6516873836517334
1697724233304708000,3.3447080078125,0.043037500232458115,2.4219250679016113,-2.761549949645996
1697724233314126800,3.354126953125,0.1321374922990799,2.8007373809814453,-2.7090249061584473
1697724233323545900,3.3635458984375,0.281187504529953,3.1756999492645264,-2.428112506866455
1697724233332964900,3.37296484375,0.3899500072002411,3.5422749519348145,-1.9467250108718872
1697724233342383600,3.382383544921875,0.3630000054836273,3.767087459564209,-1.3908125162124634
1697724233351802400,3.39180224609375,0.22618749737739563,3.687612533569336,-0.9303249716758728
1697724233361221000,3.40122119140625,0.01979999989271164,3.3699874877929688,-0.6272749900817871
1697724233370640000,3.410639892578125,-0.18548749387264252,2.877737522125244,-0.4782249927520752
1697724233380059000,3.420058837890625,-0.3492499887943268,2.3034000396728516,-0.4086500108242035
1697724233389477600,3.4294775390625,-0.41635000705718994,1.6633374691009521,-0.36822500824928284
1697724233398896400,3.438896484375,-0.3993000090122223,1.0048500299453735,-0.36822500824928284
1697724233408315100,3.448315185546875,-0.3675374984741211,0.4244624972343445,-0.3731749951839447
1697724233417734400,3.457734375,-0.3577750027179718,0.009074999950826168,-0.382937490940094
1697724233427153400,3.4671533203125,-0.33082500100135803,-0.2572624981403351,-0.4109874963760376
1697724233436572200,3.476572265625,-0.3198249936103821,-0.19249999523162842,-0.4207499921321869
1697724233445991000,3.485990966796875,-0.4138749837875366,1.6278624534606934,-0.780037522315979
1697724233455409700,3.49540966796875,-0.6534000039100647,4.32423734664917,-1.471524953842163
1697724233464828700,3.50482861328125,-0.7646374702453613,4.869012355804443,-2.002962589263916
1697724233474247400,3.514247314453125,-0.7084000110626221,3.371224880218506,-2.0054373741149902
1697724233483666400,3.52366650390625,-0.6179249882698059,1.2564749717712402,-1.781862497329712
1697724233493085200,3.533085205078125,-0.6069250106811523,-0.060499999672174454,-1.708437442779541
1697724233502504200,3.542504150390625,-0.6461125016212463,-0.3268375098705292,-1.7524374723434448
1697724233511923000,3.5519228515625,-0.6791124939918518,0.07878749817609787,-1.7916250228881836
1697724233521341700,3.561341796875,-0.6399250030517578,0.6223250031471252,-1.795199990272522
1697724233530760700,3.5707607421875,-0.5654000043869019,1.0023750066757202,-1.781862497329712
1697724233540179200,3.58017919921875,-0.5068249702453613,0.9803749918937683,-1.8306750059127808
1697724233549598200,3.58959814453125,-0.595924973487854,0.6102250218391418,-1.9052000045776367
1697724233559017000,3.599016845703125,-0.5849249958992004,0.31817498803138733,-1.9406750202178955
1697724233568436000,3.60843603515625,-0.5055875182151794,-0.006737499963492155,-1.9442499876022339
1697724233577855000,3.61785498046875,-0.39434999227523804,-0.2853125035762787,-1.9199124574661255
1697724233587273700,3.627273681640625,-0.2624875009059906,-0.40878748893737793,-1.878250002861023
1697724233596692500,3.6366923828125,-0.15619999170303345,-0.49431249499320984,-1.8599624633789062
1697724233606111200,3.646111328125,-0.11824999749660492,-0.5248374938964844,-1.8269624710083008
1697724233615530200,3.6555302734375,-0.1574375033378601,-0.469837486743927,-1.6645749807357788
1697724233624949200,3.66494921875,-0.22220000624656677,-0.4661250114440918,-1.3737624883651733
1697724233634368300,3.6743681640625,-0.2527250051498413,-0.47107499837875366,-0.9523249864578247
1697724233643787000,3.683787109375,-0.24406249821186066,-0.5676000118255615,-0.5392749905586243
1697724233653205800,3.693205810546875,-0.195250004529953,-0.6543624997138977,-0.18383750319480896
1697724233662624500,3.70262451171875,-0.1354375034570694,-0.7826499938964844,0.09226249903440475
1697724233672043500,3.71204345703125,-0.1317249983549118,-0.9047499895095825,0.30855000019073486
1697724233681462000,3.7214619140625,-0.1597750037908554,-0.9952250123023987,0.4954124987125397
1697724233690881000,3.730881103515625,-0.1695374995470047,-1.0513249635696411,0.6811749935150146
1697724233700300000,3.740300048828125,-0.14877499639987946,-1.1185624599456787,0.8802750110626221
1697724233709718800,3.74971875,-0.11591249704360962,-1.1527999639511108,1.0708500146865845
1697724233719137500,3.759137451171875,-0.1317249983549118,-1.0110374689102173,1.2468500137329102
1697724233728556500,3.768556640625,-0.11343749612569809,-0.7654625177383423,1.4178999662399292
1697724233737975600,3.7779755859375,0.028324998915195465,-0.6384124755859375,1.5302374362945557
1697724233747394300,3.787394287109375,0.2457125037908554,-0.7312250137329102,1.5057624578475952
1697724233756813000,3.79681298828125,0.40700000524520874,-0.7178875207901001,1.423949956893921
1697724233766231800,3.806231689453125,0.38871249556541443,-0.7044125199317932,1.4434750080108643
1697724233775650600,3.815650634765625,0.14685000479221344,-0.802174985408783,1.6267625093460083
1697724233785069800,3.82506982421875,-0.16596250236034393,-0.6226000189781189,1.8356249332427979
1697724233794488600,3.834488525390625,-0.24172499775886536,-0.4637874960899353,1.9370999336242676
1697724233803907300,3.8439072265625,-0.040150001645088196,-0.4881249964237213,1.9016250371932983
1697724233813326300,3.853326416015625,0.11508750170469284,-0.44536250829696655,1.7880499362945557
1697724233822745000,3.8627451171875,0.12113749980926514,-0.4258374869823456,1.681762456893921
1697724233832163800,3.872163818359375,0.12361250072717667,-0.7654625177383423,1.7599999904632568
1697724233841582600,3.88158251953125,0.1676124930381775,-1.1002750396728516,1.9810999631881714
1697724233851001600,3.891001708984375,0.21518750488758087,-1.1540374755859375,2.200962543487549
1697724233860420400,3.90042041015625,0.22866250574588776,-1.0452749729156494,2.346299886703491
1697724233869839000,3.909839111328125,0.21642500162124634,-0.8277499675750732,2.39882493019104
1697724233879258000,3.919258056640625,0.18342499434947968,-0.4503124952316284,2.3255374431610107
1697724233888677000,3.928677001953125,0.20666250586509705,-0.0471624992787838,2.1447250843048096
1697724233898095600,3.938095703125,0.281187504529953,0.15331250429153442,1.9188125133514404
1697724233907515000,3.947514892578125,0.3679499924182892,0.09336250275373459,1.7062374353408813
1697724233916933600,3.95693359375,0.49994999170303345,-0.24873749911785126,1.5351874828338623
1697724233926352400,3.966352294921875,0.585474967956543,-0.7972249984741211,1.3556125164031982
1697724233935771100,3.975771240234375,0.6415749788284302,-1.1978999376296997,1.1539000272750854
1697724233945190000,3.98518994140625,0.6550499796867371,-1.3983750343322754,0.9315624833106995
1697724233954609000,3.99460888671875,0.62933748960495,-1.4948999881744385,0.7471749782562256
1697724233964027600,4.004027587890625,0.5634750127792358,-1.5657124519348145,0.5944125056266785
1697724233973447000,4.013447021484375,0.42666250467300415,-1.646287441253662,0.469837486743927
1697724233982865700,4.02286572265625,0.3484250009059906,-1.6964750289916992,0.4246000051498413
1697724233992284400,4.032284423828125,0.30937498807907104,-1.719575047492981,0.3988874852657318
1697724234001703200,4.041703125,0.29218751192092896,-1.7135249376296997,0.358599990606308
1697724234011122000,4.051121826171875,0.28971248865127563,-1.63652503490448,0.3330250084400177
1697724234020541000,4.060541015625,0.24695000052452087,-1.5644749402999878,0.3305499851703644
1697724234029960000,4.0699599609375,0.16637499630451202,-1.5791875123977661,0.32436248660087585
1697724234039378700,4.079378662109375,0.07108750194311142,-1.7380000352859497,0.3073124885559082
1697724234048797700,4.088797607421875,-0.02419999986886978,-1.9640499353408813,0.25478750467300415
1697724234058216400,4.098216552734375,-0.07672499865293503,-2.0568625926971436,0.2340250015258789
1697724234067635200,4.10763525390625,-0.10848750174045563,-2.040912389755249,0.27678748965263367
1697724234077054000,4.117053955078125,-0.1377750039100647,-1.9346250295639038,0.358599990606308
1697724234086473000,4.126472900390625,-0.16596250236034393,-1.736762523651123,0.4856500029563904
1697724234095892000,4.13589208984375,-0.195250004529953,-1.4851374626159668,0.6224625110626221
1697724234105310700,4.145310791015625,-0.21972499787807465,-1.2993749380111694,0.7177500128746033
1697724234114729700,4.154729736328125,-0.23925000429153442,-1.2053250074386597,0.7617499828338623
1697724234124148500,4.1641484375,-0.23553749918937683,-1.1308000087738037,0.7679374814033508
1697724234133567200,4.173567138671875,-0.2404875010251999,-1.0537999868392944,0.7556999921798706
1697724234142986200,4.182986328125,-0.2722499966621399,-0.9927499890327454,0.7422249913215637
1697724234152405000,4.192405029296875,-0.3100624978542328,-0.9622250199317932,0.727649986743927
1697724234161823700,4.20182373046875,-0.3040125072002411,-0.9340375065803528,0.736175000667572
1697724234171242800,4.21124267578125,-0.2624875009059906,-0.9585124850273132,0.7495124936103821
1697724234180661500,4.22066162109375,-0.21972499787807465,-1.0367499589920044,0.7556999921798706
1697724234190080300,4.230080322265625,-0.20377500355243683,-1.1222749948501587,0.754462480545044
1697724234199499000,4.2394990234375,-0.1574375033378601,-1.1943249702453613,0.7214624881744385
1697724234208918000,4.24891796875,-0.05719999969005585,-1.178375005722046,0.6494125127792358
1697724234218336800,4.258336669921875,-0.0009624999947845936,-1.029325008392334,0.5491750240325928
1697724234227756000,4.267756103515625,0.021037500351667404,-0.7471749782562256,0.45512500405311584
1697724234237174500,4.277174560546875,0.05403750017285347,-0.4637874960899353,0.3988874852657318
1697724234246593300,4.28659326171875,0.10532499849796295,-0.3488374948501587,0.33178749680519104
1697724234256012500,4.296012451171875,0.13461250066757202,-0.23649999499320984,0.30855000019073486
1697724234265431300,4.305431396484375,0.1480875015258789,-0.10216250270605087,0.31226250529289246
1697724234274850000,4.31485009765625,0.12966249883174896,-0.022687500342726707,0.3170749843120575
1697724234284268800,4.324268798828125,0.052799999713897705,-0.018975000828504562,0.35007500648498535
1697724234293687800,4.333687744140625,-0.025437500327825546,-0.0812624990940094,0.41731250286102295
1697724234303106800,4.34310693359375,-0.03519999980926514,-0.12773749232292175,0.5003625154495239
1697724234312525600,4.352525634765625,0.011274999938905239,-0.15097500383853912,0.5504124760627747
1697724234321944600,4.361944580078125,0.030799999833106995,-0.15578749775886536,0.5504124760627747
1697724234331363000,4.371363037109375,0.02227500081062317,-0.19978749752044678,0.489362508058548
1697724234340782000,4.380781982421875,0.010037500411272049,-0.2938374876976013,0.40012499690055847
1697724234350200800,4.390200927734375,0.010037500411272049,-0.3928374946117401,0.3158375024795532
1697724234359619800,4.399619873046875,0.013612499460577965,-0.489362508058548,0.22426250576972961
1697724234369038600,4.40903857421875,0.04413750022649765,-0.522362470626831,0.10449999570846558
1697724234378457300,4.418457275390625,0.07356250286102295,-0.3782624900341034,-0.016499999910593033
1697724234387876400,4.42787646484375,0.05637500062584877,-0.03244999796152115,-0.18507499992847443
1697724234397294800,4.437294921875,0.040562499314546585,0.42570000886917114,-0.4012250006198883
1697724234406713900,4.4467138671875,0.08813749998807907,0.8813750147819519,-0.6052749752998352
1697724234416132900,4.4561328125,0.17489999532699585,1.278475046157837,-0.7287499904632568
1697724234425552000,4.4655517578125,0.20061250030994415,1.5850999355316162,-0.7665625214576721
1697724234434970400,4.474970458984375,0.15537500381469727,1.8429124355316162,-0.720087468624115
1697724234444389400,4.484389404296875,0.09184999763965607,1.9967750310897827,-0.6150375008583069
1697724234453808000,4.49380810546875,0.09308750182390213,1.990725040435791,-0.47946250438690186
1697724234463227100,4.50322705078125,0.14066250622272491,1.803725004196167,-0.37070000171661377
1697724234472646000,4.51264599609375,0.16637499630451202,1.4445749521255493,-0.3328875005245209
1697724234482064600,4.522064697265625,0.17118750512599945,1.012137532234192,-0.37070000171661377
1697724234491483600,4.531483642578125,0.17242500185966492,0.5979874730110168,-0.4721750020980835
1697724234500902700,4.540902587890625,0.18108749389648438,0.30717501044273376,-0.6345624923706055
1697724234510321400,4.5503212890625,0.17861250042915344,0.3951750099658966,-0.8960874676704407
1697724234519740200,4.559740234375,0.14685000479221344,1.2185250520706177,-1.3212374448776245
1697724234529159000,4.569158935546875,0.08813749998807907,2.2338249683380127,-1.8551499843597412
1697724234538578000,4.578577880859375,0.01979999989271164,3.20636248588562,-2.4305875301361084
1697724234547996700,4.58799658203125,-0.05348749831318855,4.032187461853027,-3.0083625316619873
1697724234557415400,4.59741552734375,-0.0719124972820282,4.142187595367432,-3.2001750469207764
1697724234566834700,4.606834716796875,-0.0034374999813735485,3.933187484741211,-2.772549867630005
1697724234576253400,4.61625341796875,0.17366249859333038,4.076187610626221,-1.8673875331878662
1697724234585672200,4.625672119140625,0.25189998745918274,4.281337261199951,-0.7970874905586243
1697724234595091000,4.635091064453125,0.008799999952316284,4.175049781799316,0.1106875017285347
1697724234604510000,4.644510009765625,-0.39201250672340393,3.971137523651123,0.815512478351593
1697724234613928700,4.6539287109375,-0.7657374739646912,3.7878499031066895,1.300612449645996
1697724234623347700,4.66334765625,-0.9967374801635742,3.2381250858306885,1.4251874685287476
1697724234632766500,4.672766357421875,-1.094499945640564,2.3523499965667725,1.3176624774932861
1697724234642185200,4.682185302734375,-1.1175999641418457,1.4311000108718872,1.095324993133545
1697724234651604200,4.691604248046875,-1.049262523651123,0.5332249999046326,0.6946499943733215
1697724234661023000,4.70102294921875,-0.8672124743461609,-0.20845000445842743,0.17531250417232513
1697724234670441700,4.710441650390625,-0.6619250178337097,-0.561412513256073,-0.3536500036716461
1697724234679860700,4.71986083984375,-0.533637523651123,-0.4355999827384949,-0.9278500080108643
1697724234689279500,4.729279541015625,-0.4848249852657318,1.7256250381469727,-2.013962507247925
1697724234698698200,4.7386982421875,-0.516587495803833,4.238574981689453,-3.1831250190734863
1697724234708117000,4.748116943359375,-0.5446375012397766,4.303337574005127,-3.8770875930786133
1697724234717535700,4.75753564453125,-0.48963749408721924,1.6974375247955322,-3.8648500442504883
1697724234726955000,4.766955078125,-0.4298250079154968,-0.46860000491142273,-3.45674991607666
1697724234736373800,4.776373779296875,-0.4408249855041504,-1.1308000087738037,-3.0168874263763428
1697724234745792800,4.785792724609375,-0.4151124954223633,-0.754462480545044,-2.5624499320983887
1697724234755211500,4.79521142578125,-0.3797749876976013,-0.05692499876022339,-2.087249994277954
1697724234764630300,4.80463037109375,-0.3480125069618225,0.5002250075340271,-1.695099949836731
1697724234774049000,4.814049072265625,-0.3577750027179718,0.654087483882904,-1.4641000032424927
1697724234783468000,4.823468017578125,-0.36258751153945923,0.5295125246047974,-1.437287449836731
1697724234792886800,4.83288671875,-0.32958748936653137,0.31212499737739563,-1.5778124332427979
1697724234802305800,4.842305908203125,-0.29548749327659607,0.1288374960422516,-1.812387466430664
1697724234811724500,4.851724609375,-0.2527250051498413,-0.1742125004529953,-2.038300037384033
1697724234821143600,4.8611435546875,-0.25148749351501465,-0.6298875212669373,-2.2277750968933105
1697724234830562300,4.870562255859375,-0.11948750168085098,-0.890037477016449,-2.241112470626831
1697724234839981000,4.87998095703125,0.005087499972432852,-0.9267500042915344,-2.0700623989105225
1697724234849399800,4.88939990234375,-0.007149999961256981,-0.8595125079154968,-1.7280999422073364
1697724234858818600,4.898818603515625,-0.05967500060796738,-0.8265125155448914,-1.312712550163269
1697724234868237600,4.908237548828125,-0.1036750003695488,-0.8327000141143799,-0.9058499932289124
1697724234877656600,4.917656494140625,-0.1574375033378601,-0.7594124674797058,-0.5246999859809875
1697724234887075600,4.92707568359375,-0.1597750037908554,-0.6286500096321106,-0.1788875013589859
1697724234896494300,4.936494384765625,-0.11591249704360962,-0.5284125208854675,0.12278749793767929
1697724234905913000,4.9459130859375,-0.0742499977350235,-0.5688375234603882,0.37207499146461487
1697724234915332000,4.95533203125,-0.04496249929070473,-0.7092249989509583,0.5748875141143799
1697724234924750800,4.964750732421875,-0.025437500327825546,-0.8119375109672546,0.7349374890327454
1697724234934169900,4.974169921875,0.006324999965727329,-0.7764624953269958,0.8827499747276306
1697724234943588600,4.983588623046875,0.11508750170469284,-0.35749998688697815,1.0110374689102173
1697724234953007600,4.993007568359375,0.3312374949455261,-0.07150000333786011,1.121037483215332
1697724234962426400,5.00242626953125,0.611050009727478,-0.8362749814987183,1.300612449645996
1697724234971845000,5.01184521484375,0.8285750150680542,-1.5657124519348145,1.4862375259399414
1697724234981264000,5.021263916015625,0.6305750012397766,-1.6035250425338745,1.6218124628067017
1697724234990682600,5.0306826171875,0.17118750512599945,-1.5131875276565552,1.8808624744415283
1697724235000101600,5.0401015625,-0.29548749327659607,-0.8705124855041504,2.273012399673462
1697724235009520400,5.049520263671875,-0.29906249046325684,-0.1839749962091446,2.5895373821258545
1697724235018939100,5.058939208984375,-0.020487500354647636,0.02983750030398369,2.7421624660491943
1697724235028358100,5.068358154296875,0.1321374922990799,0.26922500133514404,2.751924991607666
1697724235037777000,5.07777685546875,0.1260875016450882,0.5112249851226807,2.6640625
1697724235047196000,5.08719580078125,0.1480875015258789,0.2961750030517578,2.5882999897003174
1697724235056614700,5.09661474609375,0.20418749749660492,-0.2877874970436096,2.561349868774414
1697724235066033400,5.106033447265625,0.25066250562667847,-0.6628875136375427,2.505112409591675
1697724235075452400,5.115452392578125,0.2971374988555908,-0.4380750060081482,2.3182499408721924
1697724235084871200,5.12487109375,0.31542500853538513,0.006599999964237213,2.083674907684326
1697724235094290000,5.1342900390625,0.3959999978542328,0.07507500052452087,1.9309124946594238
1697724235103709000,5.143708984375,0.5597624778747559,-0.2817375063896179,1.86986243724823
1697724235113127700,5.153127685546875,0.6721000075340271,-0.5468375086784363,1.7868125438690186
1697724235122546700,5.162546630859375,0.7455250024795532,-0.6616500020027161,1.5779500007629395
1697724235131965700,5.171965576171875,0.7601000070571899,-0.7666999697685242,1.3103749752044678
1697724235141384200,5.18138427734375,0.7870500087738037,-0.9890375137329102,1.0305625200271606
1697724235150803200,5.19080322265625,0.8273375034332275,-1.195562481880188,0.7519875168800354
1697724235160222000,5.200221923828125,0.8701000213623047,-1.3580875396728516,0.494174987077713
1697724235169641000,5.209640869140625,0.8823375105857849,-1.5119500160217285,0.2535499930381775
1697724235179059700,5.219059814453125,0.8333874940872192,-1.646287441253662,0.03492499887943268
1697724235188478700,5.228478759765625,0.7528125047683716,-1.7635749578475952,-0.16431249678134918
1697724235197897700,5.237897705078125,0.6795250177383423,-1.8785250186920166,-0.3011249899864197
1697724235207316200,5.247316162109375,0.5658124685287476,-2.0189125537872314,-0.36822500824928284
1697724235216735200,5.2567353515625,0.44618749618530273,-2.2217249870300293,-0.42570000886917114
1697724235226154000,5.266154052734375,0.37290000915527344,-2.3134374618530273,-0.39765000343322754
1697724235235573000,5.275572998046875,0.2971374988555908,-2.3452000617980957,-0.32670000195503235
1697724235244991700,5.28499169921875,0.21037499606609344,-2.370774984359741,-0.26688748598098755
1697724235254410500,5.294410400390625,0.12856249511241913,-2.38919997215271,-0.18012499809265137
1697724235263829500,5.30382958984375,-0.0009624999947845936,-2.387962579727173,-0.07012499868869781
1697724235273248500,5.31324853515625,-0.15372499823570251,-2.2376749515533447,0.055687498301267624
1697724235282667300,5.322667236328125,-0.3040125072002411,-1.960337519645691,0.2059749960899353
1697724235292086000,5.3320859375,-0.4310624897480011,-1.7342875003814697,0.38788750767707825
1697724235301504800,5.3415048828125,-0.47987499833106995,-1.624424934387207,0.5663625001907349
1697724235310923800,5.350923828125,-0.5055875182151794,-1.548662543296814,0.7264124751091003
1697724235320342500,5.360342529296875,-0.5348749756813049,-1.461899995803833,0.8607500195503235
1697724235329761300,5.36976123046875,-0.5751624703407288,-1.392187476158142,0.9340375065803528
1697724235339180000,5.379179931640625,-0.6106374859809875,-1.3188999891281128,0.9670374989509583
1697724235348599000,5.38859912109375,-0.6301624774932861,-1.2333749532699585,0.97308748960495
1697724235358018000,5.39801806640625,-0.6326375007629395,-1.1283249855041504,0.963325023651123
1697724235367436800,5.407436767578125,-0.6338750123977661,-1.0097999572753906,0.9389874935150146
1697724235376855800,5.416855712890625,-0.6424000263214111,-0.8657000064849854,0.9132750034332275
1697724235386274300,5.4262744140625,-0.6424000263214111,-0.7214624881744385,0.890037477016449
1697724235395693300,5.435693359375,-0.5849249958992004,-0.6298875212669373,0.8582749962806702
1697724235405112000,5.445112060546875,-0.5141124725341797,-0.5944125056266785,0.8130375146865845
1697724235414531300,5.45453125,-0.39311251044273376,-0.5418875217437744,0.7739874720573425
1697724235423950000,5.4639501953125,-0.2844874858856201,-0.49678748846054077,0.7141749858856201
1697724235433368800,5.473368896484375,-0.19772499799728394,-0.46131250262260437,0.6518874764442444
1697724235442787600,5.48278759765625,-0.11219999939203262,-0.43078750371932983,0.613937497138977
1697724235452206600,5.49220654296875,-0.03148749843239784,-0.45883750915527344,0.5809375047683716
1697724235461625300,5.501625244140625,0.07590000331401825,-0.5590749979019165,0.5358374714851379
1697724235471044000,5.511044189453125,0.22495000064373016,-0.6458374857902527,0.4881249964237213
1697724235480463000,5.520463134765625,0.2457125037908554,-0.7826499938964844,0.3928374946117401
1697724235489881900,5.5298818359375,0.2591874897480011,-0.8216999769210815,0.3097875118255615
1697724235499300900,5.53930078125,0.2849000096321106,-0.8216999769210815,0.2340250015258789
1697724235508719600,5.5487197265625,0.2909500002861023,-0.810699999332428,0.14973749220371246
1697724235518138400,5.558138427734375,0.2994749844074249,-0.7166500091552734,0.07768750190734863
1697724235527557400,5.567557373046875,0.31171250343322754,-0.5504124760627747,0.026262499392032623
1697724235536976100,5.57697607421875,0.2994749844074249,-0.3562625050544739,-0.007837500423192978
1697724235546395000,5.586394775390625,0.24818749725818634,-0.17668749392032623,-0.005499999970197678
1697724235555813600,5.595813720703125,0.16637499630451202,-0.020212499424815178,0.04097500070929527
1697724235565232400,5.605232421875,0.07232499867677689,0.133650004863739,0.11302500218153
1697724235574651400,5.6146513671875,-0.01691249944269657,0.2546499967575073,0.17531250417232513
1697724235584070400,5.6240703125,-0.09019999951124191,0.3059374988079071,0.18878750503063202
1697724235593489400,5.633489501953125,-0.12443749606609344,0.2937000095844269,0.1387374997138977
1697724235602908000,5.642907958984375,-0.10491249710321426,0.2583625018596649,0.027499999850988388
1697724235612327000,5.652326904296875,-0.037675000727176666,0.24117499589920044,-0.13378749787807465
1697724235621745700,5.66174560546875,0.057612501084804535,0.2924624979496002,-0.32065001130104065
1697724235631164700,5.67116455078125,0.11013749986886978,0.41827499866485596,-0.5002250075340271
1697724235640583200,5.680583251953125,0.11866249889135361,0.566224992275238,-0.6553249955177307
1697724235650002200,5.690002197265625,0.1260875016450882,0.6858500242233276,-0.7922750115394592
1697724235659421200,5.699421142578125,0.14932499825954437,0.7445625066757202,-0.9253749847412109
1697724235668840000,5.70883984375,0.1798499971628189,0.7506124973297119,-1.0731874704360962
1697724235678259000,5.718259033203125,0.2176624983549118,0.8018999695777893,-1.2674750089645386
1697724235687677700,5.727677734375,0.23842500150203705,0.9009000062942505,-1.503287434577942
1697724235697096400,5.737096435546875,0.2311374992132187,0.9717124700546265,-1.7256250381469727
1697724235706515200,5.74651513671875,0.23966249823570251,0.9619500041007996,-1.9284374713897705
1697724235715934200,5.755934326171875,0.23966249823570251,0.9851874709129333,-2.152012586593628
1697724235725353000,5.76535302734375,0.1993750035762787,1.2600499391555786,-2.4476375579833984
1697724235734772000,5.77477197265625,0.16032500565052032,1.7219125032424927,-2.7897374629974365
1697724235744190700,5.784190673828125,0.14066250622272491,2.227637529373169,-2.936312437057495
1697724235753609700,5.793609619140625,0.17242500185966492,2.7652626037597656,-2.7079250812530518
1697724235763028500,5.803028564453125,0.23842500150203705,3.246649980545044,-2.1617748737335205
1697724235772447200,5.812447265625,0.3398999869823456,3.581325054168701,-1.4275250434875488
1697724235781866000,5.821865966796875,0.34966251254081726,3.7388999462127686,-0.7115625143051147
1697724235791285000,5.831284912109375,0.22013749182224274,3.785374879837036,-0.06902500241994858
1697724235800703700,5.840703857421875,-0.005912499967962503,3.6277999877929688,0.4636499881744385
1697724235810122500,5.85012255859375,-0.3540624976158142,3.4469873905181885,0.8582749962806702
1697724235819541200,5.859541259765625,-0.7486875057220459,3.2686500549316406,1.1723250150680542
1697724235828960500,5.86896044921875,-0.9564499855041504,2.9680750370025635,1.3763749599456787
1697724235838379000,5.87837890625,-1.0968375205993652,2.460974931716919,1.436187505722046
1697724235847797800,5.8877978515625,-1.0932625532150269,1.7256250381469727,1.2358499765396118
1697724235857216800,5.897216796875,-1.0700249671936035,1.7402000427246094,0.6701750159263611
1697724235866635800,5.9066357421875,-1.0505000352859497,3.385937452316284,-0.6395124793052673
1697724235876054500,5.916054443359375,-0.9477875232696533,4.401100158691406,-1.9199124574661255
1697724235885473300,5.925473388671875,-0.7719249725341797,3.2979373931884766,-2.7189249992370605
1697724235894892300,5.934892333984375,-0.5776374936103821,0.9766625165939331,-2.9815499782562256
1697724235904311000,5.94431103515625,-0.47753748297691345,-0.3770250082015991,-2.877737522125244
1697724235913730000,5.95372998046875,-0.5361124873161316,-0.39902499318122864,-2.6211624145507812
1697724235923148800,5.963148681640625,-0.5531625151634216,0.0835999995470047,-2.402400016784668
1697724235932567600,5.972567626953125,-0.444537490606308,0.4512749910354614,-2.348637580871582
1697724235941986600,5.981986572265625,-0.38830000162124634,0.7262749671936035,-2.27658748626709
1697724235951405300,5.9914052734375,-0.3480125069618225,0.9278500080108643,-2.1898250579833984
1697724235960824000,6.000823974609375,-0.2722499966621399,0.8300874829292297,-2.2167749404907227
1697724235970243000,6.0102431640625,-0.2209624946117401,0.7163749933242798,-2.235062599182129
1697724235979661800,6.019661865234375,-0.20253749191761017,0.5942749977111816,-2.194775104522705
1697724235989080800,6.029080810546875,-0.20019999146461487,0.4599374830722809,-2.164249897003174
1697724235998499600,6.03849951171875,-0.10848750174045563,0.4610374867916107,-2.1482999324798584
1697724236007918300,6.04791845703125,-0.05719999969005585,0.3242250084877014,-2.169062376022339
1697724236017337300,6.05733740234375,0.04908749833703041,0.14464999735355377,-2.2583000659942627
1697724236026756400,6.06675634765625,0.16513749957084656,-0.08016250282526016,-2.346299886703491
1697724236036175000,6.076175048828125,0.22990000247955322,-0.2059749960899353,-2.307112455368042
1697724236045594000,6.085593994140625,0.25189998745918274,-0.26826250553131104,-2.169062376022339
1697724236055012900,6.095012939453125,0.24818749725818634,-0.32573750615119934,-1.9626749753952026
1697724236064431600,6.104431640625,0.19208750128746033,-0.2560249865055084,-1.6889125108718872
1697724236073850400,6.113850341796875,0.16266250610351562,-0.20350000262260437,-1.4067624807357788
1697724236083269400,6.123269287109375,0.16266250610351562,-0.19373749196529388,-1.0951875448226929
1697724236092688100,6.132688232421875,0.17613749206066132,-0.16926249861717224,-0.7408499717712402
1697724236102107000,6.14210693359375,0.19813749194145203,-0.1742125004529953,-0.3573625087738037
1697724236111526000,6.15152587890625,0.22384999692440033,-0.2817375063896179,0.014162499457597733
1697724236120944600,6.160944580078125,0.2531374990940094,-0.4833124876022339,0.3610749840736389
1697724236130363600,6.17036376953125,0.23718750476837158,-0.679937481880188,0.6824125051498413
1697724236139782400,6.179782470703125,0.1956624984741211,-0.8119375109672546,0.9609875082969666
1697724236149201200,6.189201171875,0.1676124930381775,-0.8962249755859375,1.2053250074386597
1697724236158620200,6.1986201171875,0.17489999532699585,-0.8364124894142151,1.4862375259399414
1697724236168039000,6.208038818359375,0.24089999496936798,-0.8302249908447266,1.8393374681472778
1697724236177457700,6.217457763671875,0.2909500002861023,-1.2553750276565552,2.1862499713897705
1697724236186876400,6.22687646484375,0.25561249256134033,-1.5461875200271606,2.513774871826172
1697724236196295400,6.23629541015625,0.12732499837875366,-0.9976999759674072,2.8129749298095703
1697724236205714400,6.24571435546875,0.03932499885559082,-0.2340250015258789,2.9865000247955322
1697724236215133200,6.25513330078125,-0.062150001525878906,-0.07768750190734863,3.0964999198913574
1697724236224552200,6.26455224609375,-0.15496249496936798,-0.18892499804496765,3.44712495803833
1697724236233971000,6.273970947265625,-0.28806251287460327,-0.5383124947547913,3.82346248626709
1697724236243389700,6.2833896484375,-0.31130000948905945,-0.7288874983787537,3.6939375400543213
1697724236252808400,6.292808349609375,-0.5202999711036682,0.2241249978542328,3.2075998783111572
1697724236262227200,6.302227294921875,-0.6936874985694885,1.563099980354309,2.4318249225616455
1697724236271646200,6.311646240234375,-0.6949250102043152,0.16169999539852142,2.0873875617980957
1697724236281065000,6.32106494140625,-0.516587495803833,-1.1943249702453613,2.1386749744415283
1697724236290483700,6.330483642578125,-0.29301249980926514,-1.1600874662399292,2.0714375972747803
1697724236299902700,6.33990283203125,-0.08167500048875809,-0.6886000037193298,1.9113874435424805
1697724236309321700,6.34932177734375,0.12966249883174896,-0.37331250309944153,1.7880499362945557
1697724236318740500,6.358740478515625,0.38376250863075256,-0.4600749909877777,1.7220499515533447
1697724236328159200,6.3681591796875,0.5817624926567078,-0.7178875207901001,1.6658124923706055
1697724236337578000,6.377577880859375,0.6465250253677368,-0.8277499675750732,1.549762487411499
1697724236346997000,6.3869970703125,0.6500999927520752,-0.7764624953269958,1.3811874389648438
1697724236356416000,6.396416015625,0.6562874913215637,-0.7423624992370605,1.2431374788284302
1697724236365834800,6.405834716796875,0.6928625106811523,-0.8119375109672546,1.2053250074386597
1697724236375253500,6.41525341796875,0.7442874908447266,-0.8827499747276306,1.2406624555587769
1697724236384672500,6.424672607421875,0.7735750079154968,-0.8766999840736389,1.291949987411499
1697724236394091300,6.43409130859375,0.7698624730110168,-0.7862250208854675,1.3384250402450562
1697724236403510000,6.443510009765625,0.6880499720573425,-0.679937481880188,1.3738999366760254
1697724236412928800,6.4529287109375,0.607337474822998,-0.5810750126838684,1.436187505722046
1697724236422348000,6.46234814453125,0.546287477016449,-0.534600019454956,1.524187445640564
1697724236431766800,6.471766845703125,0.5084750056266785,-0.45526251196861267,1.6010500192642212
1697724236441185500,6.481185546875,0.49994999170303345,-0.35749998688697815,1.6389999389648438
1697724236450604300,6.490604248046875,0.3899500072002411,-0.36973750591278076,1.5852375030517578
1697724236460023300,6.500023193359375,0.23594999313354492,-0.5003625154495239,1.4984749555587769
1697724236469442000,6.509442138671875,0.07713750004768372,-0.6396499872207642,1.4557124376296997
1697724236478861000,6.518861083984375,-0.07548750191926956,-0.6971250176429749,1.4459500312805176
1697724236488279800,6.52827978515625,-0.17820000648498535,-0.656837522983551,1.4471875429153442
1697724236497698600,6.537698486328125,-0.2232999950647354,-0.5748875141143799,1.444712519645691
1697724236507117600,6.54711767578125,-0.2330625057220459,-0.49912500381469727,1.4569499492645264
1697724236516536300,6.556536376953125,-0.23801249265670776,-0.469837486743927,1.470425009727478
1697724236525955300,6.565955322265625,-0.21972499787807465,-0.4954124987125397,1.4642374515533447
1697724236535374000,6.5753740234375,-0.2012999951839447,-0.5468375086784363,1.4264249801635742
1697724236544792800,6.584792724609375,-0.2012999951839447,-0.5883625149726868,1.3396625518798828
1697724236554211600,6.594211669921875,-0.2172500044107437,-0.6213625073432922,1.1930874586105347
1697724236563630600,6.603630615234375,-0.23430000245571136,-0.6396499872207642,0.9975624680519104
1697724236573049300,6.61304931640625,-0.24901250004768372,-0.6726499795913696,0.8009374737739563
1697724236582468400,6.62246826171875,-0.2648249864578247,-0.7752249836921692,0.6066499948501587
1697724236591887000,6.63188720703125,-0.2209624946117401,-0.8619874715805054,0.4624125063419342
1697724236601306000,6.64130615234375,-0.09267500042915344,-0.8424624800682068,0.42707499861717224
1697724236610724900,6.650724853515625,-0.0719124972820282,-0.683650016784668,0.49665001034736633
1697724236620143600,6.6601435546875,-0.21601249277591705,-0.43931248784065247,0.6738874912261963
1697724236629562600,6.669562744140625,-0.3821125030517578,-0.021449999883770943,1.0110374689102173
1697724236638981400,6.6789814453125,-0.48963749408721924,0.08607500046491623,1.2529000043869019
1697724236648400100,6.688400146484375,-0.4970625042915344,0.04936249926686287,1.3897124528884888
1697724236657819000,6.69781884765625,-0.4468750059604645,0.10188750177621841,1.4850000143051147
1697724236667237600,6.707237548828125,-0.41635000705718994,0.14354999363422394,1.5302374362945557
1697724236676656600,6.71665673828125,-0.2782999873161316,0.03712499886751175,1.4716625213623047
1697724236686075400,6.726075439453125,-0.17077499628067017,-0.07026249915361404,1.34089994430542
1697724236695494400,6.735494384765625,-0.16843749582767487,-0.021449999883770943,1.1503249406814575
1697724236704913200,6.7449130859375,-0.14767499268054962,0.15331250429153442,0.9622250199317932
1697724236714332200,6.754332275390625,-0.10119999945163727,0.37564998865127563,0.8534625172615051
1697724236723751000,6.7637509765625,-0.03891250118613243,0.5698000192642212,0.802174985408783
1697724236733169700,6.773169677734375,-0.04496249929070473,0.73232501745224,0.7789375185966492
1697724236742588400,6.78258837890625,-0.05115000158548355,0.780037522315979,0.7581750154495239
1697724236752007200,6.792007080078125,0.0002749999985098839,0.720087468624115,0.7496500015258789
1697724236761426200,6.80142626953125,0.040562499314546585,0.58451247215271,0.7471749782562256
1697724236770845200,6.81084521484375,0.050324998795986176,0.46117499470710754,0.7177500128746033
1697724236780264000,6.820263916015625,0.055137500166893005,0.43793749809265137,0.6628875136375427
1697724236789683000,6.829682861328125,0.0648999959230423,0.44398748874664307,0.6029375195503235
1697724236799101700,6.839101806640625,0.07356250286102295,0.39022499322891235,0.5578374862670898
1697724236808520400,6.8485205078125,0.07713750004768372,0.2619374990463257,0.5150749683380127
1697724236817939200,6.857939208984375,0.07713750004768372,0.2143625020980835,0.4954124987125397
1697724236827358200,6.867358154296875,0.057612501084804535,0.3144625127315521,0.48688748478889465
1697724236836777000,6.87677685546875,-0.004674999974668026,0.5747500061988831,0.4844124913215637
1697724236846196000,6.886196044921875,-0.1036750003695488,0.9253749847412109,0.5003625154495239
1697724236855615000,6.895614990234375,-0.19030000269412994,1.1856625080108643,0.544362485408783
1697724236865033700,6.90503369140625,-0.1891999989748001,1.3382874727249146,0.613937497138977
1697724236874452500,6.914452392578125,-0.11948750168085098,1.4262875318527222,0.6641250252723694
1697724236883871200,6.923871337890625,-0.04619999974966049,1.4641000032424927,0.6433625221252441
1697724236893290200,6.933290283203125,0.057612501084804535,1.537387490272522,0.5186499953269958
1697724236902709200,6.942709228515625,0.10766249895095825,1.6913875341415405,0.2815999984741211
1697724236912128000,6.9521279296875,0.08813749998807907,1.9064375162124634,-0.021312499418854713
1697724236921547000,6.961547119140625,-0.013199999928474426,2.1055374145507812,-0.2521750032901764
1697724236930965500,6.970965576171875,-0.04138749837875366,2.086012601852417,-0.27059999108314514
1697724236940384500,6.980384521484375,0.11013749986886978,1.782962441444397,-0.09336250275373459
1697724236949803300,6.98980322265625,0.2849000096321106,1.238187551498413,0.14602500200271606
1697724236959222300,6.99922216796875,0.32766249775886536,0.6859874725341797,0.3195500075817108
1697724236968640800,7.008640869140625,0.25437501072883606,0.38788750767707825,0.3268375098705292
1697724236978059500,7.0180595703125,0.13832500576972961,0.3889875113964081,0.14121249318122864
1697724236987478800,7.027478759765625,-0.0009624999947845936,0.7910374999046326,-0.2864125072956085
1697724236996897500,7.0368974609375,-0.14877499639987946,1.520337462425232,-0.8496124744415283
1697724237006316300,7.04631640625,-0.20019999146461487,2.1727750301361084,-1.3237124681472778
1697724237015735300,7.0557353515625,-0.16224999725818634,2.5904998779296875,-1.607100009918213
1697724237025154000,7.065154052734375,-0.09501250088214874,2.8885998725891113,-1.708437442779541
1697724237034572800,7.07457275390625,-0.05115000158548355,3.0621249675750732,-1.686574935913086
1697724237043991800,7.08399169921875,-0.020487500354647636,3.2246499061584473,-1.5570499897003174
1697724237053410600,7.09341064453125,-0.0193875003606081,3.3932249546051025,-1.3407624959945679
1697724237062829300,7.102829345703125,-0.04372499883174896,3.533750057220459,-1.0988999605178833
1697724237072248300,7.112248291015625,-0.0681999996304512,4.019949913024902,-0.8936125040054321
1697724237081667000,7.1216669921875,-0.09501250088214874,4.880012512207031,-0.9278500080108643
1697724237091085800,7.1310859375,-0.03396249935030937,5.230637550354004,-1.1184250116348267
1697724237100504800,7.1405048828125,-0.062150001525878906,4.6076250076293945,-1.0181875228881836
1697724237109923600,7.149923583984375,-0.12443749606609344,3.8953750133514404,-0.5747500061988831
1697724237119342600,7.159342529296875,-0.08167500048875809,3.3321750164031982,-0.14231249690055847
1697724237128761300,7.16876123046875,0.005087499972432852,2.9387874603271484,0.20350000262260437
1697724237138180000,7.17818017578125,0.03684999793767929,2.6394500732421875,0.4624125063419342
1697724237147598800,7.187598876953125,-0.03148749843239784,2.3816375732421875,0.6066499948501587
1697724237157017600,7.197017578125,-0.06324999779462814,2.062774896621704,0.5491750240325928
1697724237166436600,7.2064365234375,-0.03272499889135361,1.7439124584197998,0.3390749990940094
1697724237175855600,7.215855712890625,0.0038499999791383743,1.841675043106079,-0.2204124927520752
1697724237185274000,7.225274169921875,0.03437500074505806,3.06707501411438,-1.3945250511169434
1697724237194693400,7.234693359375,0.09679999947547913,3.483562469482422,-1.90396249294281
1697724237204112100,7.244112060546875,0.21037499606609344,2.8177874088287354,-1.6889125108718872
1697724237213531000,7.25353076171875,0.3544749915599823,1.9442499876022339,-1.2100000381469727
1697724237222949600,7.26294970703125,0.4156624972820282,1.5448124408721924,-0.7458000183105469
1697724237232368600,7.27236865234375,0.4571875035762787,1.6938624382019043,-0.43546250462532043
1697724237241787100,7.281787109375,0.5524749755859375,1.864912509918213,-0.40741249918937683
1697724237251206400,7.291206298828125,0.5157625079154968,1.6633374691009521,-0.48551249504089355
1697724237260625200,7.300625244140625,0.4534749984741211,1.4335750341415405,-0.6443250179290771
1697724237270044200,7.310044189453125,0.4254249930381775,1.4311000108718872,-0.9143750071525574
1697724237279462700,7.319462646484375,0.49623748660087585,1.6303374767303467,-1.11347496509552
1697724237288881700,7.328881591796875,0.5524749755859375,1.607100009918213,-1.1404249668121338
1697724237298300400,7.338300537109375,0.5647125244140625,1.3382874727249146,-0.99013751745224
1697724237307719200,7.34771923828125,0.5427125096321106,0.994949996471405,-0.7580375075340271
1697724237317138200,7.35713818359375,0.5352874994277954,0.7616124749183655,-0.5197499990463257
1697724237326557200,7.36655712890625,0.5255249738693237,0.6199874877929688,-0.3096500039100647
1697724237335976000,7.375975830078125,0.527999997138977,0.5332249999046326,-0.1373624950647354
1697724237345394700,7.385394775390625,0.5450500249862671,0.39765000343322754,-0.03231250122189522
1697724237354813700,7.394813720703125,0.5830000042915344,0.2521750032901764,0.020212499424815178
1697724237364232400,7.404232421875,0.6330500245094299,0.14231249690055847,0.05926249921321869
1697724237373651200,7.413651123046875,0.6830999851226807,-0.006737499963492155,0.1350249946117401
1697724237383070000,7.423070068359375,0.7027624845504761,-0.1802625060081482,0.3305499851703644
1697724237392489000,7.432489013671875,0.6880499720573425,-0.5284125208854675,0.6384124755859375
1697724237401907700,7.44190771484375,0.6623374819755554,-0.9535624980926514,1.0488499402999878
1697724237411326700,7.45132666015625,0.6355249881744385,-1.4154249429702759,1.5424749851226807
1697724237420745500,7.460745361328125,0.5732374787330627,-2.010387420654297,2.027437448501587
1697724237430164500,7.47016455078125,0.4620000123977661,-2.54182505607605,2.4917750358581543
1697724237439583000,7.4795830078125,0.27018749713897705,-2.6848249435424805,2.902212381362915
1697724237449002000,7.489001953125,0.013612499460577965,-1.9223874807357788,3.1135499477386475
1697724237458420700,7.498420654296875,-0.20253749191761017,0.3279374837875366,2.9657375812530518
1697724237467839700,7.50783984375,-0.26372501254081726,2.541687488555908,2.530824899673462
1697724237477258200,7.51725830078125,-0.2465374916791916,2.8434998989105225,2.0849125385284424
1697724237486677200,7.52667724609375,-0.3260124921798706,1.833150029182434,1.6182374954223633
1697724237496096300,7.53609619140625,-0.4676375091075897,0.43546250462532043,1.2321374416351318
1697724237505515000,7.545514892578125,-0.5898749828338623,-0.5541250109672546,0.9279875159263611
1697724237514934000,7.55493408203125,-0.6179249882698059,-0.9059875011444092,0.7019374966621399
1697724237524352800,7.564352783203125,-0.4713499844074249,-0.8339374661445618,0.49059998989105225
1697724237533771500,7.573771484375,-0.23801249265670776,-0.6201249957084656,0.22426250576972961
1697724237543190500,7.5831904296875,0.06737499684095383,-0.23649999499320984,-0.02736249938607216
1697724237552609000,7.592609130859375,0.34718748927116394,0.25093749165534973,-0.30841249227523804
1697724237562028000,7.602028076171875,0.47795000672340393,0.6370375156402588,-0.6175125241279602
1697724237571446800,7.61144677734375,0.4889499843120575,0.915612518787384,-1.0377124547958374
1697724237580865500,7.620865478515625,0.3104749917984009,0.6602749824523926,-1.283287525177002
1697724237590284500,7.630284423828125,0.043037500232458115,-0.0471624992787838,-0.8703749775886536
1697724237599703600,7.63970361328125,0.06737499684095383,-0.7911750078201294,0.0752125009894371
1697724237609122300,7.649122314453125,0.22618749737739563,-0.8497499823570251,1.0318000316619873
1697724237618541000,7.658541015625,0.344712495803833,-0.09597499668598175,1.6842374801635742
1697724237627960000,7.6679599609375,0.2934249937534332,1.0146124362945557,2.070199966430664
1697724237637378800,7.67737890625,0.16032500565052032,1.9186749458312988,2.356062412261963
1697724237646797600,7.686797607421875,0.10766249895095825,2.25211238861084,2.655400037765503
1697724237656216600,7.696216552734375,0.1260875016450882,2.0407750606536865,2.886399984359741
1697724237665635600,7.705635498046875,0.21518750488758087,1.5888124704360962,2.997499942779541
1697724237675054300,7.715054443359375,0.37290000915527344,1.1404249668121338,2.9719250202178955
1697724237684473000,7.72447314453125,0.427762508392334,0.9571374654769897,2.8386874198913574
1697724237693891800,7.733891845703125,0.3619000017642975,1.0181875228881836,2.6738250255584717
1697724237703310800,7.743310791015625,0.23237499594688416,1.1526625156402588,2.5113000869750977
1697724237712729600,7.7527294921875,0.1163249984383583,1.1489499807357788,2.3732500076293945
1697724237722148400,7.7621484375,0.057612501084804535,0.8496124744415283,2.2827749252319336
1697724237731567000,7.771567138671875,0.01484999991953373,0.29493749141693115,2.2242000102996826
1697724237740986000,7.780986083984375,-0.02667500078678131,-0.14121249318122864,2.171674966812134
1697724237750404900,7.79040478515625,-0.04138749837875366,-0.1704999953508377,2.089862585067749
1697724237759824000,7.799823974609375,-0.062150001525878906,0.1190750002861023,1.948099970817566
1697724237769242600,7.80924267578125,-0.08896250277757645,0.5515124797821045,1.7697625160217285
1697724237778661600,7.81866162109375,-0.11219999939203262,0.9253749847412109,1.6352875232696533
1697724237788080000,7.828080078125,-0.12925000488758087,1.0951875448226929,1.59871244430542
1697724237797499100,7.8374990234375,-0.14643749594688416,1.1489499807357788,1.6634750366210938
1697724237806918000,7.84691796875,-0.16843749582767487,1.179474949836731,1.7868125438690186
1697724237816336600,7.856336669921875,-0.19043749570846558,1.2417625188827515,1.9370999336242676
1697724237825755600,7.865755615234375,-0.19772499799728394,1.3785749673843384,2.081199884414673
1697724237835174400,7.87517431640625,-0.18672500550746918,1.5888124704360962,2.17291259765625
1697724237844593400,7.884593505859375,-0.10243749618530273,1.7634375095367432,2.189962387084961
1697724237854012200,7.89401220703125,-0.09019999951124191,1.878250002861023,2.0922000408172607
1697724237863431200,7.90343115234375,-0.08648750185966492,1.8342499732971191,1.982337474822998
1697724237872850000,7.912849853515625,-0.011962499469518661,1.6168625354766846,1.8931000232696533
1697724237882268700,7.9222685546875,0.035612501204013824,1.2392874956130981,1.7978124618530273
1697724237891687400,7.9316875,0.1260875016450882,0.8007999658584595,1.6952375173568726
1697724237901106400,7.9411064453125,0.21889999508857727,0.3866499960422516,1.61204993724823
1697724237910525400,7.950525390625,0.27761250734329224,0.057887498289346695,1.5265250205993652
1697724237919944200,7.959944091796875,0.2849000096321106,-0.17544999718666077,1.444712519645691
1697724237929363000,7.969363037109375,0.32766249775886536,-0.3110249936580658,1.383662462234497
1697724237938781700,7.97878173828125,0.38747498393058777,-0.36959999799728394,1.3261874914169312
1697724237948200400,7.988200439453125,0.4534749984741211,-0.33660000562667847,1.2798500061035156
1697724237957619500,7.997619384765625,0.4754749834537506,-0.2572624981403351,1.2601875066757202
1697724237967038500,8.00703857421875,0.48276248574256897,-0.07768750190734863,1.2504249811172485
1697724237976457200,8.016457275390625,0.4657124876976013,0.20583750307559967,1.2223750352859497
1697724237985876200,8.025876220703125,0.427762508392334,0.5515124797821045,1.1723250150680542
1697724237995295000,8.035294921875,0.3606624901294708,0.8801375031471252,1.1160874366760254
1697724238004713700,8.044713623046874,0.28366249799728394,1.1526625156402588,1.0648000240325928
1697724238014132500,8.054132568359375,0.22013749182224274,1.3272874355316162,1.0220375061035156
1697724238023551500,8.063551513671875,0.1639000028371811,1.3773374557495117,1.0025124549865723
1697724238032970200,8.07297021484375,0.10037499666213989,1.2942874431610107,1.0073250532150269
1697724238042389000,8.082388916015624,0.021037500351667404,1.0779999494552612,1.008562445640564
1697724238051808000,8.09180810546875,-0.07315000146627426,0.8313249945640564,0.9890375137329102
1697724238061226800,8.101226806640625,-0.1354375034570694,0.7066124677658081,0.9535624980926514
1697724238070645500,8.1106455078125,-0.1354375034570694,0.7530875205993652,0.9107999801635742
1697724238080064500,8.120064453125,-0.09501250088214874,0.9717124700546265,0.8619874715805054
1697724238089483300,8.129483154296874,-0.09624999761581421,1.296762466430664,0.7947499752044678
1697724238098902000,8.138902099609375,-0.12925000488758087,1.6681499481201172,0.6958875060081482
1697724238108321000,8.148321044921875,-0.13048750162124634,1.9637750387191772,0.5894625186920166
1697724238117739800,8.15773974609375,-0.0999625027179718,1.9967750310897827,0.5174124836921692
1697724238127158500,8.167158447265624,-0.1036750003695488,1.712149977684021,0.47341248393058777
1697724238136577500,8.17657763671875,-0.13296249508857727,1.3333375453948975,0.41731250286102295
1697724238145996500,8.18599658203125,-0.1354375034570694,1.0291874408721924,0.33783748745918274
1697724238155415300,8.195415283203126,-0.15001249313354492,1.0414249897003174,0.18150000274181366
1697724238164834000,8.204833984375,-0.19772499799728394,1.3993375301361084,-0.018837500363588333
1697724238174252800,8.214252685546874,-0.3357749879360199,1.891724944114685,-0.22659999132156372
1697724238183671800,8.223671875,-0.5691124796867371,2.471975088119507,-0.4244624972343445
1697724238193090300,8.23309033203125,-0.8512625098228455,3.1231749057769775,-0.6260374784469604
1697724238202509300,8.24250927734375,-1.0467875003814697,3.6863749027252197,-0.8007999658584595
1697724238211928300,8.25192822265625,-1.0467875003814697,4.029712677001953,-0.9058499932289124
1697724238221347300,8.261347412109375,-0.8647375106811523,4.315575122833252,-0.9851874709129333
1697724238230766000,8.27076611328125,-0.5983999967575073,4.73096227645874,-1.0927125215530396
1697724238240184800,8.280184814453126,-0.4188250005245209,5.3894500732421875,-1.2149499654769897
1697724238249603600,8.289603515625,-0.32106250524520874,5.898887634277344,-1.3114750385284424
1697724238259022600,8.299022705078125,-0.2917749881744385,5.7315497398376465,-1.4983375072479248
1697724238268441000,8.308441162109375,-0.21601249277591705,5.22582483291626,-1.6803874969482422
1697724238277859800,8.31785986328125,-0.0719124972820282,4.628387451171875,-1.7219125032424927
1697724238287278800,8.32727880859375,0.15166249871253967,3.814662456512451,-1.7219125032424927
1697724238296697600,8.336697509765624,0.3324750065803528,3.0046498775482178,-1.6779124736785889
1697724238306116600,8.34611669921875,0.4156624972820282,2.456162452697754,-1.6401000022888184
1697724238315535600,8.35553564453125,0.4754749834537506,2.4121625423431396,-1.4970999956130981
1697724238324954400,8.364954345703126,0.4314749836921692,2.688262462615967,-1.2589499950408936
1697724238334373000,8.374373046875,0.408237487077713,3.0951249599456787,-1.0243749618530273
1697724238343792000,8.383792236328125,0.47423750162124634,3.3968000411987305,-0.9046124815940857
1697724238353211000,8.3932109375,0.5597624778747559,3.521512508392334,-1.0586124658584595
1697724238362629600,8.402629638671876,0.6282374858856201,3.503225088119507,-1.5300999879837036
1697724238372048600,8.412048583984374,0.6232874989509583,3.275937557220459,-2.1923000812530518
1697724238381467400,8.42146728515625,0.607337474822998,2.7249748706817627,-2.78478741645813
1697724238390886400,8.430886474609375,0.4302375018596649,1.9392999410629272,-3.2075998783111572
1697724238400305200,8.44030517578125,0.2824249863624573,1.3102375268936157,-3.410412549972534
1697724238409724000,8.449723876953126,0.1676124930381775,0.8703749775886536,-3.371224880218506
1697724238419142700,8.459142578125,0.1676124930381775,0.6835125088691711,-3.1171250343322754
1697724238428561700,8.468561767578125,0.23718750476837158,0.7360374927520752,-2.779974937438965
1697724238437980200,8.477980224609375,0.31790000200271606,0.8056125044822693,-2.563687562942505
1697724238447399200,8.487399169921876,0.3264249861240387,0.784850001335144,-2.5612125396728516
1697724238456818000,8.49681787109375,0.3630000054836273,0.73232501745224,-2.6284499168395996
1697724238466237000,8.50623681640625,0.4119499921798706,0.7555624842643738,-2.66626238822937
1697724238475656000,8.515656005859375,0.4717625081539154,0.6210874915122986,-2.6454999446868896
1697724238485074700,8.52507470703125,0.5267624855041504,0.3964124917984009,-2.5551624298095703
1697724238494493400,8.534493408203126,0.5414749979972839,0.24736249446868896,-2.3291125297546387
1697724238503912200,8.543912109375,0.5084750056266785,0.18136249482631683,-1.987012505531311
1697724238513331200,8.553331298828125,0.4595249891281128,0.11041250079870224,-1.5680500268936157
1697724238522749700,8.562749755859375,0.4241875112056732,-0.07039999961853027,-1.1159499883651733
1697724238532168700,8.572168701171876,0.38142499327659607,-0.2609750032424927,-0.7103250026702881
1697724238541587500,8.58158740234375,0.35571250319480896,-0.3513124883174896,-0.38046249747276306
1697724238551006500,8.59100634765625,0.31790000200271606,-0.33550000190734863,-0.12278749793767929
1697724238560425200,8.60042529296875,0.23485000431537628,-0.24021250009536743,0.12773749232292175
1697724238569844200,8.60984423828125,0.13089999556541443,-0.23278750479221344,0.367125004529953
1697724238579263000,8.619262939453124,0.043037500232458115,-0.3647874891757965,0.552887499332428
1697724238588681700,8.628681640625,-0.0424874983727932,-0.5101249814033508,0.6469374895095825
1697724238598100700,8.638100830078125,-0.14272500574588776,-0.6238374710083008,0.7129374742507935
1697724238607519200,8.647519287109375,-0.22453749179840088,-0.6788374781608582,0.7959874868392944
1697724238616938200,8.656938232421876,-0.2550624907016754,-0.6641250252723694,0.9193249940872192
1697724238626357000,8.66635693359375,-0.23430000245571136,-0.5455999970436096,1.067275047302246
1697724238635776000,8.67577587890625,-0.17448750138282776,-0.2975499927997589,1.1943249702453613
1697724238645195000,8.685195068359375,-0.08772499859333038,0.05664999783039093,1.2529000043869019
1697724238654613800,8.69461376953125,0.050324998795986176,0.23512500524520874,1.2639000415802002
1697724238664032500,8.704032470703124,0.23594999313354492,-0.18645000457763672,1.3347125053405762
1697724238673451300,8.713451171875,0.37400001287460327,-0.8449375033378601,1.5180000066757202
1697724238682870300,8.722870361328125,0.30566251277923584,-1.1686124801635742,1.6670500040054321
1697724238692289000,8.7322890625,-0.04138749837875366,-1.4594249725341797,1.807574987411499
1697724238701707800,8.741707763671876,-0.3590124845504761,-1.5083750486373901,2.1166749000549316
1697724238711126500,8.75112646484375,-0.5629249811172485,-0.9512249827384949,2.5100624561309814
1697724238720545500,8.760545654296875,-0.39201250672340393,-0.23526249825954437,2.943737506866455
1697724238729964300,8.76996435546875,-0.1377750039100647,0.2204124927520752,3.3468875885009766
1697724238739383300,8.77938330078125,-0.1097249984741211,0.4207499921321869,3.6572248935699463
1697724238748802000,8.788802001953124,-0.2172500044107437,0.6223250031471252,3.9052748680114746
1697724238758220800,8.798220703125,-0.2857249975204468,0.676087498664856,4.165424823760986
1697724238767639600,8.8076396484375,-0.32106250524520874,0.6345624923706055,4.3524250984191895
1697724238777058600,8.81705859375,-0.27582499384880066,0.7518500089645386,4.425712585449219
1697724238786477300,8.826477294921874,-0.13048750162124634,1.100000023841858,4.421999931335449
1697724238795896300,8.835896240234375,0.08332499861717224,1.475100040435791,4.2986626625061035
1697724238805315000,8.845315185546875,0.32766249775886536,1.4933874607086182,4.0530877113342285
1697724238814734000,8.854734130859375,0.5292375087738037,1.2307624816894531,3.6902248859405518
1697724238824152800,8.86415283203125,0.7455250024795532,0.7383750081062317,3.2333123683929443
1697724238833571600,8.873571533203124,0.8395749926567078,0.25341248512268066,2.806925058364868
1697724238842990300,8.882990234375,0.8481000065803528,-0.11192499846220016,2.4330625534057617
1697724238852409000,8.8924091796875,0.8223875164985657,-0.2512125074863434,2.1434874534606934
1697724238861828000,8.901828125,0.8298124670982361,-0.3012624979019165,1.9248625040054321
1697724238871246800,8.911246826171874,0.8713374733924866,-0.28049999475479126,1.7660499811172485
1697724238880665900,8.920665771484375,0.9311500191688538,-0.2853125035762787,1.59871244430542
1697724238890084600,8.930084716796875,0.9666249752044678,-0.36355000734329224,1.4178999662399292
1697724238899503400,8.93950341796875,0.9250999689102173,-0.4723125100135803,1.2480875253677368
1697724238908922400,8.94892236328125,0.8200500011444092,-0.5846499800682068,1.0880374908447266
1697724238918341000,8.958341064453125,0.6880499720573425,-0.7203624844551086,0.9267500042915344
1697724238927760000,8.967759765625,0.5242875218391418,-0.9207000136375427,0.7984625101089478
1697724238937178600,8.9771787109375,0.3581874966621399,-1.1503249406814575,0.7226999998092651
1697724238946597600,8.98659765625,0.2274249941110611,-1.392187476158142,0.7079874873161316
1697724238956016600,8.9960166015625,0.2079000025987625,-1.544950008392334,0.7507500052452087
1697724238965435400,9.005435302734375,0.20666250586509705,-1.6487624645233154,0.8204625248908997
1697724238974854400,9.0148544921875,0.15908749401569366,-1.7392375469207764,0.8815125226974487
1697724238984273000,9.02427294921875,0.06613750010728836,-1.702525019645691,0.963325023651123
1697724238993692000,9.03369189453125,-0.037675000727176666,-1.549899935722351,1.042799949645996
1697724239003110700,9.043110595703125,-0.09624999761581421,-1.3824249505996704,1.067275047302246
1697724239012529400,9.052529296875,-0.12196250259876251,-1.2285624742507935,1.034274935722351
1697724239021948400,9.061948486328125,-0.1097249984741211,-1.0782749652862549,0.9878000020980835
1697724239031367200,9.0713671875,-0.08415000140666962,-0.9450374841690063,0.929224967956543
1697724239040786000,9.080785888671874,-0.08415000140666962,-0.9304624795913696,0.8522250056266785
1697724239050204700,9.09020458984375,-0.10119999945163727,-0.9878000020980835,0.8082249760627747
1697724239059623700,9.099623779296875,-0.11948750168085098,-1.0685124397277832,0.8009374737739563
1697724239069042400,9.10904248046875,-0.1414874941110611,-1.0697499513626099,0.8570374846458435
1697724239078461400,9.11846142578125,-0.18053749203681946,-1.0390875339508057,0.9145125150680542
1697724239087880200,9.127880126953125,-0.18301250040531158,-0.9389874935150146,0.9560375213623047
1697724239097299000,9.137298828125,-0.15125000476837158,-0.6971250176429749,0.9987999796867371
1697724239106717700,9.1467177734375,-0.09748750180006027,-0.46488749980926514,0.9707499742507935
1697724239116136400,9.156136474609376,-0.025437500327825546,-0.2303124964237213,0.9035124778747559
1697724239125555500,9.165555419921875,0.04413750022649765,0.03355000168085098,0.824037492275238
1697724239134974200,9.17497412109375,0.0943249985575676,0.3011249899864197,0.7484124898910522
1697724239144393000,9.18439306640625,0.11508750170469284,0.4684624969959259,0.6774625182151794
1697724239153812000,9.19381201171875,0.11508750170469284,0.5172749757766724,0.6249374747276306
1697724239163231000,9.20323095703125,0.10408750176429749,0.4232249855995178,0.6041749715805054
1697724239172649700,9.212649658203125,0.0648999959230423,0.21188749372959137,0.6261749863624573
1697724239182068200,9.222068115234375,0.05403750017285347,0.015124999918043613,0.6689375042915344
1697724239191487200,9.2314873046875,0.018562499433755875,-0.03973750025033951,0.6786999702453613
1697724239200906200,9.24090625,-0.015675000846385956,0.07864999771118164,0.6213625073432922
1697724239210325000,9.250324951171875,0.011274999938905239,0.391462504863739,0.5126000046730042
1697724239219743700,9.25974365234375,0.05884999781847,0.767799973487854,0.40383750200271606
1697724239229162500,9.26916259765625,0.0966624990105629,1.0451375246047974,0.34402498602867126
1697724239238581200,9.278581298828126,0.1321374922990799,1.1844249963760376,0.3268375098705292
1697724239248000000,9.288,0.16513749957084656,1.2857625484466553,0.3110249936580658
1697724239257419000,9.2974189453125,0.20666250586509705,1.4298624992370605,0.29260000586509705
1697724239266838000,9.306838134765625,0.1821874976158142,1.5888124704360962,0.24502499401569366
1697724239276256800,9.3162568359375,0.1358499974012375,1.7402000427246094,0.17297500371932983
1697724239285675500,9.325675537109374,0.08937499672174454,1.8257249593734741,0.07768750190734863
1697724239295094500,9.335094482421875,0.07590000331401825,1.8024874925613403,-0.023787500336766243
1697724239304513300,9.34451318359375,0.09184999763965607,1.6351499557495117,-0.14959999918937683
1697724239313932000,9.35393212890625,0.12361250072717667,1.4408625364303589,-0.2424124926328659
1697724239323351300,9.363351318359374,0.1443749964237213,1.2955249547958374,-0.26936250925064087
1697724239332769800,9.372769775390625,0.13337500393390656,1.13423752784729,-0.25712499022483826
1697724239342188800,9.382188720703125,0.13089999556541443,0.903374969959259,-0.23017500340938568
1697724239351607600,9.391607666015625,0.1541374921798706,0.6175125241279602,-0.2143625020980835
1697724239361026300,9.4010263671875,0.1896124929189682,0.3156999945640564,-0.22536249458789825
1697724239370445300,9.4104453125,0.22013749182224274,0.006599999964237213,-0.27912500500679016
1697724239379863800,9.41986376953125,0.2311374992132187,-0.15578749775886536,-0.43546250462532043
1697724239389282800,9.42928271484375,0.20542499423027039,0.4647499918937683,-0.9326624870300293
1697724239398701600,9.43870166015625,0.1578499972820282,1.594862461090088,-1.5960999727249146
1697724239408120600,9.44812060546875,0.12966249883174896,2.270400047302246,-2.0542500019073486
1697724239417539300,9.457539306640625,0.06737499684095383,2.454925060272217,-2.29363751411438
1697724239426958300,9.466958251953125,0.043037500232458115,2.649212598800659,-2.4488749504089355
1697724239436377000,9.476377197265625,-0.0034374999813735485,3.137887477874756,-2.391400098800659
1697724239445795800,9.4857958984375,-0.09019999951124191,3.7646124362945557,-2.0481998920440674
1697724239455214600,9.495214599609374,-0.18672500550746918,4.4158124923706055,-1.4092375040054321
1697724239464633600,9.504633544921875,-0.2917749881744385,5.059587478637695,-0.5564625263214111
1697724239474052400,9.51405224609375,-0.39434999227523804,5.374875068664551,0.2915000021457672
1697724239483471400,9.523471435546876,-0.5983999967575073,5.1988749504089355,0.8839874863624573
1697724239492889900,9.532889892578124,-0.809737503528595,4.727387428283691,1.2516624927520752
1697724239502308900,9.542308837890625,-0.9136874675750732,3.933187484741211,1.3151874542236328
1697724239511727900,9.551727783203125,-0.892787516117096,2.94112491607666,1.108799934387207
1697724239521146600,9.561146728515626,-0.8525000214576721,2.092062473297119,0.8289874792098999
1697724239530565400,9.5705654296875,-0.8159250020980835,1.3773374557495117,0.44907498359680176
1697724239539984100,9.579984130859375,-0.7572125196456909,0.859375,-0.1373624950647354
1697724239549403100,9.589403076171875,-0.7339749932289124,0.9204249978065491,-1.0609500408172607
1697724239558822000,9.59882177734375,-0.6814500093460083,1.7341499328613281,-2.2093498706817627
1697724239568240600,9.60824072265625,-0.6265875101089478,2.139775037765503,-3.054837465286255
1697724239577659400,9.617659423828124,-0.599637508392334,1.4385249614715576,-3.467750072479248
1697724239587078400,9.627078369140625,-0.647350013256073,0.36465001106262207,-3.5435125827789307
1697724239596497400,9.636497314453125,-0.6876375079154968,-0.19978749752044678,-3.437224864959717
1697724239605916200,9.645916259765626,-0.6681125164031982,-0.3147374987602234,-3.2393624782562256
1697724239615335000,9.6553349609375,-0.6166874766349792,-0.17173749208450317,-2.9632625579833984
1697724239624753700,9.664753662109375,-0.5935875177383423,0.07012499868869781,-2.6834499835968018
1697724239634172400,9.67417236328125,-0.6021124720573425,0.3096500039100647,-2.4183499813079834
1697724239643591400,9.68359130859375,-0.572825014591217,0.49527499079704285,-2.1972498893737793
1697724239653010200,9.69301025390625,-0.5190625190734863,0.5319874882698059,-2.075012445449829
1697724239662429000,9.702428955078124,-0.4848249852657318,0.3951750099658966,-2.0481998920440674
1697724239671847700,9.71184765625,-0.4652999937534332,0.1153625026345253,-2.1434874534606934
1697724239681266700,9.7212666015625,-0.41029998660087585,-0.26455000042915344,-2.307112455368042
1697724239690685400,9.730685546875,-0.3260124921798706,-0.5273125171661377,-2.497687578201294
1697724239700104200,9.740104248046874,-0.18053749203681946,-0.6384124755859375,-2.6259748935699463
1697724239709523200,9.749523193359375,-0.07919999957084656,-0.6408874988555908,-2.617449998855591
1697724239718942000,9.75894189453125,0.04413750022649765,-0.6274124979972839,-2.3963499069213867
1697724239728360700,9.768360595703125,0.1321374922990799,-0.6421250104904175,-2.0017249584198
1697724239737779500,9.777779541015626,0.15661250054836273,-0.6579374670982361,-1.5252875089645386
1697724239747198500,9.787198486328125,0.12113749980926514,-0.6433625221252441,-1.0879000425338745
1697724239756617200,9.7966171875,0.09556250274181366,-0.5761250257492065,-0.7518500089645386
1697724239766036200,9.8060361328125,0.045375000685453415,-0.526075005531311,-0.4977499842643738
1697724239775455000,9.815455078125,0.016087500378489494,-0.5651249885559082,-0.27059999108314514
1697724239784874000,9.8248740234375,-0.013199999928474426,-0.7081249952316284,-0.06283749639987946
1697724239794292700,9.834292724609375,-0.02419999986886978,-0.9475125074386597,0.12044999748468399
1697724239803711500,9.84371142578125,-0.04743750020861626,-1.1638000011444092,0.29631251096725464
1697724239813130200,9.853130126953126,-0.08772499859333038,-1.3299000263214111,0.489362508058548
1697724239822549000,9.862549072265624,-0.12072499841451645,-1.3934249877929688,0.727649986743927
1697724239831968000,9.871968017578125,-0.1097249984741211,-1.3066624402999878,1.0220375061035156
1697724239841386800,9.88138671875,-0.03396249935030937,-1.3116124868392944,1.3371875286102295
1697724239850805500,9.890805419921875,0.17242500185966492,-1.5559500455856323,1.6010500192642212
1697724239860224500,9.900224609375,0.35571250319480896,-1.4106124639511108,1.6719999313354492
1697724239869643500,9.9096435546875,0.34347498416900635,-0.8644624948501587,1.6535749435424805
1697724239879062300,9.919062255859375,0.1541374921798706,-0.6371750235557556,1.89433753490448
1697724239888480800,9.928480712890625,-0.06324999779462814,-0.6641250252723694,2.369537591934204
1697724239897899800,9.937899658203126,-0.21972499787807465,-0.5358374714851379,2.6738250255584717
1697724239907318500,9.947318603515624,-0.2550624907016754,-0.48454999923706055,2.7983999252319336
1697724239916737500,9.956737548828125,-0.3577750027179718,-0.37331250309944153,2.7604498863220215
1697724239926156300,9.96615625,-0.5018749833106995,0.3328875005245209,2.5283498764038086
1697724239935575000,9.975574951171875,-0.49211248755455017,0.8788999915122986,2.2387750148773193
1697724239944994000,9.984994140625,-0.37482500076293945,-0.34773749113082886,2.314537525177002
1697724239954412800,9.994412841796875,-0.1671999990940094,-1.0000375509262085,2.4807748794555664
1697724239963831800,10.003831787109375,0.0013749999925494194,-0.7031750082969666,2.475825071334839
1697724239973250600,10.01325048828125,0.035612501204013824,-0.16692499816417694,2.38177490234375
1697724239982669300,10.02266943359375,0.16266250610351562,0.29493749141693115,2.2290124893188477
1697724239992088000,10.032088134765624,0.34718748927116394,0.1788875013589859,2.171674966812134
1697724240001506800,10.0415068359375,0.4692874848842621,-0.13021250069141388,2.189962387084961
1697724240010925800,10.05092578125,0.5658124685287476,-0.20845000445842743,2.1924374103546143
1697724240020344600,10.060344482421876,0.6465250253677368,-0.2217874974012375,2.1154375076293945
1697724240029763600,10.069763671875,0.7210500240325928,-0.2780250012874603,1.9676250219345093
1697724240039182300,10.079182373046875,0.8236249685287476,-0.4833124876022339,1.7697625160217285
1697724240048601000,10.08860107421875,0.9103875160217285,-0.736175000667572,1.544950008392334
1697724240058019800,10.098019775390625,0.9556249976158142,-0.9402250051498413,1.3151874542236328
1697724240067438600,10.1074384765625,0.9568625092506409,-1.125849962234497,1.067275047302246
1697724240076857600,10.116857666015624,0.9031000137329102,-1.2945624589920044,0.8375124931335449
1697724240086276400,10.1262763671875,0.8151000142097473,-1.5168999433517456,0.6518874764442444
1697724240095695400,10.1356953125,0.7050999999046326,-1.7099499702453613,0.5149375200271606
1697724240105113900,10.14511376953125,0.619575023651123,-1.8405749797821045,0.406312495470047
1697724240114533000,10.154533203125,0.5438125133514404,-1.882099986076355,0.3170749843120575
1697724240123951900,10.163951904296875,0.47052499651908875,-1.8918625116348267,0.24873749911785126
1697724240133370600,10.17337060546875,0.4057624936103821,-1.8882875442504883,0.22907499969005585
1697724240142789400,10.182789306640625,0.3104749917984009,-1.8405749797821045,0.25850000977516174
1697724240152208100,10.1922080078125,0.19085000455379486,-1.816237449645996,0.3012624979019165
1697724240161627000,10.201626953125,0.05156249925494194,-1.7758125066757202,0.37207499146461487
1697724240171046000,10.2110458984375,-0.07796250283718109,-1.7050000429153442,0.4624125063419342
1697724240180465000,10.22046484375,-0.1695374995470047,-1.6169999837875366,0.5724124908447266
1697724240189883400,10.22988330078125,-0.2465374916791916,-1.5474250316619873,0.6701750159263611
1697724240199302400,10.239302490234374,-0.30277499556541443,-1.4924249649047852,0.7764624953269958
1697724240208721400,10.248721435546875,-0.33082500100135803,-1.4961374998092651,0.8644624948501587
1697724240218140200,10.25814013671875,-0.3590124845504761,-1.544950008392334,0.9084625244140625
1697724240227559000,10.267558837890626,-0.37853750586509705,-1.5852375030517578,0.8925125002861023
1697724240236977700,10.276977783203124,-0.36506250500679016,-1.5424749851226807,0.8289874792098999
1697724240246396400,10.286396484375,-0.3515875041484833,-1.3629000186920166,0.7349374890327454
1697724240255815200,10.295815185546875,-0.3638249933719635,-1.0709874629974365,0.6237000226974487
1697724240265234200,10.305234130859375,-0.36629998683929443,-0.7764624953269958,0.49665001034736633
1697724240274653200,10.314653076171876,-0.35653749108314514,-0.6078875064849854,0.37207499146461487
1697724240284072000,10.324072021484374,-0.36877501010894775,-0.5895999670028687,0.29260000586509705
1697724240293490700,10.33349072265625,-0.3772999942302704,-0.6689375042915344,0.2853125035762787
1697724240302909700,10.34290966796875,-0.370012491941452,-0.7666999697685242,0.37812501192092896
1697724240312328400,10.352328369140626,-0.36134999990463257,-0.985462486743927,0.5138375163078308
1697724240321747200,10.361747314453124,-0.3382500112056732,-1.191849946975708,0.6994624733924866
1697724240331166000,10.371166015625,-0.32958748936653137,-1.2333749532699585,0.9022749662399292
1697724240340584700,10.380584716796875,-0.24529999494552612,-1.1638000011444092,0.97308748960495
1697724240350003700,10.390003662109375,-0.13901250064373016,-0.9657999873161316,0.9389874935150146
1697724240359422500,10.39942236328125,-0.0364375002682209,-0.44907498359680176,0.8032749891281128
1697724240368841200,10.40884130859375,0.030799999833106995,0.07012499868869781,0.6639875173568726
1697724240378260200,10.41826025390625,0.11013749986886978,0.39022499322891235,0.6164125204086304
1697724240387679000,10.427678955078125,0.1896124929189682,0.5148000121116638,0.6176499724388123
1697724240397097700,10.43709765625,0.25189998745918274,0.5442249774932861,0.6201249957084656
1697724240406516500,10.4465166015625,0.27871251106262207,0.5465624928474426,0.5883625149726868
1697724240415935500,10.455935546875,0.2666124999523163,0.5515124797821045,0.5321249961853027
1697724240425354500,10.4653544921875,0.2494249939918518,0.5649874806404114,0.4820750057697296
1697724240434773200,10.474773193359376,0.23237499594688416,0.5759875178337097,0.4380750060081482
1697724240444192000,10.48419189453125,0.21642500162124634,0.6175125241279602,0.4025999903678894
1697724240453611000,10.493611083984375,0.18342499434947968,0.7298499941825867,0.3745499849319458
1697724240463029800,10.50302978515625,0.1260875016450882,0.8556625247001648,0.3195500075817108
1697724240472448500,10.512448486328125,0.0906125009059906,0.9876624941825867,0.23649999499320984
1697724240481867300,10.5218671875,0.11137499660253525,1.0769000053405762,0.13021250069141388
1697724240491286000,10.5312861328125,0.23594999313354492,1.0731874704360962,0.021449999883770943
1697724240500704800,10.540704833984375,0.37523749470710754,0.994949996471405,-0.08002500236034393
1697724240510123800,10.550123779296875,0.4437125027179718,0.9179499745368958,-0.16431249678134918
1697724240519542500,10.55954248046875,0.4449499845504761,0.8581374883651733,-0.2864125072956085
1697724240528961500,10.56896142578125,0.3899500072002411,0.9399499893188477,-0.4184125065803528
1697724240538380300,10.57838037109375,0.2946625053882599,1.0719499588012695,-0.5392749905586243
1697724240547799000,10.587799072265625,0.23594999313354492,1.1855249404907227,-0.6285125017166138
1697724240557217800,10.5972177734375,0.19318750500679016,1.2357125282287598,-0.6945124864578247
1697724240566636800,10.60663671875,0.1541374921798706,1.2332375049591064,-0.7530875205993652
1697724240576055600,10.6160556640625,0.12113749980926514,1.2160500288009644,-0.8093249797821045
1697724240585474300,10.625474365234375,0.08208750188350677,1.376099944114685,-0.9315624833106995
1697724240594893000,10.63489306640625,0.025849999859929085,1.8319125175476074,-1.238187551498413
1697724240604311800,10.644311767578126,-0.04496249929070473,2.336400032043457,-1.6266249418258667
1697724240613730800,10.653730712890624,-0.09501250088214874,2.7260749340057373,-1.8709625005722046
1697724240623149600,10.663149658203125,-0.2550624907016754,2.988837480545044,-1.852674961090088
1697724240632568600,10.672568603515625,-0.591112494468689,3.322274923324585,-1.686574935913086
1697724240641987300,10.6819873046875,-0.7804499864578247,3.7633750438690186,-1.3065249919891357
1697724240651406000,10.691406005859376,-0.7011125087738037,4.291100025177002,-0.6895624995231628
1697724240660824800,10.700824951171874,-0.608162522315979,4.721199989318848,0.005499999970197678
1697724240670243600,10.71024365234375,-0.7584499716758728,4.6954874992370605,0.5468375086784363
1697724240679662600,10.71966259765625,-1.0797874927520752,4.395050048828125,0.97308748960495
1697724240689081300,10.729081298828126,-1.3486000299453735,3.591087579727173,1.1233749389648438
1697724240698500000,10.7385,-1.4389375448226929,2.56850004196167,0.9975624680519104
1697724240707919000,10.747919189453125,-1.4169374704360962,1.703624963760376,0.6824125051498413
1697724240717337600,10.757337646484375,-1.2495999336242676,0.7603750228881836,0.08868750184774399
1697724240726756600,10.766756591796875,-0.9967374801635742,-0.022687500342726707,-0.645562469959259
1697724240736175400,10.77617529296875,-0.7156875133514404,-0.23045000433921814,-1.4592875242233276
1697724240745594000,10.785593994140624,-0.43834999203681946,0.2008875012397766,-2.386587381362915
1697724240755013000,10.79501318359375,-0.2307250052690506,0.938712477684021,-3.2698874473571777
1697724240764432100,10.80443212890625,-0.08772499859333038,1.7146250009536743,-3.916137456893921
1697724240773850600,10.8138505859375,-0.05967500060796738,1.8855375051498413,-4.3865251541137695
1697724240783269600,10.82326953125,-0.12196250259876251,0.806850016117096,-4.443862438201904
1697724240792688400,10.8326884765625,-0.25148749351501465,-0.36726251244544983,-4.05542516708374
1697724240802107100,10.842107177734375,-0.3455374836921692,-0.8694124817848206,-3.4421749114990234
1697724240811526100,10.851526123046876,-0.39077499508857727,-0.4503124952316284,-2.7494499683380127
1697724240820945000,10.86094482421875,-0.46158748865127563,0.3877499997615814,-2.154487371444702
1697724240830364000,10.870364013671875,-0.5629249811172485,0.84232497215271,-1.7732000350952148
1697724240839782700,10.87978271484375,-0.6351125240325928,0.7578999996185303,-1.5778124332427979
1697724240849201400,10.889201416015625,-0.6741625070571899,0.518512487411499,-1.5533374547958374
1697724240858620200,10.8986201171875,-0.6839249730110168,0.34622499346733093,-1.6633374691009521
1697724240868039000,10.908038818359374,-0.6936874985694885,0.18988749384880066,-1.8684874773025513
1697724240877457700,10.917457763671875,-0.7011125087738037,-0.026399999856948853,-2.104300022125244
1697724240886876700,10.926876708984375,-0.6729249954223633,-0.35007500648498535,-2.3388750553131104
1697724240896295400,10.93629541015625,-0.5605875253677368,-0.675125002861023,-2.517212390899658
1697724240905714400,10.94571435546875,-0.40053749084472656,-0.8889374732971191,-2.5599749088287354
1697724240915133400,10.955133544921875,-0.29672500491142273,-1.033037543296814,-2.4366374015808105
1697724240924552000,10.964552001953125,-0.2722499966621399,-1.042799949645996,-2.1507749557495117
1697724240933970700,10.973970703125,-0.36134999990463257,-1.0318000316619873,-1.707337498664856
1697724240943389700,10.9833896484375,-0.48730000853538513,-1.029325008392334,-1.222237467765808
1697724240952808400,10.992808349609374,-0.5263500213623047,-0.9927499890327454,-0.7726125121116638
1697724240962227200,11.002227294921875,-0.44206249713897705,-0.9512249827384949,-0.3891249895095825
1697724240971646000,11.01164599609375,-0.3345375061035156,-0.8815125226974487,-0.05926249921321869
1697724240981065000,11.02106494140625,-0.2404875010251999,-0.8364124894142151,0.2400749921798706
1697724240990483700,11.030483642578124,-0.1915374994277954,-0.8399875164031982,0.4978874921798706
1697724240999902700,11.03990283203125,-0.1671999990940094,-0.8974624872207642,0.6909375190734863
1697724241009321500,11.049321533203125,-0.14272500574588776,-0.990274965763092,0.8387500047683716
1697724241018740200,11.058740234375,-0.12443749606609344,-0.9169874787330627,0.9805124998092651
1697724241028159200,11.0681591796875,-0.07672499865293503,-0.6641250252723694,1.099037528038025
1697724241037577700,11.07757763671875,0.17861250042915344,-1.050225019454956,1.3151874542236328
1697724241046996700,11.086996826171875,0.519474983215332,-2.1338624954223633,1.453237533569336
1697724241056415500,11.09641552734375,0.5670499801635742,-2.0446250438690186,1.4459500312805176
1697724241065834200,11.105834228515626,0.17366249859333038,-1.1490875482559204,1.4092375040054321
1697724241075253000,11.1152529296875,-0.2307250052690506,-0.3232625126838684,1.5839999914169312
1697724241084672000,11.124672119140625,-0.3405874967575073,0.19359999895095825,1.8540500402450562
1697724241094090800,11.1340908203125,-0.10243749618530273,-0.6311249732971191,2.1324875354766846
1697724241103509800,11.143509765625,0.08937499672174454,-0.8277499675750732,2.149674892425537
1697724241112928500,11.152928466796874,0.06737499684095383,0.013887500390410423,1.8380999565124512
1697724241122347300,11.16234716796875,0.02956249937415123,0.016362499445676804,1.662237524986267
1697724241131766000,11.17176611328125,0.047849997878074646,-0.744700014591217,1.8870500326156616
1697724241141184800,11.181184814453125,0.13089999556541443,-0.7154124975204468,2.119149923324585
1697724241150603800,11.190603759765626,0.21518750488758087,-0.2377374917268753,2.188724994659424
1697724241160022800,11.200022705078124,0.2849000096321106,0.2387000024318695,2.16548752784729
1697724241169441500,11.209441650390625,0.4339500069618225,0.18369999527931213,2.1814374923706055
1697724241178860300,11.2188603515625,0.611050009727478,-0.10449999570846558,2.2547249794006348
1697724241188279000,11.228279052734376,0.7088124752044678,-0.2157374918460846,2.303537368774414
1697724241197698000,11.237697998046874,0.7235249876976013,-0.17173749208450317,2.2400124073028564
1697724241207116800,11.24711669921875,0.6953374743461609,-0.0789249986410141,2.0983874797821045
1697724241216535600,11.25653564453125,0.677049994468689,-0.1069749966263771,1.916337490081787
1697724241225954300,11.265954345703125,0.6733375191688538,-0.35007500648498535,1.7183375358581543
1697724241235373000,11.275373046875,0.6635749936103821,-0.783887505531311,1.5144250392913818
1697724241244792000,11.2847919921875,0.6367624998092651,-1.1796125173568726,1.278612494468689
1697724241254210600,11.29421044921875,0.6122875213623047,-1.4777125120162964,1.0158499479293823
1697724241263629600,11.303629638671875,0.5720000267028809,-1.724524974822998,0.762987494468689
1697724241273048300,11.31304833984375,0.5389999747276306,-1.944387435913086,0.5321249961853027
1697724241282467000,11.322467041015624,0.5022875070571899,-2.093437433242798,0.3133625090122223
1697724241291885800,11.3318857421875,0.4399999976158142,-2.1949124336242676,0.1350249946117401
1697724241301304800,11.341304931640625,0.38499999046325684,-2.280437469482422,0.0042624999769032
1697724241310723800,11.350723876953126,0.2579500079154968,-2.395250082015991,-0.1093124970793724
1697724241320142300,11.360142333984374,0.12966249883174896,-2.4124374389648438,-0.1288374960422516
1697724241329561000,11.36956103515625,0.035612501204013824,-2.3060123920440674,-0.09102500230073929
1697724241338980000,11.37897998046875,-0.04372499883174896,-2.17291259765625,0.0031624999828636646
1697724241348398800,11.38839892578125,-0.12443749606609344,-2.0629124641418457,0.15331250429153442
1697724241357817600,11.397817626953126,-0.21119999885559082,-2.0213875770568848,0.32436248660087585
1697724241367236600,11.407236572265624,-0.2857249975204468,-2.048337459564209,0.478362500667572
1697724241376655400,11.4166552734375,-0.3590124845504761,-2.078862428665161,0.5931749939918518
1697724241386074000,11.42607421875,-0.41635000705718994,-2.051912546157837,0.6774625182151794
1697724241395493000,11.4354931640625,-0.45553749799728394,-1.9530500173568726,0.7177500128746033
1697724241404911900,11.444911865234374,-0.4676375091075897,-1.7587624788284302,0.7226999998092651
1697724241414330600,11.45433056640625,-0.44577500224113464,-1.5046625137329102,0.6921749711036682
1697724241423749600,11.46374951171875,-0.4175874888896942,-1.2835625410079956,0.6261749863624573
1697724241433168400,11.47316845703125,-0.38458749651908875,-1.1686124801635742,0.5455999970436096
1697724241442587100,11.482587158203126,-0.3797749876976013,-1.1638000011444092,0.469837486743927
1697724241452006000,11.492005859375,-0.35530000925064087,-1.1686124801635742,0.4246000051498413
1697724241461425000,11.5014248046875,-0.3003000020980835,-1.1308000087738037,0.40136250853538513
1697724241470843400,11.510843505859375,-0.24777500331401825,-1.0282249450683594,0.40012499690055847
1697724241480262700,11.5202626953125,-0.21848750114440918,-0.932937502861023,0.40383750200271606
1697724241489681400,11.529681396484374,-0.18548749387264252,-0.9022749662399292,0.3988874852657318
1697724241499100000,11.539099853515625,-0.11467500030994415,-0.8974624872207642,0.40988749265670776
1697724241508519000,11.548518798828125,-0.013199999928474426,-0.9646999835968018,0.39531248807907104
1697724241517937700,11.557937744140625,0.08689999580383301,-0.9927499890327454,0.3451249897480011
1697724241527356400,11.5673564453125,0.16266250610351562,-0.8694124817848206,0.2938374876976013
1697724241536775400,11.576775390625,0.22618749737739563,-0.6481750011444092,0.23649999499320984
1697724241546194000,11.58619384765625,0.29218751192092896,-0.43683749437332153,0.15331250429153442
1697724241555612700,11.59561279296875,0.328900009393692,-0.26221248507499695,0.060499999672174454
1697724241565032000,11.605031982421876,0.32766249775886536,-0.1424500048160553,-0.016499999910593033
1697724241574450700,11.61445068359375,0.26413750648498535,-0.09721250087022781,-0.05926249921321869
1697724241583869400,11.623869384765625,0.20061250030994415,-0.08139999955892563,-0.036024998873472214
1697724241593288200,11.6332880859375,0.16142499446868896,-0.09721250087022781,0.023924998939037323
1697724241602707200,11.642707275390626,0.14190000295639038,-0.1424500048160553,0.08978749811649323
1697724241612126000,11.6521259765625,0.13089999556541443,-0.14492499828338623,0.13626250624656677
1697724241621544700,11.661544677734375,0.11261250078678131,-0.05816249921917915,0.1545500010251999
1697724241630963700,11.670963623046875,0.09184999763965607,0.0859375,0.16073749959468842
1697724241640382500,11.680382568359375,0.0648999959230423,0.2546499967575073,0.17173749208450317
1697724241649801000,11.689801025390626,0.02461249940097332,0.4525125026702881,0.2022625058889389
1697724241659220000,11.699219970703124,-0.040150001645088196,0.6773250102996826,0.25850000977516174
1697724241668638700,11.708638671875,-0.10724999755620956,0.8776624798774719,0.33783748745918274
1697724241678057700,11.7180576171875,-0.15496249496936798,1.042662501335144,0.44165000319480896
1697724241687476500,11.7274765625,-0.12196250259876251,1.179474949836731,0.561412513256073
1697724241696895200,11.736895263671874,-0.06324999779462814,1.2465749979019165,0.6298875212669373
1697724241706314000,11.74631396484375,0.012374999932944775,1.2332375049591064,0.6102250218391418
1697724241715733000,11.75573291015625,0.08689999580383301,1.1684750318527222,0.49912500381469727
1697724241725151700,11.76515185546875,0.14685000479221344,1.025475025177002,0.29878750443458557
1697724241734570800,11.77457080078125,0.15537500381469727,0.8141375184059143,0.048262499272823334
1697724241743989500,11.783989501953124,0.1223749965429306,0.6198499798774719,-0.18988749384880066
1697724241753408300,11.793408203125,0.1504250019788742,0.43779999017715454,-0.34636250138282776
1697724241762827000,11.802826904296875,0.2139499932527542,0.22893749177455902,-0.44769999384880066
1697724241772245800,11.812245849609376,0.23594999313354492,-0.023924998939037323,-0.5357000231742859
1697724241781664500,11.82166455078125,0.2139499932527542,-0.3330250084400177,-0.6370375156402588
1697724241791083300,11.831083251953125,0.1896124929189682,-0.5858874917030334,-0.8105624914169312
1697724241800502000,11.840501953125,0.1639000028371811,-0.2194499969482422,-1.3162875175476074
1697724241809921000,11.849921142578125,0.1358499974012375,0.649275004863739,-2.1019625663757324
1697724241819340000,11.859340087890626,0.14932499825954437,1.2527624368667603,-2.687162399291992
1697724241828758800,11.8687587890625,0.19689999520778656,1.4225749969482422,-2.8483123779296875
