time,seconds_elapsed,z,y,x
1701865418676199400,0.162199462890625,-3.397305965423584,-0.2569432258605957,-2.971601963043213
1701865418685792500,0.17179248046875,-3.5123891830444336,-0.2241511344909668,-2.7933084964752197
1701865418695385900,0.1813857421875,-3.39559268951416,-0.17605209350585938,-2.2148280143737793
1701865418704978700,0.190978759765625,-2.96256160736084,-0.10789918899536133,-1.3443658351898193
1701865418714570800,0.20057080078125,-2.2795701026916504,-0.026432037353515625,-0.3725125789642334
1701865418724163600,0.21016357421875,-1.2118911743164062,-0.007136344909667969,0.4182446300983429
1701865418733757200,0.219757080078125,-0.292417049407959,0.003189563751220703,0.9163302183151245
1701865418743349800,0.229349853515625,0.1501293182373047,-0.0031027793884277344,0.9972708225250244
1701865418752941800,0.23894189453125,0.4673166275024414,-0.14560985565185547,0.6357353925704956
1701865418762534700,0.24853466796875,0.5236725807189941,-0.2893552780151367,-0.1331801414489746
1701865418772128300,0.258128173828125,0.15671348571777344,-0.28797340393066406,-0.9928144812583923
1701865418781720800,0.267720947265625,-0.2915201187133789,-0.015886306762695312,-1.4132119417190552
1701865418791313000,0.27731298828125,-0.6876707077026367,0.2888979911804199,-1.3700127601623535
1701865418800905700,0.28690576171875,-1.2303714752197266,0.26471900939941406,-0.4827565550804138
1701865418810499300,0.296499267578125,-1.3339214324951172,0.0003476142883300781,0.4533330202102661
1701865418820092200,0.306092041015625,-1.3029041290283203,0.059923648834228516,1.02366042137146
1701865418829684200,0.315684326171875,-1.1059269905090332,0.2906031608581543,1.286139726638794
1701865418839276800,0.32527685546875,-0.24366426467895508,0.24401187896728516,1.662153959274292
1701865418848870400,0.334870361328125,0.20131778717041016,0.15692901611328125,1.5369000434875488
1701865418858463200,0.344463134765625,0.33484745025634766,0.13040447235107422,0.6987931728363037
1701865418868055300,0.35405517578125,0.32611942291259766,-0.016892433166503906,-0.015383124351501465
1701865418877648100,0.363648193359375,-0.19598388671875,-0.13602495193481445,-0.6353011131286621
1701865418887241700,0.37324169921875,-0.7544236183166504,0.03148365020751953,-1.2405283451080322
1701865418896834300,0.382834228515625,-1.1860032081604004,0.20145940780639648,-1.669136881828308
1701865418906426400,0.39242626953125,-1.3054523468017578,0.16017913818359375,-1.7903006076812744
1701865418916019200,0.402019287109375,-0.9250583648681641,0.1171870231628418,-1.7814916372299194
1701865418925612800,0.41161279296875,-0.48486900329589844,0.06597900390625,-1.5560611486434937
1701865418935205600,0.42120556640625,-0.3926725387573242,0.09060192108154297,-1.1572073698043823
1701865418944797400,0.43079736328125,0.1674356460571289,0.2575387954711914,-0.6683841943740845
1701865418954390300,0.440390380859375,0.9225225448608398,0.31638193130493164,-0.4123845398426056
1701865418963984000,0.44998388671875,1.5959835052490234,0.26793336868286133,-0.44481730461120605
1701865418973576700,0.45957666015625,1.948014736175537,0.23730707168579102,-0.12029749155044556
1701865418983168800,0.469168701171875,2.0077567100524902,0.020175933837890625,0.2329595685005188
1701865418992761600,0.47876171875,1.767014980316162,-0.11074304580688477,0.4086686372756958
1701865419002355000,0.48835498046875,1.5900297164916992,-0.15260934829711914,0.3900059759616852
1701865419011947800,0.49794775390625,1.2511897087097168,-0.16444730758666992,0.5978464484214783
1701865419021539800,0.507539794921875,0.6137781143188477,-0.08514976501464844,0.8217725157737732
1701865419031132700,0.517132568359375,-0.04042863845825195,-0.14937353134155273,0.8969861268997192
1701865419040726300,0.526726318359375,-0.3406691551208496,-0.3673992156982422,0.8585596084594727
1701865419050318800,0.53631884765625,-0.3585333824157715,-0.47270727157592773,0.6332464218139648
1701865419059911000,0.545910888671875,-0.3842320442199707,-0.41945505142211914,0.20798814296722412
1701865419069503700,0.555503662109375,-0.7903685569763184,-0.22997570037841797,-0.1889691948890686
1701865419079097300,0.565097412109375,-1.339665412902832,0.03893613815307617,-0.4104316830635071
1701865419088690000,0.57468994140625,-1.1286439895629883,-0.10291242599487305,-0.515856146812439
1701865419098282000,0.584281982421875,-0.9927363395690918,0.03178596496582031,-1.0620821714401245
1701865419107874800,0.593874755859375,-1.0356545448303223,0.5453004837036133,-1.0601651668548584
1701865419117468400,0.603468505859375,-0.9253177642822266,0.6950984001159668,-0.6216982007026672
1701865419127061200,0.613061279296875,-0.41768312454223633,0.5771169662475586,-0.1452864408493042
1701865419136653000,0.622653076171875,0.13649415969848633,0.5233302116394043,0.10198462009429932
1701865419146246100,0.63224609375,0.39144086837768555,0.46970510482788086,0.40576207637786865
1701865419155839500,0.641839599609375,0.4320855140686035,0.503448486328125,0.6069445610046387
1701865419165432300,0.651432373046875,0.40531444549560547,0.566840648651123,0.5183968544006348
1701865419175024400,0.6610244140625,0.5229272842407227,0.5562953948974609,0.39182090759277344
1701865419184617200,0.6706171875,0.9131355285644531,0.4597930908203125,0.31637024879455566
1701865419194210800,0.6802109375,1.4760828018188477,0.3544950485229492,0.33292484283447266
1701865419203803600,0.6898037109375,1.9128742218017578,0.304903507232666,0.30663156509399414
1701865419213395500,0.6993955078125,2.1350040435791016,0.1675410270690918,0.3614475727081299
1701865419222988300,0.70898828125,2.1264820098876953,-0.0023217201232910156,0.38500142097473145
1701865419232582000,0.718581787109375,1.5846943855285645,-0.09265947341918945,0.30337071418762207
1701865419242174500,0.728174560546875,0.3554654121398926,0.12085819244384766,-0.00928497314453125
1701865419251766500,0.7377666015625,-0.5676722526550293,0.371279239654541,-0.4523913860321045
1701865419261359400,0.747359375,-1.0528745651245117,0.508880615234375,-0.775374174118042
1701865419270953000,0.756952880859375,-1.5362868309020996,0.4575023651123047,-0.7850692272186279
1701865419280545800,0.7665458984375,-1.9093165397644043,0.25673389434814453,-0.6465046405792236
1701865419290137900,0.776137939453125,-1.9036011695861816,0.06867504119873047,-0.28382253646850586
1701865419299730700,0.785730712890625,-1.59480619430542,0.2744450569152832,-0.27799367904663086
1701865419309324000,0.795323974609375,-1.0857305526733398,0.6178526878356934,-0.5959682464599609
1701865419318916900,0.804916748046875,-0.5510478019714355,0.9174766540527344,-0.884333610534668
1701865419328509000,0.814509033203125,-0.47391510009765625,0.8392181396484375,-0.7742311954498291
1701865419338101800,0.824101806640625,-0.9580531120300293,0.27200746536254883,-0.14798593521118164
1701865419347695400,0.8336953125,-0.25647544860839844,0.7248468399047852,-2.017073631286621
1701865419357288200,0.8432880859375,-0.31096982955932617,1.3797407150268555,-1.862479567527771
1701865419366880000,0.8528798828125,0.10804271697998047,1.7029380798339844,-2.1179826259613037
1701865419376472800,0.862472900390625,0.3534407615661621,1.7112464904785156,-2.4093751907348633
1701865419386066400,0.87206640625,0.058725833892822266,1.5259313583374023,-2.1049883365631104
1701865419395659300,0.8816591796875,-0.3884873390197754,1.2881669998168945,-1.7920308113098145
1701865419405251000,0.8912509765625,-0.30671167373657227,1.1245341300964355,-1.4632456302642822
1701865419414844000,0.900843994140625,-0.1066122055053711,1.0826969146728516,-1.0241379737854004
1701865419424437500,0.9104375,0.1832594871520996,0.9365053176879883,-0.5811289548873901
1701865419434030300,0.9200302734375,0.6247940063476562,0.8107709884643555,-0.1853623390197754
1701865419443622400,0.929622314453125,1.0128960609436035,0.9145455360412598,0.026112794876098633
1701865419453215000,0.939215087890625,0.9954957962036133,1.1218461990356445,-0.01938772201538086
1701865419462808600,0.94880859375,0.6695823669433594,1.2044715881347656,-0.21628046035766602
1701865419472401400,0.9584013671875,-0.009183883666992188,0.7834763526916504,-0.18417930603027344
1701865419481993500,0.967993408203125,-0.8258748054504395,0.07727241516113281,0.2065753936767578
1701865419491586300,0.97758642578125,-1.3603930473327637,-0.539726734161377,0.6819925308227539
1701865419501180000,0.987179931640625,-1.6527652740478516,-0.6643576622009277,1.140960931777954
1701865419510772500,0.9967724609375,-1.7556686401367188,-0.31694650650024414,1.0677986145019531
1701865419520364500,1.006364501953125,-1.534365177154541,-0.1784343719482422,0.8846204280853271
1701865419529957400,1.015957275390625,-0.7725057601928711,-0.07947683334350586,0.7787845134735107
1701865419539551000,1.025551025390625,-0.2693309783935547,-0.07013654708862305,0.8647220134735107
1701865419549143600,1.0351435546875,-0.30469608306884766,-0.6186456680297852,1.3805201053619385
1701865419558735600,1.044735595703125,-0.070068359375,-0.7838778495788574,1.0702440738677979
1701865419568328400,1.054328369140625,0.4992513656616211,-0.3103518486022949,-0.014939069747924805
1701865419577922000,1.063922119140625,1.0088553428649902,-0.004916191101074219,-0.5209100246429443
1701865419587515000,1.073514892578125,1.1033549308776855,-0.17440223693847656,-0.49555206298828125
1701865419597107000,1.08310693359375,0.9268026351928711,-0.392763614654541,0.14177584648132324
1701865419606699500,1.092699462890625,0.7258143424987793,-0.5240559577941895,0.8069546222686768
1701865419616293000,1.102293212890625,0.6108522415161133,-0.5894603729248047,0.8470304012298584
1701865419625886000,1.111885986328125,0.6953496932983398,-0.45856380462646484,0.5095019340515137
1701865419635478000,1.12147802734375,0.9074292182922363,-0.27838134765625,0.23677992820739746
1701865419645070800,1.13107080078125,0.7978010177612305,-0.23102903366088867,0.1636981964111328
1701865419654664200,1.140664306640625,0.554131031036377,-0.19640827178955078,0.17290616035461426
1701865419664257000,1.150257080078125,0.3790578842163086,-0.08821916580200195,0.14213800430297852
1701865419673849000,1.15984912109375,0.3117818832397461,-0.003348827362060547,0.0857081413269043
1701865419683442000,1.16944189453125,0.19549322128295898,-0.03307151794433594,0.12930512428283691
1701865419693035500,1.179035400390625,0.20282506942749023,-0.08604812622070312,0.14869236946105957
1701865419702628000,1.188628173828125,0.44357872009277344,-0.12804174423217773,0.18222594261169434
1701865419712220200,1.19822021484375,0.8618412017822266,-0.18726873397827148,0.31623077392578125
1701865419721813000,1.20781298828125,1.152207851409912,-0.2416238784790039,0.4643545150756836
1701865419731406600,1.217406494140625,0.974090576171875,-0.31900691986083984,0.6396479606628418
1701865419740999400,1.22699951171875,0.26886987686157227,-0.3083333969116211,0.6952462196350098
1701865419750591200,1.23659130859375,-0.30185365676879883,0.09229135513305664,0.6833910942077637
1701865419760184000,1.24618408203125,-1.142876148223877,0.2395153045654297,0.7034711837768555
1701865419769777700,1.255777587890625,-1.6182608604431152,0.27689027786254883,0.5012965202331543
1701865419779370500,1.26537060546875,-1.5713229179382324,0.3920421600341797,0.09459447860717773
1701865419788962600,1.274962646484375,-1.1116623878479004,0.31406545639038086,-0.13529253005981445
1701865419798555100,1.28455517578125,-0.6105704307556152,0.11684179306030273,0.12642192840576172
1701865419808148700,1.294148681640625,-0.14913225173950195,-0.006198883056640625,0.3176136016845703
1701865419817741600,1.303741455078125,0.23998451232910156,-0.10262298583984375,0.45052528381347656
1701865419827333600,1.313333740234375,0.40286779403686523,-0.06262350082397461,0.5742592811584473
1701865419836926500,1.322926513671875,0.10790157318115234,0.05023765563964844,0.5878486633300781
1701865419846520000,1.33252001953125,-0.1343522071838379,0.1455225944519043,0.45131826400756836
1701865419856112600,1.342112548828125,-0.19199323654174805,0.17093133926391602,0.299224853515625
1701865419865704700,1.35170458984375,-0.15531206130981445,0.18529701232910156,0.14223051071166992
1701865419875297500,1.361297607421875,0.03606986999511719,0.20695114135742188,-0.05023813247680664
1701865419884891100,1.37089111328125,0.20203304290771484,0.13997936248779297,-0.10606575012207031
1701865419894484000,1.38048388671875,0.20774221420288086,0.10236740112304688,-0.06831073760986328
1701865419904075800,1.39007568359375,0.23355674743652344,0.056342124938964844,0.027377605438232422
1701865419913668600,1.399668701171875,0.2901115417480469,-0.025231361389160156,0.01600170135498047
1701865419923262200,1.40926220703125,0.20906925201416016,-0.01226043701171875,-0.01851034164428711
1701865419932855000,1.41885498046875,0.0703120231628418,0.07229328155517578,-0.15662145614624023
1701865419942446800,1.42844677734375,-0.07310676574707031,0.10567140579223633,-0.24976682662963867
1701865419952039700,1.438039794921875,-0.31502771377563477,0.11829519271850586,-0.34383392333984375
1701865419961633300,1.44763330078125,-0.5115923881530762,0.15249395370483398,-0.5076766014099121
1701865419971226000,1.45722607421875,-0.6238322257995605,0.10001516342163086,-0.6315884590148926
1701865419980818200,1.466818115234375,-0.5801987648010254,-0.13111019134521484,-0.37927913665771484
1701865419990411000,1.476410888671875,-0.21685123443603516,-0.25557994842529297,-0.3164973258972168
1701865420000004400,1.48600439453125,0.13457632064819336,-0.19322681427001953,-0.23605728149414062
1701865420009597200,1.49559716796875,-0.004606723785400391,-0.1746664047241211,-0.7182455062866211
1701865420019189200,1.505189208984375,-0.4199709892272949,-0.27707338333129883,-0.9079494476318359
1701865420028782000,1.514781982421875,-0.5608854293823242,-0.20143842697143555,-0.874058723449707
1701865420038375700,1.524375732421875,-0.6145615577697754,-0.005780696868896484,-0.9943490028381348
1701865420047968300,1.53396826171875,-0.5154008865356445,0.13888883590698242,-1.2067856788635254
1701865420057560300,1.543560302734375,-0.3377189636230469,0.0756998062133789,-1.1329197883605957
1701865420067153200,1.553153076171875,-0.2681727409362793,-0.09993505477905273,-0.8347630500793457
1701865420076746800,1.562746826171875,-0.290651798248291,-0.28777170181274414,-0.5761289596557617
1701865420086339600,1.572339599609375,-0.38289976119995117,-0.4838385581970215,-0.46784210205078125
1701865420095931400,1.581931396484375,-0.4705047607421875,-0.628201961517334,-0.5569305419921875
1701865420105524200,1.591524169921875,-0.529841423034668,-0.6736793518066406,-0.7036318778991699
1701865420115117800,1.601117919921875,-0.6210060119628906,-0.6443486213684082,-0.6835074424743652
1701865420124710700,1.610710693359375,-0.7777233123779297,-0.665679931640625,-0.38613319396972656
1701865420134302700,1.620302734375,-0.643406867980957,-0.6843509674072266,-0.06063413619995117
1701865420143895300,1.629895263671875,-0.457550048828125,-0.5407800674438477,-0.22826194763183594
1701865420153489000,1.639489013671875,-0.5364198684692383,-0.46920347213745117,-0.18901443481445312
1701865420163081700,1.649081787109375,-0.5639939308166504,-0.49652767181396484,-0.43296384811401367
1701865420172673800,1.658673828125,-0.42227602005004883,-0.43783092498779297,-0.5678482055664062
1701865420182266600,1.6682666015625,-0.30455541610717773,-0.37972307205200195,-0.47255802154541016
1701865420191860200,1.677860107421875,-0.25663232803344727,-0.3753175735473633,-0.39661455154418945
1701865420201452800,1.687452880859375,-0.2459101676940918,-0.3957066535949707,-0.4665989875793457
1701865420211044900,1.697044921875,-0.22173118591308594,-0.3323192596435547,-0.7985348701477051
1701865420220637700,1.7066376953125,-0.26638174057006836,-0.33664560317993164,-1.0539145469665527
1701865420230231300,1.716231201171875,-0.3455042839050293,-0.429901123046875,-0.8524169921875
1701865420239824100,1.72582421875,-0.41727638244628906,-0.3888998031616211,-0.5615124702453613
1701865420249416000,1.735416015625,-0.4072275161743164,-0.39453697204589844,-0.07272720336914062
1701865420259008800,1.7450087890625,-0.5038862228393555,-0.2851090431213379,0.8168401718139648
1701865420268602400,1.754602294921875,-0.6450200080871582,0.12836790084838867,1.2812318801879883
1701865420278195000,1.76419482421875,-0.5985426902770996,0.4742465019226074,1.333078384399414
1701865420287787000,1.773787109375,-0.3807058334350586,0.5834755897521973,1.211442470550537
1701865420297379800,1.7833798828125,-0.16054344177246094,0.6395883560180664,1.0107812881469727
1701865420306973400,1.792973388671875,-0.08420181274414062,0.6570003032684326,0.7162485122680664
1701865420316566300,1.802566162109375,-0.041638851165771484,0.6707272529602051,0.5322484970092773
1701865420326158000,1.812157958984375,0.25129222869873047,0.5541129112243652,0.5991744995117188
1701865420335751000,1.8217509765625,0.5268993377685547,0.45098066329956055,1.1803059577941895
1701865420345344500,1.831344482421875,0.6071195602416992,0.5006251335144043,1.4430046081542969
1701865420354937300,1.840937255859375,0.6929202079772949,0.5551643371582031,1.438117504119873
1701865420364529400,1.850529296875,0.7438650131225586,0.5682742595672607,1.3299965858459473
1701865420374122200,1.860122314453125,0.7499423027038574,0.5410568714141846,1.0174531936645508
1701865420383715800,1.8697158203125,0.7576298713684082,0.5352332592010498,0.6032023429870605
1701865420393308400,1.879308349609375,0.762387752532959,0.5453987121582031,0.3375968933105469
1701865420402900500,1.888900390625,0.7035541534423828,0.6230998039245605,0.0729818344116211
1701865420412493300,1.898493408203125,0.6671991348266602,0.7052023410797119,-0.17708587646484375
1701865420422087000,1.9080869140625,0.5049996376037598,0.6688182353973389,-0.34223318099975586
1701865420431679700,1.9176796875,0.3591747283935547,0.6050629615783691,-0.31347036361694336
1701865420441271600,1.927271484375,0.3008108139038086,0.5540511608123779,-0.1614551544189453
1701865420450864400,1.936864501953125,0.3510289192199707,0.5243875980377197,0.11721563339233398
1701865420460458000,1.9464580078125,0.33052921295166016,0.48631763458251953,0.42613697052001953
1701865420470050600,1.956050537109375,0.2625999450683594,0.4656033515930176,0.5920004844665527
1701865420479642600,1.965642578125,0.3569517135620117,0.42000341415405273,0.5662522315979004
1701865420489235500,1.9752353515625,0.42223024368286133,0.35403943061828613,0.36915111541748047
1701865420498829000,1.9848291015625,0.5109047889709473,0.2796361446380615,0.10656213760375977
1701865420508422000,1.994421875,0.591975212097168,0.21037936210632324,-0.1637406349182129
1701865420518013700,2.004013671875,0.6310176849365234,0.12553858757019043,-0.27127552032470703
1701865420527606500,2.0136064453125,0.6849756240844727,0.13421249389648438,-0.23784255981445312
1701865420537200000,2.0232001953125,0.7408599853515625,0.15886354446411133,-0.19900131225585938
1701865420546793000,2.03279296875,0.7567887306213379,0.08630681037902832,-0.09397029876708984
1701865420556384800,2.042384765625,0.8585586547851562,0.003994464874267578,0.05626249313354492
1701865420565977900,2.051977783203125,0.9677548408508301,-0.07756257057189941,0.2609682083129883
1701865420575571200,2.0615712890625,0.9600358009338379,-0.07356119155883789,0.3703007698059082
1701865420585164000,2.0711640625,0.8983731269836426,-0.1283884048461914,0.47515201568603516
1701865420594756000,2.080756103515625,0.8697257041931152,-0.19428801536560059,0.5081725120544434
1701865420604349000,2.090348876953125,0.877479076385498,-0.17281627655029297,0.4376821517944336
1701865420613942300,2.0999423828125,0.7807202339172363,-0.11367952823638916,0.4212923049926758
1701865420623535000,2.10953515625,0.5857219696044922,-0.016168594360351562,0.3903355598449707
1701865420633127200,2.119127197265625,0.3985719680786133,0.041944146156311035,0.3123626708984375
1701865420642720000,2.128719970703125,0.24630498886108398,0.0982217788696289,0.19541072845458984
1701865420652313600,2.138313720703125,0.04864358901977539,0.15192198753356934,0.10467720031738281
1701865420661906200,2.14790625,-0.1326913833618164,0.19194316864013672,0.05689668655395508
1701865420671498200,2.157498291015625,-0.06659793853759766,0.20595121383666992,0.05747365951538086
1701865420681091000,2.167091064453125,0.07779312133789062,0.2540404796600342,0.18273639678955078
1701865420690684700,2.1766845703125,0.1737523078918457,0.321242094039917,0.3881678581237793
1701865420700277500,2.186277587890625,0.35215330123901367,0.36005711555480957,0.5532307624816895
1701865420709869300,2.195869384765625,0.48694419860839844,0.38429129123687744,0.5538010597229004
1701865420719462100,2.205462158203125,0.5186381340026855,0.36865782737731934,0.5120272636413574
1701865420729055700,2.2150556640625,0.45561885833740234,0.3241860866546631,0.4671192169189453
1701865420738648600,2.224648681640625,0.42305755615234375,0.22796344757080078,0.45581531524658203
1701865420748240600,2.23424072265625,0.43080759048461914,0.08331847190856934,0.5101914405822754
1701865420757833200,2.243833251953125,0.4259042739868164,-0.020923256874084473,0.5269460678100586
1701865420767426800,2.2534267578125,0.4864358901977539,-0.11340999603271484,0.5590791702270508
1701865420777019600,2.26301953125,0.5875434875488281,-0.2370893955230713,0.5879530906677246
1701865420786611700,2.27261181640625,0.5668063163757324,-0.3496333360671997,0.7131996154785156
1701865420796204500,2.28220458984375,0.4659905433654785,-0.41105377674102783,0.7949905395507812
1701865420805798000,2.2917978515625,0.3911423683166504,-0.4504433870315552,0.8043756484985352
1701865420815390700,2.301390625,0.38289594650268555,-0.5018972158432007,0.8400707244873047
1701865420824982800,2.310982666015625,0.35469961166381836,-0.5730080604553223,0.7815170288085938
1701865420834575600,2.32057568359375,0.3682703971862793,-0.6475996971130371,0.59442138671875
1701865420844169200,2.330169189453125,0.4886918067932129,-0.8062018156051636,0.3477334976196289
1701865420853761800,2.33976171875,0.7087702751159668,-1.0205156803131104,-0.0423436164855957
1701865420863353900,2.349353759765625,0.996912956237793,-1.143320083618164,-0.6973867416381836
1701865420872946700,2.35894677734375,1.3465261459350586,-1.1968975067138672,-1.5580730438232422
1701865420882540300,2.368540283203125,1.627739429473877,-1.2961456775665283,-2.3842148780822754
1701865420892132900,2.3781328125,1.8401050567626953,-1.5154805183410645,-2.8679842948913574
1701865420901725000,2.387724853515625,2.2306418418884277,-1.6917169094085693,-3.2268686294555664
1701865420911317800,2.39731787109375,2.798305034637451,-1.8543970584869385,-3.5349860191345215
1701865420920911400,2.406911376953125,3.286088466644287,-1.9722424745559692,-3.885374069213867
1701865420930504000,2.41650390625,3.591278076171875,-1.9934039115905762,-4.415205955505371
1701865420940096000,2.426095947265625,3.5399131774902344,-2.150151014328003,-4.992802143096924
1701865420949688800,2.435688720703125,3.190211296081543,-2.583162784576416,-5.396160125732422
1701865420959282400,2.445282470703125,2.7883715629577637,-2.9771273136138916,-5.940012454986572
1701865420968875300,2.454875244140625,2.459035873413086,-3.2051992416381836,-6.451478004455566
1701865420978467000,2.464467041015625,2.209554672241211,-3.549088716506958,-6.454891204833984
1701865420988060200,2.47406005859375,1.990809440612793,-3.855393648147583,-5.824054718017578
1701865420997653500,2.483653564453125,1.6758959293365479,-3.881410837173462,-4.984858512878418
1701865421007246300,2.493246337890625,1.1488819122314453,-3.7027571201324463,-4.312609672546387
1701865421016838400,2.50283837890625,0.32178425788879395,-3.5412139892578125,-3.772979259490967
1701865421026431200,2.51243115234375,-0.6069889068603516,-3.4427907466888428,-3.4303388595581055
1701865421036024600,2.522024658203125,-1.3596041202545166,-3.2433693408966064,-3.2997074127197266
1701865421045617400,2.531617431640625,-2.011068344116211,-3.1692442893981934,-3.0986404418945312
1701865421055209500,2.54120947265625,-2.5214202404022217,-3.0557847023010254,-2.595421314239502
1701865421064802300,2.55080224609375,-2.9512813091278076,-2.752427101135254,-1.7334065437316895
1701865421074396000,2.56039599609375,-3.447714328765869,-2.406092882156372,-0.8530416488647461
1701865421083988500,2.569988525390625,-3.955287456512451,-2.048482656478882,-0.19075584411621094
1701865421093580500,2.57958056640625,-4.564998626708984,-1.8015668392181396,-0.049612998962402344
1701865421103173400,2.58917333984375,-5.302887439727783,-1.708709716796875,-0.29839134216308594
1701865421112767000,2.59876708984375,-5.880884170532227,-1.885636806488037,-0.6908493041992188
1701865421122359600,2.608359619140625,-6.062862873077393,-2.1476247310638428,-0.94580078125
1701865421131951600,2.61795166015625,-5.919644355773926,-2.524601459503174,-1.044407844543457
1701865421141544400,2.62754443359375,-5.316234111785889,-2.8277740478515625,-0.5236301422119141
1701865421151138000,2.637137939453125,-4.520681858062744,-2.994328022003174,0.4444398880004883
1701865421160730600,2.646730712890625,-4.007706165313721,-2.961629867553711,1.3499031066894531
1701865421170322700,2.65632275390625,-3.82470965385437,-2.87949800491333,2.5848636627197266
1701865421179915500,2.66591552734375,-3.723043203353882,-2.6577930450439453,3.685016632080078
1701865421189509000,2.675509033203125,-4.81735897064209,-2.3999953269958496,4.827455520629883
1701865421199102000,2.68510205078125,-6.304417133331299,-1.913881778717041,5.279819011688232
1701865421208693800,2.69469384765625,-6.7747273445129395,-1.314836025238037,5.2501678466796875
1701865421218286600,2.70428662109375,-6.233339786529541,-1.0506300926208496,5.327045440673828
1701865421227880200,2.713880126953125,-5.659357070922852,-0.6409902572631836,4.576031684875488
1701865421237473000,2.72347314453125,-5.349869251251221,-0.582921028137207,3.1406006813049316
1701865421247064800,2.73306494140625,-4.671587944030762,-0.611849308013916,1.6939988136291504
1701865421256658000,2.742657958984375,-3.80299973487854,-0.711479663848877,0.31499290466308594
1701865421266251300,2.752251220703125,-2.7856762409210205,-0.7257580757141113,-1.3887152671813965
1701865421275844000,2.761843994140625,6.7182841300964355,-5.022274494171143,1.4356675148010254
1701865421285436200,2.771436279296875,10.142993927001953,-4.480467796325684,4.658184051513672
1701865421295029000,2.781029052734375,8.766929626464844,-3.0496444702148438,3.1895856857299805
1701865421304622600,2.79062255859375,4.587486267089844,-2.10654878616333,1.7263903617858887
1701865421314215200,2.800215087890625,-0.45729517936706543,-0.8529934883117676,-0.6322650909423828
1701865421323807200,2.80980712890625,-3.276217460632324,-0.28671979904174805,-1.5134406089782715
1701865421333400000,2.819400146484375,-3.452523708343506,-0.47217416763305664,-1.5547499656677246
1701865421342993700,2.82899365234375,-2.3976478576660156,-0.8760910034179688,-1.275346279144287
1701865421352586200,2.838586181640625,-1.3220287561416626,-0.7410087585449219,-1.6230783462524414
1701865421362178300,2.84817822265625,1.3421456813812256,-1.015678882598877,0.18173599243164062
1701865421371771100,2.857771240234375,3.074881076812744,-1.3491020202636719,-0.8199481964111328
1701865421381364700,2.86736474609375,-1.8186241388320923,-0.41887855529785156,-5.863903522491455
1701865421390957300,2.876957275390625,-6.075750350952148,3.2260260581970215,-10.249349594116211
1701865421400549400,2.88654931640625,4.962717056274414,-2.817962646484375,-3.382815361022949
1701865421410142200,2.89614208984375,1.2132697105407715,0.4612855911254883,-5.802061080932617
1701865421419735800,2.90573583984375,-2.3326120376586914,0.5469322204589844,-3.2502217292785645
1701865421429328600,2.91532861328125,-8.238390922546387,2.009268283843994,-3.5954158306121826
1701865421438920400,2.92492041015625,-3.985379219055176,-1.074763298034668,0.32915282249450684
1701865421448513300,2.93451318359375,9.526302337646484,-2.853888511657715,4.75661563873291
1701865421458107000,2.94410693359375,4.7834014892578125,-0.6353778839111328,3.9355528354644775
1701865421467699700,2.95369970703125,-1.1033906936645508,-0.7689695358276367,2.8383941650390625
1701865421477291500,2.96329150390625,-2.133990526199341,-1.0621099472045898,0.5610923767089844
1701865421486884400,2.97288427734375,-0.891564130783081,-1.766932487487793,1.1979711055755615
1701865421496478000,2.98247802734375,-1.0551433563232422,-2.087421417236328,2.4359540939331055
1701865421506070800,2.99207080078125,-1.3064923286437988,-2.5586118698120117,3.5036163330078125
1701865421515662800,3.001662841796875,-1.004244327545166,-2.8508710861206055,3.8163068294525146
1701865421525255700,3.011255615234375,-0.3554413318634033,-3.058150291442871,3.2887563705444336
1701865421534849000,3.02084912109375,0.5856866836547852,-3.585392951965332,4.13709020614624
1701865421544441900,3.03044189453125,0.5882918834686279,-2.922022819519043,3.28442120552063
1701865421554034000,3.040033935546875,-0.012783050537109375,-3.8741579055786133,2.8681414127349854
1701865421563626800,3.049626708984375,-0.6687431335449219,-3.814578056335449,3.2467150688171387
1701865421573220000,3.05922021484375,-0.6704957485198975,-4.473913192749023,6.828989505767822
1701865421582813000,3.06881298828125,1.2758665084838867,-2.381572723388672,7.825416564941406
1701865421592405000,3.078405029296875,1.2948018312454224,-0.7630987167358398,6.640768051147461
1701865421601997800,3.087997802734375,3.7190213203430176,-1.5023651123046875,1.441849708557129
1701865421611591400,3.09759130859375,2.5278260707855225,-1.415609359741211,-3.754598379135132
1701865421621184000,3.10718408203125,3.5635476112365723,-2.4172487258911133,-8.946293830871582
1701865421630776000,3.116776123046875,-4.758513927459717,-1.0858802795410156,0.9253060817718506
1701865421640369000,3.126368896484375,-2.819817543029785,1.0009245872497559,-1.010671615600586
1701865421649962500,3.13596240234375,0.2789473533630371,2.647976875305176,-0.829869270324707
1701865421659555000,3.14555517578125,0.887218713760376,3.149529457092285,-2.488286018371582
1701865421669147100,3.155147216796875,0.6954696178436279,3.0789732933044434,-2.4952011108398438
1701865421678740000,3.164739990234375,0.4859204888343811,3.061830997467041,-1.151710033416748
1701865421688333600,3.17433349609375,-0.4319349527359009,3.150125503540039,-1.2291014194488525
1701865421697926100,3.183926025390625,-1.2083157300949097,3.1958131790161133,-2.088528633117676
1701865421707518200,3.193518310546875,-2.7326161861419678,3.114635467529297,-3.066035270690918
1701865421717111000,3.203111083984375,-7.278740406036377,2.1577835083007812,-5.653759002685547
1701865421726704600,3.21270458984375,-4.733957767486572,1.131704330444336,-5.11779260635376
1701865421736297500,3.22229736328125,-1.9970957040786743,-0.10311508178710938,-2.1040563583374023
1701865421745889300,3.23188916015625,4.733579158782959,-2.653116226196289,-0.5716476440429688
1701865421755482000,3.241482177734375,5.076103210449219,-2.830129623413086,-3.009564161300659
1701865421765075700,3.25107568359375,-1.988670825958252,-3.244173049926758,-2.886763572692871
1701865421774668500,3.26066845703125,-1.8882524967193604,-3.3343591690063477,-0.9000983238220215
1701865421784260400,3.27026025390625,-0.66655433177948,-1.8196239471435547,0.45537710189819336
1701865421793853200,3.279853271484375,-0.474287748336792,-1.3333282470703125,0.978179931640625
1701865421803446800,3.28944677734375,0.15009045600891113,-1.636220932006836,2.975541591644287
1701865421813039600,3.29903955078125,0.9344211220741272,-1.2047672271728516,4.390404224395752
1701865421822631700,3.308631591796875,2.517117500305176,-0.0013284683227539062,3.284524440765381
1701865421832224500,3.318224609375,0.7289332151412964,-0.10626888275146484,2.4424219131469727
1701865421841817900,3.32781787109375,-0.09540629386901855,-0.3316926956176758,1.870439052581787
1701865421851410700,3.33741064453125,0.4728480577468872,-0.5319795608520508,1.683387279510498
1701865421861002800,3.347002685546875,1.7111629247665405,-0.22124671936035156,1.2171473503112793
1701865421870595600,3.356595703125,2.942385673522949,0.25969505310058594,0.7316241264343262
1701865421880189200,3.366189208984375,1.5569721460342407,0.43134641647338867,-0.18107938766479492
1701865421889781800,3.37578173828125,-2.7779946327209473,0.5536322593688965,-1.5461978912353516
1701865421899373800,3.385373779296875,-5.05758810043335,1.3378305435180664,-3.3916022777557373
1701865421908966700,3.394966552734375,-5.252650260925293,1.8154206275939941,-4.6991753578186035
1701865421918560300,3.404560302734375,-1.9848825931549072,1.4131927490234375,-4.791908264160156
1701865421928153000,3.414153076171875,0.0010436773300170898,0.8479833602905273,-4.856672286987305
1701865421937745000,3.423744873046875,-0.06546521186828613,0.20044946670532227,-4.866575717926025
1701865421947337700,3.433337646484375,-0.653831958770752,-0.2034473419189453,-3.80712890625
1701865421956931300,3.442931396484375,-1.355581283569336,0.30414676666259766,-2.916330337524414
1701865421966524200,3.452524169921875,0.01982170343399048,-0.13860511779785156,-2.8216679096221924
1701865421976116000,3.462115966796875,1.8804062604904175,-0.5278587341308594,-2.462705373764038
1701865421985708800,3.471708740234375,-0.12992733716964722,0.04736185073852539,-3.391738176345825
1701865421995302400,3.481302490234375,-0.8366338014602661,-1.1005535125732422,-2.4608657360076904
1701865422004895200,3.490895263671875,-1.0804164409637451,-2.051205635070801,-1.5851621627807617
1701865422014487000,3.500487060546875,-1.181973934173584,-1.7406530380249023,-0.3107333183288574
1701865422024080000,3.510079833984375,0.3473597764968872,-1.4608416557312012,0.760460376739502
1701865422033673500,3.519673583984375,0.9587039351463318,-1.3333849906921387,1.3133721351623535
1701865422043266300,3.529266357421875,0.9264966249465942,-0.6387448310852051,2.4950246810913086
1701865422052858000,3.538858154296875,0.895922064781189,0.4042048454284668,2.231478214263916
1701865422062451000,3.548450927734375,0.2230626940727234,1.2617321014404297,0.6929192543029785
1701865422072044500,3.55804443359375,-1.0432381629943848,1.6703033447265625,-1.5495843887329102
1701865422081637400,3.567637451171875,-2.195986270904541,1.8559012413024902,-3.5349435806274414
1701865422091229200,3.577229248046875,-2.874091148376465,0.9362010955810547,-2.0856270790100098
1701865422100822000,3.586822021484375,-2.8089146614074707,0.7446098327636719,-1.634265422821045
1701865422110415600,3.59641552734375,12.253520011901855,1.3517422676086426,-4.083402156829834
1701865422120008400,3.606008544921875,7.003188133239746,1.633655071258545,-2.1225101947784424
1701865422129600500,3.6156005859375,2.644710063934326,0.44971275329589844,-0.19722604751586914
1701865422139193300,3.625193359375,0.14610129594802856,-1.0189833641052246,0.9052915573120117
1701865422148786700,3.63478662109375,-0.379865825176239,-0.716698169708252,1.208357334136963
1701865422158379500,3.644379638671875,0.13811415433883667,1.0609469413757324,1.2680201530456543
1701865422167971600,3.6539716796875,-0.7138292193412781,1.706773281097412,2.4856224060058594
1701865422177564400,3.663564453125,-2.236170530319214,1.195467472076416,3.5797929763793945
1701865422187157800,3.67315771484375,-2.798306941986084,0.6082429885864258,2.4994311332702637
1701865422196750600,3.68275048828125,-2.296006202697754,0.30228424072265625,1.342752456665039
1701865422206342700,3.6923427734375,-1.1248936653137207,-0.06590461730957031,2.036832332611084
1701865422215935500,3.701935546875,-0.058931708335876465,-0.11996746063232422,1.9832744598388672
1701865422225528800,3.71152880859375,0.5984212756156921,-0.08493423461914062,1.9686598777770996
1701865422235121700,3.72112158203125,0.02987825870513916,0.355194091796875,0.9882941246032715
1701865422244713700,3.730713623046875,-0.5786137580871582,0.2990684509277344,0.44156312942504883
1701865422254306600,3.740306640625,-0.6691489219665527,0.37397289276123047,0.03705024719238281
1701865422263900200,3.749900146484375,-0.6900230646133423,0.23385238647460938,-0.40907907485961914
1701865422273492700,3.75949267578125,-0.4196997880935669,0.3266716003417969,-0.299224853515625
1701865422283084800,3.769084716796875,-0.06617105007171631,0.5247516632080078,0.21985483169555664
1701865422292677600,3.778677734375,-0.1353158950805664,0.8660635948181152,0.4666905403137207
1701865422302271200,3.788271240234375,-0.3853297233581543,0.40357208251953125,0.39746761322021484
1701865422311864000,3.797864013671875,0.23462462425231934,-0.12129497528076172,0.6970963478088379
1701865422321455900,3.807455810546875,0.4066844582557678,0.20453166961669922,0.7373471260070801
1701865422331048700,3.817048583984375,0.45634573698043823,0.5825672149658203,0.720618724822998
1701865422340642300,3.826642333984375,0.2642723321914673,0.42658519744873047,1.145582675933838
1701865422350235000,3.83623486328125,-0.06876230239868164,0.1729879379272461,1.4814085960388184
1701865422359827000,3.845826904296875,-0.28237712383270264,0.35172367095947266,1.7814178466796875
1701865422369419800,3.855419677734375,0.047949790954589844,-0.05020904541015625,1.8338420391082764
1701865422379013400,3.865013427734375,-0.3985252380371094,-1.0798101425170898,1.9330759048461914
1701865422388606200,3.874606201171875,-0.05651140213012695,-1.6617956161499023,2.1903598308563232
1701865422398198000,3.884197998046875,0.463936984539032,-2.7925004959106445,2.0163629055023193
1701865422407790800,3.893790771484375,1.38031005859375,-3.7165651321411133,1.5128328800201416
1701865422417384400,3.903384521484375,1.7281770706176758,-4.415319442749023,1.3322978019714355
1701865422426977300,3.912977294921875,0.8978940844535828,-4.263089179992676,-0.37898755073547363
1701865422436569000,3.922569091796875,0.34664255380630493,-3.6967296600341797,-1.176321268081665
1701865422446162000,3.932161865234375,-0.5058498382568359,-2.3565664291381836,-2.24318790435791
1701865422455755500,3.941755615234375,-0.6805292367935181,4.001449108123779,-7.112224578857422
1701865422465348400,3.951348388671875,-1.6886298656463623,7.156564712524414,-7.889613151550293
1701865422474940200,3.960940185546875,-0.11487281322479248,5.693213939666748,-4.156832695007324
1701865422484533000,3.970532958984375,1.134056568145752,3.6793622970581055,-3.4710376262664795
1701865422494126600,3.980126708984375,2.0926146507263184,2.168583393096924,-3.7384300231933594
1701865422503719400,3.989719482421875,2.6311018466949463,2.1904444694519043,-2.6212213039398193
1701865422513311200,3.999311279296875,-0.12656235694885254,2.3057799339294434,-1.4334379434585571
1701865422522904300,4.008904296875,-3.6964030265808105,1.210775375366211,-1.0804911851882935
1701865422532497700,4.01849755859375,-4.254533290863037,1.2261629104614258,-0.733733057975769
1701865422542090500,4.028090576171875,-3.067934036254883,2.687739849090576,0.9524474143981934
1701865422551682600,4.0376826171875,0.12964403629302979,1.2249269485473633,0.2067326307296753
1701865422561275400,4.047275390625,1.3596606254577637,-1.278860092163086,-0.28101861476898193
1701865422570868700,4.05686865234375,0.9028834104537964,-0.20945262908935547,0.7322940826416016
1701865422580461600,4.066461669921875,-0.547347903251648,1.7573237419128418,1.0445176362991333
1701865422590053600,4.0760537109375,-0.8212710618972778,2.7173075675964355,-0.04674482345581055
1701865422599646500,4.085646484375,-2.273353099822998,1.8716449737548828,-1.0285230875015259
1701865422609240000,4.095239990234375,-3.3974313735961914,0.9470205307006836,-1.301193118095398
1701865422618832600,4.10483251953125,-3.712853193283081,1.2459297180175781,-1.354529857635498
1701865422628424700,4.1144248046875,-3.5035972595214844,1.3267812728881836,-1.3331458568572998
1701865422638017500,4.124017578125,-2.7693734169006348,1.5234413146972656,-1.0649861097335815
1701865422647611100,4.133611083984375,-1.0422922372817993,1.803217887878418,-1.0633773803710938
1701865422657203700,4.14320361328125,2.4195923805236816,0.8820085525512695,-0.827725887298584
1701865422666795800,4.152795654296875,4.316956996917725,-0.3558931350708008,-1.1975123882293701
1701865422676388600,4.162388671875,3.737677574157715,-10.888608932495117,-1.4993236064910889
1701865422685982200,4.171982177734375,0.9223952293395996,-23.072261810302734,-2.2161200046539307
1701865422695574800,4.18157470703125,3.3811001777648926,-22.888702392578125,5.969502925872803
1701865422705166800,4.191166748046875,4.159435272216797,-6.364482879638672,6.061004161834717
1701865422714759700,4.200759765625,1.1681535243988037,-0.41679954528808594,3.844839572906494
1701865422724353300,4.210353271484375,-0.24519896507263184,1.6337661743164062,0.07840397953987122
1701865422733945900,4.21994580078125,-1.3905253410339355,1.637101173400879,-1.5552667379379272
1701865422743538000,4.229537841796875,-1.2797905206680298,0.9173622131347656,-1.3352831602096558
1701865422753130800,4.239130859375,-0.605100154876709,0.35370922088623047,-0.5624739527702332
1701865422762724400,4.248724365234375,0.048532843589782715,0.0063571929931640625,0.2231300175189972
1701865422772317000,4.25831689453125,0.1789301633834839,0.037262916564941406,0.41128700971603394
1701865422781909000,4.267908935546875,0.10575926303863525,0.1134653091430664,0.19411906599998474
1701865422791501800,4.277501708984375,-0.048990845680236816,0.10551834106445312,-0.06544449925422668
1701865422801095400,4.287095458984375,-0.11571919918060303,-0.005909919738769531,-0.18767797946929932
1701865422810688000,4.29668798828125,-1.8961515426635742,4.396035671234131,-0.092978835105896
1701865422820280000,4.306280029296875,-5.340388298034668,5.136391639709473,2.6116604804992676
1701865422829873000,4.315872802734375,5.473267555236816,-4.352474212646484,-0.3009730577468872
1701865422839466500,4.325466552734375,3.2742159366607666,-3.202507972717285,-1.9980851411819458
1701865422849059300,4.335059326171875,2.3808257579803467,-2.5553531646728516,-1.7465393543243408
1701865422858651100,4.344651123046875,1.2241652011871338,-1.7415828704833984,-0.5691089630126953
1701865422868244000,4.354243896484375,0.2599424123764038,-1.1985712051391602,0.23910298943519592
1701865422877837600,4.363837646484375,-0.001966238021850586,-0.8383274078369141,0.5917224884033203
1701865422887430400,4.373430419921875,-0.02570629119873047,-0.4723777770996094,0.39138883352279663
1701865422897022200,4.383022216796875,-0.45917320251464844,-0.1637744903564453,0.08886122703552246
1701865422906615000,4.392614990234375,-1.3761496543884277,-0.028512001037597656,0.030127733945846558
1701865422916208600,4.402208740234375,-2.337069511413574,0.025232315063476562,-0.2461245357990265
1701865422925801500,4.411801513671875,-0.5445873737335205,0.35347557067871094,-0.5382508635520935
1701865422935393300,4.421393310546875,0.9761065244674683,0.694706916809082,-0.3924863338470459
1701865422944986000,4.430986083984375,0.4811340570449829,0.5688686370849609,-0.18774081766605377
1701865422954579700,4.440579833984375,-0.09603095054626465,0.5344915390014648,-0.3401451110839844
1701865422964172500,4.450172607421875,0.2881561517715454,0.9650659561157227,-0.8402936458587646
1701865422973764400,4.459764404296875,0.9595099687576294,1.387425422668457,-1.2509372234344482
1701865422983357200,4.469357177734375,0.8175439834594727,1.1659936904907227,-1.2006456851959229
1701865422992950800,4.47895068359375,0.0727851390838623,0.7141828536987305,-1.122219443321228
1701865423002543600,4.488543701171875,0.1078805923461914,0.7866554260253906,-1.241507887840271
1701865423012135700,4.4981357421875,1.1768929958343506,2.380392551422119,-1.570520043373108
1701865423021728300,4.507728271484375,-1.1211955547332764,1.2668466567993164,-1.6974830627441406
1701865423031321900,4.51732177734375,-1.5500121116638184,-1.4350833892822266,-0.785414457321167
1701865423040914700,4.526914794921875,-0.005028963088989258,-2.6957273483276367,0.5240718126296997
1701865423050506800,4.5365068359375,0.23872601985931396,-3.1723270416259766,1.1244059801101685
1701865423060099600,4.546099609375,-0.4974849224090576,-2.5474891662597656,0.6131656765937805
1701865423069693000,4.55569287109375,-0.08267807960510254,-1.7387418746948242,-0.13749843835830688
1701865423079285800,4.56528564453125,0.3665975332260132,-1.2024288177490234,-0.8527664542198181
1701865423088877800,4.5748779296875,0.6873282194137573,-0.8230648040771484,-1.2940117120742798
1701865423098470700,4.584470703125,0.6795481443405151,-0.6146335601806641,-1.532576560974121
1701865423108064000,4.59406396484375,0.4620680809020996,-0.610382080078125,-1.5479382276535034
1701865423117656800,4.60365673828125,0.22664713859558105,-0.714385986328125,-1.3973722457885742
1701865423127249000,4.613248779296875,0.09258770942687988,-0.7735824584960938,-1.2145624160766602
1701865423136841700,4.622841796875,0.04359078407287598,-0.7453250885009766,-1.1699873208999634
1701865423146435300,4.632435302734375,-0.09978866577148438,-0.6609458923339844,-1.1693471670150757
1701865423156028000,4.64202783203125,0.061431884765625,-1.136918067932129,-0.5629270076751709
1701865423165620000,4.651619873046875,0.15089845657348633,-1.4009666442871094,-0.5323116779327393
1701865423175212800,4.661212890625,-0.25018310546875,-1.2939128875732422,-0.9587205648422241
1701865423184806400,4.670806396484375,-0.8426148891448975,-1.1228876113891602,-0.9141710996627808
1701865423194399000,4.68039892578125,-1.046116828918457,-1.4349946975708008,-0.5343624949455261
1701865423203991000,4.689990966796875,-0.6772127151489258,-1.677210807800293,-0.1295609474182129
1701865423213584000,4.699583984375,-0.027258872985839844,-2.3404293060302734,0.6953697204589844
1701865423223177500,4.709177490234375,1.004071831703186,-1.3519725799560547,0.261417031288147
1701865423232770000,4.71877001953125,0.5678472518920898,-0.5230875015258789,0.29521507024765015
1701865423242362000,4.728362060546875,0.26294946670532227,-0.14748096466064453,0.46166491508483887
1701865423251955000,4.737954833984375,0.833740234375,2.0896811485290527,-0.33426377177238464
1701865423261548500,4.747548583984375,0.19614553451538086,1.9073448181152344,0.26388102769851685
1701865423271141000,4.75714111328125,-0.3134284019470215,0.9672060012817383,0.7110629081726074
1701865423280733200,4.766733154296875,-0.5296626091003418,-0.9242877960205078,1.2164857387542725
1701865423290326000,4.776325927734375,-0.37393617630004883,-0.11354255676269531,0.8669593334197998
1701865423299919600,4.785919677734375,-1.4433209896087646,1.5650396347045898,0.6728177666664124
1701865423309512200,4.79551220703125,-2.157755136489868,2.500093936920166,1.1090344190597534
1701865423319104300,4.805104248046875,-2.3091514110565186,2.363208770751953,1.7168209552764893
1701865423328697000,4.814697021484375,-2.2650306224823,1.774548053741455,2.089893341064453
1701865423338290700,4.824290771484375,-1.8078923225402832,0.9699277877807617,2.43778133392334
1701865423347883300,4.83388330078125,0.3545417785644531,1.3874521255493164,2.886033773422241
1701865423357475300,4.843475341796875,-0.6190972328186035,1.3189754486083984,2.3332090377807617
1701865423367068200,4.853068115234375,-0.17164349555969238,1.3451194763183594,1.5461326837539673
1701865423376661800,4.862661865234375,0.0398554801940918,1.765120029449463,0.9192667007446289
1701865423386254600,4.872254638671875,-0.41074442863464355,2.453007221221924,0.5575113296508789
1701865423395846400,4.881846435546875,-0.9272768497467041,3.0437545776367188,0.1479039192199707
1701865423405439200,4.891439208984375,-1.1866662502288818,2.610321521759033,-0.18731749057769775
1701865423415032800,4.90103271484375,-0.688565731048584,2.2538886070251465,-0.3893490433692932
1701865423424625700,4.910625732421875,-0.4803965091705322,1.8685722351074219,-0.18251967430114746
1701865423434217500,4.920217529296875,-0.4392087459564209,1.5589599609375,0.04203033447265625
1701865423443810300,4.929810302734375,-0.39504265785217285,1.5395560264587402,0.15089452266693115
1701865423453404000,4.93940380859375,-0.28192996978759766,1.6880989074707031,0.09608083963394165
1701865423462996700,4.948996826171875,-0.2512941360473633,1.8516302108764648,-0.04528719186782837
1701865423472588500,4.958588623046875,-0.4433588981628418,1.8698644638061523,-0.09193044900894165
1701865423482181400,4.968181396484375,-0.5859465599060059,1.7862520217895508,-0.05217409133911133
1701865423491775000,4.97777490234375,-0.19104290008544922,1.82694673538208,-0.16140532493591309
1701865423501367800,4.987367919921875,0.3444173336029053,2.2583084106445312,-0.544543981552124
1701865423510959600,4.996959716796875,0.36999058723449707,2.594738006591797,-0.7304250001907349
1701865423520552400,5.006552490234375,0.25345873832702637,2.7833986282348633,-0.8039004802703857
1701865423530146000,5.01614599609375,0.10493326187133789,2.7496509552001953,-0.7403450012207031
1701865423539739000,5.02573876953125,-0.1298823356628418,2.796146869659424,-0.6327556371688843
1701865423549330700,5.03533056640625,-0.19446086883544922,2.493891716003418,-0.2749386727809906
1701865423558923500,5.044923583984375,-0.2623403072357178,2.236539363861084,0.0712820291519165
1701865423568517000,5.05451708984375,-0.48549509048461914,2.2283220291137695,0.2969335913658142
1701865423578110000,5.06410986328125,-0.6609625816345215,1.7395095825195312,0.7652570009231567
1701865423587701800,5.07370166015625,-0.7585792541503906,0.3425865173339844,1.5240097045898438
1701865423597294800,5.083294921875,-0.44414472579956055,-0.48036956787109375,1.4274779558181763
1701865423606888200,5.09288818359375,-0.1633601188659668,-1.45196533203125,0.42678558826446533
1701865423616481000,5.10248095703125,0.5327394008636475,-2.8279647827148438,0.03234231472015381
1701865423626073000,5.112072998046875,1.3930423259735107,-3.689485549926758,-0.01755771040916443
1701865423635665700,5.121665771484375,1.5985078811645508,-4.176093101501465,-0.5872663259506226
1701865423645259300,5.13125927734375,1.6774903535842896,-4.28868293762207,-1.438004970550537
1701865423654852000,5.14085205078125,1.4788975715637207,-4.358176231384277,-1.7642019987106323
1701865423664444200,5.150444091796875,0.6888086795806885,-3.4780330657958984,-2.5557219982147217
1701865423674037000,5.160037109375,-0.3438957929611206,-2.3273439407348633,-2.7602577209472656
1701865423683630300,5.16963037109375,-0.6383291482925415,-1.7573671340942383,-2.388648748397827
1701865423693223200,5.17922314453125,-0.6350542306900024,-1.4346199035644531,-1.8495724201202393
1701865423702815200,5.188815185546875,-0.5151889324188232,-1.171875,-0.9894006848335266
1701865423712408000,5.198407958984375,-0.4380878210067749,-0.8946037292480469,-0.20098380744457245
1701865423722001400,5.20800146484375,-0.12690579891204834,-0.7217550277709961,0.5112602710723877
1701865423731594200,5.21759423828125,-0.008098244667053223,-0.49730396270751953,0.6685725450515747
1701865423741186300,5.227186279296875,0.18274927139282227,-0.2208423614501953,0.5609332919120789
1701865423750779100,5.236779052734375,0.40987467765808105,-0.030714035034179688,0.41590189933776855
1701865423760372500,5.24637255859375,0.5366272926330566,0.08049964904785156,0.3337344825267792
1701865423769965300,5.25596533203125,0.4999414086341858,0.11759757995605469,0.2565884590148926
1701865423779557400,5.265557373046875,0.39279597997665405,0.06620502471923828,0.1740684062242508
1701865423789150200,5.275150146484375,0.26960253715515137,-0.02350902557373047,0.10109828412532806
1701865423798743800,5.284743896484375,0.22260385751724243,-0.3426485061645508,0.07588547468185425
1701865423808336400,5.29433642578125,0.23134130239486694,-0.5802793502807617,-0.04640662670135498
1701865423817928400,5.303928466796875,0.24495285749435425,-0.46927833557128906,-0.19500911235809326
1701865423827521300,5.313521240234375,0.5067625045776367,-0.4809455871582031,-0.0849175900220871
1701865423837114600,5.323114501953125,0.6782428026199341,-0.5097990036010742,0.05349494516849518
1701865423846707500,5.33270751953125,0.9251669645309448,-0.6010284423828125,0.2334710955619812
1701865423856299500,5.342299560546875,1.1173573732376099,-0.6922845840454102,0.4590134620666504
1701865423865892400,5.351892333984375,0.9140297174453735,-0.46357059478759766,0.28450125455856323
1701865423875486000,5.36148583984375,0.7817618250846863,-0.3168516159057617,0.1606561541557312
1701865423885078500,5.37107861328125,0.7274525165557861,-0.2184610366821289,0.13705039024353027
1701865423894670600,5.380670654296875,0.6028637886047363,-0.20407867431640625,0.11747490614652634
1701865423904263400,5.390263427734375,0.45186299085617065,-0.19949722290039062,0.04736911132931709
1701865423913857000,5.39985693359375,0.28023087978363037,-0.2811546325683594,0.0671331137418747
1701865423923449600,5.40944970703125,0.04836273193359375,-0.24588871002197266,0.040991492569446564
1701865423933041700,5.419041748046875,-0.01671445369720459,-0.28024864196777344,-0.17525339126586914
1701865423942634500,5.428634521484375,-0.1350092887878418,-0.3959941864013672,-0.4412910044193268
1701865423952228000,5.43822802734375,-0.07532280683517456,-0.40899085998535156,-0.5769977569580078
1701865423961820700,5.447820556640625,0.10354095697402954,-0.32897472381591797,-0.6182445883750916
1701865423971412700,5.457412841796875,0.34962785243988037,-0.28742408752441406,-0.6559506058692932
1701865423981005600,5.467005615234375,0.5591534972190857,-0.1695537567138672,-0.6093220710754395
1701865423990599200,5.47659912109375,0.750390350818634,-0.03519630432128906,-0.5550673604011536
1701865424000191700,5.486191650390625,0.9200721383094788,0.015366554260253906,-0.4315963685512543
1701865424009783800,5.49578369140625,1.0128713846206665,0.07789134979248047,-0.3344889283180237
1701865424019376600,5.505376708984375,0.7835919857025146,0.3863239288330078,-0.7140822410583496
1701865424028970200,5.51497021484375,1.0433862209320068,0.19969463348388672,-0.20654632151126862
1701865424038563000,5.52456298828125,0.9822778105735779,-0.3088340759277344,0.3584730327129364
1701865424048155000,5.53415478515625,0.7399625182151794,-0.5510091781616211,0.25822657346725464
1701865424057747700,5.543747802734375,0.501591145992279,-0.45352935791015625,-0.13941943645477295
1701865424067341300,5.55334130859375,0.42090940475463867,-0.22745227813720703,-0.3425508141517639
1701865424076934000,5.562933837890625,0.4736388027667999,-0.14773178100585938,-0.4536081850528717
1701865424086526000,5.57252587890625,0.4879644513130188,-0.10655593872070312,-0.5011468529701233
1701865424096118800,5.582118896484375,0.5095877647399902,-0.03697013854980469,-0.5043308734893799
1701865424105712400,5.59171240234375,0.5381425619125366,0.020376205444335938,-0.46838706731796265
1701865424115305000,5.601304931640625,0.5469937324523926,0.041656494140625,-0.37976688146591187
1701865424124897000,5.61089697265625,0.5022938251495361,0.055642127990722656,-0.3084505796432495
1701865424134489900,5.62048974609375,0.5013929009437561,-0.05223560333251953,-0.16001197695732117
1701865424144083500,5.63008349609375,0.4978780746459961,-0.05952930450439453,-0.11614247411489487
1701865424153676300,5.63967626953125,0.5555344223976135,-0.05958843231201172,-0.12854816019535065
1701865424163268000,5.64926806640625,0.6210870742797852,-0.040459632873535156,-0.1320929229259491
1701865424172861000,5.65886083984375,0.6467531323432922,-0.011746406555175781,-0.10518275946378708
1701865424182454500,5.66845458984375,0.6278548836708069,0.0026464462280273438,-0.11670301109552383
1701865424192047000,5.678047119140625,0.6156833171844482,-0.0020122528076171875,-0.13784873485565186
1701865424201639200,5.68763916015625,0.5840752124786377,-0.02303314208984375,-0.17214435338974
1701865424211232000,5.69723193359375,0.5030927658081055,-0.06487083435058594,-0.19764530658721924
1701865424220825600,5.70682568359375,0.37189099192619324,-0.10837936401367188,-0.20041710138320923
1701865424230418200,5.716418212890625,0.23437091708183289,-0.13944053649902344,-0.20638497173786163
1701865424240010200,5.72601025390625,0.161611407995224,-0.17946434020996094,-0.22244207561016083
1701865424249603000,5.73560302734375,0.12687280774116516,-0.19535064697265625,-0.21802526712417603
1701865424259196700,5.74519677734375,0.1151742935180664,-0.18278884887695312,-0.21722757816314697
1701865424268789200,5.754789306640625,0.16570112109184265,-0.13987255096435547,-0.22266672551631927
1701865424278381300,5.76438134765625,0.22270217537879944,-0.0882730484008789,-0.24846597015857697
1701865424287974100,5.77397412109375,0.25076135993003845,-0.05873680114746094,-0.259290486574173
1701865424297567700,5.783567626953125,0.24330097436904907,-0.0461883544921875,-0.267617791891098
1701865424307160600,5.79316064453125,0.24294444918632507,-0.026782989501953125,-0.2689944803714752
1701865424316752400,5.80275244140625,0.272887647151947,-0.047710418701171875,-0.27520355582237244
1701865424326345200,5.81234521484375,0.2595314085483551,-0.051788330078125,-0.2558935880661011
1701865424335938800,5.821938720703125,0.21548080444335938,-0.06519412994384766,-0.19053590297698975
1701865424345531400,5.831531494140625,0.11816003918647766,-0.0972137451171875,-0.11782503873109818
1701865424355123500,5.84112353515625,0.07685747742652893,-0.14989185333251953,-0.06861548125743866
1701865424364716300,5.85071630859375,0.07874315977096558,-0.18756675720214844,-0.040137164294719696
1701865424374310000,5.860309814453125,0.06929048895835876,-0.21756935119628906,-0.017474569380283356
1701865424383902700,5.86990283203125,0.0423046350479126,-0.25183868408203125,-0.009573869407176971
1701865424393494500,5.87949462890625,0.0028946399688720703,-0.2573518753051758,-0.011098071932792664
1701865424403087400,5.88908740234375,-0.008597254753112793,-0.26520729064941406,-0.014341413974761963
1701865424412681000,5.898680908203125,-0.004635512828826904,-0.24945926666259766,-0.00007122009992599487
1701865424422273800,5.908273681640625,-0.01418370008468628,-0.23873615264892578,0.001039855182170868
1701865424431865600,5.917865478515625,-0.0023871660232543945,-0.19289588928222656,0.022050723433494568
1701865424441458400,5.92745849609375,0.022532939910888672,-0.18074607849121094,0.12092277407646179
1701865424451052000,5.937052001953125,-0.003777444362640381,-0.10987281799316406,0.19237329065799713
1701865424460644900,5.946644775390625,-0.047968387603759766,-0.06597614288330078,0.22483670711517334
1701865424470236700,5.956236572265625,-0.048648953437805176,-0.02034759521484375,0.22366195917129517
1701865424479829500,5.96582958984375,-0.035026371479034424,0.0034580230712890625,0.21768024563789368
1701865424489423000,5.975423095703125,-0.035017549991607666,0.02460479736328125,0.2069987952709198
1701865424499016000,5.985015869140625,-0.16036498546600342,0.03366279602050781,0.215146005153656
1701865424508607700,5.994607666015625,-0.24786376953125,0.028421401977539062,0.20416083931922913
1701865424518200600,6.00420068359375,-0.290854811668396,0.03029155731201172,0.14624762535095215
1701865424527794200,6.013794189453125,-0.3158571720123291,0.0014801025390625,0.07996110618114471
1701865424537387000,6.023386962890625,-0.3163304328918457,-0.05278205871582031,0.061784617602825165
1701865424546978800,6.032978759765625,-0.29044008255004883,-0.08968830108642578,0.05074606090784073
1701865424556571600,6.042571533203125,-0.2458028793334961,-0.1307077407836914,0.0630919486284256
1701865424566165200,6.052165283203125,-0.23217225074768066,-0.11926841735839844,0.06761371344327927
1701865424575758000,6.061758056640625,-0.19511932134628296,-0.10096168518066406,0.09248378872871399
1701865424585350000,6.071349853515625,-0.15903949737548828,-0.07116222381591797,0.09028894454240799
1701865424594942700,6.080942626953125,-0.1380448341369629,-0.04889678955078125,0.06173490732908249
1701865424604536300,6.090536376953125,-0.15754878520965576,-0.031703948974609375,0.04032991826534271
1701865424614129200,6.100129150390625,-0.18592721223831177,-0.04541587829589844,0.0050048790872097015
1701865424623721000,6.109720947265625,-0.18961352109909058,-0.04952812194824219,-0.03657909482717514
1701865424633313800,6.119313720703125,-0.18078869581222534,-0.06774520874023438,-0.04652024060487747
1701865424642907400,6.128907470703125,-0.17142850160598755,-0.08099651336669922,-0.03008260950446129
1701865424652500200,6.138500244140625,-0.16188496351242065,-0.08934688568115234,0.0027337409555912018
1701865424662092000,6.148092041015625,-0.15956860780715942,-0.09755897521972656,0.01622156798839569
1701865424671684900,6.157684814453125,-0.1503468155860901,-0.09385871887207031,0.027168232947587967
1701865424681278500,6.167278564453125,-0.1227954626083374,-0.07607460021972656,0.00962202250957489
1701865424690871300,6.176871337890625,-0.11006373167037964,-0.032677650451660156,-0.00039705634117126465
1701865424700463000,6.186463134765625,-0.08836543560028076,0.021780014038085938,-0.014744188636541367
1701865424710056000,6.196055908203125,-0.0929337739944458,0.04707622528076172,-0.009664203971624374
1701865424719649500,6.2056494140625,-0.13722509145736694,0.06486988067626953,0.016858860850334167
1701865424729242400,6.215242431640625,-0.12888002395629883,0.09412765502929688,0.05483008176088333
1701865424738834200,6.224834228515625,-0.14186978340148926,0.08758354187011719,0.06625387072563171
1701865424748427000,6.234427001953125,-0.14052331447601318,0.0905618667602539,0.06096639856696129
1701865424758020600,6.2440205078125,-0.15803611278533936,0.1005544662475586,0.07217278331518173
1701865424767613400,6.253613525390625,-0.16148000955581665,0.117462158203125,0.05509055778384209
1701865424777205200,6.263205322265625,-0.12283945083618164,0.13882160186767578,0.0030226707458496094
1701865424786798000,6.272798095703125,-0.09696197509765625,0.15984821319580078,-0.01494567096233368
1701865424796391700,6.2823916015625,-0.06468480825424194,0.1475811004638672,-0.00423160195350647
1701865424805984500,6.291984619140625,-0.0496557354927063,0.1637859344482422,-0.03147781640291214
1701865424815576600,6.30157666015625,-0.0490039587020874,0.15147113800048828,-0.06319893896579742
1701865424825169200,6.311169189453125,-0.05037301778793335,0.1346263885498047,-0.09698335081338882
1701865424834762800,6.3207626953125,-0.07704317569732666,0.1133127212524414,-0.13300850987434387
1701865424844355600,6.33035546875,-0.10235041379928589,0.06638813018798828,-0.13595888018608093
1701865424853947400,6.339947509765625,-0.09347200393676758,0.013123512268066406,-0.14418527483940125
1701865424863540200,6.349540283203125,-0.06286275386810303,-0.0134124755859375,-0.14346644282341003
1701865424873133800,6.3591337890625,-0.053489744663238525,0.007540702819824219,-0.1596190184354782
1701865424882726700,6.3687265625,-0.0018973946571350098,0.021078109741210938,-0.18739676475524902
1701865424892318500,6.378318359375,0.05544084310531616,0.039130210876464844,-0.23099809885025024
1701865424901911300,6.387911376953125,0.10149312019348145,0.07343196868896484,-0.2570957839488983
1701865424911505000,6.3975048828125,0.12501895427703857,0.022452354431152344,-0.3457764685153961
1701865424921097700,6.40709765625,0.05623018741607666,0.024118423461914062,-0.3290012776851654
1701865424930689500,6.416689453125,0.02884894609451294,-0.00016117095947265625,-0.31685870885849
1701865424940282400,6.426282470703125,0.01192253828048706,-0.009963035583496094,-0.3234753906726837
1701865424949876000,6.4358759765625,0.0871005654335022,-0.014897346496582031,-0.3249880373477936
1701865424959468800,6.44546875,0.16540002822875977,0.0179443359375,-0.29605358839035034
1701865424969060600,6.455060546875,0.19687825441360474,0.024413108825683594,-0.23039263486862183
1701865424978653400,6.4646533203125,0.20126444101333618,0.05908393859863281,-0.19924242794513702
1701865424988247000,6.4742470703125,0.16522586345672607,0.07672977447509766,-0.1832893192768097
1701865424997840000,6.48383984375,0.12250661849975586,0.08939743041992188,-0.15860438346862793
1701865425007432000,6.493431884765625,0.0733296275138855,0.10186290740966797,-0.14156484603881836
1701865425017024500,6.5030244140625,0.06711643934249878,0.08824539184570312,-0.12714557349681854
1701865425026618000,6.5126181640625,0.03746235370635986,0.07720565795898438,-0.14567837119102478
1701865425036211000,6.5222109375,0.05303269624710083,0.038094520568847656,-0.14225779473781586
1701865425045802800,6.531802734375,0.06352543830871582,0.011411666870117188,-0.11503859609365463
1701865425055395600,6.5413955078125,0.038541555404663086,0.00164794921875,-0.07847579568624496
1701865425064989200,6.5509892578125,0.009275615215301514,-0.015018463134765625,-0.08002914488315582
1701865425074582000,6.56058203125,0.008647024631500244,-0.024338722229003906,-0.08142576366662979
1701865425084174000,6.570174072265625,0.01746135950088501,-0.026442527770996094,-0.07326138764619827
1701865425093766700,6.5797666015625,-0.02306842803955078,-0.02853107452392578,-0.04883333295583725
1701865425103360300,6.5893603515625,-0.0504533052444458,-0.028288841247558594,-0.02971722185611725
1701865425112953000,6.598953125,-0.05549699068069458,-0.01869487762451172,-0.03207758814096451
1701865425122545000,6.608544921875,-0.03621751070022583,-0.018738746643066406,-0.0649755522608757
1701865425132138000,6.618137939453125,-0.019030332565307617,0,-0.07610167562961578
1701865425141731300,6.6277314453125,0.014816343784332275,0.025444984436035156,-0.08216531574726105
1701865425151324200,6.63732421875,0.03902840614318848,0.026886940002441406,-0.08085722476243973
1701865425160916000,6.646916015625,0.10050475597381592,0.016527175903320312,-0.07922818511724472
1701865425170508800,6.6565087890625,0.11151820421218872,0.018102645874023438,-0.0653756856918335
1701865425180102400,6.666102294921875,0.10822421312332153,-0.0015420913696289062,-0.023148007690906525
1701865425189695200,6.6756953125,0.04188370704650879,-0.02090930938720703,-0.00001839548349380493
1701865425199287300,6.685287353515625,0.024426639080047607,-0.0164794921875,0.013609722256660461
1701865425208879900,6.6948798828125,0.10200780630111694,0.01605987548828125,-0.01706676185131073
1701865425218473500,6.704473388671875,0.23491311073303223,0.08804988861083984,-0.06983968615531921
1701865425228066300,6.71406640625,0.3606650233268738,0.14707469940185547,-0.040835827589035034
1701865425237658000,6.723658203125,0.41346466541290283,0.2074737548828125,-0.01840527355670929
1701865425247251000,6.7332509765625,0.46078455448150635,0.2574167251586914,0.012062326073646545
1701865425256844500,6.742844482421875,0.5402648448944092,0.29472923278808594,0.03868219256401062
1701865425266437400,6.752437255859375,0.6305187940597534,0.3690223693847656,0.03374406695365906
1701865425276029400,6.762029541015625,0.6426970958709717,0.4489889144897461,0.024050414562225342
1701865425285622000,6.7716220703125,0.6890803575515747,0.4991912841796875,0.042322441935539246
1701865425295215600,6.781215576171875,0.740854024887085,0.5554304122924805,0.036233916878700256
1701865425304808400,6.790808349609375,0.8351535201072693,0.6152744293212891,-0.0430075079202652
1701865425314400300,6.800400146484375,0.7974189519882202,0.5020647048950195,-0.05582891404628754
1701865425323993000,6.8099931640625,0.7380734086036682,0.41409873962402344,-0.08878883719444275
1701865425333586700,6.819586669921875,0.611117959022522,0.3862018585205078,-0.10187441110610962
1701865425343179500,6.829179443359375,0.45165586471557617,0.4596519470214844,-0.11704078316688538
1701865425352771300,6.838771240234375,0.3947157859802246,0.5856256484985352,-0.12719717621803284
1701865425362364200,6.8483642578125,0.44469672441482544,0.7279949188232422,-0.13914763927459717
1701865425371957800,6.857957763671875,0.5753162503242493,0.8465194702148438,-0.15948545932769775
1701865425381550600,6.867550537109375,0.7391914129257202,0.9064149856567383,-0.06587135791778564
1701865425391142400,6.877142333984375,0.6906501650810242,0.9393253326416016,0.09684514999389648
1701865425400735200,6.8867353515625,0.40856504440307617,0.877354621887207,0.3334418535232544
1701865425410328800,6.896328857421875,-0.05628001689910889,0.5030078887939453,0.6758790612220764
1701865425419921700,6.905921630859375,-0.5562616586685181,-0.05877113342285156,1.0030792951583862
1701865425429513500,6.915513427734375,-0.8111770153045654,-0.6215200424194336,1.26529860496521
1701865425439106300,6.925106201171875,-0.717650294303894,-1.0511140823364258,1.3440070152282715
1701865425448700000,6.934699951171875,-0.16393816471099854,-1.643702507019043,1.5238369703292847
1701865425458292700,6.944292724609375,0.5881855487823486,-2.1278629302978516,1.7109342813491821
1701865425467884500,6.953884521484375,1.7127339839935303,-2.0543508529663086,1.8001412153244019
1701865425477477400,6.963477294921875,2.4055612087249756,-1.4817276000976562,1.678107500076294
1701865425487071000,6.973071044921875,2.393406629562378,-0.8847646713256836,1.5378938913345337
1701865425496663800,6.982663818359375,2.2412452697753906,-0.3621826171875,0.9835106134414673
1701865425506255600,6.992255615234375,2.3838016986846924,-0.04806232452392578,0.24929530918598175
1701865425515848400,7.001848388671875,2.1670889854431152,-0.043015480041503906,-0.4600614011287689
1701865425525442000,7.011442138671875,2.7348899841308594,-0.04080677032470703,-1.6293458938598633
1701865425535035000,7.021034912109375,4.879449844360352,1.0013456344604492,-3.2053935527801514
1701865425544626700,7.030626708984375,6.901654243469238,2.805469512939453,-4.448731422424316
1701865425554219500,7.040219482421875,7.602628707885742,4.097106456756592,-4.527653694152832
1701865425563813000,7.049813232421875,7.111850738525391,4.576360702514648,-3.7965376377105713
1701865425573406000,7.059406005859375,5.914969444274902,5.754872798919678,-3.315021514892578
1701865425582997800,7.068997802734375,5.751012802124023,6.272201061248779,-2.7222378253936768
1701865425592590600,7.078590576171875,5.862237930297852,6.35282039642334,-2.2416164875030518
1701865425602184200,7.08818408203125,5.480917930603027,6.1751813888549805,-1.9040414094924927
1701865425611777000,7.097777099609375,5.465836048126221,6.703200340270996,-1.9936695098876953
1701865425621368800,7.107368896484375,4.147970199584961,6.796428680419922,-0.7766280174255371
1701865425630961700,7.116961669921875,3.3317084312438965,5.274888038635254,0.8839229941368103
1701865425640555300,7.12655517578125,5.430755615234375,2.760026454925537,1.5091121196746826
1701865425650148000,7.136148193359375,6.475253582000732,1.1307458877563477,-0.0514565110206604
1701865425659740000,7.145739990234375,1.4924981594085693,10.932378768920898,-3.227678060531616
1701865425669332700,7.155332763671875,-1.0850353240966797,11.552595138549805,3.265129566192627
1701865425678926300,7.16492626953125,-1.8022382259368896,6.612766265869141,5.84774112701416
1701865425688519200,7.174519287109375,1.17850923538208,3.2739758491516113,3.1722168922424316
1701865425698111000,7.184111083984375,0.556363582611084,6.189238548278809,2.9647698402404785
1701865425707703800,7.193703857421875,-1.3705718517303467,9.60742473602295,4.406894207000732
1701865425717297400,7.20329736328125,-0.7266511917114258,4.640806198120117,5.371904373168945
1701865425726890200,7.21289013671875,1.4076199531555176,-5.125973701477051,4.51531982421875
1701865425736482000,7.22248193359375,4.609006881713867,-10.187389373779297,3.8413941860198975
1701865425746075000,7.232074951171875,4.5494866371154785,-10.356696128845215,2.729559898376465
1701865425755668500,7.24166845703125,7.245471000671387,-9.441033363342285,0.4502652883529663
1701865425765261300,7.25126123046875,8.149951934814453,-2.684419631958008,-0.4957194924354553
1701865425774853000,7.26085302734375,4.534970283508301,5.333731651306152,0.830394983291626
1701865425784446000,7.270446044921875,0.5724732875823975,7.826595783233643,0.7240825891494751
1701865425794039600,7.28003955078125,-1.436521053314209,7.606898307800293,0.12462615966796875
1701865425803632400,7.28963232421875,-2.08003306388855,7.997503280639648,0.15304982662200928
1701865425813224200,7.29922412109375,-1.5103886127471924,5.668636798858643,1.7843304872512817
1701865425822817000,7.308817138671875,-0.7057905197143555,2.9371190071105957,3.048957109451294
1701865425832410600,7.31841064453125,-0.3606581687927246,-0.10889053344726562,3.682931900024414
1701865425842003500,7.32800341796875,1.6337637901306152,-1.999608039855957,1.5585541725158691
1701865425851595300,7.33759521484375,4.08929443359375,5.323315143585205,-1.487863540649414
1701865425861188000,7.34718798828125,3.226287841796875,5.065842628479004,-0.6628299951553345
1701865425870781700,7.35678173828125,0.1485300064086914,-1.5559425354003906,-0.43489253520965576
1701865425880374500,7.36637451171875,-2.2698607444763184,-3.5869059562683105,0.04131197929382324
1701865425889966300,7.37596630859375,-1.3923583030700684,0.6131048202514648,0.9227373600006104
1701865425899559200,7.38555908203125,-0.8836255073547363,-1.7033429145812988,1.6681888103485107
1701865425909152800,7.39515283203125,-1.9771361351013184,-5.272057056427002,1.452406883239746
1701865425918745300,7.404745361328125,-3.578087329864502,-8.536493301391602,1.1085205078125
1701865425928337400,7.41433740234375,-3.9768214225769043,-9.221009254455566,2.3641319274902344
1701865425937930200,7.42393017578125,-4.44771671295166,-8.367971420288086,4.287851333618164
1701865425947523800,7.43352392578125,-5.478511810302734,-8.000911712646484,4.932047367095947
1701865425957116700,7.44311669921875,-8.295293807983398,-9.481698036193848,5.153390884399414
1701865425966708500,7.45270849609375,-10.093376159667969,-10.642744064331055,5.300998687744141
1701865425976301300,7.46230126953125,-14.099666595458984,-11.551362991333008,2.777721643447876
1701865425985895000,7.47189501953125,-17.1361083984375,-12.409222602844238,0.5990631580352783
1701865425995487500,7.481487548828125,-20.944908142089844,-11.73087215423584,-2.60245680809021
1701865426005079600,7.49107958984375,-20.829389572143555,-9.29698657989502,-2.761777877807617
1701865426014672400,7.50067236328125,-20.32145118713379,-5.720045566558838,-1.5299525260925293
1701865426024266000,7.510265869140625,-18.432632446289062,-2.1365652084350586,0.3349032402038574
1701865426033858600,7.519858642578125,-15.433907508850098,1.546058177947998,2.493741989135742
1701865426043450600,7.52945068359375,-11.430441856384277,4.940306186676025,3.1786818504333496
1701865426053043500,7.53904345703125,-7.185768127441406,7.37761116027832,4.534070014953613
1701865426062637000,7.548636962890625,-3.254985809326172,8.95119571685791,4.72198486328125
1701865426072229600,7.558229736328125,-0.13235092163085938,6.680561542510986,6.174698352813721
1701865426081821700,7.56782177734375,2.9748330116271973,8.641334533691406,3.0545029640197754
1701865426091414500,7.57741455078125,3.2075963020324707,6.5359978675842285,3.0484402179718018
1701865426101008100,7.587008056640625,3.973820209503174,5.355271339416504,1.958851933479309
1701865426110600700,7.5966005859375,4.325687408447266,4.797309398651123,0.6990523338317871
1701865426120192800,7.60619287109375,4.04287052154541,4.437472820281982,-0.35618019104003906
1701865426129785600,7.61578564453125,3.469480037689209,4.056094169616699,-1.1410033702850342
1701865426139379200,7.625379150390625,2.6494250297546387,3.9058923721313477,-2.217071533203125
1701865426148972000,7.634971923828125,2.2517170906066895,3.1625726222991943,-2.8082940578460693
1701865426158563800,7.644563720703125,2.202425479888916,2.2583413124084473,-3.0130491256713867
1701865426168156700,7.65415673828125,2.278383731842041,1.9327633380889893,-2.8406317234039307
1701865426177750300,7.663750244140625,2.2977752685546875,1.6223794221878052,-2.09529447555542
1701865426187342800,7.6733427734375,2.7311019897460938,1.6641145944595337,-1.2711081504821777
1701865426196935000,7.682934814453125,2.5476393699645996,1.8965058326721191,-0.4891977906227112
1701865426206527700,7.69252783203125,2.2387685775756836,2.5076794624328613,-0.07565639913082123
1701865426216121300,7.702121337890625,2.3808865547180176,3.1292076110839844,-0.18416008353233337
1701865426225714000,7.7117138671875,2.4033608436584473,3.346606731414795,-0.5765383839607239
1701865426235306000,7.721305908203125,2.2528138160705566,3.609609603881836,-1.5566561222076416
1701865426244898800,7.73089892578125,2.586894989013672,3.506465435028076,-2.0348339080810547
1701865426254492400,7.740492431640625,2.9541358947753906,3.34188175201416,-2.2675507068634033
1701865426264085000,7.7500849609375,2.9031214714050293,3.042553186416626,-2.468618631362915
1701865426273677000,7.759677001953125,2.6177430152893066,2.6790595054626465,-2.5426442623138428
1701865426283270000,7.769269775390625,2.162264823913574,2.364866256713867,-2.613234519958496
1701865426292863500,7.778863525390625,1.5317316055297852,2.0181453227996826,-2.5940051078796387
1701865426302456000,7.7884560546875,-0.6747245788574219,-0.23472166061401367,-1.3350284099578857
1701865426312048000,7.798048095703125,2.388869285583496,2.1211910247802734,-3.651768207550049
1701865426321641000,7.807640869140625,-0.1221303939819336,0.7742218971252441,-2.8719613552093506
1701865426331234600,7.817234619140625,-0.26989078521728516,0.20191657543182373,-2.901989459991455
1701865426340827100,7.8268271484375,-0.1982870101928711,0.28249597549438477,-3.0595927238464355
1701865426350419200,7.836419189453125,-0.2997255325317383,0.6989990472793579,-2.556898593902588
1701865426360012000,7.846011962890625,0.023149490356445312,0.6823453903198242,-3.359231472015381
1701865426369605600,7.855605712890625,-0.615321159362793,0.7623975276947021,-3.1319007873535156
1701865426379198200,7.8651982421875,-1.6154289245605469,-0.13461923599243164,-2.337843894958496
1701865426388790300,7.874790283203125,-0.27650928497314453,1.597468614578247,-3.441434621810913
1701865426398383000,7.884383056640625,-0.9414281845092773,0.604239284992218,-2.4469504356384277
1701865426407976400,7.8939765625,-0.6039104461669922,0.37030041217803955,-2.3091416358947754
1701865426417569300,7.9035693359375,-0.2744426727294922,0.12320363521575928,-2.2173967361450195
1701865426427161300,7.913161376953125,-0.04608726501464844,-0.09315550327301025,-2.055588483810425
1701865426436754200,7.922754150390625,0.052834510803222656,-0.2310549020767212,-1.7984615564346313
1701865426446347800,7.93234765625,0.24002838134765625,-0.34276652336120605,-1.488236427307129
1701865426455940400,7.9419404296875,0.32190608978271484,-0.41364622116088867,-1.1622883081436157
1701865426465532400,7.951532470703125,0.3251485824584961,-0.42478013038635254,-0.919978141784668
1701865426475125200,7.961125244140625,0.27376365661621094,-0.4353522062301636,-0.7784054279327393
1701865426484718600,7.970718505859375,0.37776947021484375,-0.45105934143066406,-0.7323324680328369
1701865426494311400,7.9803115234375,0.5055313110351562,-0.47272396087646484,-0.5497170686721802
1701865426503903500,7.989903564453125,0.7476434707641602,-0.4190486669540405,-0.36177897453308105
1701865426513496300,7.999496337890625,0.9006509780883789,-0.354650616645813,-0.3201192617416382
1701865426523089700,8.009089599609375,0.9813470840454102,-0.29652881622314453,-0.28415989875793457
1701865426532682500,8.0186826171875,1.0352840423583984,-0.3164558410644531,-0.19840466976165771
1701865426542274600,8.028274658203125,1.0674686431884766,-0.3952692747116089,-0.06385624408721924
1701865426551867400,8.037867431640626,1.0303945541381836,-0.4568812847137451,0.01828235387802124
1701865426561460700,8.047460693359374,0.9719114303588867,-0.44139373302459717,-0.003827035427093506
1701865426571053600,8.057053466796875,0.9899005889892578,-0.5401164293289185,0.02421194314956665
1701865426580645600,8.066645751953125,1.0197782516479492,-0.55003821849823,0.09759354591369629
1701865426590238200,8.07623828125,1.0425148010253906,-0.4761216640472412,0.19624102115631104
1701865426599831800,8.085831787109376,0.9173383712768555,-0.31883704662323,0.22181975841522217
1701865426609424600,8.095424560546874,0.7234964370727539,-0.28896963596343994,0.2394469976425171
1701865426619016700,8.1050166015625,0.6617422103881836,-0.2831001281738281,0.31308162212371826
1701865426628609500,8.114609619140625,0.6410608291625977,-0.24571001529693604,0.4021652936935425
1701865426638203000,8.124202880859375,0.7113056182861328,-0.33108997344970703,0.49678993225097656
1701865426647795700,8.133795654296875,0.7310667037963867,-0.32552850246429443,0.34049415588378906
1701865426657387800,8.1433876953125,0.6168184280395508,-0.2123556137084961,0.15899628400802612
1701865426666980400,8.15298046875,0.45729732513427734,-0.08280503749847412,0.07198363542556763
1701865426676574000,8.162573974609375,0.3530464172363281,0.005254149436950684,0.1028299331665039
1701865426686166800,8.172166748046875,0.22760009765625,0.06118142604827881,0.17899417877197266
1701865426695758600,8.181758544921875,0.07872772216796875,0.09163105487823486,0.10964944958686829
1701865426705351400,8.191351318359375,-0.0338287353515625,0.12767016887664795,-0.06587392091751099
1701865426714945000,8.200945068359376,-0.0768585205078125,-0.00913393497467041,-0.07488703727722168
1701865426724537900,8.210537841796874,-0.13899993896484375,-0.06700587272644043,-0.10170847177505493
1701865426734129700,8.220129638671875,-0.06275272369384766,-0.2840219736099243,0.01339760422706604
1701865426743722500,8.229722412109375,-0.22573184967041016,-0.21081137657165527,0.12512154877185822
1701865426753316000,8.239316162109375,-0.20245361328125,-0.1144634485244751,0.12465471029281616
1701865426762909000,8.248908935546876,-0.30367374420166016,-0.0914686918258667,0.21520601212978363
1701865426772500700,8.258500732421876,-0.3715085983276367,-0.17509174346923828,0.29739391803741455
1701865426782093600,8.268093505859374,-0.028963088989257812,0.09933841228485107,0.1266746073961258
1701865426791687200,8.277687255859375,-0.01716327667236328,0.2785639762878418,0.027183562517166138
1701865426801280000,8.287280029296875,0.044409751892089844,0.19090044498443604,0.19516390562057495
1701865426810871800,8.296871826171875,0.13408565521240234,0.24801278114318848,0.1385633796453476
1701865426820464600,8.306464599609376,0.02264881134033203,0.28659844398498535,0.13291412591934204
1701865426830058200,8.316058349609374,0.006613731384277344,0.21413660049438477,0.15087752044200897
1701865426839651000,8.325651123046875,-0.02655315399169922,0.3129312992095947,0.1445079743862152
1701865426849243000,8.335242919921875,0.13088130950927734,0.1697399616241455,0.2620904743671417
1701865426858835700,8.344835693359375,0.07500362396240234,0.5462245941162109,0.12640345096588135
1701865426868429300,8.35442919921875,0.07183551788330078,0.2380201816558838,0.4368212819099426
1701865426878022100,8.364022216796876,0.1262197494506836,-0.03746020793914795,0.6201545000076294
1701865426887614000,8.373614013671874,0.09951305389404297,-0.005660891532897949,0.5806744694709778
1701865426897206800,8.383206787109375,0.16147232055664062,-0.027851223945617676,0.6076865196228027
1701865426906800400,8.39280029296875,0.13528060913085938,0.05576610565185547,0.5801714062690735
1701865426916393000,8.40239306640625,0.2526216506958008,0.00473630428314209,0.5531253814697266
1701865426925985000,8.411985107421875,0.1789865493774414,0.011815190315246582,0.4943753182888031
1701865426935577900,8.421577880859376,0.3541736602783203,0.12996625900268555,0.42816922068595886
1701865426945171500,8.43117138671875,0.2569551467895508,-0.0351262092590332,0.3973102867603302
1701865426954764300,8.440764404296875,0.39644622802734375,0.02720355987548828,0.21830794215202332
1701865426964356000,8.450356201171875,0.19908809661865234,0.028905391693115234,0.2445891797542572
1701865426973949000,8.459948974609375,0.13369464874267578,-0.0224912166595459,0.20449864864349365
1701865426983542500,8.46954248046875,0.08740806579589844,-0.07096374034881592,0.25655996799468994
1701865426993135000,8.479135009765624,0.15076351165771484,-0.10845327377319336,0.2075808048248291
1701865427002727200,8.48872705078125,0.1468639373779297,-0.04494607448577881,0.20508790016174316
1701865427012320000,8.498320068359375,-1.217371940612793,-1.0845139026641846,0.9461889266967773
1701865427021913600,8.50791357421875,2.432469367980957,0.7018896341323853,-0.4594474136829376
1701865427031506200,8.517506103515625,-0.3467836380004883,0.974132776260376,-0.28760385513305664
1701865427041098200,8.52709814453125,-0.019012451171875,0.26246416568756104,-0.013797223567962646
1701865427050691000,8.536691162109374,0.17421913146972656,-0.16117048263549805,0.13019496202468872
1701865427060284700,8.54628466796875,-0.0006999969482421875,-0.41016435623168945,0.3643404245376587
1701865427069877200,8.555877197265625,0.3020639419555664,-0.09114313125610352,0.06726717948913574
1701865427079469300,8.56546923828125,0.16913986206054688,-0.28772401809692383,0.2648906707763672
1701865427089062100,8.575062255859375,-0.08300304412841797,-0.2637050151824951,0.4714374542236328
1701865427098655700,8.58465576171875,0.2479238510131836,0.3728492259979248,0.031081318855285645
1701865427108248300,8.594248291015624,-0.18147945404052734,0.23603200912475586,0.30905741453170776
1701865427117840400,8.60384033203125,-0.12997722625732422,0.2672293186187744,0.2804834246635437
1701865427127433200,8.61343310546875,-0.27448081970214844,0.26260697841644287,0.3239421248435974
1701865427137026800,8.62302685546875,-0.34212398529052734,0.2647700309753418,0.35115599632263184
1701865427146619400,8.632619384765626,-0.3068265914916992,0.266818642616272,0.3413817286491394
1701865427156211500,8.64221142578125,-0.18589305877685547,0.19813215732574463,0.39615076780319214
1701865427165804300,8.65180419921875,-0.2898416519165039,0.1702280044555664,0.6246321797370911
1701865427175398000,8.66139794921875,-0.12636470794677734,0.23922491073608398,0.4780794382095337
1701865427184990500,8.670990478515625,-0.07572746276855469,0.35926711559295654,0.5503292083740234
1701865427194582500,8.68058251953125,-0.05865001678466797,0.3025931119918823,0.5974066257476807
1701865427204175400,8.69017529296875,-0.12272262573242188,0.4062689542770386,0.4527848958969116
1701865427213769000,8.69976904296875,0.009168624877929688,0.3262040615081787,0.467274010181427
1701865427223361500,8.709361572265625,-0.024100303649902344,0.3086491823196411,0.4105072617530823
1701865427232953600,8.71895361328125,0.06676864624023438,0.2345064878463745,0.2900974154472351
1701865427242546400,8.72854638671875,0.04282855987548828,0.27297449111938477,0.16408836841583252
1701865427252139800,8.738139892578126,0.0189208984375,0.08981537818908691,0.24177896976470947
1701865427261732600,8.747732666015626,0.052204132080078125,0.08544182777404785,0.2675725221633911
1701865427271324700,8.75732470703125,0.11354446411132812,0.1507399082183838,0.18128371238708496
1701865427280917500,8.76691748046875,0.16483497619628906,-0.12306499481201172,0.3608584403991699
1701865427290511000,8.776510986328125,0.11452388763427734,-0.08088183403015137,0.26525890827178955
1701865427300103700,8.786103759765625,0.1855173110961914,-0.0314486026763916,0.28718483448028564
1701865427309695700,8.79569580078125,0.24385738372802734,-0.05907893180847168,0.19891893863677979
1701865427319288600,8.80528857421875,0.1768321990966797,-0.21448612213134766,0.33210623264312744
1701865427328882000,8.8148818359375,0.23611736297607422,-0.0032281875610351562,-0.13997310400009155
1701865427338474800,8.824474853515625,0.01709461212158203,0.040468454360961914,-0.08081895112991333
1701865427348066800,8.83406689453125,0.04683685302734375,-0.04242563247680664,-0.11200183629989624
1701865427357659600,8.84365966796875,0.038512229919433594,-0.11024880409240723,-0.09804487228393555
1701865427367253000,8.8532529296875,0.0798177719116211,-0.03588247299194336,-0.13370537757873535
1701865427376845800,8.862845703125,0.1367635726928711,-0.030471086502075195,-0.14295780658721924
1701865427386438000,8.87243798828125,0.14554500579833984,-0.13065361976623535,-0.03927314281463623
1701865427396030700,8.88203076171875,0.10714149475097656,-0.05731058120727539,-0.08284205198287964
1701865427405624000,8.8916240234375,0.15877437591552734,-0.09531784057617188,-0.06387770175933838
1701865427415217000,8.901216796875,0.11312580108642578,-0.1618516445159912,0.07136344909667969
1701865427424809000,8.91080908203125,-1.0280561447143555,-0.7532365322113037,0.5450806617736816
1701865427434401500,8.920401611328124,1.6005849838256836,0.4248157739639282,-0.48452073335647583
1701865427443995100,8.9299951171875,-0.5053195953369141,0.15879154205322266,-0.11793029308319092
1701865427453588000,8.939587890625,0.06621837615966797,0.07042384147644043,-0.10852634906768799
1701865427463179800,8.9491796875,0.09398937225341797,0.09556245803833008,-0.15620923042297363
1701865427472772600,8.958772705078125,0.03798103332519531,0.19289636611938477,-0.1509532332420349
1701865427482366200,8.9683662109375,0.03220367431640625,0.20438265800476074,-0.07373028993606567
1701865427491959000,8.977958984375,0.0402069091796875,0.20560145378112793,0.017300963401794434
1701865427501551000,8.987551025390625,0.05994892120361328,0.19453072547912598,0.13014113903045654
1701865427511143700,8.997143798828125,0.11016082763671875,0.21352267265319824,0.17055785655975342
1701865427520737300,9.0067373046875,0.2349414825439453,0.26015806198120117,0.20321214199066162
1701865427530330000,9.016330078125,0.3152189254760742,0.2875077724456787,0.18385493755340576
1701865427539922000,9.025921875,0.41755008697509766,0.33654117584228516,0.16092407703399658
1701865427549514800,9.0355146484375,0.48494529724121094,0.3039257526397705,0.23841464519500732
1701865427559108400,9.0451083984375,0.38854026794433594,0.4827578067779541,-0.03274857997894287
1701865427568701200,9.054701171875,0.33588409423828125,0.37714457511901855,0.07056248188018799
1701865427578293000,9.06429296875,0.3800649642944336,0.3010687828063965,0.08436322212219238
1701865427587885800,9.0738857421875,0.3993806838989258,0.1808764934539795,0.16727876663208008
1701865427597479400,9.0834794921875,0.046294212341308594,-0.010817289352416992,0.14069664478302002
1701865427607072300,9.093072265625,0.49917030334472656,0.4453294277191162,-0.30291229486465454
1701865427616664000,9.1026640625,-0.11500263214111328,0.33058881759643555,-0.16239619255065918
1701865427626257000,9.1122568359375,-0.050232887268066406,0.12944412231445312,-0.14842164516448975
1701865427635850500,9.1218505859375,-0.14393901824951172,0.05078911781311035,-0.2043275237083435
1701865427645443300,9.131443359375,-0.22383499145507812,-0.008852243423461914,-0.26460176706314087
1701865427655035100,9.14103515625,-0.1843109130859375,-0.09680700302124023,-0.18865108489990234
1701865427664628000,9.1506279296875,-0.2535085678100586,-0.21500325202941895,-0.086201012134552
1701865427674221600,9.1602216796875,-0.29537296295166016,-0.2359619140625,-0.09178149700164795
1701865427683814100,9.169814208984375,-0.3151388168334961,-0.23633766174316406,-0.08818811178207397
1701865427693406200,9.17940625,-0.2944059371948242,-0.23768353462219238,-0.015072464942932129
1701865427702999000,9.1889990234375,-0.2692718505859375,-0.21610522270202637,-0.017388641834259033
1701865427712592600,9.198592529296874,-0.23976898193359375,-0.1553640365600586,-0.07195836305618286
1701865427722185200,9.208185302734375,-0.15434932708740234,-0.10014915466308594,-0.1142311692237854
1701865427731777300,9.21777734375,-0.12694454193115234,-0.05964350700378418,-0.1840214729309082
1701865427741370000,9.2273701171875,-0.1024627685546875,-0.024184465408325195,-0.17514818906784058
1701865427750963700,9.236963623046876,-0.07376861572265625,0.013169527053833008,-0.1857394576072693
1701865427760556300,9.246556396484374,-0.024451255798339844,0.0029249191284179688,-0.11429852247238159
1701865427770148400,9.2561484375,0.005110740661621094,0.03060293197631836,-0.07771515846252441
1701865427779741200,9.2657412109375,0.05290699005126953,0.05096149444580078,-0.0681002140045166
1701865427789334800,9.275334716796875,0.10451984405517578,0.09940075874328613,-0.042608797550201416
1701865427798927400,9.28492724609375,0.1434154510498047,0.18017077445983887,-0.02020019292831421
1701865427808519400,9.29451953125,0.1297769546508789,0.2126772403717041,-0.01273113489151001
1701865427818112300,9.3041123046875,0.17282581329345703,0.23304986953735352,-0.0335087776184082
1701865427827705900,9.313705810546875,0.19148826599121094,0.22534561157226562,-0.07026165723800659
1701865427837298400,9.32329833984375,0.20017719268798828,0.22085094451904297,-0.0761786699295044
1701865427846890500,9.332890380859375,0.20841693878173828,0.2079789638519287,-0.07761043310165405
1701865427856483300,9.3424833984375,0.1998157501220703,0.1937272548675537,-0.0696789026260376
1701865427866077000,9.352076904296876,0.1747579574584961,0.17534518241882324,-0.01495063304901123
1701865427875669500,9.36166943359375,0.18312358856201172,0.09103250503540039,0.03621947765350342
1701865427885261600,9.371261474609375,0.1328582763671875,0.07516908645629883,0.016199707984924316
1701865427894854400,9.3808544921875,0.08157157897949219,0.018111228942871094,-0.019033193588256836
1701865427904448000,9.390447998046875,0.10692501068115234,-0.05103421211242676,-0.005674839019775391
1701865427914040600,9.40004052734375,0.04048442840576172,-0.033165693283081055,-0.015208125114440918
1701865427923632600,9.409632568359376,0.04387950897216797,-0.04036664962768555,-0.01886427402496338
1701865427933225500,9.4192255859375,0.038153648376464844,-0.041327714920043945,-0.028710126876831055
1701865427942819000,9.428819091796875,0.03740692138671875,-0.02396416664123535,-0.04991811513900757
1701865427952411600,9.43841162109375,0.006176948547363281,-0.03088545799255371,-0.0450439453125
1701865427962003700,9.448003662109375,0.013152122497558594,-0.028429746627807617,-0.052250027656555176
1701865427971596500,9.457596435546876,0.012883186340332031,-0.021271467208862305,-0.01746344566345215
1701865427981190000,9.46718994140625,0.0006866455078125,-0.011627912521362305,0.008855700492858887
1701865427990782700,9.47678271484375,-0.004191398620605469,-0.011730432510375977,0.013612508773803711
1701865428000374800,9.486374755859375,0.019255638122558594,-0.023591995239257812,0.013555645942687988
1701865428009967600,9.495967529296875,0.03747749328613281,-0.03972768783569336,0.07417535781860352
1701865428019561000,9.50556103515625,0.09058475494384766,0.024851560592651367,0.03720200061798096
1701865428029153800,9.51515380859375,0.1120452880859375,0.07230234146118164,0.04054462909698486
1701865428038745600,9.52474560546875,0.11179733276367188,0.07712101936340332,0.07432961463928223
1701865428048338700,9.534338623046875,0.08550453186035156,0.08005118370056152,0.10522782802581787
1701865428057932000,9.54393212890625,0.07839202880859375,0.09271764755249023,0.09806442260742188
1701865428067524900,9.55352490234375,0.08544349670410156,0.06316590309143066,0.09831130504608154
1701865428077117000,9.563116943359375,0.09464168548583984,0.048563241958618164,0.10564696788787842
1701865428086709500,9.57270947265625,0.042487144470214844,0.03423881530761719,0.08716154098510742
1701865428096303000,9.58230322265625,0.03603839874267578,0.02230381965637207,0.0741509199142456
1701865428105896000,9.59189599609375,0.003977775573730469,0.05241870880126953,0.06866371631622314
1701865428115487700,9.60148779296875,0.0478668212890625,0.030143260955810547,0.056664109230041504
1701865428125080600,9.61108056640625,0.043941497802734375,0.07202839851379395,0.02424168586730957
1701865428134674200,9.620674072265626,0.00002956390380859375,0.10160160064697266,-0.012227773666381836
1701865428144267000,9.63026708984375,0.010931968688964844,0.08858919143676758,-0.017361879348754883
1701865428153858800,9.63985888671875,-0.008955001831054688,0.08755087852478027,-0.010670185089111328
1701865428163451600,9.64945166015625,-0.0707864761352539,0.09811258316040039,-0.05785512924194336
1701865428173045200,9.659045166015625,-0.011467933654785156,0.10373377799987793,-0.08273053169250488
1701865428182638000,9.66863818359375,-0.026106834411621094,0.1069192886352539,-0.06703269481658936
1701865428192230000,9.67822998046875,-0.03337287902832031,0.11684417724609375,-0.07758533954620361
1701865428201822700,9.68782275390625,-0.021636009216308594,0.0628516674041748,-0.07388317584991455
1701865428211416300,9.697416259765625,-0.012370109558105469,0.03067636489868164,-0.1031869649887085
1701865428221009200,9.707009033203125,-0.0008153915405273438,-0.022446393966674805,-0.0825035572052002
1701865428230601000,9.71660107421875,0.024850845336914062,-0.0328059196472168,-0.09481829404830933
1701865428240193800,9.72619384765625,0.019622802734375,-0.0694112777709961,-0.09287911653518677
1701865428249787400,9.735787353515626,-0.008845329284667969,-0.11793923377990723,-0.029793858528137207
1701865428259380200,9.745380126953124,0.07150650024414062,-0.11418652534484863,-0.05047786235809326
1701865428268972000,9.754971923828125,0.05170917510986328,-0.05668330192565918,-0.06399905681610107
1701865428278564900,9.76456494140625,0.10292625427246094,-0.00964975357055664,-0.06527948379516602
1701865428288158500,9.774158447265625,0.1273355484008789,-0.0009355545043945312,-0.057274818420410156
1701865428297751000,9.7837509765625,0.11830520629882812,0.0054934024810791016,-0.02126002311706543
1701865428307343000,9.793343017578126,0.08581733703613281,0.019034862518310547,-0.03077387809753418
1701865428316936000,9.80293603515625,0.08196163177490234,0.018653154373168945,-0.023970484733581543
1701865428326529500,9.812529541015625,0.0804147720336914,0.0021762847900390625,0.003892183303833008
1701865428336122000,9.8221220703125,0.059950828552246094,0.012297391891479492,0.0031474828720092773
1701865428345714200,9.831714111328125,0.016266822814941406,0.010548114776611328,0.014201641082763672
1701865428355307000,9.84130712890625,-0.01958179473876953,-0.005403757095336914,0.02282416820526123
1701865428364900600,9.850900634765624,-0.04758167266845703,0.020751476287841797,0.01043558120727539
1701865428374493200,9.8604931640625,-0.055988311767578125,-0.036768436431884766,0.05050384998321533
1701865428384085200,9.870085205078125,-0.04984569549560547,0.00944972038269043,0.033846259117126465
1701865428393678000,9.879677978515625,-0.00829315185546875,0.002620697021484375,0.0415576696395874
1701865428403271700,9.889271728515626,0.030310630798339844,0.007474660873413086,0.04242908954620361
1701865428412864300,9.8988642578125,0.03528785705566406,0.021689176559448242,0.029007673263549805
1701865428422456300,9.908456298828124,0.035411834716796875,0.038222551345825195,0.0016540288925170898
1701865428432049200,9.918049072265624,0.018967628479003906,0.031126976013183594,-0.016101598739624023
1701865428441642800,9.927642822265625,0.005085945129394531,0.0573420524597168,-0.03120553493499756
1701865428451235300,9.9372353515625,0.01959991455078125,0.017366647720336914,-0.008725643157958984
1701865428460827400,9.946827392578125,-0.010852813720703125,0.11214017868041992,-0.08806467056274414
1701865428470420200,9.956420166015626,0.02975940704345703,0.0688478946685791,-0.07706338167190552
1701865428480013600,9.966013671875,0.04370689392089844,0.07364463806152344,-0.08281511068344116
1701865428489606400,9.9756064453125,0.038413047790527344,0.07654237747192383,-0.08162206411361694
1701865428499198500,9.985198486328125,0.04482746124267578,0.0893559455871582,-0.05216825008392334
1701865428508791300,9.994791259765625,0.01816558837890625,0.07629799842834473,-0.025071263313293457
1701865428518385000,10.004385009765626,0.029560089111328125,0.04478025436401367,0.01089775562286377
1701865428527977500,10.0139775390625,0.019721031188964844,0.025180816650390625,-0.014607667922973633
1701865428537569500,10.023569580078124,0.014859199523925781,0.0009036064147949219,0.0028547048568725586
1701865428547162400,10.033162353515625,-0.008666038513183594,-0.018556594848632812,0.003607034683227539
1701865428556755700,10.042755615234375,-0.012826919555664062,-0.014685392379760742,-0.009885191917419434
1701865428566348500,10.0523486328125,0.020752906799316406,-0.01570606231689453,-0.023396730422973633
1701865428575940600,10.061940673828126,0.01607036590576172,-0.0049877166748046875,-0.039478182792663574
1701865428585533400,10.071533447265624,0.04899311065673828,-0.015352487564086914,-0.051101088523864746
1701865428595126800,10.081126708984375,0.03419780731201172,-0.006533622741699219,-0.04635477066040039
1701865428604719600,10.0907197265625,0.05714702606201172,-0.006887674331665039,-0.025725960731506348
1701865428614311700,10.100311767578125,0.06544876098632812,-0.009293794631958008,-0.012990832328796387
1701865428623904300,10.109904296875,0.038299560546875,0.025981903076171875,-0.026424407958984375
1701865428633497900,10.119497802734376,0.03276538848876953,0.011244058609008789,-0.004504680633544922
1701865428643090700,10.129090576171874,0.039081573486328125,-0.01737380027770996,0.01694345474243164
1701865428652682500,10.1386826171875,0.0029478073120117188,-0.03152132034301758,0.04503679275512695
1701865428662275300,10.148275390625,-0.004244804382324219,-0.0316166877746582,0.05856668949127197
1701865428671869000,10.157868896484375,0.0052337646484375,-0.02959585189819336,0.048375844955444336
1701865428681461800,10.167461669921876,0.012211799621582031,0.0006415843963623047,0.038461923599243164
1701865428691053600,10.177053466796876,0.0403900146484375,-0.009967327117919922,0.03609657287597656
1701865428700646400,10.186646484375,0.023476600646972656,0.02411651611328125,0.027135372161865234
1701865428710240000,10.196239990234375,0.009293556213378906,-0.0343017578125,0.03530740737915039
1701865428719832800,10.205832763671875,0.023651123046875,0.007010459899902344,0.02469348907470703
1701865428729424600,10.215424560546875,0.021327972412109375,0.009966850280761719,0.009869098663330078
1701865428739017500,10.225017578125,0.011987686157226562,0.03418111801147461,-0.009065747261047363
1701865428748611000,10.234611083984374,0.014569282531738281,0.04163169860839844,0.005517721176147461
1701865428758204000,10.244203857421875,0.0311737060546875,0.042134761810302734,0.019918441772460938
1701865428767795700,10.253795654296875,-0.011379241943359375,0.06852531433105469,0.017386317253112793
1701865428777388500,10.263388427734375,-0.0038089752197265625,0.07799649238586426,0.028808236122131348
1701865428786982100,10.272982177734375,-0.015269279479980469,0.07329154014587402,0.016177892684936523
1701865428796574700,10.28257470703125,0.004055976867675781,0.05689358711242676,0.02013099193572998
1701865428806166800,10.292166748046874,-0.0052642822265625,0.05746197700500488,0.030974268913269043
1701865428815759600,10.301759521484374,-0.023962020874023438,0.04659557342529297,0.03442025184631348
1701865428825353200,10.311353271484375,0.004647254943847656,0.04329323768615723,0.035454750061035156
1701865428834945800,10.32094580078125,-0.00025177001953125,0.047347307205200195,0.03877902030944824
1701865428844537900,10.330537841796875,0.009014129638671875,0.039694786071777344,0.04906320571899414
1701865428854130700,10.340130615234376,0.044005393981933594,0.022871971130371094,0.07343780994415283
1701865428863724300,10.349724365234374,0.017258644104003906,0.02274012565612793,0.04356241226196289
1701865428873316900,10.35931689453125,0.03813743591308594,0.003589153289794922,0.05458629131317139
1701865428882909000,10.368908935546875,0.007004737854003906,0.012712240219116211,0.04461848735809326
1701865428892501800,10.378501708984375,0.030584335327148438,0.0027000904083251953,0.03956711292266846
1701865428902095400,10.388095458984376,0.03972816467285156,-0.023757219314575195,0.04438447952270508
1701865428911688000,10.39768798828125,0.03464698791503906,0.025441646575927734,-0.01425778865814209
1701865428921280000,10.407280029296874,0.017800331115722656,0.048069000244140625,-0.025177001953125
1701865428930872800,10.416872802734375,0.05292320251464844,-0.05658888816833496,0.041429996490478516
1701865428940466400,10.426466552734375,0.02861499786376953,-0.055899620056152344,0.01993417739868164
1701865428950059000,10.43605908203125,0.00000476837158203125,-0.024668216705322266,-0.015447616577148438
1701865428959651000,10.445651123046876,-0.021038055419921875,-0.03175640106201172,-0.01734030246734619
1701865428969244000,10.455243896484374,-0.025122642517089844,-0.04141354560852051,-0.00713956356048584
1701865428978837500,10.46483740234375,-0.012601852416992188,-0.0393528938293457,-0.023004770278930664
1701865428988430000,10.47443017578125,0.013925552368164062,-0.018800735473632812,-0.029159069061279297
1701865428998022100,10.484022216796875,0.007166862487792969,-0.02479410171508789,-0.016133666038513184
1701865429007615000,10.493614990234375,0.012392997741699219,-0.026274919509887695,-0.026700854301452637
1701865429017208300,10.503208251953126,0.015206336975097656,-0.018408536911010742,-0.03470754623413086
1701865429026801200,10.51280126953125,0.025081634521484375,-0.02497410774230957,-0.0614323616027832
1701865429036393200,10.522393310546875,0.041812896728515625,-0.01953887939453125,-0.09720540046691895
1701865429045986000,10.531986083984375,0.05355358123779297,-0.025952816009521484,-0.08291435241699219
1701865429055579600,10.54157958984375,0.02025318145751953,0.10918688774108887,-0.18475788831710815
1701865429065172200,10.551172119140626,0.008618354797363281,0.1739652156829834,-0.2098272442817688
1701865429074764300,10.560764404296876,-0.02864551544189453,0.11479806900024414,-0.16193419694900513
1701865429084357000,10.570357177734374,-0.025323867797851562,-0.06583166122436523,-0.06358516216278076
1701865429093950500,10.579950439453125,-0.029062271118164062,-0.13083839416503906,-0.04733002185821533
1701865429103543300,10.589543212890625,-0.05858612060546875,-0.08209848403930664,-0.07412207126617432
1701865429113135400,10.59913525390625,0.027426719665527344,-0.023961782455444336,-0.09890139102935791
1701865429122728200,10.608728271484376,0.01744365692138672,-0.0529179573059082,-0.04663991928100586
1701865429132321500,10.618321533203124,0.0050220489501953125,-0.07373857498168945,-0.036029696464538574
1701865429141914400,10.627914306640625,0.00212860107421875,-0.056427001953125,-0.014330267906188965
1701865429151506200,10.637506103515625,-0.007836341857910156,-0.06520771980285645,0.01382744312286377
1701865429161099000,10.64709912109375,0.015275955200195312,-0.12314462661743164,0.0814671516418457
1701865429170692600,10.656692626953125,0.05681324005126953,-0.1753242015838623,0.13623404502868652
1701865429180285400,10.666285400390626,0.07881832122802734,-0.1371619701385498,0.12888610363006592
1701865429189877200,10.675877197265624,0.09110164642333984,-0.11150169372558594,0.13611316680908203
1701865429199470000,10.685469970703124,0.07968711853027344,-0.043872833251953125,0.11310040950775146
1701865429209063700,10.695063720703125,0.08714771270751953,0.030286073684692383,0.10474348068237305
1701865429218656500,10.704656494140625,0.06861305236816406,0.05387258529663086,0.07578861713409424
1701865429228248300,10.714248291015625,0.04346752166748047,0.08151602745056152,0.04791414737701416
1701865429237841200,10.723841064453126,0.02149200439453125,0.06778168678283691,0.05467820167541504
1701865429247434800,10.733434814453124,0.009632110595703125,0.06982040405273438,0.04073488712310791
1701865429257027600,10.743027587890625,0.02640247344970703,0.09968805313110352,0.015876054763793945
1701865429266619400,10.752619384765625,0.026642799377441406,0.08843660354614258,0.0013643503189086914
1701865429276212200,10.762212158203125,-0.008204460144042969,0.11913418769836426,-0.03596079349517822
1701865429285805800,10.771805908203126,-0.03065776824951172,0.13502049446105957,-0.09386932849884033
1701865429295398700,10.781398681640624,-0.02923870086669922,0.13667750358581543,-0.13903069496154785
1701865429304990500,10.790990478515624,-0.06089019775390625,0.17153167724609375,-0.19766050577163696
1701865429314583300,10.800583251953125,-0.06397628784179688,0.18284916877746582,-0.20629221200942993
1701865429324177000,10.810177001953125,-0.1167001724243164,0.2016007900238037,-0.215576171875
1701865429333769500,10.81976953125,-0.11925792694091797,0.17318248748779297,-0.19246560335159302
1701865429343361500,10.829361572265626,-0.10307693481445312,0.15955090522766113,-0.1539599895477295
1701865429352954400,10.838954345703126,-0.0755910873413086,0.10663247108459473,-0.13070714473724365
1701865429362548000,10.8485478515625,-0.03459644317626953,0.0786592960357666,-0.11739468574523926
1701865429372140500,10.858140625,-0.010906219482421875,0.06099653244018555,-0.07862138748168945
1701865429381732600,10.867732666015625,0.028769493103027344,0.05573272705078125,-0.08294785022735596
1701865429391325400,10.877325439453125,0.013593673706054688,0.06008028984069824,-0.06376683712005615
1701865429400919000,10.8869189453125,0.005688667297363281,0.048102617263793945,-0.07537436485290527
1701865429410511600,10.89651171875,-0.013883590698242188,0.05517148971557617,-0.042243003845214844
1701865429420103700,10.906103759765625,-0.00733184814453125,0.05057835578918457,-0.02878880500793457
1701865429429696500,10.915696533203125,0.00601959228515625,0.04872250556945801,-0.01141345500946045
1701865429439290000,10.9252900390625,0.018906593322753906,0.014580249786376953,0.012200713157653809
1701865429448882700,10.934882568359376,0.04785633087158203,0.021534442901611328,0.025520801544189453
1701865429458474800,10.944474853515626,0.03151893615722656,0.019128084182739258,0.0054683685302734375
1701865429468067600,10.954067626953124,0.04134559631347656,-0.027968883514404297,-0.004832625389099121
1701865429477661200,10.9636611328125,0.02969074249267578,-0.038768768310546875,0.005663514137268066
1701865429487253800,10.973253662109375,0.058159828186035156,-0.07970237731933594,-0.007613539695739746
1701865429496845800,10.982845703125,0.0625772476196289,-0.08916473388671875,-0.001679062843322754
1701865429506438700,10.992438720703126,0.03154563903808594,-0.0772559642791748,0.017913818359375
1701865429516032300,11.0020322265625,0.01981830596923828,-0.04436850547790527,0.013309359550476074
1701865429525624800,11.011624755859375,0.05075836181640625,-0.08534502983093262,0.07477843761444092
1701865429535217000,11.021216796875,0.0436248779296875,-0.07407474517822266,0.07912135124206543
1701865429544809700,11.030809814453125,0.0037603378295898438,-0.02098703384399414,0.06232166290283203
1701865429554403000,11.040403076171875,0.0070476531982421875,-0.002006053924560547,0.050841450691223145
1701865429563996000,11.049995849609376,0.06449317932128906,-0.07748913764953613,0.08956170082092285
1701865429573588000,11.059587890625,0.0667104721069336,-0.06631922721862793,0.0597996711730957
1701865429583180800,11.069180908203125,0.03570747375488281,0.0019233226776123047,0.02104020118713379
1701865429592774100,11.078774169921875,-0.04441261291503906,0.06246304512023926,-0.012749314308166504
1701865429602367000,11.088366943359375,-0.08101463317871094,0.09890127182006836,0.02652597427368164
1701865429611958800,11.097958740234375,-0.07266807556152344,0.20879769325256348,-0.07904922962188721
1701865429621551600,11.107551513671876,-0.09543895721435547,0.051828861236572266,0.11779344081878662
1701865429631145200,11.117145263671874,-0.09921741485595703,0.0699453353881836,0.023878097534179688
1701865429640738000,11.126738037109375,-0.10548973083496094,0.07659602165222168,0.011407136917114258
1701865429650330000,11.136330078125,-0.04839038848876953,0.043811798095703125,-0.015599846839904785
1701865429659922700,11.145922607421875,0.0003948211669921875,-0.003979921340942383,-0.009359121322631836
1701865429669516300,11.155516357421876,-0.015514373779296875,0.0510706901550293,-0.0837482213973999
1701865429679109000,11.165109130859374,-0.05266761779785156,0.08229374885559082,-0.10830700397491455
1701865429688701000,11.174700927734374,-0.06823444366455078,0.05202603340148926,-0.10980582237243652
1701865429698293800,11.184293701171875,-0.05300617218017578,0.057531118392944336,-0.1469975709915161
1701865429707887400,11.193887451171875,-0.016867637634277344,-0.05955052375793457,-0.030691862106323242
1701865429717480200,11.203480224609375,-0.0023441314697265625,-0.1327531337738037,0.004139065742492676
1701865429727072000,11.213072021484376,-0.030046463012695312,-0.10941529273986816,0.022385835647583008
1701865429736664800,11.222664794921876,-0.023819923400878906,-0.14890646934509277,0.03912627696990967
1701865429746258400,11.232258544921875,0.001667022705078125,-0.13254308700561523,0.06375598907470703
1701865429755851300,11.241851318359375,0.03188037872314453,-0.07282543182373047,0.034697771072387695
1701865429765443000,11.251443115234375,0.07831001281738281,-0.08293867111206055,0.0655369758605957
1701865429775036000,11.261035888671875,0.05839729309082031,0.15824413299560547,-0.056317687034606934
1701865429784629500,11.27062939453125,0.08876419067382812,0.07382535934448242,0.022234320640563965
1701865429794222000,11.28022216796875,0.1591358184814453,-0.19882893562316895,0.21315228939056396
1701865429803814100,11.289814208984374,0.1628427505493164,-0.2044382095336914,0.24134552478790283
1701865429813407000,11.299406982421875,0.17612934112548828,-0.14926624298095703,0.18007349967956543
1701865429823000600,11.30900048828125,0.19890308380126953,-0.07196927070617676,0.14193451404571533
1701865429832593400,11.318593505859376,0.11833477020263672,0.026227235794067383,0.09406530857086182
1701865429842185200,11.328185302734376,0.1150979995727539,0.022379159927368164,0.11651980876922607
1701865429851778000,11.337778076171874,0.08170795440673828,0.03651261329650879,0.11821246147155762
1701865429861371600,11.34737158203125,0.053646087646484375,0.0597379207611084,0.12247169017791748
1701865429870964200,11.356964111328125,0.04017448425292969,0.07326579093933105,0.11509764194488525
1701865429880556300,11.366556396484375,-0.048439979553222656,0.11024832725524902,0.11967778205871582
1701865429890149000,11.376149169921876,-0.09340858459472656,0.1307511329650879,0.10285496711730957
1701865429899742700,11.38574267578125,-0.14023208618164062,0.12347197532653809,0.08154046535491943
1701865429909335300,11.395335205078124,-0.16781997680664062,0.10083961486816406,0.06006431579589844
1701865429918927400,11.40492724609375,-0.1883411407470703,0.10805273056030273,0.043032288551330566
1701865429928520200,11.414520263671875,-0.21837711334228516,0.0832822322845459,0.04200482368469238
1701865429938113800,11.42411376953125,-0.23659133911132812,0.10228133201599121,0.02349257469177246
1701865429947706400,11.433706298828126,-0.24768352508544922,0.09545326232910156,-0.004957318305969238
1701865429957298400,11.44329833984375,-0.07036781311035156,-0.2522091865539551,0.12484049797058105
1701865429966891300,11.452891357421874,-0.1126718521118164,-0.12075114250183105,0.021529436111450195
1701865429976484600,11.462484619140625,-0.09069252014160156,-0.0762014389038086,0.011921167373657227
1701865429986077400,11.472077392578125,-0.024271011352539062,-0.1007375717163086,0.012269735336303711
1701865429995669500,11.48166943359375,-0.005848884582519531,-0.09463310241699219,0.010775208473205566
1701865430005262300,11.491262451171876,0.024308204650878906,-0.10809874534606934,0.0004181861877441406
1701865430014855700,11.500855712890624,0.08011436462402344,-0.13135790824890137,-0.0022176504135131836
1701865430024448500,11.510448486328125,0.14462852478027344,-0.0936896800994873,-0.016430974006652832
1701865430034040600,11.52004052734375,0.16813278198242188,-0.052469730377197266,-0.05201828479766846
1701865430043633400,11.52963330078125,0.1489124298095703,0.004191875457763672,-0.07326686382293701
1701865430053226800,11.539226806640626,0.12062454223632812,0.06669235229492188,-0.10626852512359619
1701865430062819600,11.548819580078124,0.1163482666015625,0.1256406307220459,-0.12960803508758545
1701865430072411600,11.55841162109375,0.08385753631591797,0.152968168258667,-0.1410607099533081
1701865430082004500,11.56800439453125,0.07061576843261719,0.17307782173156738,-0.12902259826660156
1701865430091597800,11.577597900390625,0.04814434051513672,0.16472458839416504,-0.12421607971191406
1701865430101190700,11.587190673828125,0.044836997985839844,0.15204787254333496,-0.10048770904541016
1701865430110782700,11.59678271484375,0.020323753356933594,0.11180520057678223,-0.09322381019592285
1701865430120375300,11.606375244140626,0.0032196044921875,0.07723760604858398,-0.06944680213928223
1701865430129969000,11.615968994140625,-0.023077964782714844,0.017629384994506836,-0.04123353958129883
1701865430139561700,11.625561767578125,-0.034847259521484375,-0.029163837432861328,-0.032442450523376465
1701865430149153500,11.635153564453125,-0.051131248474121094,-0.07763671875,-0.021654605865478516
1701865430158746400,11.644746337890625,-0.07654953002929688,-0.10906720161437988,-0.03496742248535156
1701865430168340000,11.654340087890626,-0.08505439758300781,-0.14023637771606445,-0.03905189037322998
1701865430177932800,11.663932861328124,-0.1074981689453125,-0.10758495330810547,-0.07387161254882812
1701865430187524600,11.673524658203124,-0.1012735366821289,-0.10871601104736328,-0.07538247108459473
1701865430197117400,11.683117431640625,-0.0787210464477539,-0.07918643951416016,-0.0794532299041748
1701865430206711000,11.6927109375,-0.0495452880859375,-0.06885647773742676,-0.06948697566986084
1701865430216303900,11.702303955078126,-0.030320167541503906,-0.05866193771362305,-0.06462550163269043
1701865430225895700,11.711895751953126,-0.020783424377441406,-0.03458094596862793,-0.031401753425598145
1701865430235488500,11.721488525390624,0.005042076110839844,-0.03672671318054199,-0.015273571014404297
1701865430245082000,11.73108203125,0.042243003845214844,-0.0270843505859375,-0.015713810920715332
1701865430254674700,11.7406748046875,0.06936073303222656,-0.04093337059020996,0.0004392862319946289
1701865430264266800,11.750266845703125,0.07484149932861328,-0.045012474060058594,-0.006976127624511719
1701865430273859600,11.759859619140625,0.06617259979248047,-0.03024435043334961,0.014287352561950684
1701865430283453200,11.769453125,0.10968399047851562,0.019305944442749023,-0.0579829216003418
1701865430293045800,11.779045654296874,0.15787792205810547,-0.06229543685913086,0.04790818691253662
1701865430302637800,11.788637939453125,0.18506240844726562,0.12437772750854492,-0.1506505012512207
1701865430312230700,11.798230712890625,0.18620967864990234,0.02936840057373047,0.019546866416931152
1701865430321824300,11.80782421875,0.08737564086914062,-0.16150426864624023,0.24403619766235352
1701865430331416800,11.817416748046876,-0.06079578399658203,-0.1440417766571045,0.2412118911743164
1701865430341009000,11.8270087890625,0.021942138671875,0.19865679740905762,-0.17185461521148682
1701865430350601700,11.836601806640624,-0.022950172424316406,0.16912174224853516,-0.11419284343719482
1701865430360195300,11.8461953125,0.051377296447753906,0.14355015754699707,-0.11626219749450684
1701865430369788000,11.855787841796875,-0.057608604431152344,0.3056154251098633,-0.1973884105682373
1701865430379380000,11.8653798828125,0.02588939666748047,-0.04639244079589844,0.1291360855102539
1701865430388972800,11.874972900390626,-0.004351615905761719,-0.04980731010437012,0.14979183673858643
1701865430398566400,11.88456640625,-0.08220672607421875,0.01033329963684082,0.11838579177856445
1701865430408159000,11.894158935546875,-0.1705493927001953,0.03853130340576172,0.16920876502990723
1701865430417751000,11.9037509765625,-0.11325359344482422,0.08118629455566406,0.09037184715270996
1701865430427344000,11.91334375,-0.04917716979980469,0.11013936996459961,-0.02049863338470459
1701865430436937200,11.922937255859376,-0.0045013427734375,0.09079766273498535,-0.028846263885498047
1701865430446530000,11.932530029296874,0.03234577178955078,0.09340667724609375,0.0036563873291015625
1701865430456122000,11.9421220703125,-0.05941200256347656,-0.05807209014892578,0.18566977977752686
1701865430465715000,11.95171484375,-0.19130516052246094,-0.11022114753723145,0.24149417877197266
1701865430475308500,11.96130859375,-0.18061256408691406,0.007451057434082031,0.044782280921936035
1701865430484901000,11.970901123046875,-0.13486099243164062,-0.0601811408996582,0.03269374370574951
1701865430494493200,11.9804931640625,-0.08283519744873047,-0.09098601341247559,-0.0021625757217407227
1701865430504086000,11.9900859375,-0.057517051696777344,-0.1022331714630127,0.039635658264160156
