time,seconds_elapsed,z,y,x
1701864963879489500,0.153489501953125,7.517650604248047,6.1944193840026855,3.680460214614868
1701864963889081300,0.163081298828125,7.266404151916504,5.983851432800293,2.3183460235595703
1701864963898674000,0.172673828125,6.315855503082275,6.352644920349121,0.6807580590248108
1701864963908267300,0.182267333984375,5.0638108253479,6.340681076049805,-0.05922235921025276
1701864963917859800,0.19185986328125,6.718148708343506,6.316752910614014,-0.33439695835113525
1701864963927451600,0.20145166015625,8.197511672973633,6.168098449707031,-0.054436713457107544
1701864963937044200,0.211044189453125,9.404091835021973,5.6294145584106445,0.9511470198631287
1701864963946637600,0.220637451171875,10.802397727966309,5.564808368682861,1.8131613731384277
1701864963956230100,0.230230224609375,10.979466438293457,5.732305526733398,2.138585329055786
1701864963965822000,0.239822021484375,10.654043197631836,5.583950519561768,1.9710876941680908
1701864963975414500,0.24941455078125,10.546066284179688,6.079564094543457,0.7956135272979736
1701864963985007900,0.2590078125,10.285248756408691,5.9886369705200195,0.8626125454902649
1701864963994600400,0.268600341796875,9.868598937988281,5.7155561447143555,1.7030915021896362
1701864964004192000,0.27819189453125,9.430413246154785,5.526523113250732,2.5002005100250244
1701864964013784600,0.28778466796875,8.990134239196777,5.449952602386475,2.8905298709869385
1701864964023378000,0.2973779296875,8.444271087646484,5.550451278686523,2.9862427711486816
1701864964032970500,0.306970458984375,7.697112083435059,5.670092582702637,3.0580272674560547
1701864964042562300,0.316562255859375,6.658029079437256,5.655735492706299,3.0317063331604004
1701864964052155000,0.32615478515625,5.710172176361084,5.754140377044678,2.701197624206543
1701864964061748200,0.335748291015625,5.279164791107178,6.096313953399658,2.1816561222076416
1701864964071340800,0.3453408203125,5.202594757080078,6.5057854652404785,1.8873388767242432
1701864964080932600,0.3549326171875,5.255236625671387,6.7331037521362305,2.018944025039673
1701864964090525200,0.364525146484375,5.252843856811523,6.797709941864014,2.301596164703369
1701864964100118500,0.374118408203125,5.68385124206543,6.716353893280029,2.50498628616333
1701864964109711000,0.383711181640625,6.39721155166626,6.44596529006958,2.581556558609009
1701864964119303000,0.393302978515625,7.00050163269043,5.914459228515625,2.4786651134490967
1701864964128895500,0.4028955078125,7.584649562835693,6.0197434425354,2.193620204925537
1701864964138488800,0.41248876953125,8.05394172668457,6.141777515411377,1.906481385231018
1701864964148081400,0.422081298828125,8.602197647094727,6.036493301391602,2.090728759765625
1701864964157673000,0.4316728515625,8.599804878234863,5.833103179931641,2.545664072036743
1701864964167265800,0.441265869140625,8.120941162109375,5.761318683624268,2.598306179046631
1701864964176859100,0.450859130859375,7.824231147766113,5.787639617919922,2.670090913772583
1701864964186451700,0.46045166015625,7.900801181793213,5.734997749328613,2.847458839416504
1701864964196043300,0.470043212890625,8.08504867553711,5.708377361297607,3.077169895172119
1701864964205636000,0.479635986328125,7.922336578369141,5.708377361297607,3.395714521408081
1701864964215229400,0.4892294921875,7.7353973388671875,6.014957904815674,3.3236305713653564
1701864964224821800,0.49882177734375,7.6636128425598145,6.242276191711426,3.211168050765991
1701864964234413600,0.50841357421875,7.58943510055542,6.3000030517578125,3.081955671310425
1701864964244006100,0.518006103515625,7.414759159088135,6.290132522583008,2.8450660705566406
1701864964253599500,0.527599609375,7.304689407348633,6.266204357147217,2.833101987838745
1701864964263192000,0.537192138671875,7.2110700607299805,6.220740795135498,2.9001009464263916
1701864964272784000,0.546783935546875,7.0770721435546875,6.290132522583008,2.847458839416504
1701864964282376400,0.55637646484375,6.9837517738342285,6.345466613769531,2.837887763977051
1701864964291969800,0.5659697265625,6.87607479095459,6.319145679473877,2.9790642261505127
1701864964301562400,0.575562255859375,6.681957244873047,6.285346984863281,3.266202926635742
1701864964311154200,0.585154296875,6.452246189117432,6.220740795135498,3.5416765213012695
1701864964320746800,0.594746826171875,6.294320106506348,6.08195686340332,3.93679141998291
1701864964330340000,0.604340087890625,6.758826732635498,6.311966896057129,4.228715896606445
1701864964339932700,0.6139326171875,7.158428192138672,6.472286224365234,3.9176487922668457
1701864964349524500,0.6235244140625,6.809075832366943,6.034100532531738,4.3483567237854
1701864964359117000,0.633116943359375,6.265605926513672,5.650949954986572,4.829613208770752
1701864964368710400,0.64271044921875,5.994917869567871,5.545665740966797,4.977968215942383
1701864964378303000,0.652302978515625,5.911169052124023,5.600700378417969,4.997110843658447
1701864964387894500,0.66189453125,5.896812438964844,5.670092582702637,4.997110843658447
1701864964397487400,0.6714873046875,5.985346794128418,5.713163375854492,4.918148040771484
1701864964407080700,0.681080810546875,6.10259485244751,5.7517476081848145,4.834399223327637
1701864964416673000,0.690673095703125,6.241677761077881,5.773283004760742,4.753043174743652
1701864964426264800,0.700264892578125,6.256034851074219,5.744568824768066,4.848755836486816
1701864964435857400,0.709857421875,6.294320106506348,5.7155561447143555,4.997110843658447
1701864964445450800,0.71945068359375,6.303891181945801,5.689234733581543,5.0979084968566895
1701864964455043300,0.729043212890625,6.177071571350098,5.56241512298584,5.2941203117370605
1701864964464635100,0.73863525390625,6.037988662719727,5.495416164398193,5.442475318908691
1701864964474227700,0.748227783203125,5.8944196701049805,5.473880767822266,5.459224700927734
1701864964483821000,0.757821044921875,5.626423358917236,5.514558792114258,5.408975601196289
1701864964493413600,0.76741357421875,5.463412284851074,5.591129302978516,5.313262462615967
1701864964503005400,0.77700537109375,6.607779502868652,5.234598636627197,5.08355188369751
1701864964512598000,0.786597900390625,6.641279220581055,5.859424591064453,5.088337421417236
1701864964522191400,0.79619140625,6.109773635864258,5.720341682434082,5.203192710876465
1701864964531784000,0.805783935546875,5.944668769836426,5.47866678237915,5.0979084968566895
1701864964541375700,0.815375732421875,6.1914286613464355,5.344668388366699,5.102694511413574
1701864964550968300,0.82496826171875,6.4354963302612305,5.177170753479004,5.0811591148376465
1701864964560561700,0.834561767578125,6.6006011962890625,5.126622676849365,5.047659397125244
1701864964570154200,0.844154296875,6.768397808074951,5.066802024841309,5.119443893432617
1701864964579745800,0.853745849609375,6.92393159866333,5.009374141693115,5.229514122009277
1701864964589338400,0.86333837890625,6.971787929534912,5.033302307128906,5.361119270324707
1701864964598931700,0.872931640625,6.955038070678711,5.100301265716553,5.418546676635742
1701864964608524300,0.882524169921875,6.969395160675049,5.162514686584473,5.423332691192627
1701864964618116000,0.8921162109375,6.9598236083984375,5.198706150054932,5.483152866363525
1701864964627708700,0.901708740234375,6.952645301818848,5.196313381195068,5.533402442932129
1701864964637302000,0.911302001953125,6.93110990524292,5.131408214569092,5.591129302978516
1701864964646894600,0.92089453125,6.916752815246582,5.064409255981445,5.615057468414307
1701864964656486400,0.930486328125,6.928717136383057,5.026124000549316,5.44008207321167
1701864964666079000,0.940078857421875,6.974180698394775,4.949553489685059,5.327619552612305
1701864964675672300,0.94967236328125,7.002894401550293,4.884947299957275,5.3347978591918945
1701864964685265000,0.959264892578125,7.06271505355835,4.825126647949219,5.313262462615967
1701864964694856700,0.968856689453125,7.1010003089904785,4.825126647949219,5.332405090332031
1701864964704449300,0.97844921875,7.134500026702881,4.84187650680542,5.339583873748779
1701864964714042600,0.988042724609375,7.172784805297852,4.810770034790039,5.349154949188232
1701864964723635200,0.99763525390625,7.182356357574463,4.753342151641846,5.270191669464111
1701864964733226800,1.007226806640625,7.203891754150391,4.621737003326416,5.2390851974487305
1701864964742819300,1.0168193359375,7.189534664154053,4.4635114669799805,5.172086238861084
1701864964752412700,1.02641259765625,7.167999267578125,4.3534417152404785,5.042873859405518
1701864964762005200,1.036005126953125,7.223034381866455,4.396512508392334,4.882255554199219
1701864964771597000,1.04559716796875,7.307082176208496,4.4012980461120605,4.863112926483154
1701864964781189600,1.055189697265625,7.309474945068359,4.351048946380615,5.004289627075195
1701864964790783000,1.064782958984375,7.268796920776367,4.327120780944824,5.1768717765808105
1701864964800375600,1.07437548828125,7.2711896896362305,4.3773698806762695,5.200799942016602
1701864964809967400,1.08396728515625,7.2182488441467285,4.389334201812744,5.150550842285156
1701864964819560000,1.093559814453125,7.091429233551025,4.391726970672607,5.093122959136963
1701864964829153300,1.1031533203125,7.010073184967041,4.413262367248535,5.026124000549316
1701864964838745900,1.112745849609375,7.005287170410156,4.449154376983643,4.944468975067139
1701864964848337700,1.122337646484375,6.969395160675049,4.4874396324157715,4.910969257354736
1701864964857930200,1.13193017578125,6.952645301818848,4.475475788116455,5.018945693969727
1701864964867523600,1.141523681640625,7.045965194702148,4.561617374420166,5.210371494293213
1701864964877116200,1.1511162109375,7.098607540130615,4.671986103057861,5.315655708312988
1701864964886707700,1.160707763671875,7.0292158126831055,4.698307037353516,5.394618511199951
1701864964896300500,1.170300537109375,6.955038070678711,4.719842433929443,5.418546676635742
1701864964905894000,1.179893798828125,6.873682022094727,4.7605204582214355,5.416153907775879
1701864964915486200,1.189486328125,6.821040153503418,4.789234638214111,5.416153907775879
1701864964925078000,1.199078125,6.766005039215088,4.7988057136535645,5.435296535491943
1701864964934670600,1.208670654296875,6.665207386016846,4.791627407073975,5.437689304351807
1701864964944264000,1.218263916015625,6.593422889709473,4.786841869354248,5.447260856628418
1701864964953856500,1.2278564453125,6.636493682861328,4.808377265930176,5.349154949188232
1701864964963448300,1.2374482421875,6.701398849487305,4.782055854797363,5.291727066040039
1701864964973041000,1.247041015625,6.79950475692749,4.719842433929443,5.231906890869141
1701864964982634200,1.25663427734375,7.00050163269043,4.660022258758545,5.210371494293213
1701864964992226800,1.266226806640625,7.230212688446045,4.609473705291748,5.191228866577148
1701864965001818600,1.275818603515625,7.362117290496826,4.513761043548584,5.272584915161133
1701864965011411200,1.2854111328125,7.4602227210998535,4.458725929260254,5.318048477172852
1701864965021004500,1.295004638671875,7.57507848739624,4.437190532684326,5.346762180328369
1701864965030597000,1.30459716796875,7.642077445983887,4.389334201812744,5.4759745597839355
1701864965040188700,1.314188720703125,7.599006652832031,4.3773698806762695,5.554937839508057
1701864965049781500,1.323781494140625,7.445865631103516,4.360620021820068,5.492724418640137
1701864965059374800,1.333374755859375,7.285546779632568,4.420440673828125,5.2941203117370605
1701864965068967400,1.342967529296875,7.134500026702881,4.437190532684326,5.119443893432617
1701864965078559000,1.35255908203125,6.928717136383057,4.451547622680664,5.0356950759887695
1701864965088151600,1.362151611328125,6.797111988067627,4.4395833015441895,5.042873859405518
1701864965097745000,1.371744873046875,6.7707905769348145,4.430012226104736,5.0907301902771
1701864965107337500,1.38133740234375,6.864110946655273,4.427618980407715,5.162514686584473
1701864965116929300,1.39092919921875,7.007680416107178,4.437190532684326,5.188836097717285
1701864965126521900,1.40052197265625,7.144071102142334,4.386941432952881,5.212764263153076
1701864965136115200,1.410115234375,7.156035423278809,4.367798805236816,5.265406131744385
1701864965145707800,1.419707763671875,7.0531439781188965,4.444368839263916,5.227120876312256
1701864965155299600,1.429299560546875,6.976573467254639,4.453940391540527,5.181657314300537
1701864965164892200,1.43889208984375,6.9119672775268555,4.391726970672607,5.193621635437012
1701864965174485500,1.448485595703125,6.883253574371338,4.3534417152404785,5.222335338592529
1701864965184078000,1.458078125,6.885646343231201,4.331906318664551,5.212764263153076
1701864965193669600,1.467669677734375,6.830611228942871,4.298406600952148,5.298905849456787
1701864965203262500,1.477262451171875,6.854539394378662,4.276871204376221,5.303691387176514
1701864965212855800,1.486855712890625,6.9670023918151855,4.3055853843688965,5.306084156036377
1701864965222448000,1.4964482421875,7.026822566986084,4.336691856384277,5.315655708312988
1701864965232040000,1.5060400390625,7.022037029266357,4.310370922088623,5.361119270324707
1701864965241632500,1.515632568359375,7.022037029266357,4.248157501220703,5.492724418640137
1701864965251225900,1.525225830078125,7.122535705566406,4.243371963500977,5.619843006134033
1701864965260818400,1.534818359375,7.206284523010254,4.1883368492126465,5.694020748138428
1701864965270410200,1.54441015625,7.232605457305908,4.123730659484863,5.74187707901001
1701864965280002800,1.5540029296875,7.177570819854736,4.073481559753418,5.694020748138428
1701864965289596200,1.56359619140625,7.194320201873779,4.027718544006348,5.6294145584106445
1701864965299188700,1.573188720703125,7.246962547302246,3.9559340476989746,5.655735492706299
1701864965308780500,1.582780517578125,7.264011383056641,3.9391841888427734,5.648557186126709
1701864965318373000,1.592373046875,7.225427150726318,3.9774694442749023,5.62462854385376
1701864965327966500,1.601966552734375,7.146463871002197,4.020540237426758,5.694020748138428
1701864965337559000,1.61155908203125,7.043572425842285,4.032504558563232,5.7634124755859375
1701864965347150600,1.621150634765625,7.005287170410156,4.068696022033691,5.813661575317383
1701864965356743200,1.6307431640625,6.933502674102783,4.075874328613281,5.813661575317383
1701864965366336500,1.64033642578125,6.830611228942871,4.0543389320373535,5.80409049987793
1701864965375929000,1.64992919921875,6.763612270355225,4.05912446975708,5.720341682434082
1701864965385521000,1.65952099609375,6.727719783782959,4.090231418609619,5.6222357749938965
1701864965395113500,1.669113525390625,6.699006080627441,4.162015914916992,5.576473236083984
1701864965404706800,1.678706787109375,6.507281303405762,4.197908401489258,5.6461639404296875
1701864965414299400,1.68829931640625,6.390032768249512,4.224229335784912,5.765805244445801
1701864965423891200,1.69789111328125,6.368497371673584,4.286442756652832,5.799304962158203
1701864965433483800,1.70748388671875,6.27278470993042,4.331906318664551,5.73469877243042
1701864965443077000,1.7170771484375,6.16271448135376,4.37019157409668,5.689234733581543
1701864965452669700,1.726669677734375,6.15553617477417,4.406083583831787,5.6533427238464355
1701864965462261500,1.736261474609375,6.069095611572266,4.410869598388672,5.631807327270508
1701864965471854000,1.74585400390625,6.085845470428467,4.389334201812744,5.619843006134033
1701864965481447400,1.755447509765625,6.1914286613464355,4.3223347663879395,5.6294145584106445
1701864965491040000,1.7650400390625,6.361319065093994,4.229014873504639,5.619843006134033
1701864965500631600,1.774631591796875,6.519245147705078,4.162015914916992,5.576473236083984
1701864965510224100,1.78422412109375,6.672386169433594,4.092624187469482,5.509474277496338
1701864965519817500,1.7938173828125,6.885646343231201,3.9487555027008057,5.471189022064209
1701864965529410000,1.80341015625,7.127321243286133,3.745365619659424,5.420939922332764
1701864965539001900,1.813001953125,7.431509017944336,3.580260992050171,5.4759745597839355
1701864965548594400,1.822594482421875,7.730611801147461,3.465106248855591,5.559723377227783
1701864965558187800,1.832187744140625,7.864908695220947,3.3071799278259277,5.772983551025391
1701864965567780400,1.8417802734375,7.845766544342041,3.2569308280944824,6.017051696777344
1701864965577372200,1.8513720703125,7.95344352722168,3.2904303073883057,6.225526332855225
1701864965586964700,1.86096484375,8.063512802124023,3.3622148036956787,6.443273067474365
1701864965596558000,1.87055810546875,7.9366936683654785,3.3430724143981934,6.637091636657715
1701864965606150700,1.880150634765625,7.76889705657959,3.3622148036956787,6.713961124420166
1701864965615742500,1.889742431640625,7.584649562835693,3.4005000591278076,6.706782817840576
1701864965625335000,1.8993349609375,7.390830993652344,3.4220354557037354,6.584449768066406
1701864965634928400,1.908928466796875,7.1871418952941895,3.4531421661376953,6.376274108886719
1701864965644521000,1.91852099609375,7.089035987854004,3.381357431411743,6.1704912185668945
1701864965654112500,1.928112548828125,7.098607540130615,3.244966506958008,6.280561447143555
1701864965663705000,1.937705078125,6.974180698394775,3.2042887210845947,6.57966423034668
1701864965673298400,1.94729833984375,6.809075832366943,3.2162528038024902,6.869494915008545
1701864965682891000,1.95689111328125,6.722934246063232,3.1851460933685303,7.135097980499268
1701864965692482800,1.96648291015625,6.492924213409424,3.206681489944458,7.362715244293213
1701864965702075400,1.976075439453125,6.179464340209961,3.2593235969543457,7.511070251464844
1701864965711668700,1.985668701171875,5.925526142120361,3.3287153244018555,7.412964344024658
1701864965721261300,1.99526123046875,5.710172176361084,3.300001621246338,7.2212395668029785
1701864965730853000,2.00485302734375,5.525625705718994,3.3119657039642334,6.886244297027588
1701864965740445700,2.01444580078125,5.408377170562744,3.331108331680298,6.280561447143555
1701864965750039000,2.0240390625,5.482554912567139,3.221038341522217,5.638985633850098
1701864965759631600,2.033631591796875,5.638387680053711,3.0367910861968994,5.133800983428955
1701864965769223200,2.04322314453125,5.889633655548096,2.847458839416504,4.745864391326904
1701864965778816000,2.05281591796875,6.291927337646484,2.586641311645508,4.343571186065674
1701864965788409000,2.0624091796875,6.792325973510742,2.1245274543762207,4.154538154602051
1701864965798001700,2.072001708984375,7.184749126434326,1.5858432054519653,4.537689208984375
1701864965807593500,2.081593505859375,7.314260482788086,1.181157112121582,5.916553020477295
1701864965817186000,2.09118603515625,7.041179656982422,1.2460623979568481,7.357929706573486
1701864965826779400,2.100779296875,6.368497371673584,1.430309772491455,8.344071388244629
1701864965836372000,2.1103720703125,5.626423358917236,1.6815561056137085,8.933005332946777
1701864965845963800,2.1199638671875,4.946263313293457,1.9163517951965332,9.012267112731934
1701864965855556400,2.129556396484375,4.266402721405029,2.143670082092285,8.674580574035645
1701864965865149700,2.139149658203125,3.6415770053863525,2.301596164703369,8.27707290649414
1701864965874742300,2.1487421875,3.0454649925231934,2.548356056213379,8.18375301361084
1701864965884334000,2.158333984375,2.4517459869384766,2.7900311946868896,8.092824935913086
1701864965893926700,2.1679267578125,2.1260228157043457,2.837887763977051,8.001897811889648
1701864965903520000,2.17752001953125,2.1643080711364746,2.840280532836914,7.970791339874268
1701864965913112600,2.187112548828125,2.312962293624878,2.6632115840911865,8.356036186218262
1701864965922704100,2.1967041015625,2.612065076828003,2.526820659637451,8.894720077514648
1701864965932296700,2.206296630859375,2.9449665546417236,2.390429735183716,9.050552368164062
1701864965941890000,2.21589013671875,3.19860577583313,2.110170364379883,8.906683921813965
1701864965951482600,2.225482666015625,3.4764721393585205,1.8637096881866455,8.526225090026855
1701864965961074400,2.235074462890625,3.75643253326416,1.638485312461853,7.89422082901001
1701864965970667000,2.2446669921875,3.9936211109161377,1.2867404222488403,7.163811683654785
1701864965980260400,2.25426025390625,4.247260093688965,0.8461619019508362,6.474380016326904
1701864965989853000,2.26385302734375,4.3788652420043945,0.3840480446815491,6.0385870933532715
1701864965999444700,2.27344482421875,4.73090934753418,-0.054137613624334335,6.266204357147217
1701864966009037300,2.283037353515625,5.226522922515869,-0.15224334597587585,7.068099021911621
1701864966018630700,2.292630615234375,5.147559642791748,-0.1785643845796585,7.836793422698975
1701864966028223200,2.30222314453125,4.65433931350708,-0.22642084956169128,8.097610473632812
1701864966037814800,2.311814697265625,4.287938117980957,-0.16899310052394867,7.89422082901001
1701864966047407400,2.321407470703125,3.9792640209198,-0.13310076296329498,7.465606689453125
1701864966057000700,2.331000732421875,3.691826343536377,-0.28145575523376465,7.324429988861084
1701864966066593300,2.34059326171875,3.505186080932617,-0.39152559638023376,7.597211837768555
1701864966076185000,2.35018505859375,3.3568310737609863,-0.3891327679157257,8.068897247314453
1701864966085777700,2.359777587890625,3.0143582820892334,-0.3556332588195801,8.59322452545166
1701864966095371000,2.36937109375,2.635993242263794,-0.3317050337791443,8.839685440063477
1701864966104963600,2.378963623046875,2.2387847900390625,-0.3771686553955078,9.079266548156738
1701864966114555400,2.388555419921875,1.8029918670654297,-0.2551347017288208,9.050552368164062
1701864966124148000,2.39814794921875,1.2236297130584717,-0.4130610227584839,9.208478927612305
1701864966133741300,2.4077412109375,0.7806583642959595,-0.5353940725326538,9.426225662231445
1701864966143334000,2.417333984375,0.263509601354599,-0.7148557901382446,9.438189506530762
1701864966152925400,2.426925537109375,-0.1866401731967926,-0.8344969153404236,9.249156951904297
1701864966162518300,2.436518310546875,-0.4618147611618042,-0.9493523836135864,8.851649284362793
1701864966172111600,2.446111572265625,-0.734895646572113,-1.363609790802002,8.552546501159668
1701864966181704200,2.4557041015625,-1.0770692825317383,-1.8783657550811768,8.638688087463379
1701864966191295700,2.465295654296875,-1.1033903360366821,-2.323729991912842,9.354440689086914
1701864966200888300,2.474888427734375,-0.8521439433097839,-2.6347968578338623,10.077672004699707
1701864966210481700,2.484481689453125,-0.7564310431480408,-3.046661376953125,10.826924324035645
1701864966220074200,2.49407421875,-0.7061817646026611,-3.343670606613159,11.327322959899902
1701864966229666000,2.503666015625,-0.5264210104942322,-3.5207393169403076,11.312966346740723
1701864966239258600,2.513258544921875,-0.35892340540885925,-3.7337005138397217,11.106884956359863
1701864966248852000,2.52285205078125,-0.20099709928035736,-4.071387767791748,10.999207496643066
1701864966258444500,2.532444580078125,0.14386846125125885,-4.2795634269714355,11.308180809020996
1701864966268036000,2.5420361328125,0.3735794425010681,-4.4258246421813965,12.050254821777344
1701864966277629000,2.55162890625,0.4573282301425934,-4.382753849029541,12.722936630249023
1701864966287222300,2.56122216796875,0.39032918214797974,-4.222135543823242,12.844970703125
1701864966296814800,2.57081494140625,0.17497515678405762,-4.016352653503418,12.4573335647583
1701864966306406400,2.580406494140625,-1.1874382495880127,-4.818247318267822,15.495321273803711
1701864966315999000,2.5899990234375,-3.6939198970794678,-5.881258964538574,23.69522476196289
1701864966325592300,2.59959228515625,-0.04546362906694412,-3.616452217102051,14.059029579162598
1701864966335185000,2.609184814453125,-0.37088751792907715,-2.709273338317871,10.572985649108887
1701864966344776700,2.618776611328125,-2.3437697887420654,-3.262314558029175,10.446166038513184
1701864966354369300,2.628369384765625,-3.5359935760498047,-3.2333016395568848,10.393524169921875
1701864966363962600,2.637962646484375,-2.9805595874786377,-3.2575290203094482,9.859625816345215
1701864966373555200,2.64755517578125,-1.7356936931610107,-3.5327036380767822,10.149456024169922
1701864966383147000,2.65714697265625,0.11994023621082306,-3.358027458190918,9.665806770324707
1701864966392739600,2.666739501953125,1.0007981061935425,-3.1280174255371094,8.143074989318848
1701864966402333000,2.6763330078125,0.7304090857505798,-3.36759877204895,6.979564666748047
1701864966411925500,2.685925537109375,0.4692923426628113,-3.6451661586761475,5.883053779602051
1701864966421517000,2.69551708984375,0.9696913957595825,-4.157529354095459,5.727519989013672
1701864966431109600,2.705109619140625,2.470888376235962,-5.014758110046387,6.807281494140625
1701864966440703000,2.714702880859375,3.835395574569702,-5.3832526206970215,8.866005897521973
1701864966450295600,2.724295654296875,4.3549370765686035,-5.129613399505615,9.950552940368652
1701864966459887400,2.733887451171875,3.2751760482788086,-4.885246753692627,10.611270904541016
1701864966469480000,2.74347998046875,1.5705889463424683,-3.968496322631836,10.501201629638672
1701864966479073300,2.7530732421875,0.11515458673238754,-3.7002010345458984,10.616056442260742
1701864966488665900,2.762665771484375,0.134297177195549,-3.358027458190918,10.42941665649414
1701864966498257700,2.772257568359375,0.6921239495277405,-3.5733814239501953,10.805388450622559
1701864966507850200,2.781850341796875,0.20368902385234833,-4.052245140075684,11.26511001586914
1701864966517443600,2.791443603515625,-0.7277171611785889,-4.348955154418945,10.929815292358398
1701864966527036200,2.8010361328125,-1.0962119102478027,-4.315455436706543,9.998409271240234
1701864966536627700,2.810627685546875,-0.9526425004005432,-4.04985237121582,8.753543853759766
1701864966546220500,2.820220458984375,-1.09381902217865,-3.798306941986084,7.35314416885376
1701864966555814000,2.82981396484375,-1.2424731254577637,-3.783949851989746,6.136693000793457
1701864966565406200,2.83940625,-1.165902853012085,-3.8488552570343018,5.444868087768555
1701864966574998000,2.848998046875,-0.9646066427230835,-3.810570001602173,4.654937267303467
1701864966584590600,2.858590576171875,-0.7803592681884766,-3.6858441829681396,3.656532049179077
1701864966594184000,2.868183837890625,-0.48095735907554626,-3.5662031173706055,2.7828526496887207
1701864966603776500,2.877776611328125,-1.6348960399627686,-5.038686275482178,2.708376169204712
1701864966613368300,2.887368408203125,-2.250150680541992,-5.340181827545166,1.913659930229187
1701864966622961000,2.8969609375,-2.0180468559265137,-4.827818870544434,1.0109676122665405
1701864966632554200,2.90655419921875,-1.9630118608474731,-5.945865154266357,0.7860422134399414
1701864966642146800,2.916146728515625,1.4198411703109741,-7.255636692047119,4.9516472816467285
1701864966651738600,2.925738525390625,8.997312545776367,-8.88125991821289,17.743377685546875
1701864966661331200,2.935331298828125,8.57348346710205,-8.914759635925293,20.597118377685547
1701864966670924500,2.944924560546875,3.1818559169769287,-7.004090785980225,15.073884963989258
1701864966680516900,2.954516845703125,-0.6846463680267334,-4.2987060546875,7.6977105140686035
1701864966690108700,2.964108642578125,-2.21665096282959,-4.760819911956787,5.332405090332031
1701864966699701200,2.973701171875,2.2603201866149902,-8.148458480834961,13.060624122619629
1701864966709294600,2.983294677734375,10.73539924621582,-8.431110382080078,16.055540084838867
1701864966718887200,2.99288720703125,2.628814697265625,-5.878866195678711,8.418548583984375
1701864966728479000,3.00247900390625,2.2025933265686035,-6.8605217933654785,8.351249694824219
1701864966738071600,3.012071533203125,2.001596212387085,-6.329015731811523,8.341678619384766
1701864966747665000,3.021664794921875,2.183450698852539,-6.111268997192383,7.70249605178833
1701864966757257500,3.031257568359375,2.830111026763916,-6.324230194091797,7.020242691040039
1701864966766849300,3.040849365234375,3.0693931579589844,-6.379265308380127,6.457630157470703
1701864966776441900,3.05044189453125,3.3975090980529785,-6.5180487632751465,6.2327046394348145
1701864966786035200,3.06003515625,3.2823543548583984,-6.956234455108643,6.481558322906494
1701864966795627800,3.069627685546875,2.418246269226074,-6.951448917388916,6.467201232910156
1701864966805219300,3.07921923828125,1.5634105205535889,-6.9705915451049805,5.851946830749512
1701864966814812000,3.08881201171875,2.3009979724884033,-6.314659118652344,-4.023830413818359
1701864966824405200,3.0984052734375,5.729314804077148,-7.657630443572998,-3.2671003341674805
1701864966833997800,3.107997802734375,12.17647647857666,-7.23170804977417,1.7748762369155884
1701864966843589600,3.117589599609375,9.49501895904541,-9.063115119934082,6.39302396774292
1701864966853182200,3.12718212890625,2.5833511352539062,-6.929913520812988,5.066802024841309
1701864966862775600,3.136775634765625,-2.0419750213623047,-5.771189212799072,6.383452415466309
1701864966872368000,3.1463681640625,-5.302793979644775,-5.517549991607666,9.976874351501465
1701864966881959700,3.155959716796875,-5.729015827178955,-5.280361175537109,12.86889934539795
1701864966891552500,3.165552490234375,-1.7620147466659546,-5.534299850463867,11.185847282409668
1701864966901145900,3.175145751953125,1.2547364234924316,-6.39601469039917,7.3052873611450195
1701864966910738400,3.184738525390625,1.6184453964233398,-7.063911437988281,6.800102710723877
1701864966920330000,3.194330078125,1.7934205532073975,-7.423133850097656,5.993123531341553
1701864966929922600,3.203922607421875,1.6713865995407104,-7.8780694007873535,5.519045352935791
1701864966939516000,3.213515869140625,1.4246268272399902,-8.16999340057373,5.677270889282227
1701864966949108500,3.2231083984375,1.664208173751831,-8.33300495147705,5.576473236083984
1701864966958700300,3.2327001953125,1.755135416984558,-8.404789924621582,5.138586521148682
1701864966968292900,3.24229296875,1.7958134412765503,-7.973782539367676,4.662116050720215
1701864966977886200,3.25188623046875,1.867598056793213,-7.645666599273682,4.389034748077393
1701864966987478800,3.261478759765625,1.7838492393493652,-7.612166881561279,4.666901588439941
1701864966997070600,3.271070556640625,1.5705889463424683,-7.284350395202637,4.920540809631348
1701864967006663200,3.2806630859375,1.6040884256362915,-7.585845947265625,4.822434902191162
1701864967016256500,3.290256591796875,1.407876968383789,-7.703094482421875,5.148158073425293
1701864967025849000,3.29984912109375,1.1973086595535278,-7.789535045623779,5.341976642608643
1701864967035440600,3.309440673828125,2.3249263763427734,-7.823034763336182,6.019444465637207
1701864967045033500,3.319033447265625,1.9010975360870361,-8.275278091430664,6.163312911987305
1701864967054626600,3.32862646484375,0.6801598072052002,-8.400003433227539,6.61794900894165
1701864967064219100,3.33821923828125,0.7016952633857727,-9.675976753234863,7.341179847717285
1701864967073811000,3.34781103515625,1.3695918321609497,-10.999805450439453,6.644270420074463
1701864967083403500,3.357403564453125,0.9864411354064941,-11.256136894226074,6.85753059387207
1701864967092996900,3.366996826171875,1.726421594619751,-11.045269012451172,6.625127792358398
1701864967102589400,3.37658935546875,1.9130617380142212,-12.129816055297852,4.755435943603516
1701864967112181200,3.38618115234375,-4.01246452331543,-16.290935516357422,2.825923442840576
1701864967121773800,3.39577392578125,-2.451446771621704,-9.939187049865723,-4.320540428161621
1701864967131367200,3.4053671875,1.3887344598770142,-9.683155059814453,-2.5944180488586426
1701864967140959700,3.414959716796875,3.6631124019622803,-10.410872459411621,0.1779661774635315
1701864967150551300,3.42455126953125,4.1491546630859375,-10.260124206542969,2.6341986656188965
1701864967160144000,3.434143798828125,3.3568310737609863,-10.298409461975098,4.133002758026123
1701864967169737200,3.4437373046875,2.6790640354156494,-10.465907096862793,4.645366191864014
1701864967179329800,3.453329833984375,2.667099952697754,-9.924830436706543,5.5142598152160645
1701864967188921600,3.462921630859375,1.1829516887664795,-10.47787094116211,5.519045352935791
1701864967198514200,3.47251416015625,-0.48813581466674805,-10.837093353271484,6.7331037521362305
1701864967208107500,3.482107421875,1.446162223815918,-10.604990005493164,5.373083114624023
1701864967217700000,3.4917001953125,2.8109683990478516,-9.620942115783691,3.6349966526031494
1701864967227292000,3.5012919921875,2.0685951709747314,-9.13011360168457,3.553640842437744
1701864967236884500,3.510884521484375,1.1327024698257446,-8.809176445007324,3.8934216499328613
1701864967246477800,3.520477783203125,0.9361918568611145,-8.756534576416016,4.085146427154541
1701864967256070400,3.5300703125,1.0103694200515747,-8.91954517364502,4.19282341003418
1701864967265662000,3.539661865234375,1.1231311559677124,-9.163613319396973,4.384249210357666
1701864967275254500,3.549254638671875,1.111167073249817,-9.151649475097656,4.209573268890381
1701864967284847900,3.558847900390625,1.0295119285583496,-9.211469650268555,4.2933220863342285
1701864967294440400,3.5684404296875,1.230808138847351,-9.166006088256836,4.31007194519043
1701864967304032300,3.5780322265625,1.434198021888733,-9.185149192810059,4.578367233276367
1701864967313624800,3.587624755859375,1.4270195960998535,-9.151649475097656,4.64297342300415
1701864967323218200,3.59721826171875,1.407876968383789,-9.106185913085938,4.5568318367004395
1701864967332810800,3.606810791015625,1.3624134063720703,-9.185149192810059,4.894219398498535
1701864967342402600,3.616402587890625,0.7112665176391602,-6.920341968536377,3.290131092071533
1701864967351995100,3.6259951171875,-0.4713860750198364,-6.197410583496094,3.9176487922668457
1701864967361588500,3.63558837890625,-1.09381902217865,-8.258528709411621,6.012266159057617
1701864967371181000,3.64518115234375,-0.07657032459974289,-8.953044891357422,6.129514217376709
1701864967380772600,3.654772705078125,0.3329014480113983,-7.9259257316589355,4.640580177307129
1701864967390365400,3.664365478515625,-0.39960137009620667,-6.400800704956055,2.9934210777282715
1701864967399958500,3.67395849609375,-0.5144568681716919,-5.651547908782959,2.385344982147217
1701864967409551000,3.683551025390625,-0.6296114325523376,-5.112864017486572,2.1960129737854004
1701864967419143000,3.693142822265625,-0.766002357006073,-4.655535697937012,1.8394824266433716
1701864967428735500,3.702735595703125,-0.349352091550827,-5.062614440917969,1.6959130764007568
1701864967438328800,3.712328857421875,0.802193820476532,-5.79990291595459,1.7581263780593872
1701864967447921400,3.72192138671875,2.1260228157043457,-5.833402633666992,1.2553346157073975
1701864967457513200,3.73151318359375,2.8013970851898193,-6.075376510620117,1.0301101207733154
1701864967467105800,3.741105712890625,2.3560330867767334,-6.867700099945068,0.8171489238739014
1701864967476699100,3.75069921875,1.3624134063720703,-8.105387687683105,1.7126628160476685
1701864967486291700,3.760291748046875,0.33050861954689026,-9.637691497802734,2.7732813358306885
1701864967495883300,3.76988330078125,-1.8337994813919067,-12.256935119628906,6.26141881942749
1701864967505475800,3.779475830078125,-1.989332914352417,-10.911271095275879,5.591129302978516
1701864967515069200,3.789069091796875,-1.9773688316345215,-10.360623359680176,3.8718862533569336
1701864967524661800,3.798661865234375,-0.7205387353897095,-8.498109817504883,1.784447431564331
1701864967534253600,3.808253662109375,0.8261220455169678,-8.150851249694824,3.7043886184692383
1701864967543846100,3.81784619140625,0.385543555021286,-8.984151840209961,5.267798900604248
1701864967553439500,3.827439453125,-0.2991028428077698,-8.541180610656738,4.087539196014404
1701864967563032000,3.837031982421875,-1.2496516704559326,-8.893224716186523,2.9599215984344482
1701864967572624000,3.846623779296875,-1.5056836605072021,-10.219446182250977,2.653341293334961
1701864967582216400,3.856216552734375,-1.1177473068237305,-11.703893661499023,1.5448660850524902
1701864967591809800,3.865809814453125,-1.563111424446106,-20.061424255371094,4.24785852432251
1701864967601402400,3.87540234375,-0.275174617767334,-22.051057815551758,4.8176493644714355
1701864967610994000,3.884993896484375,3.1244282722473145,-15.464812278747559,4.240679740905762
1701864967620586800,3.894586669921875,2.5307090282440186,-12.441182136535645,5.172086238861084
1701864967630179800,3.904179931640625,-0.37088751792907715,-12.03649616241455,4.300500392913818
1701864967639772400,3.9137724609375,-1.0172487497329712,-11.813963890075684,2.0572292804718018
1701864967649364200,3.9233642578125,-0.4163511395454407,-11.70150089263916,0.6137589812278748
1701864967658956800,3.932956787109375,0.1414756327867508,-11.469098091125488,0.7836494445800781
1701864967668550100,3.942550048828125,0.527019202709198,-10.377372741699219,1.2649059295654297
1701864967678142700,3.952142822265625,-0.7612167000770569,-10.312766075134277,1.5640087127685547
1701864967687734500,3.961734619140625,-0.610468864440918,-10.374979972839355,1.4922239780426025
1701864967697327000,3.9713271484375,0.39032918214797974,-11.452348709106445,1.8658034801483154
1701864967706920400,3.98092041015625,1.7216359376907349,-15.565311431884766,3.3068809509277344
1701864967716513000,3.990512939453125,1.7120646238327026,-10.863414764404297,1.5185450315475464
1701864967726104600,4.0001044921875,-0.8162516355514526,-6.728916168212891,-0.5545366406440735
1701864967735697200,4.009697265625,-2.4299113750457764,-6.439085960388184,-1.2945170402526855
1701864967745290500,4.01929052734375,-1.654038667678833,-8.06949520111084,0.027218356728553772
1701864967754883000,4.028883056640625,-0.21774685382843018,-9.414859771728516,1.4587244987487793
1701864967764475000,4.038474853515625,0.25633111596107483,-9.867402076721191,1.8610178232192993
1701864967774067500,4.0480673828125,-0.3038884699344635,-9.573084831237793,1.547258973121643
1701864967783660800,4.057660888671875,-0.7181459069252014,-9.429515838623047,1.3079767227172852
1701864967793253400,4.06725341796875,-0.7516453862190247,-9.510871887207031,1.0950154066085815
1701864967802845200,4.07684521484375,-0.5790630578994751,-9.553942680358887,1.0325030088424683
1701864967812437800,4.086437744140625,-0.576670229434967,-9.472586631774902,1.0998010635375977
1701864967822031000,4.096031005859375,0.9290133714675903,-8.72064208984375,1.022931694984436
1701864967831623700,4.105623779296875,1.108774185180664,-7.21735143661499,-1.5074782371520996
1701864967841215200,4.11521533203125,-0.3924229145050049,-6.594619274139404,-2.8002007007598877
1701864967850807800,4.124807861328125,-4.979464054107666,-10.080662727355957,-0.15493527054786682
1701864967860401200,4.134401123046875,-0.9358927607536316,-11.471490859985352,3.852743625640869
1701864967869993700,4.14399365234375,1.6689938306808472,-12.654143333435059,4.779364109039307
1701864967879585500,4.15358544921875,-0.09092725813388824,-13.070794105529785,4.4874396324157715
1701864967889178000,4.16317822265625,-0.8473583459854126,-11.859427452087402,3.0723843574523926
1701864967898771500,4.172771484375,-0.8593224287033081,-10.899307250976562,1.3701900243759155
1701864967908364000,4.182364013671875,-0.5312066078186035,-10.458728790283203,0.8075776696205139
1701864967917955800,4.191955810546875,-0.2799602448940277,-10.336694717407227,0.8865407705307007
1701864967927548400,4.20154833984375,-0.4450650215148926,-10.245767593383789,1.0037890672683716
1701864967937141800,4.211141845703125,-0.7037889361381531,-10.109376907348633,0.9846464991569519
1701864967946734300,4.220734375,-0.7636095285415649,-9.963115692138672,0.9415757060050964
1701864967956326000,4.230325927734375,-0.7995018362998962,-9.874580383300781,0.9798609018325806
1701864967965918500,4.23991845703125,-0.7827520966529846,-9.896116256713867,1.1309077739715576
1701864967975511800,4.24951171875,-0.7636095285415649,-9.93679428100586,1.2529417276382446
1701864967985104400,4.2591044921875,-0.6990033388137817,-9.94397258758545,1.3438689708709717
1701864967994696200,4.2686962890625,-0.6678966283798218,-9.908080101013184,1.3510475158691406
1701864968004288800,4.278288818359375,-0.675075113773346,-9.824331283569336,1.3701900243759155
1701864968013882000,4.287882080078125,-0.675075113773346,-9.747760772705078,1.4108680486679077
1701864968023474700,4.297474609375,-0.7133602499961853,-9.66640567779541,1.4587244987487793
1701864968033066500,4.30706640625,-0.734895646572113,-9.618548393249512,1.5305092334747314
1701864968042659000,4.3166591796875,-0.6678966283798218,-9.534799575805664,1.5520446300506592
1701864968052252400,4.32625244140625,-0.6774678826332092,-9.479764938354492,1.571187138557434
1701864968061845000,4.335844970703125,-0.6487540602684021,-9.443872451782227,1.6166508197784424
1701864968071436500,4.3454365234375,-0.646361231803894,-9.400503158569336,1.6600207090377808
1701864968081029000,4.355029052734375,-0.6320042610168457,-9.39571762084961,1.7030915021896362
1701864968090622500,4.36462255859375,-0.612861692905426,-9.405288696289062,1.8011972904205322
1701864968100215000,4.374215087890625,-0.6343970894813538,-9.374181747436523,1.8610178232192993
1701864968109806800,4.383806884765625,-0.6607181429862976,-9.37896728515625,1.949552297592163
1701864968119399400,4.3933994140625,-0.6870391964912415,-9.390931129455566,1.9806588888168335
1701864968128992800,4.40299267578125,-0.7085745930671692,-9.39571762084961,1.9974087476730347
1701864968138585300,4.41258544921875,-0.6990033388137817,-9.436694145202637,2.026122570037842
1701864968148177200,4.42217724609375,-0.6774678826332092,-9.441479682922363,2.0237298011779785
1701864968157769700,4.431769775390625,-0.6415755748748779,-9.460622787475586,1.975873351097107
1701864968167363000,4.441363037109375,-0.576670229434967,-9.498908042907715,1.9184455871582031
1701864968176955600,4.45095556640625,-0.5886343717575073,-9.546764373779297,1.8969101905822754
1701864968186547200,4.460547119140625,-0.4426721930503845,-9.561120986938477,1.8897316455841064
1701864968196139800,4.470139892578125,-0.32303106784820557,-9.616155624389648,1.8969101905822754
1701864968205733000,4.479733154296875,-0.363709032535553,-9.64965534210205,1.8634105920791626
1701864968215325700,4.48932568359375,-0.4378865361213684,-9.685547828674316,1.8370895385742188
1701864968224917500,4.49891748046875,-0.5240281820297241,-9.726225852966309,1.7796618938446045
1701864968234510000,4.508510009765625,-0.5742774605751038,-9.776474952697754,1.755733609199524
1701864968244103400,4.518103515625,-0.6320042610168457,-9.807581901550293,1.6381862163543701
1701864968253696000,4.527696044921875,-0.6631109714508057,-9.862616539001465,1.7102699279785156
1701864968263287600,4.53728759765625,-0.6152545213699341,-9.915258407592773,1.6504493951797485
1701864968272880400,4.54688037109375,-0.6990033388137817,-9.951150894165039,1.6142579317092896
1701864968282473700,4.5564736328125,-0.7564310431480408,-10.173982620239258,1.8083757162094116
1701864968292066300,4.56606640625,-0.7947162389755249,-10.281660079956055,1.8610178232192993
1701864968301657900,4.575657958984375,-0.7444669604301453,-10.190732955932617,1.8323038816452026
1701864968311250400,4.58525048828125,-0.8234301209449768,-10.233803749084473,1.851446509361267
1701864968320843800,4.59484375,-0.8018946647644043,-10.11416244506836,1.7198412418365479
1701864968330436400,4.604436279296875,-0.7372884750366211,-10.197911262512207,1.7892330884933472
1701864968340028200,4.614028076171875,-0.6535396575927734,-10.236196517944336,1.7796618938446045
1701864968349620700,4.623620849609375,-0.6774678826332092,-10.10698413848877,1.7222341299057007
1701864968359214000,4.633214111328125,-0.610468864440918,-10.039984703063965,1.6911274194717407
1701864968368806700,4.642806640625,-0.5623133182525635,-9.970293998718262,1.6648063659667969
1701864968378398500,4.6523984375,-0.5264210104942322,-9.88415241241455,1.6576279401779175
1701864968387991000,4.661990966796875,-0.4905286431312561,-9.77408218383789,1.6863417625427246
1701864968397584400,4.67158447265625,-0.4905286431312561,-9.675976753234863,1.7150555849075317
1701864968407177000,4.681177001953125,-0.47617170214653015,-9.597013473510742,1.7365909814834595
1701864968416768500,4.6907685546875,-0.4737788736820221,-9.54197883605957,1.784447431564331
1701864968426361000,4.700361083984375,-0.4618147611618042,-9.513264656066895,1.8323038816452026
1701864968435954400,4.709954345703125,-0.49292147159576416,-9.513264656066895,1.8562321662902832
1701864968445547000,4.719547119140625,-0.4953143000602722,-9.508479118347168,1.85383939743042
1701864968455138800,4.729138916015625,-0.49292147159576416,-9.551549911499023,1.8658034801483154
1701864968464731400,4.7387314453125,-0.5144568681716919,-9.635298728942871,1.8658034801483154
1701864968474324700,4.74832470703125,-0.6200401782989502,-9.723833084106445,1.8131613731384277
1701864968483917300,4.757917236328125,-0.4091726839542389,-9.754940032958984,1.8993029594421387
1701864968493508900,4.7675087890625,-0.5240281820297241,-9.88415241241455,1.8945173025131226
1701864968503101700,4.777101806640625,-0.5383850932121277,-9.927223205566406,1.8849459886550903
1701864968512694800,4.78669482421875,-0.48813581466674805,-9.958329200744629,1.9112670421600342
1701864968522287400,4.796287353515625,-0.4546363055706024,-9.965508460998535,1.932802438735962
1701864968531879200,4.805879150390625,-0.45942193269729614,-9.955936431884766,1.949552297592163
1701864968541471700,4.8154716796875,-0.5216353535652161,-9.941579818725586,1.877767562866211
1701864968551065000,4.825065185546875,-0.4043870270252228,-9.893723487854004,1.82273268699646
1701864968560657700,4.83465771484375,-0.3900300860404968,-9.888937950134277,1.7629120349884033
1701864968570249500,4.84424951171875,-0.33020952343940735,-10.006484985351562,1.7485551834106445
1701864968579842000,4.853842041015625,-0.35892340540885925,-9.963115692138672,1.6238292455673218
1701864968589435400,4.863435302734375,-0.4259224236011505,-9.867402076721191,1.5209379196166992
1701864968599028000,4.873028076171875,-0.4953143000602722,-10.073484420776367,1.6477575302124023
1701864968608619500,4.88261962890625,-0.4977070987224579,-10.123733520507812,1.5376876592636108
1701864968618212400,4.89221240234375,-0.5264210104942322,-10.169197082519531,1.5089738368988037
1701864968627805400,4.901805419921875,-0.4977070987224579,-10.20748233795166,1.3989039659500122
1701864968637398000,4.91139794921875,-0.5096712112426758,-10.20030403137207,1.2816556692123413
1701864968646989800,4.92098974609375,-0.5479564070701599,-10.118947982788086,1.173978567123413
1701864968656582400,4.93058251953125,-0.5216353535652161,-10.104591369628906,1.1309077739715576
1701864968666175700,4.94017578125,-0.5814558863639832,-10.016056060791016,1.022931694984436
1701864968675768300,4.949768310546875,-0.5264210104942322,-10.097412109375,1.0444670915603638
1701864968685360000,4.959360107421875,-0.48574298620224,-10.018449783325195,0.9391828775405884
1701864968694952700,4.96895263671875,-0.5072783827781677,-9.965508460998535,0.9056833982467651
1701864968704546000,4.978546142578125,-0.5240281820297241,-9.924830436706543,0.9032905697822571
1701864968714138600,4.988138671875,-0.576670229434967,-9.893723487854004,0.8721838593482971
1701864968723730200,4.997730224609375,-0.5910272002220154,-9.862616539001465,0.8865407705307007
1701864968733322800,5.00732275390625,-0.6583253145217896,-9.853045463562012,0.8769695162773132
1701864968742916000,5.016916015625,-0.734895646572113,-9.853045463562012,0.867398202419281
1701864968752508700,5.0265087890625,-0.8234301209449768,-9.824331283569336,0.8626125454902649
1701864968762100500,5.0361005859375,-0.8784649968147278,-9.817152976989746,0.8123632669448853
1701864968771693000,5.045693115234375,-0.88803631067276,-9.795618057250977,0.7812566161155701
1701864968781286400,5.055286376953125,-0.9119645357131958,-9.79801082611084,0.7621139883995056
1701864968790879000,5.06487890625,-0.9430712461471558,-9.802796363830566,0.7549355626106262
1701864968800470800,5.074470703125,-1.0100702047348022,-9.793225288391113,0.7621139883995056
1701864968810063400,5.0840634765625,-0.9598209857940674,-9.795618057250977,0.7525427341461182
1701864968819656700,5.09365673828125,-0.9406784176826477,-9.795618057250977,0.6903293132781982
1701864968829249300,5.103249267578125,-0.8282157182693481,-9.783653259277344,0.7238288521766663
1701864968838840800,5.1128408203125,-0.732502818107605,-9.809974670410156,0.8554341197013855
1701864968848433400,5.122433349609375,-0.7037889361381531,-9.89133071899414,0.9822536706924438
1701864968858026800,5.13202685546875,-0.6774678826332092,-9.92961597442627,1.114158034324646
1701864968867619300,5.141619384765625,-0.6248258352279663,-9.948758125305176,1.267298698425293
1701864968877211100,5.151211181640625,-0.5670989751815796,-9.951150894165039,1.3917254209518433
1701864968886803700,5.1608037109375,-0.5048855543136597,-9.946365356445312,1.475474238395691
1701864968896397000,5.17039697265625,-0.4713860750198364,-9.920044898986816,1.516152262687683
1701864968905989600,5.17998974609375,-0.4666004180908203,-9.903294563293457,1.5687943696975708
1701864968915581400,5.18958154296875,-0.48813581466674805,-9.869794845581055,1.5544373989105225
1701864968925174000,5.199174072265625,-0.5072783827781677,-9.807581901550293,1.566401481628418
1701864968934767400,5.208767333984375,-0.4785645306110382,-9.726225852966309,1.6214364767074585
1701864968944359700,5.218359619140625,-0.4546363055706024,-9.673583984375,1.6911274194717407
1701864968953951500,5.227951416015625,-0.4618147611618042,-9.675976753234863,1.7485551834106445
1701864968963544000,5.2375439453125,-0.4666004180908203,-9.752547264099121,1.7700905799865723
1701864968973137400,5.247137451171875,-0.48574298620224,-9.81954574584961,1.7820546627044678
1701864968982730000,5.25672998046875,-0.5120640397071838,-9.867402076721191,1.7868403196334839
1701864968992321800,5.26632177734375,-0.5575276613235474,-9.89850902557373,1.7916259765625
1701864969001914400,5.275914306640625,-0.6032904386520386,-9.900901794433594,1.7820546627044678
1701864969011507700,5.2855078125,-0.6296114325523376,-9.876974105834961,1.7772690057754517
1701864969021100300,5.295100341796875,-0.6391827464103699,-9.862616539001465,1.7700905799865723
1701864969030692000,5.304692138671875,-0.7755736112594604,-9.886545181274414,1.724626898765564
1701864969040284700,5.31428466796875,-0.4905286431312561,-9.77408218383789,1.6863417625427246
1701864969049878000,5.3238779296875,-0.5623133182525635,-9.91286563873291,1.5855441093444824
1701864969059470600,5.333470703125,-0.5647061467170715,-9.874580383300781,1.480259895324707
1701864969069062100,5.343062255859375,-0.5288137793540955,-9.879366874694824,1.4084752798080444
1701864969078654700,5.35265478515625,-0.46420758962631226,-9.855438232421875,1.3103694915771484
1701864969088248000,5.362248046875,-0.4450650215148926,-9.850652694702148,1.2337992191314697
1701864969097840600,5.371840576171875,-0.44745782017707825,-9.843474388122559,1.1548360586166382
1701864969107432400,5.381432373046875,-0.5000999569892883,-9.874580383300781,1.1021939516067505
1701864969117025000,5.39102490234375,-0.5958128571510315,-9.908080101013184,1.0301101207733154
1701864969126618400,5.400618408203125,-0.6583253145217896,-9.958329200744629,0.9942178130149841
1701864969136211000,5.4102109375,-0.7109674215316772,-10.011270523071289,0.9726824164390564
1701864969145802500,5.419802490234375,-0.6918248534202576,-10.044770240783691,0.9631111025810242
1701864969155395300,5.429395263671875,-0.6774678826332092,-10.059126853942871,0.9631111025810242
1701864969164988700,5.43898876953125,-0.6511468887329102,-10.044770240783691,0.98703932762146
1701864969174581000,5.4485810546875,-0.5958128571510315,-10.030413627624512,1.0109676122665405
1701864969184172800,5.4581728515625,-0.5240281820297241,-10.001699447631836,1.0348957777023315
1701864969193765400,5.467765380859375,-0.45224347710609436,-9.977771759033203,1.0755738019943237
1701864969203358700,5.477358642578125,-0.39481574296951294,-9.946365356445312,1.0926226377487183
1701864969212951300,5.486951416015625,-0.39481574296951294,-9.89133071899414,1.1213364601135254
1701864969222543000,5.496543212890625,-0.3852444589138031,-9.843474388122559,1.1356934309005737
1701864969232135700,5.5061357421875,-0.37806597352027893,-9.829116821289062,1.150050401687622
1701864969241729000,5.51572900390625,-0.34217363595962524,-9.817152976989746,1.1380863189697266
1701864969251321600,5.525321533203125,-0.32303106784820557,-9.817152976989746,1.1524431705474854
1701864969260913200,5.5349130859375,-0.2919243574142456,-9.850652694702148,1.1548360586166382
1701864969270505700,5.544505615234375,-0.27038896083831787,-9.91286563873291,1.200299620628357
1701864969280099000,5.55409912109375,-0.23210379481315613,-9.972686767578125,1.2577273845672607
1701864969289691600,5.563691650390625,-0.17228323221206665,-10.016056060791016,1.2840484380722046
1701864969299283500,5.573283447265625,-0.11964113265275955,-10.073484420776367,1.3127623796463013
1701864969308876000,5.5828759765625,-0.11246266216039658,-10.097412109375,1.3127623796463013
1701864969318469400,5.592469482421875,-0.12921242415905,-10.118947982788086,1.272084355354309
1701864969328062000,5.60206201171875,-0.19381862878799438,-10.130911827087402,1.2074781656265259
1701864969337653800,5.61165380859375,-0.23210379481315613,-10.157233238220215,1.1596217155456543
1701864969347246300,5.621246337890625,-0.2799602448940277,-10.169197082519531,1.1165509223937988
1701864969356839700,5.630839599609375,-0.35413774847984314,-10.202696800231934,1.118943691253662
1701864969366432300,5.640432373046875,-0.4546363055706024,-10.21466064453125,1.1668001413345337
1701864969376023800,5.65002392578125,-0.5216353535652161,-10.248160362243652,1.2409776449203491
1701864969385616400,5.659616455078125,-0.5814558863639832,-10.250553131103516,1.2960125207901
1701864969395209700,5.669209716796875,-0.5958128571510315,-10.236196517944336,1.353440284729004
1701864969404802300,5.67880224609375,-0.576670229434967,-10.188340187072754,1.4395818710327148
1701864969414394000,5.68839404296875,-0.576670229434967,-10.126126289367676,1.5209379196166992
1701864969423986700,5.697986572265625,-0.5431707501411438,-10.066306114196777,1.5831513404846191
1701864969433580000,5.707580078125,-0.48574298620224,-9.967901229858398,1.6429718732833862
1701864969443172600,5.717172607421875,-0.3900300860404968,-9.908080101013184,1.693520188331604
1701864969452764200,5.72676416015625,-0.3326023519039154,-9.850652694702148,1.72941255569458
1701864969462357000,5.73635693359375,-0.3086741268634796,-9.78126049041748,1.72941255569458
1701864969471950300,5.745950439453125,-0.2871387302875519,-9.735796928405762,1.7796618938446045
1701864969481543000,5.75554296875,-0.2584248483181,-9.673583984375,1.810768485069275
1701864969491134500,5.765134521484375,-0.24885354936122894,-9.632905960083008,1.82273268699646
1701864969500727000,5.77472705078125,-0.23688943684101105,-9.597013473510742,1.8586249351501465
1701864969510320400,5.7843203125,-0.22492532432079315,-9.601799011230469,1.908874273300171
1701864969519913000,5.793912841796875,-0.2727817893028259,-9.611370086669922,1.968694806098938
1701864969529504800,5.8035048828125,-0.30628129839897156,-9.640084266662598,1.9854445457458496
1701864969539097300,5.813097412109375,-0.31824541091918945,-9.69511890411377,1.9806588888168335
1701864969548690700,5.822690673828125,-0.33499518036842346,-9.726225852966309,2.004587173461914
1701864969558283300,5.832283203125,-0.3397808074951172,-9.742975234985352,2.002194404602051
1701864969567875000,5.841875,-0.3397808074951172,-9.759725570678711,1.9567307233810425
1701864969577467600,5.851467529296875,-0.32542386651039124,-9.764511108398438,1.9112670421600342
1701864969587061000,5.86106103515625,-0.31106695532798767,-9.77408218383789,1.8562321662902832
1701864969596653600,5.870653564453125,-0.33020952343940735,-9.78843879699707,1.8011972904205322
1701864969606245000,5.8802451171875,-0.3326023519039154,-9.807581901550293,1.76051926612854
1701864969615837700,5.889837646484375,-0.3445664644241333,-9.824331283569336,1.7222341299057007
1701864969625431000,5.89943115234375,-0.34217363595962524,-9.843474388122559,1.688734531402588
1701864969635023600,5.909023681640625,-0.33738797903060913,-9.860223770141602,1.6576279401779175
1701864969644615400,5.918615478515625,-0.3517449200153351,-9.88415241241455,1.633400559425354
1701864969654208000,5.9282080078125,-0.35892340540885925,-9.900901794433594,1.5903297662734985
1701864969663801300,5.93780126953125,-0.35892340540885925,-9.893723487854004,1.5568302869796753
1701864969673394000,5.947393798828125,-0.3517449200153351,-9.91286563873291,1.5089738368988037
1701864969682985500,5.9569853515625,-0.38285163044929504,-9.908080101013184,1.4587244987487793
1701864969692578300,5.966578369140625,-0.35413774847984314,-9.939187049865723,1.413260817527771
1701864969702171600,5.976171630859375,-0.3326023519039154,-9.955936431884766,1.3773685693740845
1701864969711764000,5.985763916015625,-0.2991028428077698,-9.98973560333252,1.3725829124450684
1701864969721355800,5.995355712890625,-0.28235307335853577,-9.98255729675293,1.3438689708709717
1701864969730948400,6.0049482421875,-0.2871387302875519,-9.977771759033203,1.3247264623641968
1701864969740541700,6.014541748046875,-0.26560330390930176,-9.970293998718262,1.32711923122406
1701864969750134300,6.02413427734375,-0.2727817893028259,-9.960722923278809,1.303191065788269
1701864969759726000,6.03372607421875,-0.2512463629245758,-9.946365356445312,1.303191065788269
1701864969769318700,6.043318603515625,-0.24646073579788208,-9.934401512145996,1.2840484380722046
1701864969778912000,6.052912109375,-0.25363919138908386,-9.915258407592773,1.2696914672851562
1701864969788504600,6.062504638671875,-0.23688943684101105,-9.910472869873047,1.2553346157073975
1701864969798096100,6.07209619140625,-0.23688943684101105,-9.927223205566406,1.2481560707092285
1701864969807688700,6.081688720703125,-0.24885354936122894,-9.908080101013184,1.2505489587783813
1701864969817282000,6.091281982421875,-0.2632105052471161,-9.89850902557373,1.2505489587783813
1701864969826874600,6.10087451171875,-0.27756741642951965,-9.886545181274414,1.2481560707092285
1701864969836466400,6.110466552734375,-0.28953152894973755,-9.860223770141602,1.2696914672851562
1701864969846059000,6.12005908203125,-0.2967100143432617,-9.860223770141602,1.2864413261413574
1701864969855652400,6.12965234375,-0.2967100143432617,-9.841081619262695,1.3079767227172852
1701864969865245000,6.139244873046875,-0.28953152894973755,-9.81236743927002,1.322333574295044
1701864969874836700,6.148836669921875,-0.34217363595962524,-9.757332801818848,1.334297776222229
1701864969884429300,6.15842919921875,-0.23449662327766418,-9.910472869873047,1.3630115985870361
1701864969894022700,6.168022705078125,-0.28953152894973755,-9.821938514709473,1.32711923122406
1701864969903615200,6.177615234375,-0.28953152894973755,-9.814760208129883,1.3151551485061646
1701864969913206800,6.187206787109375,-0.28235307335853577,-9.848259925842285,1.3079767227172852
1701864969922799400,6.19679931640625,-0.2632105052471161,-9.867402076721191,1.3175479173660278
1701864969932392700,6.206392822265625,-0.2512463629245758,-9.888937950134277,1.3438689708709717
1701864969941985300,6.2159853515625,-0.24885354936122894,-9.900901794433594,1.3486546277999878
1701864969951577000,6.2255771484375,-0.24885354936122894,-9.927223205566406,1.3797613382339478
1701864969961169700,6.235169677734375,-0.24646073579788208,-9.941579818725586,1.3869398832321167
1701864969970763000,6.244762939453125,-0.2512463629245758,-9.941579818725586,1.3845469951629639
1701864969980355600,6.25435546875,-0.24885354936122894,-9.941579818725586,1.3797613382339478
1701864969989947100,6.263947021484375,-0.2512463629245758,-9.941579818725586,1.3797613382339478
1701864969999540000,6.2735400390625,-0.24167509377002716,-9.939187049865723,1.3749756813049316
1701864970009133300,6.28313330078125,-0.23449662327766418,-9.94397258758545,1.3821542263031006
1701864970018725600,6.2927255859375,-0.24406790733337402,-9.939187049865723,1.3725829124450684
1701864970028317400,6.3023173828125,-0.26081767678260803,-9.946365356445312,1.3725829124450684
1701864970037910000,6.311909912109375,-0.28235307335853577,-9.94397258758545,1.3677972555160522
1701864970047503400,6.32150341796875,-0.2584248483181,-9.939187049865723,1.3917254209518433
1701864970057096000,6.331095947265625,-0.2560320198535919,-9.94397258758545,1.4156537055969238
1701864970066687700,6.340687744140625,-0.23688943684101105,-9.934401512145996,1.413260817527771
1701864970076280300,6.3502802734375,-0.22492532432079315,-9.92243766784668,1.4276177883148193
1701864970085873700,6.359873779296875,-0.21296121180057526,-9.896116256713867,1.4371891021728516
1701864970095466200,6.36946630859375,-0.20099709928035736,-9.874580383300781,1.413260817527771
1701864970105057800,6.379057861328125,-0.20099709928035736,-9.872187614440918,1.3989039659500122
1701864970114650400,6.388650390625,-0.21296121180057526,-9.876974105834961,1.3821542263031006
1701864970124243700,6.39824365234375,-0.21774685382843018,-9.879366874694824,1.3725829124450684
1701864970133836300,6.407836181640625,-0.23688943684101105,-9.886545181274414,1.353440284729004
1701864970143428000,6.417427978515625,-0.23210379481315613,-9.89850902557373,1.3438689708709717
1701864970153020700,6.427020751953125,-0.21774685382843018,-9.92243766784668,1.32711923122406
1701864970162614000,6.436614013671875,-0.21296121180057526,-9.920044898986816,1.3319048881530762
1701864970172206600,6.44620654296875,-0.20817556977272034,-9.932008743286133,1.3199408054351807
1701864970181798400,6.45579833984375,-0.21296121180057526,-9.939187049865723,1.322333574295044
1701864970191391000,6.465390869140625,-0.2105683982372284,-9.924830436706543,1.3175479173660278
1701864970200984300,6.474984375,-0.19381862878799438,-9.92961597442627,1.3199408054351807
1701864970210577000,6.484576904296875,-0.19142581522464752,-9.932008743286133,1.3079767227172852
1701864970220168400,6.49416845703125,-0.18424734473228455,-9.917651176452637,1.3007981777191162
1701864970229761300,6.50376123046875,-0.1818545162677765,-9.89850902557373,1.298405408859253
1701864970239354400,6.513354248046875,-0.18903298676013947,-9.89850902557373,1.298405408859253
1701864970248947000,6.522947021484375,-0.17706887423992157,-9.876974105834961,1.2864413261413574
1701864970258538800,6.532538818359375,-0.1698904037475586,-9.872187614440918,1.267298698425293
1701864970268131300,6.54213134765625,-0.16271193325519562,-9.869794845581055,1.2553346157073975
1701864970277724700,6.551724609375,-0.15553347766399384,-9.876974105834961,1.2457633018493652
1701864970287317200,6.561317138671875,-0.1579262912273407,-9.879366874694824,1.2433704137802124
1701864970296909000,6.570908935546875,-0.17706887423992157,-9.900901794433594,1.2457633018493652
1701864970306501600,6.580501708984375,-0.1746760457754135,-9.89850902557373,1.2337992191314697
1701864970316095000,6.590094970703125,-0.1746760457754135,-9.90568733215332,1.2337992191314697
1701864970325687600,6.5996875,-0.1746760457754135,-9.917651176452637,1.2242279052734375
1701864970335279000,6.609279052734375,-0.16510476171970367,-9.920044898986816,1.2218350172042847
1701864970344871700,6.61887158203125,-0.17706887423992157,-9.91286563873291,1.236191987991333
1701864970354465000,6.628465087890625,-0.1746760457754135,-9.932008743286133,1.2577273845672607
1701864970364057600,6.6380576171875,-0.17228323221206665,-9.939187049865723,1.2625130414962769
1701864970373649400,6.6476494140625,-0.1698904037475586,-9.94397258758545,1.2577273845672607
1701864970383242000,6.657241943359375,-0.17228323221206665,-9.92961597442627,1.2625130414962769
1701864970392835300,6.66683544921875,-0.17706887423992157,-9.915258407592773,1.2505489587783813
1701864970402428000,6.676427978515625,-0.1339980661869049,-9.89850902557373,1.2433704137802124
1701864970412019700,6.686019775390625,-0.11246266216039658,-9.89133071899414,1.2744771242141724
1701864970421612300,6.6956123046875,-0.12203395366668701,-9.89133071899414,1.2649059295654297
1701864970431205600,6.70520556640625,-0.11964113265275955,-9.867402076721191,1.2840484380722046
1701864970440798200,6.714798095703125,-0.14356936514377594,-9.869794845581055,1.2864413261413574
1701864970450389800,6.7243896484375,-0.15314064919948578,-9.874580383300781,1.2960125207901
1701864970459982300,6.733982421875,-0.16510476171970367,-9.867402076721191,1.2816556692123413
1701864970469575700,6.74357568359375,-0.18424734473228455,-9.862616539001465,1.2744771242141724
1701864970479168300,6.753168212890625,-0.17228323221206665,-9.857831001281738,1.2577273845672607
1701864970488760000,6.762760009765625,-0.15314064919948578,-9.862616539001465,1.2577273845672607
1701864970498352600,6.7723525390625,-0.1459621787071228,-9.857831001281738,1.2577273845672607
1701864970507946000,6.781946044921875,-0.13639089465141296,-9.850652694702148,1.2768700122833252
1701864970517538600,6.79153857421875,-0.16510476171970367,-9.845867156982422,1.2744771242141724
1701864970527130000,6.801130126953125,-0.16749759018421173,-9.843474388122559,1.2840484380722046
1701864970536723000,6.810722900390625,-0.17946170270442963,-9.836296081542969,1.303191065788269
1701864970546316000,6.82031591796875,-0.19142581522464752,-9.850652694702148,1.3366905450820923
1701864970555908600,6.82990869140625,-0.18424734473228455,-9.860223770141602,1.3558331727981567
1701864970565500400,6.83950048828125,-0.18903298676013947,-9.838688850402832,1.3917254209518433
1701864970575093000,6.849093017578125,-0.19381862878799438,-9.814760208129883,1.4060823917388916
1701864970584686300,6.858686279296875,-0.1746760457754135,-9.800403594970703,1.4419747591018677
1701864970594279000,6.86827880859375,-0.15074782073497772,-9.778867721557617,1.4539388418197632
1701864970603870700,6.87787060546875,-0.14356936514377594,-9.752547264099121,1.4659029245376587
1701864970613463300,6.88746337890625,-0.1052841991186142,-9.721440315246582,1.5065809488296509
1701864970623056600,6.897056640625,-0.11724831163883209,-9.692726135253906,1.511366605758667
1701864970632649200,6.906649169921875,-0.1339980661869049,-9.664012908935547,1.535294771194458
1701864970642240800,6.91624072265625,-0.14117653667926788,-9.635298728942871,1.5448660850524902
1701864970651833300,6.925833251953125,-0.16510476171970367,-9.644869804382324,1.5568302869796753
1701864970661426700,6.9354267578125,-0.20338992774486542,-9.659226417541504,1.5687943696975708
1701864970671019300,6.945019287109375,-0.25363919138908386,-9.66640567779541,1.597508192062378
1701864970680611000,6.954611083984375,-0.1986042857170105,-9.68076229095459,1.5807584524154663
1701864970690203600,6.96420361328125,-0.22492532432079315,-9.707083702087402,1.5544373989105225
1701864970699797000,6.973796875,-0.3278166949748993,-9.711869239807129,1.571187138557434
1701864970709389600,6.9833896484375,-0.41156548261642456,-9.754940032958984,1.4994025230407715
1701864970718981400,6.9929814453125,-0.45942193269729614,-9.81236743927002,1.4419747591018677
1701864970728574000,7.002573974609375,-0.46899324655532837,-9.893723487854004,1.4060823917388916
1701864970738167300,7.012167236328125,-0.5000999569892883,-10.030413627624512,1.353440284729004
1701864970747759900,7.021759765625,-0.5886343717575073,-10.226624488830566,1.3654043674468994
1701864970757351400,7.031351318359375,-0.7061817646026611,-10.22183895111084,1.1333006620407104
1701864970766944000,7.040944091796875,-0.7205387353897095,-10.341480255126953,1.0085747241973877
1701864970776537300,7.050537353515625,-0.4833501875400543,-10.44915771484375,0.8195417523384094
1701864970786130000,7.0601298828125,-0.11246266216039658,-10.516156196594238,0.6185446381568909
1701864970795721700,7.0697216796875,0.04336991161108017,-10.384551048278809,0.5033900737762451
1701864970805314300,7.079314208984375,0.09122636169195175,-10.051948547363281,0.47706902027130127
1701864970814907600,7.08890771484375,-0.10289137065410614,-9.57787036895752,0.5081757307052612
1701864970824500200,7.098500244140625,-0.5886343717575073,-9.206684112548828,0.6329016089439392
1701864970834091800,7.108091796875,0.12233305722475052,-8.921937942504883,0.8291130661964417
1701864970843684600,7.1176845703125,-0.2560320198535919,-8.514859199523926,0.833898663520813
1701864970853277700,7.127277587890625,-0.4546363055706024,-8.225028991699219,0.7525427341461182
1701864970862870300,7.136870361328125,-0.854536771774292,-8.213064193725586,0.4914259612560272
1701864970872462000,7.146462158203125,-1.1536396741867065,-8.184350967407227,0.1947159469127655
1701864970882054700,7.1560546875,-1.378864049911499,-8.275278091430664,0.1420738399028778
1701864970891648000,7.16564794921875,-1.7237296104431152,-8.481359481811523,0.08225327730178833
1701864970901240600,7.175240478515625,-1.9845472574234009,-8.639286041259766,-0.10468599200248718
1701864970910832400,7.184832275390625,-1.8601205348968506,-8.555537223815918,-0.667298436164856
1701864970920425000,7.194425048828125,-1.6061822175979614,-8.191529273986816,-1.3615161180496216
1701864970930018300,7.204018310546875,-0.8497511148452759,-7.595417499542236,-1.404586911201477
1701864970939611000,7.21361083984375,0.3496512174606323,-6.755237579345703,-0.846760094165802
1701864970949202400,7.223202392578125,1.8005990982055664,-6.128018856048584,-0.025423740968108177
1701864970958795000,7.232794921875,3.1316065788269043,-5.455037593841553,0.5467599630355835
1701864970968388400,7.242388427734375,3.7301113605499268,-4.669892311096191,0.7597211599349976
1701864970977981000,7.25198095703125,3.4286158084869385,-3.7887356281280518,0.8219345808029175
1701864970987572700,7.26157275390625,2.8253252506256104,-2.953341245651245,0.5778666734695435
1701864970997165300,7.271165283203125,1.7790635824203491,-2.03629207611084,-0.4875376224517822
1701864971006758700,7.280758544921875,-0.004486542660742998,-1.1578270196914673,-1.9193428754806519
1701864971016351200,7.290351318359375,-1.7883358001708984,-0.5808576941490173,-2.7978079319000244
1701864971025943000,7.299943115234375,-2.0180468559265137,0.0894317477941513,-2.8986055850982666
1701864971035535600,7.30953564453125,0.0649053156375885,-0.22402802109718323,-2.393420934677124
1701864971045129000,7.31912890625,4.869693279266357,-1.449751377105713,-1.1362916231155396
1701864971054721500,7.328721435546875,15.727126121520996,-3.389134168624878,1.6719847917556763
1701864971064313000,7.33831298828125,15.063715934753418,-5.785545825958252,1.9016958475112915
1701864971073905700,7.34790576171875,0.5437689423561096,-7.5667033195495605,0.8051848411560059
1701864971083499000,7.3574990234375,-13.890335083007812,-12.654143333435059,5.4759745597839355
1701864971093091600,7.367091552734375,-17.926727294921875,-17.87588119506836,8.645866394042969
1701864971102683400,7.376683349609375,-5.38415002822876,-18.945772171020508,9.11994457244873
1701864971112276000,7.38627587890625,2.738884687423706,-14.224732398986816,8.533403396606445
1701864971121869300,7.395869384765625,-0.5431707501411438,-10.930414199829102,7.750352382659912
1701864971131462000,7.4054619140625,-2.4011974334716797,-9.079864501953125,5.605485916137695
1701864971141053400,7.415053466796875,-2.3437697887420654,-7.796713352203369,4.4512481689453125
1701864971150646300,7.424646240234375,-1.689931035041809,-7.4949188232421875,4.516153812408447
1701864971160239600,7.434239501953125,-0.00687936507165432,-7.506882667541504,4.832006454467773
1701864971169832000,7.44383203125,0.37836506962776184,-7.03998327255249,4.767399787902832
1701864971179423700,7.453423828125,-1.2999008893966675,-7.315456867218018,3.357429265975952
1701864971189016300,7.463016357421875,-4.01246452331543,-7.7222371101379395,2.6796622276306152
1701864971198609700,7.472609619140625,-5.19033145904541,-7.415955543518066,1.4156537055969238
1701864971208202200,7.4822021484375,-4.627718925476074,-7.631309509277344,-0.1501496136188507
1701864971217794000,7.4917939453125,-3.241377353668213,-8.663214683532715,0.1301097273826599
1701864971227386600,7.50138671875,-2.2142581939697266,-9.723833084106445,0.33828529715538025
1701864971236980000,7.51097998046875,-0.6774678826332092,-11.227422714233398,0.3406781256198883
1701864971246572500,7.520572509765625,0.37597227096557617,-7.023233413696289,-0.26979073882102966
1701864971256164000,7.5301640625,-0.18903298676013947,-6.5419769287109375,-0.21954147517681122
1701864971265756700,7.539756591796875,0.04576273262500763,-8.811569213867188,-0.19561325013637543
1701864971275350000,7.54935009765625,-0.11485548317432404,-9.127720832824707,0.6520441770553589
1701864971284942600,7.558942626953125,-1.4482558965682983,-9.027222633361816,0.5201398134231567
1701864971294534400,7.568534423828125,-1.2687941789627075,-7.968996524810791,-0.22432711720466614
1701864971304127000,7.578126953125,-0.3517449200153351,-7.281957626342773,-0.0062811593525111675
1701864971313720300,7.58772021484375,-0.6415755748748779,-7.595417499542236,0.5057829022407532
1701864971323313000,7.59731298828125,-1.220937728881836,-8.847461700439453,-0.2626122832298279
1701864971332904700,7.60690478515625,-0.9574281573295593,-11.248958587646484,-1.8786648511886597
1701864971342497300,7.616497314453125,-0.768395185470581,-14.006985664367676,-3.923032760620117
1701864971352090600,7.626090576171875,0.09361918270587921,-15.81446361541748,-5.72123908996582
1701864971361683200,7.63568310546875,2.5307090282440186,-17.18614959716797,-7.643572807312012
1701864971371274800,7.645274658203125,3.677469253540039,-18.330516815185547,-7.75842809677124
1701864971380867300,7.654867431640625,2.1571295261383057,-20.356040954589844,-4.514358997344971
1701864971390460700,7.664460693359375,0.6275177597999573,-23.509183883666992,-1.9408782720565796
1701864971400053200,7.67405322265625,0.5772684812545776,-26.43949317932129,-1.6151553392410278
1701864971409645000,7.68364501953125,0.6035895347595215,-28.012475967407227,-1.837986946105957
1701864971419237600,7.693237548828125,0.7782655358314514,-28.18475914001465,-1.2203395366668701
1701864971428831000,7.7028310546875,0.5171487927436829,-27.794429779052734,-0.4492524564266205
1701864971438423600,7.712423583984375,0.9912267923355103,-26.099414825439453,0.8434699773788452
1701864971448015000,7.72201513671875,0.8955138921737671,-23.023141860961914,3.340679407119751
1701864971457608000,7.73160791015625,0.24436701834201813,-19.096818923950195,5.459224700927734
1701864971467201300,7.741201171875,-0.6798607110977173,-17.444873809814453,7.822137355804443
1701864971476793600,7.750793701171875,-2.3605196475982666,-15.165709495544434,6.651448726654053
1701864971486385400,7.760385498046875,-3.0020952224731445,-12.831511497497559,5.521438121795654
1701864971495978000,7.76997802734375,-3.9188451766967773,-10.738987922668457,4.78175687789917
1701864971505571300,7.7795712890625,-5.003392219543457,-9.45583724975586,4.049253940582275
1701864971515164000,7.789163818359375,-5.573183059692383,-9.460622787475586,3.2997024059295654
1701864971524755700,7.798755615234375,-5.010570526123047,-10.042377471923828,3.0029923915863037
1701864971534348300,7.808348388671875,-4.017250061035156,-10.4850492477417,2.9479575157165527
1701864971543941600,7.817941650390625,-3.3945181369781494,-10.441978454589844,2.9766714572906494
1701864971553534200,7.8275341796875,-3.2557342052459717,-10.016056060791016,3.3526437282562256
1701864971563126000,7.8371259765625,-3.5024940967559814,-9.206684112548828,3.852743625640869
1701864971572718300,7.84671826171875,-3.638885021209717,-8.225028991699219,4.336392879486084
1701864971582312000,7.85631201171875,-3.4163525104522705,-7.191030025482178,4.5807600021362305
1701864971591904300,7.865904296875,-3.1600213050842285,-6.465406894683838,4.537689208984375
1701864971601496000,7.87549609375,-2.911167860031128,-5.8118672370910645,4.233501434326172
1701864971611088600,7.885088623046875,-2.942274570465088,-5.553442478179932,3.6373894214630127
1701864971620682000,7.894681884765625,-3.07627272605896,-5.546263694763184,2.5624139308929443
1701864971630274600,7.904274658203125,-2.9542386531829834,-5.555835247039795,1.3366905450820923
1701864971639866400,7.913866455078125,-2.638087034225464,-5.620441436767578,-0.00867398176342249
1701864971649459000,7.923458984375,-2.099402666091919,-5.618048667907715,-1.3495519161224365
1701864971659052300,7.93305224609375,-1.5535401105880737,-5.419145107269287,-2.407777786254883
1701864971668644900,7.942644775390625,-1.2233306169509888,-4.995615482330322,-3.374777317047119
1701864971678236400,7.952236328125,-1.0794621706008911,-4.784748077392578,-3.944568157196045
1701864971687829200,7.961829345703125,-0.6678966283798218,-4.899603366851807,-4.715655326843262
1701864971697422300,7.97142236328125,0.17258232831954956,-5.309075355529785,-5.354837894439697
1701864971707015000,7.981014892578125,0.6586244106292725,-5.941079616546631,-5.998806476593018
1701864971716606700,7.990606689453125,1.501197099685669,-6.527620315551758,-7.028318405151367
1701864971726199300,8.00019921875,2.7197420597076416,-7.078268527984619,-7.538288593292236
1701864971735792600,8.009792724609374,3.5147573947906494,-7.360920429229736,-8.744869232177734
1701864971745385200,8.01938525390625,4.067798614501953,-7.3848490715026855,-10.095019340515137
1701864971754977000,8.02897705078125,4.048655986785889,-7.540382385253906,-10.207781791687012
1701864971764569600,8.038569580078125,3.7516467571258545,-7.578667640686035,-10.49970531463623
1701864971774163000,8.048162841796875,3.7683966159820557,-7.506882667541504,-10.48534870147705
1701864971783755500,8.057755615234376,3.9122650623321533,-7.260422229766846,-10.995319366455078
1701864971793347000,8.06734716796875,4.247260093688965,-6.7911295890808105,-11.215458869934082
1701864971802939600,8.076939697265624,3.9936211109161377,-6.364908218383789,-11.7326078414917
1701864971812533000,8.086532958984375,4.096512317657471,-5.8836517333984375,-12.982558250427246
1701864971822125600,8.09612548828125,5.329414367675781,-5.622834205627441,-13.990235328674316
1701864971831717400,8.10571728515625,6.332605361938477,-4.7727837562561035,-14.014163970947266
1701864971841310000,8.11531005859375,6.658029079437256,-4.0833516120910645,-13.600205421447754
1701864971850903300,8.1249033203125,6.468996047973633,-3.537489175796509,-12.290434837341309
1701864971860496000,8.134495849609374,5.954239845275879,-3.0969107151031494,-11.045568466186523
1701864971870087700,8.144087646484374,5.496912002563477,-2.7116663455963135,-9.776774406433105
1701864971879680300,8.15368017578125,5.178666591644287,-2.4457638263702393,-9.106484413146973
1701864971889273300,8.1632734375,4.326223373413086,-2.5582265853881836,-9.015557289123535
1701864971898866200,8.1728662109375,3.85693097114563,-2.9006991386413574,-8.886046409606934
1701864971908457700,8.182457763671875,3.605684518814087,-3.2766714096069336,-8.831010818481445
1701864971918050300,8.19205029296875,3.6391842365264893,-3.666701555252075,-8.80469036102295
1701864971927643600,8.2016435546875,3.9194436073303223,-4.080958843231201,-8.139185905456543
1701864971937236200,8.211236328125,4.108476638793945,-4.569394111633301,-6.887141704559326
1701864971946828000,8.220828125,4.063013076782227,-4.782355308532715,-5.740381717681885
1701864971956420600,8.230420654296875,4.015156269073486,-4.6459641456604,-5.218447208404541
1701864971966014000,8.240013916015625,4.201796531677246,-4.320241451263428,-5.07936429977417
1701864971975606500,8.2496064453125,4.628017902374268,-4.033102512359619,-4.9740800857543945
1701864971985198000,8.259197998046876,5.233701229095459,-3.7313077449798584,-4.871188640594482
1701864971994791000,8.268791015625,5.712564945220947,-3.5135610103607178,-4.842474937438965
1701864972004384000,8.278384033203125,6.049952983856201,-3.358027458190918,-4.83051061630249
1701864972013976600,8.2879765625,6.284748554229736,-3.247957706451416,-4.942973613739014
1701864972023568400,8.297568359375,6.401997089385986,-3.2766714096069336,-5.043471813201904
1701864972033161000,8.307160888671875,6.399604320526123,-3.4345977306365967,-5.149055004119873
1701864972042754300,8.31675439453125,6.354140758514404,-3.697808265686035,-5.012365341186523
1701864972052347000,8.326346923828124,6.4666032791137695,-4.097708702087402,-4.8233323097229
1701864972061938700,8.335938720703124,6.706184387207031,-4.502394676208496,-5.206482887268066
1701864972071531300,8.34553125,7.022037029266357,-4.928616523742676,-5.773880958557129
1701864972081124600,8.35512451171875,7.311867713928223,-5.347360610961914,-6.183053493499756
1701864972090717000,8.364717041015625,7.467401027679443,-5.747261047363281,-6.6020965576171875
1701864972100308700,8.374308837890625,7.620542049407959,-6.015256881713867,-7.083353042602539
1701864972109901300,8.3839013671875,7.613363265991211,-6.295516490936279,-7.317849636077881
1701864972119494700,8.39349462890625,7.5942206382751465,-6.410371780395508,-7.428218841552734
1701864972129087200,8.403087158203125,7.443472862243652,-6.362515449523926,-7.466504096984863
1701864972138679000,8.412678955078125,7.311867713928223,-6.168696880340576,-7.516753196716309
1701864972148271600,8.422271728515625,7.431509017944336,-5.938686847686768,-7.629215717315674
1701864972157865000,8.431864990234375,7.840980529785156,-5.778367519378662,-7.684250831604004
1701864972167457300,8.441457275390626,8.20947551727295,-5.716154098510742,-7.581359386444092
1701864972177049300,8.45104931640625,8.30997371673584,-5.708975791931152,-7.361219882965088
1701864972186642000,8.460641845703124,8.276473999023438,-5.637190818786621,-7.167101860046387
1701864972196235000,8.470235107421875,8.113762855529785,-5.6084771156311035,-7.068996429443359
1701864972205827800,8.479827880859375,7.9127655029296875,-5.563013553619385,-6.951747894287109
1701864972215419400,8.48941943359375,7.675576686859131,-5.42153787612915,-6.841678142547607
1701864972225012000,8.499011962890625,7.4362945556640625,-5.2971110343933105,-6.75284481048584
1701864972234605300,8.508605224609376,7.213462829589844,-5.191826820373535,-6.463313102722168
1701864972244198000,8.518197998046874,6.990930557250977,-5.045864582061768,-6.123233318328857
1701864972253789700,8.527789794921874,6.818647384643555,-4.9980082511901855,-5.759523868560791
1701864972263382300,8.53738232421875,6.730112552642822,-5.00997257232666,-5.402694225311279
1701864972272975600,8.5469755859375,6.689135551452637,-5.031507968902588,-5.07936429977417
1701864972282568200,8.556568115234375,6.679564476013184,-5.043471813201904,-4.787439823150635
1701864972292159700,8.56615966796875,6.6939215660095215,-5.021936416625977,-4.526622295379639
1701864972301752600,8.575752685546876,6.727719783782959,-4.94775915145874,-4.330111503601074
1701864972311345700,8.585345703125,6.864110946655273,-4.88763952255249,-4.232006072998047
1701864972320938200,8.594938232421875,7.00050163269043,-4.8206400871276855,-4.229613304138184
1701864972330530000,8.604530029296875,7.065107822418213,-4.76321268081665,-4.248755931854248
1701864972340122600,8.61412255859375,7.0292158126831055,-4.746462821960449,-4.272684097290039
1701864972349716000,8.623716064453125,6.933502674102783,-4.77756929397583,-4.203291893005371
1701864972359308500,8.63330859375,6.871289253234863,-4.8661041259765625,-4.131507396697998
1701864972368900400,8.642900390625,6.933502674102783,-5.002793788909912,-4.052544116973877
1701864972378493000,8.652492919921874,6.900003433227539,-5.146363258361816,-4.105186462402344
1701864972388086300,8.662086181640625,6.919145584106445,-5.409573554992676,-4.045365810394287
1701864972397678600,8.6716787109375,6.9598236083984375,-5.689833164215088,-4.1267218589782715
1701864972407270400,8.6812705078125,6.9670023918151855,-5.984150409698486,-4.205684661865234
1701864972416863000,8.690863037109375,6.995716094970703,-6.238088607788086,-4.232006072998047
1701864972426456300,8.700456298828126,6.947859764099121,-6.453442573547363,-4.23439884185791
1701864972436049000,8.710048828125,6.775576591491699,-6.589833736419678,-4.2224345207214355
1701864972445640700,8.719640625,6.662814617156982,-6.664309978485107,-4.220041751861572
1701864972455233300,8.7292333984375,6.650850772857666,-6.685845375061035,-4.2224345207214355
1701864972464826600,8.73882666015625,6.6006011962890625,-6.6954169273376465,-4.176970958709717
1701864972474419200,8.748419189453125,6.519245147705078,-6.683452606201172,-4.1506500244140625
1701864972484011000,8.758010986328125,6.4905314445495605,-6.649953365325928,-4.186542510986328
1701864972493603600,8.767603515625,6.49770975112915,-6.63559627532959,-4.212863445281982
1701864972503197000,8.777197021484374,6.495316982269287,-6.645167350769043,-4.217648983001709
1701864972512789500,8.78678955078125,6.478567123413086,-6.736094951629639,-4.17936372756958
1701864972522381000,8.796381103515625,6.471388816833496,-6.858129024505615,-4.17936372756958
1701864972531973600,8.8059736328125,6.538387775421143,-6.968198776245117,-4.205684661865234
1701864972541567000,8.81556689453125,6.5288166999816895,-7.061518669128418,-4.129114627838135
1701864972551159600,8.82515966796875,6.516852378845215,-7.126124858856201,-4.086043834686279
1701864972560751400,8.83475146484375,6.437889099121094,-7.2197442054748535,-4.0094733238220215
1701864972570344000,8.844343994140624,6.382854461669922,-7.296314239501953,-3.9254255294799805
1701864972579937300,8.853937255859375,6.330212116241455,-7.344171047210693,-3.865604877471924
1701864972589529900,8.86352978515625,6.311069488525391,-7.380063056945801,-3.8392839431762695
1701864972599121400,8.873121337890625,6.33499813079834,-7.40399169921875,-3.8536407947540283
1701864972608714200,8.88271435546875,6.3732829093933105,-7.415955543518066,-3.8464624881744385
1701864972618307600,8.8923076171875,6.406782627105713,-7.420741081237793,-3.865604877471924
1701864972627900000,8.90189990234375,6.457031726837158,-7.40399169921875,-3.858426570892334
1701864972637491700,8.91149169921875,6.370890140533447,-7.35613489151001,-3.8392839431762695
1701864972647084300,8.921084228515625,6.351747512817383,-7.301100254058838,-3.724428415298462
1701864972656677600,8.930677734375,6.358926296234131,-7.174280643463135,-3.7674992084503174
1701864972666270200,8.940270263671875,6.339783668518066,-7.0663042068481445,-3.7507495880126953
1701864972675862000,8.949862060546875,6.339783668518066,-6.975377082824707,-3.7986059188842773
1701864972685454600,8.95945458984375,6.327819347381592,-6.894021034240723,-3.9110686779022217
1701864972695048000,8.9690478515625,6.296712875366211,-6.855735778808594,-3.954139471054077
1701864972704640500,8.978640625,6.2775702476501465,-6.82223653793335,-3.9158542156219482
1701864972714232000,8.988232177734375,6.2297139167785645,-6.755237579345703,-3.8632121086120605
1701864972723824600,8.99782470703125,6.174678802490234,-6.6954169273376465,-3.7698919773101807
1701864972733418000,9.00741796875,6.1675004959106445,-6.649953365325928,-3.7220356464385986
1701864972743010600,9.017010498046876,6.236892223358154,-6.611668109893799,-3.6526436805725098
1701864972752602400,9.026602294921876,6.27996301651001,-6.544369697570801,-3.6167514324188232
1701864972762195000,9.03619482421875,6.248856544494629,-6.448657035827637,-3.576073408126831
1701864972771788300,9.045788330078125,6.174678802490234,-6.3529438972473145,-3.5473594665527344
1701864972781380900,9.055380859375,6.073881149291992,-6.329015731811523,-3.513859987258911
1701864972790972700,9.06497265625,5.992525100708008,-6.39601469039917,-3.463610887527466
1701864972800565200,9.074565185546875,5.90159797668457,-6.465406894683838,-3.463610887527466
1701864972810158600,9.08415869140625,5.84656286239624,-6.5419769287109375,-3.5018959045410156
1701864972819751200,9.093751220703124,5.798706531524658,-6.599404811859131,-3.559323787689209
1701864972829342700,9.1033427734375,5.774778366088867,-6.649953365325928,-3.6023945808410645
1701864972838935300,9.112935302734375,5.755635738372803,-6.6714887619018555,-3.647858142852783
1701864972848528600,9.122528564453125,5.758028507232666,-6.712166786193848,-3.6957144737243652
1701864972858121200,9.132121337890625,5.765207290649414,-6.724130630493164,-3.7148571014404297
1701864972867713000,9.141713134765626,5.796313762664795,-6.779165744781494,-3.741178274154663
1701864972877305600,9.1513056640625,5.863312721252441,-6.810272216796875,-3.796213150024414
1701864972886899000,9.16089892578125,5.8944196701049805,-6.824629306793213,-3.9014973640441895
1701864972896491500,9.170491455078125,5.906383514404297,-6.862914562225342,-4.0334014892578125
1701864972906083000,9.1800830078125,5.925526142120361,-6.865307331085205,-4.1506500244140625
1701864972915676000,9.189676025390625,5.939883232116699,-6.879664421081543,-4.275076866149902
1701864972925269200,9.199269287109376,5.980561256408691,-6.867700099945068,-4.389932155609131
1701864972934861600,9.208861572265626,6.045167446136475,-6.862914562225342,-4.507180690765381
1701864972944453400,9.218453369140626,6.09541654586792,-6.862914562225342,-4.598406791687012
1701864972954046000,9.2280458984375,6.104988098144531,-6.8365936279296875,-4.670191764831543
1701864972963639300,9.237639404296875,6.1241302490234375,-6.803093910217285,-4.739583492279053
1701864972973231900,9.24723193359375,6.1435723304748535,-6.762415885925293,-4.813760757446289
1701864972982823700,9.25682373046875,6.181857109069824,-6.7432732582092285,-4.868795871734619
1701864972992416300,9.266416259765625,6.220142364501953,-6.6954169273376465,-4.931009292602539
1701864973002009600,9.276009521484376,6.234499454498291,-6.709774017333984,-4.9980082511901855
1701864973011602200,9.285602294921874,6.251249313354492,-6.731309413909912,-5.055436134338379
1701864973021193700,9.29519384765625,6.265605926513672,-6.7193450927734375,-5.101198673248291
1701864973030786300,9.304786376953125,6.330212116241455,-6.714559555053711,-5.129912853240967
1701864973040379600,9.314379638671875,6.361319065093994,-6.709774017333984,-5.161019325256348
1701864973049972200,9.32397216796875,6.370890140533447,-6.75284481048584,-5.182554721832275
1701864973059564000,9.33356396484375,6.308676719665527,-6.771986961364746,-5.122734069824219
1701864973069156600,9.343156494140626,6.27996301651001,-6.733702182769775,-5.012365341186523
1701864973078750000,9.35275,6.239284992218018,-6.657131671905518,-4.890331268310547
1701864973088342500,9.362342529296875,6.198606967926025,-6.597012042999268,-4.797011375427246
1701864973097934300,9.371934326171875,6.227321147918701,-6.5180487632751465,-4.758726119995117
1701864973107527000,9.38152685546875,6.282355785369873,-6.441478729248047,-4.708476543426514
1701864973117120300,9.391120361328126,6.344569206237793,-6.3361945152282715,-4.634299278259277
1701864973126712800,9.400712890625,6.361319065093994,-6.281159400939941,-4.500001907348633
1701864973136304400,9.410304443359376,6.265605926513672,-6.271588325500488,-4.2918267250061035
1701864973145897000,9.41989697265625,6.126523494720459,-6.221338748931885,-4.107579231262207
1701864973155490300,9.429490234375,6.028417587280273,-6.130411624908447,-3.9687955379486084
1701864973165083000,9.439082763671875,6.066702842712402,-6.027221202850342,-3.899104595184326
1701864973174674700,9.4486748046875,6.150750637054443,-5.9554362297058105,-3.9687955379486084
1701864973184267300,9.458267333984375,6.205785751342773,-5.9315080642700195,-4.114757537841797
1701864973193860600,9.467860595703126,6.251249313354492,-5.988935947418213,-4.23439884185791
1701864973203453200,9.477453125,6.299105644226074,-6.113661766052246,-4.363611221313477
1701864973213044700,9.487044677734374,6.260820388793945,-6.25723123550415,-4.42821741104126
1701864973222637600,9.496637451171875,6.196214199066162,-6.412764549255371,-4.433002948760986
1701864973232231000,9.50623095703125,6.114559173583984,-6.527620315551758,-4.382753849029541
1701864973241823200,9.5158232421875,6.14835786819458,-6.604190349578857,-4.4497528076171875
1701864973251415000,9.5254150390625,6.181857109069824,-6.585047721862793,-4.456931114196777
1701864973261007600,9.535007568359376,6.165107727050781,-6.580262184143066,-4.4258246421813965
1701864973270601000,9.54460107421875,6.284748554229736,-6.654738903045654,-4.600799560546875
1701864973280193500,9.554193603515625,6.313462734222412,-6.716952323913574,-4.696512699127197
1701864973289785300,9.563785400390625,6.265605926513672,-6.805486679077148,-4.6989054679870605
1701864973299378000,9.5733779296875,6.153143405914307,-6.898806571960449,-4.670191764831543
1701864973308971300,9.58297119140625,6.1241302490234375,-6.913163661956787,-4.658227443695068
1701864973318563800,9.592563720703126,6.09541654586792,-6.901199817657471,-4.665405750274658
1701864973328155400,9.6021552734375,6.006882190704346,-6.891628265380859,-4.689334392547607
1701864973337748000,9.611748046875,5.9422760009765625,-6.905985355377197,-4.739583492279053
1701864973347341300,9.62134130859375,5.899205207824707,-6.879664421081543,-4.8233323097229
1701864973356934000,9.630933837890625,5.834599018096924,-6.831807613372803,-4.88554573059082
1701864973366525700,9.640525634765625,5.803492069244385,-6.776772975921631,-4.971687316894531
1701864973376118300,9.6501181640625,5.774778366088867,-6.707380771636963,-5.02432918548584
1701864973385711600,9.659711669921874,5.774778366088867,-6.599404811859131,-5.0602216720581055
1701864973395304200,9.66930419921875,5.760421276092529,-6.484549522399902,-5.110770225524902
1701864973404896000,9.67889599609375,5.729314804077148,-6.350551128387451,-5.1681976318359375
1701864973414488600,9.688488525390625,5.738885879516602,-6.230910301208496,-5.225625514984131
1701864973424082000,9.69808203125,5.729314804077148,-6.147161483764648,-5.254339218139648
1701864973433674500,9.707674560546875,5.695815086364746,-6.092126369476318,-5.292624473571777
1701864973443266000,9.71726611328125,5.6910295486450195,-6.036792278289795,-5.299803256988525
1701864973452858600,9.726858642578126,5.645565986633301,-6.022435665130615,-5.304588794708252
1701864973462452000,9.736451904296874,5.774778366088867,-6.209374904632568,-5.452943801879883
1701864973472044500,9.74604443359375,5.633601665496826,-6.317051887512207,-5.278267860412598
1701864973481636400,9.75563623046875,5.470590591430664,-5.972186088562012,-5.19451904296875
1701864973491229000,9.76522900390625,5.659923076629639,-5.974578857421875,-5.196911811828613
1701864973500822300,9.774822265625,5.659923076629639,-6.070590972900391,-5.1442694664001465
1701864973510414800,9.784414794921876,5.702993869781494,-6.317051887512207,-5.103591442108154
1701864973520006400,9.79400634765625,5.671886920928955,-6.424728870391846,-5.07936429977417
1701864973529599200,9.80359912109375,5.62163782119751,-6.491727828979492,-5.019543647766113
1701864973539192600,9.813192626953125,5.62163782119751,-6.532405853271484,-4.952544689178467
1701864973548785000,9.822784912109375,5.5953168869018555,-6.585047721862793,-4.88554573059082
1701864973558376700,9.832376708984375,5.592923641204834,-6.6475605964660645,-4.8233323097229
1701864973567969300,9.84196923828125,5.537590026855469,-6.731309413909912,-4.7850470542907715
1701864973577562600,9.851562744140624,5.4658050537109375,-6.843771934509277,-4.782654285430908
1701864973587155200,9.8611552734375,5.420341491699219,-6.982555389404297,-4.825725078582764
1701864973596747000,9.8707470703125,5.389235019683838,-7.111767768859863,-4.861617565155029
1701864973606339600,9.880339599609375,5.336592674255371,-7.210172653198242,-4.88554573059082
1701864973615933000,9.889932861328125,5.271986484527588,-7.29392147064209,-4.88554573059082
1701864973625525500,9.899525390625,5.228915691375732,-7.363313674926758,-4.8568315505981445
1701864973635117300,9.909117431640626,5.183452129364014,-7.389634609222412,-4.818546772003174
1701864973644710000,9.9187099609375,5.212165832519531,-7.3776702880859375,-4.799404144287109
1701864973654303200,9.92830322265625,5.295914649963379,-7.332206726074219,-4.7850470542907715
1701864973663895800,9.937895751953125,5.329414367675781,-7.3058857917785645,-4.770689964294434
1701864973673487400,9.9474873046875,5.3318071365356445,-7.2867431640625,-4.765904426574707
1701864973683080000,9.957079833984375,5.343770980834961,-7.29392147064209,-4.8089752197265625
1701864973692673300,9.96667333984375,5.322235584259033,-7.315456867218018,-4.875974178314209
1701864973702265900,9.976265869140626,5.267200946807861,-7.336992263793945,-4.969294548034668
1701864973711857700,9.985857666015624,5.2145586013793945,-7.327421188354492,-5.045864582061768
1701864973721450200,9.9954501953125,5.183452129364014,-7.313064098358154,-5.125126838684082
1701864973731043600,10.005043701171875,5.157131195068359,-7.281957626342773,-5.1681976318359375
1701864973740636200,10.01463623046875,5.140381336212158,-7.258029460906982,-5.184947490692139
1701864973750227700,10.024227783203125,5.1188459396362305,-7.236494064331055,-5.184947490692139
1701864973759820500,10.033820556640626,5.044668197631836,-7.2197442054748535,-5.170590400695801
1701864973769413600,10.04341357421875,4.986941337585449,-7.1958160400390625,-5.172983646392822
1701864973779006200,10.053006103515624,4.994120121002197,-7.169195652008057,-5.199304580688477
1701864973788598000,10.062597900390625,5.013561725616455,-7.1356964111328125,-5.220839977264404
1701864973798190600,10.072190673828125,5.006083965301514,-7.0902323722839355,-5.249553680419922
1701864973807784000,10.081783935546875,5.051846981048584,-6.975377082824707,-5.242375373840332
1701864973817376500,10.09137646484375,5.104488849639893,-6.810272216796875,-5.20887565612793
1701864973826968300,10.10096826171875,5.102096080780029,-6.640381813049316,-5.149055004119873
1701864973836561000,10.110560791015626,5.037489891052246,-6.553941249847412,-5.089234828948975
1701864973846154200,10.120154296875,4.967798709869385,-6.5180487632751465,-5.005186557769775
1701864973855746800,10.129746826171875,4.907978534698486,-6.530013084411621,-5.002793788909912
1701864973865338400,10.13933837890625,4.955834865570068,-6.604190349578857,-4.993222713470459
1701864973874931000,10.148930908203125,4.936692237854004,-6.683452606201172,-5.000401020050049
1701864973884524300,10.158524169921876,4.934299468994141,-6.779165744781494,-4.988437175750732
1701864973894116900,10.168116943359376,4.924727916717529,-6.865307331085205,-4.940580368041992
1701864973903708700,10.177708740234374,4.955834865570068,-6.987341403961182,-4.854438781738281
1701864973913301200,10.18730126953125,4.9654059410095215,-7.104589462280273,-4.799404144287109
1701864973922894600,10.19689453125,4.924727916717529,-7.255636692047119,-4.730011940002441
1701864973932487200,10.206487060546875,4.864907741546631,-7.413562774658203,-4.663012981414795
1701864973942079000,10.216078857421875,4.805087089538574,-7.595417499542236,-4.617549419403076
1701864973951671600,10.225671630859376,4.735694885253906,-7.739285945892334,-4.600799560546875
1701864973961265000,10.235264892578124,4.706981182098389,-7.870891094207764,-4.603192329406738
1701864973970857500,10.244857421875,4.649553298950195,-7.957032680511475,-4.596014022827148
1701864973980449000,10.254448974609375,4.608875751495361,-8.004889488220215,-4.60558557510376
1701864973990041600,10.26404150390625,4.582554340362549,-7.9881391525268555,-4.6271209716796875
1701864973999635000,10.273635009765625,4.549055099487305,-7.968996524810791,-4.648656368255615
1701864974009227500,10.2832275390625,4.553840637207031,-7.897212028503418,-4.713262557983398
1701864974018819300,10.2928193359375,4.570590496063232,-7.81346321105957,-4.756333351135254
1701864974028412000,10.302411865234374,4.5562334060668945,-7.729415416717529,-4.787439823150635
1701864974038005200,10.312005126953125,4.522733688354492,-7.645666599273682,-4.842474937438965
1701864974047597800,10.321597900390625,4.496412754058838,-7.593024253845215,-4.89272403717041
1701864974057189400,10.331189453125,4.431507587432861,-7.5427751541137695,-4.945366382598877
1701864974066782200,10.3407822265625,4.402793884277344,-7.53559684753418,-5.002793788909912
1701864974076375600,10.35037548828125,4.357329845428467,-7.526025295257568,-5.029115200042725
1701864974085968000,10.3599677734375,4.3070807456970215,-7.549953460693359,-5.048257350921631
1701864974095559700,10.3695595703125,4.280759811401367,-7.607381343841553,-5.043471813201904
1701864974105152300,10.37915234375,4.225724697113037,-7.631309509277344,-4.976472854614258
1701864974114745600,10.38874560546875,4.158725738525391,-7.667201995849609,-4.861617565155029
1701864974124338200,10.398338134765625,4.098905086517334,-7.669594764709473,-4.710869789123535
1701864974133930000,10.407929931640625,4.043870449066162,-7.63609504699707,-4.624728202819824
1701864974143522600,10.4175224609375,4.058227062225342,-7.561917781829834,-4.569693088531494
1701864974153116000,10.427115966796874,4.034298896789551,-7.504489898681641,-4.500001907348633
1701864974162708500,10.43670849609375,3.972085475921631,-7.463811874389648,-4.516751766204834
1701864974172300000,10.446300048828125,3.9792640209198,-7.439883708953857,-4.610371112823486
1701864974181892900,10.455892822265625,3.9696927070617676,-7.449455261230469,-4.732405185699463
1701864974191486200,10.465486328125,3.996013879776001,-7.442276477813721,-4.861617565155029
1701864974201078500,10.47507861328125,4.0079779624938965,-7.451848030090332,-4.983651161193848
1701864974210670300,10.48467041015625,4.00319242477417,-7.4709906578063965,-4.990829944610596
1701864974220263000,10.494262939453124,3.972085475921631,-7.5188469886779785,-4.952544689178467
1701864974229856300,10.503856201171875,3.9744784832000732,-7.569096088409424,-4.792225360870361
1701864974239448800,10.51344873046875,3.9768712520599365,-7.583453178405762,-4.765904426574707
1701864974249040600,10.52304052734375,3.9840497970581055,-7.612166881561279,-4.655834674835205
1701864974258633200,10.53263330078125,3.988835334777832,-7.650452136993408,-4.631906509399414
1701864974268226600,10.5422265625,4.027120590209961,-7.688737392425537,-4.6510491371154785
1701864974277819100,10.551819091796874,4.041477680206299,-7.7440714836120605,-4.677370071411133
1701864974287410700,10.56141064453125,4.046263217926025,-7.799106121063232,-4.660620212554932
1701864974297003500,10.57100341796875,4.051048755645752,-7.770392417907715,-4.694119930267334
1701864974306596600,10.5805966796875,4.0079779624938965,-7.811070442199707,-4.569693088531494
1701864974316189200,10.590189208984375,3.9696927070617676,-7.851748466491699,-4.538586139678955
1701864974325781000,10.599781005859375,3.926621913909912,-7.911569118499756,-4.511966228485107
1701864974335373600,10.60937353515625,3.9146578311920166,-7.978568077087402,-4.555335998535156
1701864974344967000,10.618966796875,3.9314076900482178,-8.021638870239258,-4.598406791687012
1701864974354559500,10.6285595703125,3.964907169342041,-8.100602149963379,-4.70608377456665
1701864974364151300,10.6381513671875,4.015156269073486,-8.126922607421875,-4.799404144287109
1701864974373743900,10.647743896484375,4.00319242477417,-8.16281509399414,-4.89272403717041
1701864974383337200,10.657337158203125,3.9672999382019043,-8.236992835998535,-4.875974178314209
1701864974392929800,10.6669296875,3.9457645416259766,-8.292027473449707,-4.916652202606201
1701864974402521300,10.676521240234376,3.9050865173339844,-8.337790489196777,-4.9501519203186035
1701864974412114000,10.686114013671874,3.8688950538635254,-8.376075744628906,-4.969294548034668
1701864974421707300,10.695707275390625,3.8712878227233887,-8.428717613220215,-4.988437175750732
1701864974431299800,10.7052998046875,3.902693748474121,-8.435895919799805,-5.021936416625977
1701864974440891600,10.7148916015625,3.880859136581421,-8.45743179321289,-5.0362935066223145
1701864974450484200,10.724484130859375,3.893122434616089,-8.476573944091797,-5.041079044342041
1701864974460077600,10.73407763671875,3.926621913909912,-8.5100736618042,-5.086842060089111
1701864974469670100,10.743670166015624,3.9385859966278076,-8.522037506103516,-5.1514482498168945
1701864974479262000,10.753261962890624,3.981656789779663,-8.50289535522461,-5.25673246383667
1701864974488854500,10.7628544921875,4.082155227661133,-8.493324279785156,-5.187340259552002
1701864974498448000,10.77244775390625,3.972085475921631,-8.409575462341309,-5.153841018676758
1701864974508040400,10.78204052734375,3.7372899055480957,-8.344968795776367,-5.048257350921631
1701864974517632000,10.791632080078125,3.591327667236328,-8.248956680297852,-4.921437740325928
1701864974527224600,10.801224609375,3.495614767074585,-8.153244018554688,-4.840082168579102
1701864974536818000,10.81081787109375,3.4381871223449707,-8.06949520111084,-4.765904426574707
1701864974546410500,10.820410400390625,3.447758436203003,-7.935497283935547,-4.775475978851318
1701864974556002300,10.830002197265625,3.4860434532165527,-7.75842809677124,-4.775475978851318
1701864974565595000,10.839594970703125,3.4453654289245605,-7.631309509277344,-4.732405185699463
1701864974575188200,10.849188232421875,3.4310085773468018,-7.559525012969971,-4.591228485107422
1701864974584780800,10.85878076171875,3.502793312072754,-7.69830846786499,-4.679762840270996
1701864974594372600,10.86837255859375,3.478864908218384,-7.705487251281738,-4.54337215423584
1701864974603965200,10.877965087890624,3.416651725769043,-7.650452136993408,-4.3396830558776855
1701864974613558500,10.88755859375,3.330509901046753,-7.588238716125488,-4.255934238433838
1701864974623150800,10.89715087890625,3.340081214904785,-7.521239757537842,-4.275076866149902
1701864974632742700,10.90674267578125,3.2919256687164307,-7.557132244110107,-4.351646900177002
1701864974642335200,10.916335205078125,3.145963668823242,-7.710272789001465,-4.354039669036865
1701864974651928600,10.925928466796876,3.0167510509490967,-7.961818218231201,-4.318147659301758
1701864974661521200,10.935521240234374,2.892324447631836,-8.184350967407227,-4.275076866149902
1701864974671113000,10.945113037109374,2.7942185401916504,-8.289634704589844,-4.220041751861572
1701864974680705500,10.95470556640625,2.698206663131714,-8.301898002624512,-4.169792652130127
1701864974690299000,10.964298828125,2.6575286388397217,-8.289634704589844,-4.124329090118408
1701864974699891500,10.973891357421875,2.628814697265625,-8.289634704589844,-4.114757537841797
1701864974709483000,10.98348291015625,2.6072793006896973,-8.337790489196777,-4.162613868713379
1701864974719075800,10.993075927734376,2.6192433834075928,-8.414361000061035,-4.215256214141846
1701864974728669200,11.002669189453124,2.6718854904174805,-8.493324279785156,-4.265505313873291
1701864974738261500,11.012261474609375,2.7197420597076416,-8.572287559509277,-4.3396830558776855
1701864974747853300,11.021853271484375,2.746062994003296,-8.648857116699219,-4.416253089904785
1701864974757446000,11.03144580078125,2.760420083999634,-8.689535140991211,-4.485645294189453
1701864974767039200,11.041039306640625,2.767897605895996,-8.715856552124023,-4.545764923095703
1701864974776631800,11.0506318359375,2.7269206047058105,-8.73499870300293,-4.622334957122803
1701864974786223600,11.0602236328125,2.7101707458496094,-8.730213165283203,-4.70608377456665
1701864974795816200,11.069816162109374,2.698206663131714,-8.694320678710938,-4.820939540863037
1701864974805409500,11.079409423828125,2.7269206047058105,-8.682356834411621,-4.9190449714660645
1701864974815002000,11.089002197265625,2.762812852859497,-8.653642654418945,-5.029115200042725
1701864974824593700,11.09859375,2.815753936767578,-8.651249885559082,-5.115555763244629
1701864974834186200,11.108186279296875,2.8325037956237793,-8.58185863494873,-5.204090118408203
1701864974843779600,11.117779541015626,2.837289333343506,-8.536395072937012,-5.25673246383667
1701864974853372200,11.1273720703125,2.8348965644836426,-8.469395637512207,-5.27108907699585
1701864974862964000,11.1369638671875,2.8492536544799805,-8.426324844360352,-5.304588794708252
1701864974872556500,11.146556640625,2.8420751094818115,-8.313861846923828,-5.247160911560059
1701864974882150000,11.15614990234375,2.806182861328125,-8.256134986877441,-5.220839977264404
1701864974891742500,11.165742431640625,2.762812852859497,-8.251349449157715,-5.184947490692139
1701864974901334300,11.175334228515625,2.7125635147094727,-8.196314811706543,-5.021936416625977
1701864974910926800,11.1849267578125,2.7269206047058105,-8.260921478271484,-5.1681976318359375
1701864974920520200,11.194520263671874,2.7942185401916504,-8.28006362915039,-5.115555763244629
1701864974930112800,11.20411279296875,2.7580273151397705,-8.217850685119629,-4.864010334014893
1701864974939704300,11.213704345703125,2.7269206047058105,-8.189136505126953,-4.76829719543457
1701864974949297000,11.223296875,2.691028118133545,-8.253742218017578,-4.722833633422852
1701864974958890200,11.23289013671875,2.6264219284057617,-8.36411190032959,-4.672584533691406
1701864974968482800,11.24248291015625,2.6096723079681396,-8.462217330932617,-4.639084815979004
1701864974978074600,11.25207470703125,2.6001009941101074,-8.505288124084473,-4.741976261138916
1701864974987667200,11.261667236328124,2.5761725902557373,-8.548358917236328,-4.629513740539551
1701864974997260500,11.271260498046875,2.635993242263794,-8.553144454956055,-4.6510491371154785
1701864975006853000,11.28085302734375,2.6575286388397217,-8.61057186126709,-4.658227443695068
1701864975016445000,11.29044482421875,2.724527597427368,-8.622536659240723,-4.6438703536987305
1701864975026037500,11.30003759765625,2.7197420597076416,-8.6033935546875,-4.60558557510376
1701864975035630800,11.309630859375,2.683849811553955,-8.562715530395508,-4.576871395111084
1701864975045223400,11.319223388671874,2.6240291595458984,-8.232207298278809,-4.409074783325195
1701864975054815000,11.32881494140625,2.6862425804138184,-8.550751686096191,-4.686941146850586
1701864975064407600,11.338407470703125,2.6192433834075928,-8.531609535217285,-4.629513740539551
1701864975074001000,11.3480009765625,2.5713870525360107,-8.29442024230957,-4.665405750274658
1701864975083593500,11.357593505859375,2.557030200958252,-8.141280174255371,-4.746761798858643
1701864975093185300,11.367185302734375,2.5307090282440186,-8.131709098815918,-4.734797954559326
1701864975102777900,11.37677783203125,2.511566400527954,-8.138887405395508,-4.7371907234191895
1701864975112371200,11.38637109375,2.4756741523742676,-8.112565994262695,-4.6989054679870605
1701864975121963800,11.3959638671875,2.4421746730804443,-8.067102432250977,-4.672584533691406
1701864975131555600,11.4055556640625,2.4134607315063477,-8.026424407958984,-4.663012981414795
1701864975141148200,11.415148193359375,2.3967108726501465,-8.024031639099121,-4.703691005706787
1701864975150741500,11.424741455078125,2.3823540210723877,-8.06949520111084,-4.718048095703125
1701864975160334000,11.434333984375,2.401496648788452,-8.129315376281738,-4.751547336578369
1701864975169925600,11.443925537109376,2.4278175830841064,-8.222636222839355,-4.7611188888549805
1701864975179518200,11.453518310546874,2.4445674419403076,-8.28006362915039,-4.718048095703125
1701864975189111600,11.463111572265625,2.470888376235962,-8.28724193572998,-4.679762840270996
1701864975198704000,11.4727041015625,2.478066921234131,-8.304290771484375,-4.639084815979004
1701864975208296000,11.4822958984375,2.509173631668091,-8.311469078063965,-4.636692047119141
1701864975217888500,11.491888427734375,2.5689942836761475,-8.344968795776367,-4.636692047119141
1701864975227481900,11.50148193359375,2.6072793006896973,-8.361719131469727,-4.663012981414795
1701864975237074400,11.511074462890624,2.6312077045440674,-8.328219413757324,-4.682155609130859
1701864975246666200,11.520666259765624,2.6503500938415527,-8.304290771484375,-4.703691005706787
1701864975256258800,11.5302587890625,2.590529680252075,-8.284849166870117,-4.689334392547607
1701864975265852200,11.53985205078125,2.5546371936798096,-8.256134986877441,-4.663012981414795
1701864975275444700,11.54944482421875,2.540280342102051,-8.241778373718262,-4.660620212554932
1701864975285036300,11.559036376953125,2.5283162593841553,-8.220243453979492,-4.6510491371154785
1701864975294628900,11.56862890625,2.5594229698181152,-8.260921478271484,-4.682155609130859
1701864975304222200,11.57822216796875,2.6096723079681396,-8.33300495147705,-4.76829719543457
1701864975313814800,11.587814697265625,2.6479573249816895,-8.402397155761719,-4.8568315505981445
1701864975323406600,11.597406494140625,2.5929224491119385,-8.493324279785156,-4.9501519203186035
1701864975332999200,11.606999267578125,2.5043880939483643,-8.62732219696045,-5.062614440917969
1701864975342592500,11.616592529296875,2.449352979660034,-8.739784240722656,-5.141876697540283
1701864975352185000,11.62618505859375,2.2459630966186523,-8.840283393859863,-5.158626556396484
1701864975361777000,11.63577685546875,2.6096723079681396,-8.742177963256836,-5.182554721832275
1701864975371369500,11.645369384765624,2.265105724334717,-8.70628547668457,-5.019543647766113
1701864975380962800,11.654962890625,2.2794625759124756,-8.823533058166504,-5.149055004119873
1701864975390555400,11.664555419921875,2.135594129562378,-8.816354751586914,-4.976472854614258
1701864975400147000,11.67414697265625,2.1475582122802734,-8.658429145812988,-5.026721954345703
1701864975409739500,11.683739501953125,2.2531416416168213,-8.617751121520996,-5.105984210968018
1701864975419332900,11.693332763671876,2.289033889770508,-8.617751121520996,-5.1442694664001465
1701864975428925400,11.702925537109374,2.377568483352661,-8.545966148376465,-5.14666223526001
1701864975438517200,11.712517333984374,2.4661028385162354,-8.342576026916504,-5.2375898361206055
1701864975448109800,11.72210986328125,2.669492721557617,-8.071887969970703,-5.402694225311279
1701864975457703200,11.731703125,2.3823540210723877,-8.383254051208496,-5.057828903198242
1701864975467295700,11.741295654296875,2.274677038192749,-8.440681457519531,-5.029115200042725
1701864975476887300,11.75088720703125,2.073380708694458,-8.58903694152832,-4.911866664886475
1701864975486480100,11.760480224609376,1.9441684484481812,-8.6967134475708,-4.847260475158691
1701864975496073500,11.770073486328124,1.9226330518722534,-8.715856552124023,-4.847260475158691
1701864975505666000,11.779666015625,1.9920248985290527,-8.562715530395508,-4.883152961730957
1701864975515257600,11.789257568359375,2.0829520225524902,-8.38564682006836,-4.931009292602539
1701864975524850200,11.79885009765625,2.183450698852539,-8.318648338317871,-5.021936416625977
1701864975534443500,11.808443603515625,2.241177558898926,-8.275278091430664,-5.1203413009643555
1701864975544036000,11.8180361328125,2.2938196659088135,-8.225028991699219,-5.218447208404541
1701864975553628000,11.8276279296875,2.2722842693328857,-8.165207862854004,-5.235197067260742
1701864975563220500,11.837220458984374,2.135594129562378,-8.227421760559082,-5.074578762054443
1701864975572813800,11.846813720703125,2.025524377822876,-8.143672943115234,-4.986044406890869
1701864975582406400,11.856406494140625,1.9465612173080444,-8.112565994262695,-4.868795871734619
1701864975591998200,11.865998291015625,2.042274236679077,-8.117351531982422,-4.88554573059082
1701864975601590800,11.8755908203125,2.0374884605407715,-8.131709098815918,-4.89990234375
1701864975611184000,11.88518408203125,2.080559253692627,-8.251349449157715,-4.959722995758057
1701864975620776400,11.8947763671875,2.257927179336548,-8.158029556274414,-5.137091159820557
1701864975630368300,11.9043681640625,2.2555344104766846,-8.141280174255371,-5.211268424987793
1701864975639960800,11.9139609375,2.2459630966186523,-8.16999340057373,-5.225625514984131
1701864975649554200,11.92355419921875,2.353640079498291,-8.35453987121582,-5.225625514984131
1701864975659146800,11.933146728515625,2.121237277984619,-8.28724193572998,-5.101198673248291
1701864975668738600,11.942738525390626,2.2603201866149902,-7.906783103942871,-5.232803821563721
1701864975678331100,11.9523310546875,1.8293129205703735,-8.543573379516602,-4.986044406890869
1701864975687924500,11.961924560546874,2.3751754760742188,-8.234600067138672,-5.110770225524902
1701864975697517000,11.97151708984375,2.3560330867767334,-7.674380302429199,-5.362016677856445
1701864975707108900,11.98110888671875,2.3751754760742188,-7.5978102684021,-5.350052356719971
1701864975716701400,11.990701416015625,2.3871397972106934,-7.715058326721191,-5.27108907699585
1701864975726294800,12.000294677734376,2.4062821865081787,-7.823034763336182,-5.247160911560059
1701864975735887400,12.009887451171876,2.289033889770508,-8.275278091430664,-5.007579803466797
1701864975745479000,12.01947900390625,2.1786649227142334,-8.196314811706543,-5.156233787536621
1701864975755071500,12.029071533203124,2.1164517402648926,-8.277670860290527,-5.1753764152526855
1701864975764664800,12.038664794921875,2.11405873298645,-8.37846851348877,-5.156233787536621
1701864975774257400,12.04825732421875,2.166700839996338,-8.239385604858398,-5.184947490692139
1701864975783849200,12.05784912109375,2.152343988418579,-7.913961887359619,-5.235197067260742
1701864975793441800,12.06744189453125,2.1379871368408203,-8.08385181427002,-4.916652202606201
1701864975803035100,12.07703515625,2.190629243850708,-8.031209945678711,-4.861617565155029
1701864975812627700,12.086627685546874,2.1475582122802734,-7.5667033195495605,-4.880760192871094
1701864975822219300,12.09621923828125,2.5761725902557373,-7.585845947265625,-5.163412094116211
1701864975831812000,12.10581201171875,2.518744945526123,-7.870891094207764,-4.988437175750732
1701864975841405400,12.115405517578125,2.652743101119995,-7.980960845947266,-4.94775915145874
1701864975850997800,12.124997802734375,2.590529680252075,-7.945068359375,-5.005186557769775
1701864975860589600,12.134589599609376,2.3488545417785645,-8.081459045410156,-4.875974178314209
1701864975870182100,12.14418212890625,2.3105692863464355,-8.227421760559082,-4.842474937438965
1701864975879775500,12.153775390625,2.6168506145477295,-8.376075744628906,-5.029115200042725
1701864975889368000,12.1633681640625,2.142772674560547,-9.000901222229004,-4.887938499450684
1701864975898960000,12.1729599609375,2.0470597743988037,-9.266505241394043,-4.931009292602539
1701864975908552400,12.182552490234375,2.0159530639648438,-9.266505241394043,-5.000401020050049
1701864975918145800,12.192145751953126,1.9202401638031006,-9.1085786819458,-4.969294548034668
1701864975927738400,12.20173828125,1.994417667388916,-8.84506893157959,-4.971687316894531
1701864975937330200,12.211330078125,2.2531416416168213,-8.512466430664062,-5.134698390960693
1701864975946922800,12.2209228515625,2.5522444248199463,-8.131709098815918,-5.438586711883545
1701864975956516000,12.23051611328125,2.837289333343506,-7.8302130699157715,-5.579763412475586
1701864975966108700,12.240108642578125,2.8636105060577393,-7.703094482421875,-5.630012512207031
1701864975975700200,12.2497001953125,2.7484560012817383,-7.976175308227539,-5.457729339599609
1701864975985292800,12.259292724609375,2.557030200958252,-8.289634704589844,-5.299803256988525
1701864975994886100,12.26888623046875,2.370389938354492,-8.36411190032959,-5.20169734954834
1701864976004478700,12.278478759765624,2.2531416416168213,-8.325826644897461,-5.13948392868042
1701864976014070500,12.288070556640625,2.2292134761810303,-8.095816612243652,-5.129912853240967
1701864976023663000,12.2976630859375,2.2866411209106445,-7.909176349639893,-5.153841018676758
1701864976033256400,12.30725634765625,2.3512473106384277,-7.81346321105957,-5.062614440917969
1701864976042849000,12.31684912109375,2.336890459060669,-7.973782539367676,-4.959722995758057
1701864976052440600,12.326440673828126,2.2292134761810303,-8.035995483398438,-4.935794830322266
1701864976062033400,12.336033447265624,2.408675193786621,-8.244171142578125,-4.9501519203186035
1701864976071626800,12.345626708984375,2.590529680252075,-8.318648338317871,-5.182554721832275
1701864976081219000,12.355218994140625,2.6336004734039307,-8.356932640075684,-5.223232746124268
1701864976090811000,12.364810791015625,2.5953152179718018,-8.239385604858398,-5.189733028411865
1701864976100403500,12.374403564453125,2.540280342102051,-8.012067794799805,-5.14666223526001
1701864976109996800,12.383996826171876,2.557030200958252,-7.811070442199707,-5.247160911560059
1701864976119589400,12.39358935546875,2.439781904220581,-7.600203037261963,-5.187340259552002
1701864976129181200,12.40318115234375,2.408675193786621,-7.528418064117432,-5.27108907699585
