time,seconds_elapsed,z,y,x
1697665024198123500,0.11212353515625,0,0,0
1697665024207714600,0.121714599609375,0,0,0
1697665024217304800,0.131304931640625,-0.0026879310607910156,-0.07157135009765625,0.055636078119277954
1697665024226896000,0.140895751953125,0.03251314163208008,-0.04066610336303711,-0.02016112208366394
1697665024236487700,0.15048779296875,0.025101661682128906,-0.05296802520751953,-0.08710747957229614
1697665024246078700,0.16007861328125,0.018683910369873047,-0.0795588493347168,-0.034032583236694336
1697665024255669000,0.1696689453125,-0.0224151611328125,-0.07062864303588867,-0.06174078583717346
1697665024265260000,0.179260009765625,-0.07368707656860352,-0.09292936325073242,-0.009215295314788818
1697665024274851800,0.188851806640625,-0.00815439224243164,-0.10089683532714844,0.053489118814468384
1697665024284443000,0.19844287109375,0.012729644775390625,-0.0789942741394043,0.0000890493392944336
1697665024294033200,0.208033203125,-0.05514669418334961,-0.029666423797607422,-0.024920642375946045
1697665024303624200,0.217624267578125,-0.055316925048828125,-0.058377742767333984,0.0010528564453125
1697665024313216000,0.227216064453125,-0.07294034957885742,-0.08613443374633789,0.02085477113723755
1697665024322807000,0.23680712890625,0.02330923080444336,-0.2942991256713867,0.12000918388366699
1697665024332397300,0.246397216796875,-0.06324529647827148,-0.015558719635009766,-0.2564483880996704
1697665024341988000,0.255988037109375,0.008191108703613281,0.00040721893310546875,-0.22459538280963898
1697665024351580200,0.265580078125,0.15429258346557617,-0.21844053268432617,-0.01663145422935486
1697665024361171000,0.2751708984375,0.2408609390258789,-0.40736818313598633,0.28244549036026
1697665024370761200,0.28476123046875,0.2931232452392578,-0.46611738204956055,0.34392213821411133
1697665024380352300,0.294352294921875,0.18802881240844727,-0.06769847869873047,0.06329771876335144
1697665024389944000,0.303944091796875,0.24880027770996094,-0.03986167907714844,0.03402036428451538
1697665024399535000,0.31353515625,0.15086984634399414,0.17561006546020508,-0.3908144235610962
1697665024409125400,0.32312548828125,-0.11136722564697266,0.45308971405029297,-0.8301660418510437
1697665024418716400,0.33271630859375,-0.1683335304260254,-0.20513343811035156,-0.14662835001945496
1697665024428308200,0.34230810546875,-0.2984328269958496,-0.19703292846679688,0.001376807689666748
1697665024437899300,0.351899169921875,-0.3871297836303711,0.0650782585144043,-0.11006201803684235
1697665024447489500,0.361489501953125,-0.4304938316345215,0.12424373626708984,-0.09771645069122314
1697665024457080600,0.37108056640625,-0.4937734603881836,0.09969043731689453,-0.050321802496910095
1697665024466672400,0.38067236328125,-0.4964594841003418,0.15196895599365234,-0.03408040106296539
1697665024476263400,0.390263427734375,-0.5146894454956055,0.16309738159179688,0.06426331400871277
1697665024485853700,0.399853759765625,-0.23675823211669922,0.13605833053588867,0.11260327696800232
1697665024495444700,0.40944482421875,-0.12098884582519531,0.2579050064086914,-0.06935557723045349
1697665024505036500,0.41903662109375,0.031993865966796875,0.09860706329345703,-0.08667822182178497
1697665024514627600,0.428627685546875,0.2573385238647461,-0.13250207901000977,0.04368540644645691
1697665024524219000,0.438218994140625,0.3242068290710449,-0.020916461944580078,0.0020330846309661865
1697665024533808600,0.44780859375,0.22354364395141602,-0.06486272811889648,0.058391422033309937
1697665024543400400,0.457400390625,0.2305750846862793,-0.08146142959594727,0.38643503189086914
1697665024552991500,0.466991455078125,0.2102189064025879,-0.09046268463134766,0.2705039381980896
1697665024562581800,0.476581787109375,0.15766572952270508,-1.4837589263916016,2.014612913131714
1697665024572172800,0.4861728515625,0.3508458137512207,-0.6061677932739258,1.1375393867492676
1697665024581764600,0.4957646484375,0.6711368560791016,-0.21434879302978516,0.15906089544296265
1697665024591355600,0.505355712890625,0.5285615921020508,-0.4134383201599121,0.20288264751434326
1697665024600946000,0.51494580078125,-0.053647518157958984,-0.45688629150390625,0.3821619749069214
1697665024610537000,0.524536865234375,-0.6769766807556152,-0.5494418144226074,0.7177367210388184
1697665024620128800,0.534128662109375,-1.4083118438720703,-0.7819199562072754,1.1079909801483154
1697665024629719800,0.5437197265625,-1.951667070388794,-1.1172113418579102,1.478529691696167
1697665024639310000,0.55331005859375,-2.3878519535064697,-1.4662351608276367,1.781675100326538
1697665024648901000,0.562901123046875,-2.750699758529663,-1.6391806602478027,2.1555612087249756
1697665024658493000,0.572492919921875,-2.918705463409424,-1.625093936920166,2.4297022819519043
1697665024668084000,0.582083984375,-2.689105749130249,-1.5219378471374512,2.362075090408325
1697665024677674200,0.59167431640625,-1.858121395111084,-0.9945626258850098,1.660325050354004
1697665024687265000,0.60126513671875,-0.28896427154541016,-0.1336503028869629,0.38811659812927246
1697665024696857000,0.610857177734375,1.2087392807006836,0.5376911163330078,-1.0649974346160889
1697665024706448100,0.6204482421875,1.8068556785583496,0.7572321891784668,-1.8447637557983398
1697665024716038100,0.6300380859375,2.2016520500183105,0.8326835632324219,-2.0490164756774902
1697665024725629400,0.63962939453125,2.3186216354370117,0.7664237022399902,-1.8227295875549316
1697665024735221200,0.64922119140625,2.816741466522217,0.7201943397521973,-1.6435267925262451
1697665024744812000,0.65881201171875,3.3954524993896484,0.9448027610778809,-1.5628083944320679
1697665024754402300,0.66840234375,3.459825038909912,1.0804858207702637,-1.60762357711792
1697665024763993600,0.67799365234375,3.193610191345215,1.0617523193359375,-1.5796412229537964
1697665024773585400,0.68758544921875,2.550215721130371,1.2988042831420898,-1.8188203573226929
1697665024783176200,0.69717626953125,1.9282879829406738,1.9793386459350586,-2.9347984790802
1697665024792766500,0.706766357421875,1.0875859260559082,1.7538762092590332,-2.745863914489746
1697665024802357800,0.716357666015625,0.1355738639831543,0.12042474746704102,-0.4199720621109009
1697665024811949300,0.72594921875,0.05044412612915039,0.1884613037109375,0.014692142605781555
1697665024821540400,0.735540283203125,0.533787727355957,0.5852866172790527,-0.5477370023727417
1697665024831130600,0.745130615234375,0.8177876472473145,0.14336204528808594,-0.00033274292945861816
1697665024840721700,0.7547216796875,1.061380386352539,-0.11874866485595703,0.6629115343093872
1697665024850313500,0.7643134765625,1.5019049644470215,-0.002140522003173828,0.5413581132888794
1697665024859904500,0.773904541015625,1.644728183746338,0.054676055908203125,0.3694317638874054
1697665024869494800,0.783494873046875,1.3944916725158691,0.05546426773071289,0.4418218433856964
1697665024879085800,0.7930859375,1.411755084991455,0.14107990264892578,0.3639768362045288
1697665024888677600,0.802677734375,1.2187557220458984,0.1917729377746582,0.1743628978729248
1697665024898268700,0.8122685546875,0.9591970443725586,0.17119359970092773,0.11465457081794739
1697665024907859000,0.82185888671875,0.6965012550354004,0.22809267044067383,0.1950048804283142
1697665024917450000,0.831449951171875,0.42934560775756836,0.40305471420288086,0.3638594150543213
1697665024927041800,0.841041748046875,0.26519775390625,0.4195547103881836,0.6373476386070251
1697665024936632800,0.8506328125,0.3961009979248047,0.3651738166809082,0.7007372379302979
1697665024946223000,0.86022314453125,0.3074073791503906,0.3144655227661133,0.7503210306167603
1697665024955814100,0.869814208984375,0.19042348861694336,0.3175206184387207,0.7754982113838196
1697665024965406000,0.879406005859375,-0.12380313873291016,0.2806720733642578,0.701939582824707
1697665024974997000,0.8889970703125,-0.1271224021911621,0.21429061889648438,0.3926469087600708
1697665024984587300,0.898587158203125,0.08034467697143555,0.1064310073852539,-0.07845325767993927
1697665024994178300,0.90817822265625,0.22515153884887695,-0.10506296157836914,-0.3105825185775757
1697665025003770000,0.91777001953125,0.2663083076477051,-0.3159518241882324,-0.6020020842552185
1697665025013361200,0.927361083984375,0.40180301666259766,-0.49363136291503906,-0.9886673092842102
1697665025022951400,0.936951416015625,0.47929811477661133,-0.7593717575073242,-1.1104836463928223
1697665025032542500,0.94654248046875,0.9135947227478027,-0.6417059898376465,-0.8677996397018433
1697665025042134300,0.95613427734375,1.2317876815795898,-0.4055972099304199,-0.5809296369552612
1697665025051725300,0.965725341796875,0.9514269828796387,-0.45609378814697266,-0.30116090178489685
1697665025061315600,0.975315673828125,0.4799332618713379,-0.3716311454772949,-0.538759708404541
1697665025070906600,0.98490673828125,0.29839372634887695,-0.3082442283630371,-0.5385173559188843
1697665025080498400,0.99449853515625,0.18953371047973633,-0.2785358428955078,-0.617307186126709
1697665025090089500,1.00408935546875,-0.09836339950561523,-0.17050790786743164,-0.6104530692100525
1697665025099679700,1.0136796875,-0.27419233322143555,-0.09627103805541992,-0.42216187715530396
1697665025109270800,1.023270751953125,-0.29111671447753906,-0.029790878295898438,-0.19582104682922363
1697665025118862600,1.032862548828125,-0.20413637161254883,0.0802297592163086,0.039952993392944336
1697665025128453600,1.04245361328125,-0.10695075988769531,0.2051239013671875,0.014254629611968994
1697665025138044000,1.0520439453125,-0.13675928115844727,0.1022496223449707,0.3190685510635376
1697665025147635000,1.061635009765625,0.011906623840332031,0.13768863677978516,0.45444244146347046
1697665025157226800,1.071226806640625,0.13858985900878906,0.25273942947387695,0.4793296456336975
1697665025166817800,1.08081787109375,0.21521997451782227,0.3018789291381836,0.5881090760231018
1697665025176408000,1.090407958984375,0.2761211395263672,0.37514829635620117,0.5966793894767761
1697665025185999000,1.0999990234375,0.2937307357788086,0.37662267684936523,0.6153088808059692
1697665025195591000,1.1095908203125,0.3017568588256836,0.4182605743408203,0.6536538004875183
1697665025205182000,1.119181884765625,0.2672739028930664,0.41170406341552734,0.578762412071228
1697665025214772200,1.128772216796875,0.26187562942504883,0.3194851875305176,0.5518219470977783
1697665025224363300,1.13836328125,0.2520904541015625,0.35845136642456055,0.37782931327819824
1697665025233955000,1.147955078125,0.2664518356323242,0.38274574279785156,0.3468574285507202
1697665025243546000,1.157546142578125,0.3239564895629883,0.35186100006103516,0.4416092038154602
1697665025253136400,1.167136474609375,0.3483552932739258,0.3774557113647461,0.5471622943878174
1697665025262727400,1.1767275390625,0.4040651321411133,0.41839122772216797,0.6818495392799377
1697665025272319200,1.1863193359375,0.460263729095459,0.41704511642456055,0.7522063255310059
1697665025281910300,1.19591015625,0.54620361328125,0.3660087585449219,0.6649078130722046
1697665025291500500,1.20550048828125,0.5169363021850586,0.32056236267089844,0.41638535261154175
1697665025301091600,1.215091552734375,0.49931764602661133,0.2309422492980957,0.23914015293121338
1697665025310683400,1.224683349609375,0.4650740623474121,0.13282299041748047,0.17999881505966187
1697665025320274400,1.2342744140625,0.4333930015563965,0.049973487854003906,0.13824856281280518
1697665025329864700,1.24386474609375,0.43015193939208984,-0.0008835792541503906,0.15415316820144653
1697665025339455700,1.253455810546875,0.33390188217163086,-0.008015155792236328,0.21091705560684204
1697665025349047600,1.263047607421875,0.29466819763183594,-0.014163494110107422,0.26070475578308105
1697665025358638600,1.272638671875,0.2808046340942383,0.047464847564697266,0.3583453893661499
1697665025368228900,1.282228759765625,-0.567286491394043,0.09027481079101562,0.4003101587295532
1697665025377820000,1.29181982421875,-3.427013397216797,0.5952520370483398,0.4027736783027649
1697665025387411700,1.30141162109375,-3.017117738723755,0.5466084480285645,-0.16800284385681152
1697665025397002800,1.311002685546875,-2.5857419967651367,0.09320735931396484,-0.12477946281433105
1697665025406593000,1.320593017578125,-1.5448956489562988,-0.04083728790283203,0.13892877101898193
1697665025416184000,1.33018408203125,-0.8564662933349609,0.0706639289855957,0.5890103578567505
1697665025425775900,1.33977587890625,-0.5463733673095703,0.16914653778076172,1.1622620820999146
1697665025435367000,1.349366943359375,-0.4370865821838379,0.5569524765014648,0.9873515367507935
1697665025444957200,1.358957275390625,-0.39136409759521484,0.5729985237121582,0.9207454919815063
1697665025454548500,1.368548583984375,-0.15389347076416016,0.4806804656982422,0.7957571744918823
1697665025464140300,1.378140380859375,0.1530318260192871,0.4091782569885254,0.6341136693954468
1697665025473731000,1.38773095703125,0.5058631896972656,0.31787109375,0.45597827434539795
1697665025483321300,1.3973212890625,0.7069334983825684,0.2716531753540039,0.3395909070968628
1697665025492912600,1.40691259765625,0.7806034088134766,0.21167230606079102,0.2706718444824219
1697665025502504400,1.41650439453125,0.8673439025878906,0.09847402572631836,0.11023890972137451
1697665025512095200,1.42609521484375,0.7942972183227539,0.0626063346862793,0.04580998420715332
1697665025521685500,1.435685546875,0.5030288696289062,0.18457889556884766,0.20446717739105225
1697665025531276800,1.44527685546875,0.40994787216186523,0.06213188171386719,0.11740374565124512
1697665025540868600,1.45486865234375,0.3510575294494629,0.035111427307128906,-0.04738163948059082
1697665025550459400,1.46445947265625,0.19147109985351562,0.18990230560302734,0.0054732561111450195
1697665025560049700,1.474049560546875,-0.06250238418579102,0.23415231704711914,0.1306227445602417
1697665025569641000,1.483640869140625,-0.23470449447631836,0.21649932861328125,0.009632289409637451
1697665025579232800,1.493232666015625,-0.2985997200012207,0.08652877807617188,-0.0942915678024292
1697665025588823800,1.50282373046875,-0.07467508316040039,0.1265416145324707,-0.2585333585739136
1697665025598414000,1.5124140625,0.11900663375854492,0.0740656852722168,-0.20451998710632324
1697665025608005000,1.522005126953125,0.21311378479003906,-0.11959648132324219,-0.11697554588317871
1697665025617597000,1.531596923828125,0.18795299530029297,-0.047894954681396484,-0.2294929027557373
1697665025627188000,1.54118798828125,0.092010498046875,-0.2074441909790039,-0.30959200859069824
1697665025636778200,1.5507783203125,-0.014659881591796875,-0.2234196662902832,-0.3986489176750183
1697665025646369300,1.560369384765625,-0.06048154830932617,-0.30602216720581055,-0.5104324221611023
1697665025655961000,1.569961181640625,-0.09985733032226562,-0.23413753509521484,-0.5848904848098755
1697665025665552100,1.57955224609375,-0.19733190536499023,-0.03932905197143555,-0.3780640959739685
1697665025675142400,1.589142333984375,-0.46336889266967773,-0.40394020080566406,-0.24339693784713745
1697665025684733400,1.5987333984375,-0.8142871856689453,-0.26097679138183594,-0.6475498676300049
1697665025694325200,1.6083251953125,-0.9230213165283203,-0.09958362579345703,-0.43169665336608887
1697665025703916300,1.617916259765625,-1.1972708702087402,-0.01111745834350586,-0.2812463045120239
1697665025713506600,1.627506591796875,-1.3834328651428223,-0.015148639678955078,-0.0047689080238342285
1697665025723097600,1.63709765625,-1.2178921699523926,0.1007075309753418,0.12302643060684204
1697665025732689400,1.646689453125,-1.1150174140930176,0.10327386856079102,0.17081689834594727
1697665025742280400,1.656280517578125,-0.6858787536621094,-0.10251092910766602,0.18762236833572388
1697665025751870700,1.66587060546875,-0.01736164093017578,-0.12548160552978516,-0.01790022850036621
1697665025761461800,1.675461669921875,0.4500246047973633,-0.30548810958862305,0.011181890964508057
1697665025771053600,1.685053466796875,0.7238831520080566,-0.39336633682250977,0.06718146800994873
1697665025780644600,1.69464453125,0.9060578346252441,-0.42609596252441406,-0.04259973764419556
1697665025790235000,1.70423486328125,0.9277839660644531,-0.5013847351074219,-0.0962146520614624
1697665025799826200,1.713826171875,0.6141233444213867,-0.462130069732666,-0.3555637300014496
1697665025809418000,1.72341796875,0.24524545669555664,-0.43009042739868164,-0.5880259275436401
1697665025819008800,1.7330087890625,0.13657760620117188,-0.3917884826660156,-0.7968742251396179
1697665025828599000,1.74259912109375,-0.002399444580078125,-0.4988064765930176,-0.6673724055290222
1697665025838190300,1.7521904296875,-0.0755453109741211,-0.48194122314453125,-0.5354586839675903
1697665025847782100,1.7617822265625,-0.0934596061706543,-0.3839445114135742,-0.5279744863510132
1697665025857373200,1.771373291015625,-0.14910316467285156,-0.3601508140563965,-0.5064716935157776
1697665025866963500,1.78096337890625,0.0802922248840332,-0.3018350601196289,-0.5791038870811462
1697665025876554500,1.790554443359375,0.33562326431274414,-0.3685574531555176,-0.5176883339881897
1697665025886146300,1.800146240234375,0.5679378509521484,-0.3967719078063965,-0.33811700344085693
1697665025895737300,1.8097373046875,0.7331399917602539,-0.38306474685668945,-0.11929589509963989
1697665025905327600,1.81932763671875,0.767054557800293,-0.22013187408447266,-0.1721828579902649
1697665025914918700,1.828918701171875,0.5479640960693359,-0.0697474479675293,-0.42664265632629395
1697665025924510500,1.838510498046875,0.3504643440246582,-0.24835968017578125,-0.3047395646572113
1697665025934101500,1.8481015625,0.2518467903137207,-0.30289268493652344,-0.17321515083312988
1697665025943691800,1.85769189453125,0.1507415771484375,-0.19708538055419922,-0.22607800364494324
1697665025953282800,1.86728271484375,0.23093414306640625,-0.1819291114807129,-0.16860264539718628
1697665025962874600,1.87687451171875,0.1421041488647461,-0.13870859146118164,-0.13855159282684326
1697665025972465700,1.886465576171875,0.08699226379394531,-0.42627573013305664,-0.6049999594688416
1697665025982056000,1.896055908203125,0.010982036590576172,0.025846481323242188,-0.2641791105270386
1697665025991647200,1.905647216796875,0.005279541015625,0.16492319107055664,0.17628031969070435
1697665026001239000,1.915239013671875,-0.0402379035949707,-0.1311054229736328,0.3290620446205139
1697665026010829800,1.924829833984375,0.036649227142333984,-0.05479860305786133,0.40433764457702637
1697665026020420000,1.934420166015625,0.12834787368774414,0.08946943283081055,0.5283746719360352
1697665026030011400,1.944011474609375,-0.025524616241455078,0.02106952667236328,0.3871409296989441
1697665026039603200,1.953603271484375,-0.2196521759033203,0.1442270278930664,0.2153441309928894
1697665026049194200,1.9631943359375,-0.3354053497314453,0.29390430450439453,0.4532396197319031
1697665026058784500,1.972784423828125,-0.4476809501647949,0.2012796401977539,0.5415740013122559
1697665026068375600,1.98237548828125,-0.47367286682128906,0.2327728271484375,0.579310417175293
1697665026077967400,1.99196728515625,-0.4381389617919922,0.22902536392211914,0.5088266134262085
1697665026087558400,2.001558349609375,-0.5086359977722168,0.19327831268310547,0.32956498861312866
1697665026097148700,2.011148681640625,-0.47918176651000977,0.17989778518676758,0.2178214192390442
1697665026106739700,2.02073974609375,-0.2799038887023926,0.10883903503417969,0.18441730737686157
1697665026116331500,2.03033154296875,-0.07949686050415039,0.08852720260620117,0.21278196573257446
1697665026125922600,2.039922607421875,0.06595611572265625,0.04832744598388672,0.29653000831604004
1697665026135512800,2.049512939453125,0.20052146911621094,0.039725303649902344,0.2973062992095947
1697665026145104000,2.059103759765625,0.2508082389831543,0.03830909729003906,0.27235788106918335
1697665026154696000,2.068696044921875,0.24100685119628906,0.044164180755615234,0.17804372310638428
1697665026164286700,2.07828662109375,0.19488954544067383,0.029097557067871094,0.09741729497909546
1697665026173877000,2.087876953125,0.16231632232666016,0.029394149780273438,0.015297114849090576
1697665026183468300,2.09746826171875,0.08070182800292969,0.03603029251098633,-0.008171439170837402
1697665026193060000,2.10706005859375,-0.021691322326660156,0.0821847915649414,-0.015132606029510498
1697665026202651100,2.116651123046875,-0.07119178771972656,0.11884927749633789,0.03673577308654785
1697665026212241400,2.126241455078125,-0.057198524475097656,0.15119600296020508,0.059554994106292725
1697665026221832400,2.13583251953125,0.009852886199951172,0.13922452926635742,0.18809455633163452
1697665026231424300,2.14542431640625,0.07058143615722656,0.13745403289794922,0.2201002836227417
1697665026241015300,2.155015380859375,0.08741331100463867,0.1174778938293457,0.22311317920684814
1697665026250605600,2.16460546875,0.18152189254760742,0.11923742294311523,0.19009935855865479
1697665026260196600,2.174196533203125,0.3053264617919922,0.08734607696533203,0.10970878601074219
1697665026269788400,2.183788330078125,0.35790538787841797,0.03549051284790039,0.08971506357192993
1697665026279379500,2.19337939453125,0.4423809051513672,-0.022619247436523438,0.050776004791259766
1697665026288969700,2.2029697265625,0.47634315490722656,-0.054418087005615234,-0.06209629774093628
1697665026298560800,2.212560791015625,0.4652419090270996,-0.07904434204101562,-0.007845818996429443
1697665026308152800,2.22215283203125,0.36725425720214844,-0.0588226318359375,0.0636444091796875
1697665026317743600,2.23174365234375,0.2395772933959961,-0.026642799377441406,0.1126062273979187
1697665026327334000,2.241333984375,0.09827232360839844,-0.019283771514892578,0.09650635719299316
1697665026336925200,2.25092529296875,-0.05991077423095703,0.009694576263427734,0.07035648822784424
1697665026346517000,2.26051708984375,-0.16472816467285156,0.015872955322265625,0.07754486799240112
1697665026356108000,2.27010791015625,-0.23621320724487305,-0.018943309783935547,0.08314692974090576
1697665026365698300,2.2796982421875,-0.3083624839782715,-0.03712320327758789,0.04342305660247803
1697665026375289300,2.289289306640625,-0.30841541290283203,-0.034044742584228516,0.060979247093200684
1697665026384881200,2.298881103515625,-0.27725887298583984,-0.04815196990966797,0.06944185495376587
1697665026394472200,2.30847216796875,-0.226654052734375,-0.0915060043334961,0.028782308101654053
1697665026404062500,2.3180625,-0.18209409713745117,-0.11484289169311523,-0.033604562282562256
1697665026413653500,2.327653564453125,-0.09341716766357422,-0.10724782943725586,-0.04398775100708008
1697665026423245600,2.33724560546875,-0.012373924255371094,-0.12183427810668945,-0.027596116065979004
1697665026432836400,2.34683642578125,-0.03504228591918945,-0.07853460311889648,-0.02507483959197998
1697665026442426600,2.356426513671875,-0.12731647491455078,-0.024814128875732422,-0.014251768589019775
1697665026452018000,2.366017822265625,-0.2205042839050293,-0.03306150436401367,-0.04157763719558716
1697665026461609700,2.375609619140625,-0.31297874450683594,-0.05438852310180664,-0.06805756688117981
1697665026471200800,2.38520068359375,-0.37692689895629883,-0.07634973526000977,-0.13350892066955566
1697665026480791000,2.394791015625,-0.3917274475097656,-0.09174013137817383,-0.22115781903266907
1697665026490382000,2.404382080078125,-0.33667945861816406,-0.11511993408203125,-0.22526857256889343
1697665026499974000,2.413973876953125,-0.24055051803588867,-0.11646080017089844,-0.16855856776237488
1697665026509565000,2.42356494140625,-0.11980247497558594,-0.09219694137573242,-0.08275678753852844
1697665026519155200,2.4331552734375,-0.01179647445678711,-0.06472921371459961,-0.025059998035430908
1697665026528746200,2.442746337890625,0.09099864959716797,-0.03672933578491211,0.021126896142959595
1697665026538338000,2.452338134765625,0.08716964721679688,0.0179290771484375,0.07094436883926392
1697665026547929000,2.46192919921875,0.07947015762329102,0.05431032180786133,0.08723798394203186
1697665026557519400,2.471519287109375,0.09826993942260742,0.061252593994140625,0.12752100825309753
1697665026567110700,2.481110595703125,0.02256011962890625,0.05858469009399414,0.13565143942832947
1697665026576702500,2.490702392578125,-0.03818464279174805,0.051602840423583984,0.14294841885566711
1697665026586293500,2.50029345703125,-0.046849727630615234,0.021885395050048828,0.11882013082504272
1697665026595883800,2.5098837890625,-0.04653310775756836,0.0332341194152832,0.11771729588508606
1697665026605474800,2.519474853515625,-0.01135396957397461,0.08009099960327148,0.13480064272880554
1697665026615066600,2.529066650390625,-0.024515628814697266,0.027911663055419922,0.20067325234413147
1697665026624657700,2.53865771484375,-0.05945777893066406,0.0033130645751953125,0.14698359370231628
1697665026634248000,2.548248046875,-0.0660557746887207,-0.013288021087646484,0.06659671664237976
1697665026643839000,2.5578388671875,-0.07998847961425781,-0.015016555786132812,-0.03386044502258301
1697665026653431000,2.56743115234375,-0.06297111511230469,0.0021162033081054688,-0.07529523968696594
1697665026663021800,2.577021728515625,0.013305187225341797,-0.009905338287353516,-0.03099161386489868
1697665026672612000,2.586612060546875,0.16984796524047852,-0.0020346641540527344,0.08756262063980103
1697665026682203400,2.596203369140625,0.2503485679626465,0.043723106384277344,0.16203051805496216
1697665026691795200,2.605795166015625,0.2774524688720703,0.10997962951660156,0.24600344896316528
1697665026701386200,2.61538623046875,0.23035430908203125,0.1310257911682129,0.32320037484169006
1697665026710976500,2.6249765625,0.09727096557617188,0.14667320251464844,0.3939146101474762
1697665026720567600,2.634567626953125,-0.03160572052001953,0.19072341918945312,0.36695510149002075
1697665026730159400,2.644159423828125,-0.11879539489746094,0.1992354393005371,0.3410870432853699
1697665026739750400,2.65375048828125,-0.11753654479980469,0.19112491607666016,0.3414209485054016
1697665026749340700,2.663340576171875,-0.1658182144165039,0.23490524291992188,0.2781364619731903
1697665026758931700,2.672931640625,-0.17814970016479492,0.20511531829833984,0.2499150037765503
1697665026768523800,2.682523681640625,-0.2614741325378418,0.19524669647216797,0.28675636649131775
1697665026778114600,2.692114501953125,-0.4132981300354004,0.22497892379760742,0.236404150724411
1697665026787705000,2.701705078125,-0.38763427734375,0.2418837547302246,0.18199533224105835
1697665026797296000,2.711296142578125,-0.38228559494018555,0.2314000129699707,0.1384197473526001
1697665026806888000,2.720887939453125,-0.3729710578918457,0.20302104949951172,-0.013328760862350464
1697665026816479000,2.73047900390625,-0.3049960136413574,0.18471860885620117,-0.07090574502944946
1697665026826069200,2.7400693359375,-0.2990078926086426,0.15009593963623047,-0.1580936312675476
1697665026835660300,2.749660400390625,-0.30701446533203125,0.1113591194152832,-0.18566465377807617
1697665026845252000,2.759252197265625,-0.3641853332519531,0.10164308547973633,-0.19950325787067413
1697665026854843400,2.768843505859375,-0.2600846290588379,0.04028511047363281,-0.22950558364391327
1697665026864433400,2.778433349609375,-0.1336197853088379,-0.004118442535400391,-0.19867074489593506
1697665026874024700,2.788024658203125,0.09291219711303711,-0.11722660064697266,-0.1254139393568039
1697665026883616500,2.797616455078125,0.5209717750549316,-0.17296743392944336,0.036442458629608154
1697665026893207600,2.80720751953125,1.3814516067504883,-0.16197586059570312,0.3877650499343872
1697665026902797800,2.8167978515625,1.9620890617370605,-0.31046199798583984,0.9689575433731079
1697665026912388900,2.826388916015625,1.6670136451721191,-0.08249807357788086,0.8217819929122925
1697665026921980700,2.835980712890625,0.7929434776306152,0.23302173614501953,0.4931648075580597
1697665026931571700,2.84557177734375,0.36463356018066406,0.08681535720825195,1.5468870401382446
1697665026941162000,2.855161865234375,-0.17707300186157227,-0.020540237426757812,1.1357064247131348
1697665026950753300,2.864753173828125,-1.2193913459777832,0.6093688011169434,-0.4652736186981201
1697665026960345000,2.874344970703125,-1.9435253143310547,0.5074291229248047,-0.23369598388671875
1697665026969936100,2.88393603515625,-2.142770290374756,0.654698371887207,-0.018038570880889893
1697665026979526400,2.8935263671875,-1.725273609161377,0.8638920783996582,-0.09134623408317566
1697665026989117400,2.903117431640625,-0.8971972465515137,0.9240574836730957,0.07224562764167786
1697665026998709200,2.912709228515625,-0.08637428283691406,1.057448387145996,0.244723379611969
1697665027008300300,2.92230029296875,1.1666407585144043,0.9081883430480957,0.17879724502563477
1697665027017890600,2.931890625,2.344595432281494,1.0937080383300781,-0.21694469451904297
1697665027027481600,2.941481689453125,3.1020007133483887,1.287890911102295,-0.9859877824783325
1697665027037073400,2.951073486328125,2.6885948181152344,0.6792631149291992,-0.7025029063224792
1697665027046664700,2.960664794921875,2.176388740539551,0.14250564575195312,-0.14923012256622314
1697665027056254700,2.970254638671875,1.6444892883300781,0.17651891708374023,0.13393056392669678
1697665027065846000,2.979845947265625,0.6731538772583008,0.5438446998596191,-0.2692371606826782
1697665027075437800,2.989437744140625,-0.03502941131591797,1.137183666229248,-1.413658857345581
1697665027085028900,2.99902880859375,-0.6280918121337891,1.5099873542785645,-2.9649908542633057
1697665027094619100,3.008619140625,-1.127981185913086,1.2440524101257324,-3.100792407989502
1697665027104210200,3.018210205078125,0.09611368179321289,-0.20294570922851562,-2.5726497173309326
1697665027113802000,3.027802001953125,3.1116280555725098,-0.46286630630493164,-6.566932201385498
1697665027123393300,3.037393310546875,3.1691226959228516,0.9307284355163574,-6.8637375831604
1697665027132983300,3.0469833984375,3.6279077529907227,0.5561814308166504,-4.671093940734863
1697665027142574600,3.05657470703125,4.439260005950928,-1.9736557006835938,-2.0604302883148193
1697665027152166400,3.06616650390625,2.968026638031006,-5.281613349914551,0.5941116809844971
1697665027161757400,3.07575732421875,0.4975900650024414,-5.936095714569092,4.0833940505981445
1697665027171347700,3.08534765625,-0.2837085723876953,-3.0772478580474854,4.999998569488525
1697665027180938800,3.094938720703125,-1.5168707370758057,-1.1336956024169922,2.5234575271606445
1697665027190530600,3.104530517578125,-2.2793853282928467,-0.9585585594177246,-2.043300151824951
1697665027200121600,3.11412158203125,-3.028562068939209,-1.5886168479919434,-5.43803596496582
1697665027209711900,3.1237119140625,-13.83596134185791,0.6195549964904785,-7.221676349639893
1697665027219303200,3.13330322265625,-9.405960083007812,0.37799596786499023,-8.859530448913574
1697665027228895000,3.14289501953125,-5.127599716186523,0.6688041687011719,-9.932287216186523
1697665027238486000,3.152486083984375,-2.061182737350464,1.478510856628418,-9.986109733581543
1697665027248076300,3.162076171875,-0.2652926445007324,2.1434855461120605,-10.059094429016113
1697665027257667300,3.171667236328125,-0.550473690032959,0.5735116004943848,-10.416436195373535
1697665027267259100,3.181259033203125,3.599538803100586,1.1273446083068848,-6.803677082061768
1697665027276850200,3.19085009765625,3.6075797080993652,0.8016953468322754,-4.629530429840088
1697665027286440400,3.2004404296875,5.353100776672363,1.1500229835510254,-1.4630756378173828
1697665027296031700,3.21003173828125,3.944216251373291,-1.1276936531066895,-0.7983980178833008
1697665027305623600,3.21962353515625,1.6234965324401855,-5.149647235870361,-2.8512370586395264
1697665027315214600,3.229214599609375,0.2372727394104004,-6.982568740844727,-5.531680107116699
1697665027324804900,3.238804931640625,0.032744407653808594,-8.144014358520508,-5.437533855438232
1697665027334396000,3.24839599609375,1.373791217803955,-9.534017562866211,-5.353870868682861
1697665027343987700,3.25798779296875,0.5785293579101562,-10.579044342041016,-6.65260648727417
1697665027353578800,3.267578857421875,-0.21491050720214844,-10.92133903503418,-7.144906520843506
1697665027363169000,3.2771689453125,0.24671053886413574,-11.123453140258789,-8.008525848388672
1697665027372760000,3.286760009765625,-0.4592628479003906,-10.92485237121582,-9.132852554321289
1697665027382352100,3.29635205078125,-0.804656982421875,-10.445623397827148,-10.327754020690918
1697665027391943200,3.305943115234375,-1.5818997621536255,-10.406261444091797,-10.521524429321289
1697665027401533400,3.315533447265625,-3.4625511169433594,-11.062265396118164,-9.233673095703125
1697665027411124500,3.32512451171875,-5.236821174621582,-11.535816192626953,-7.063917636871338
1697665027420716300,3.33471630859375,-6.683143615722656,-10.693588256835938,-5.204610824584961
1697665027430307300,3.344307373046875,-8.70101547241211,-8.786354064941406,-3.5655174255371094
1697665027439897600,3.353897705078125,-9.922138214111328,-6.296468734741211,-3.641064167022705
1697665027449488400,3.36348828125,-10.23765754699707,-1.5330355167388916,-6.185311317443848
1697665027459080200,3.373080078125,-9.320218086242676,3.3293769359588623,-9.906722068786621
1697665027468671000,3.3826708984375,-8.689077377319336,0.42331624031066895,-7.495180606842041
1697665027478261500,3.392261474609375,-12.844927787780762,-10.759712219238281,0.8637456893920898
1697665027487852500,3.4018525390625,-17.844173431396484,-19.338397979736328,13.264006614685059
1697665027497444400,3.4114443359375,-14.02040958404541,-20.93582534790039,22.061420440673828
1697665027507035400,3.421035400390625,-5.751748085021973,-17.37069320678711,18.492000579833984
1697665027516625700,3.430625732421875,-0.1390545666217804,-16.164270401000977,14.359671592712402
1697665027526216700,3.440216796875,5.992499828338623,-12.69384765625,11.544822692871094
1697665027535808800,3.449808837890625,20.100736618041992,-6.389553546905518,8.179105758666992
1697665027545399600,3.459399658203125,14.809334754943848,-4.682541847229004,8.489143371582031
1697665027554990000,3.468989990234375,16.62127685546875,-1.774239182472229,7.878081321716309
1697665027564581000,3.4785810546875,9.358830451965332,-0.8836036920547485,6.947676658630371
1697665027574173000,3.4881728515625,0.2177518606185913,-1.869476079940796,9.007899284362793
1697665027583764000,3.497763916015625,-8.044635772705078,-1.7025392055511475,11.371607780456543
1697665027593354200,3.507354248046875,-8.705753326416016,-0.04702258110046387,12.914386749267578
1697665027602945300,3.5169453125,-8.444183349609375,2.7379589080810547,9.499847412109375
1697665027612537300,3.526537353515625,-4.020331382751465,7.274754524230957,6.968449592590332
1697665027622128400,3.53612841796875,0.9156336188316345,7.028650760650635,5.264824867248535
1697665027631718700,3.54571875,-1.6452457904815674,5.152229309082031,9.32601261138916
1697665027641309700,3.555309814453125,-3.504922866821289,5.809718132019043,8.932619094848633
1697665027650901500,3.564901611328125,-9.191932678222656,5.4925713539123535,7.672869682312012
1697665027660492500,3.574492431640625,-13.404718399047852,5.017872333526611,6.4919538497924805
1697665027670082800,3.584082763671875,-15.552923202514648,4.563021183013916,6.779745101928711
1697665027679674000,3.593674072265625,-13.74429702758789,3.144649028778076,9.991084098815918
1697665027689266000,3.603265869140625,-8.893786430358887,3.6412227153778076,9.366594314575195
1697665027698857000,3.61285693359375,-6.096991539001465,2.218757390975952,6.82772159576416
1697665027708447200,3.622447265625,-3.1094913482666016,0.34630727767944336,1.9205617904663086
1697665027718038300,3.632038330078125,-1.3549864292144775,-2.285214900970459,-1.2352237701416016
1697665027727630000,3.641630126953125,1.2201429605484009,-2.5203795433044434,-2.2568392753601074
1697665027737221000,3.65122119140625,2.8948214054107666,-3.159510612487793,-2.473783016204834
1697665027746811400,3.660811279296875,5.035494804382324,-3.155306339263916,-3.043762683868408
1697665027756402700,3.670402587890625,6.8233184814453125,-3.282163619995117,-2.77988338470459
1697665027765994500,3.679994384765625,7.073906898498535,-3.3400044441223145,-1.2433881759643555
1697665027775585500,3.68958544921875,7.516551971435547,-3.600001335144043,-0.7717342376708984
1697665027785175800,3.69917578125,6.214518070220947,-3.4003939628601074,-0.3174920082092285
1697665027794766800,3.708766845703125,3.9796078205108643,-3.158010959625244,-0.24828004837036133
1697665027804359000,3.71835888671875,3.53358793258667,-1.173067569732666,-1.6148056983947754
1697665027813949700,3.72794970703125,2.70066499710083,-0.4313478469848633,-1.8329524993896484
1697665027823540000,3.7375400390625,1.0170674324035645,-0.6611237525939941,-1.1207847595214844
1697665027833131300,3.74713134765625,0.07661128044128418,-0.3259439468383789,-0.11755704879760742
1697665027842723000,3.75672314453125,-1.0083420276641846,0.24380207061767578,-0.3353462219238281
1697665027852314000,3.766314208984375,-0.8772165775299072,0.4544639587402344,-1.0660781860351562
1697665027861904400,3.775904296875,-0.2081451416015625,0.6413369178771973,-0.7815580368041992
1697665027871495400,3.785495361328125,-1.0503451824188232,0.32742834091186523,1.8251900672912598
1697665027881087500,3.79508740234375,-2.765735626220703,-0.43428707122802734,2.2634835243225098
1697665027890678500,3.804678466796875,-3.011143445968628,-0.28434276580810547,0.9271955490112305
1697665027900268800,3.814268798828125,-2.5685088634490967,-1.2198314666748047,0.13013267517089844
1697665027909859800,3.82385986328125,-1.8250577449798584,-2.7118215560913086,-0.3904085159301758
1697665027919451600,3.83345166015625,0.1883094310760498,-3.470592498779297,-1.5991973876953125
1697665027929042700,3.843042724609375,1.0523008108139038,-2.867300033569336,-2.2519712448120117
1697665027938633000,3.852633056640625,4.222458362579346,-3.6381750106811523,-1.878026008605957
1697665027948224300,3.862224365234375,3.951171636581421,-4.600854873657227,-1.3026208877563477
1697665027957816000,3.871816162109375,4.722235202789307,-4.52141809463501,-0.5374674797058105
1697665027967407000,3.881406982421875,3.8281993865966797,-4.468564510345459,0.4318370819091797
1697665027976997400,3.890997314453125,3.7137789726257324,-4.0440568923950195,-0.2373824119567871
1697665027986588400,3.90058837890625,6.098456382751465,-3.707810878753662,1.5151891708374023
1697665027996180200,3.91018017578125,5.435218334197998,-4.244088649749756,-2.094407320022583
1697665028005771300,3.919771240234375,7.755568504333496,-5.674552917480469,-3.3187026977539062
1697665028015361500,3.929361572265625,10.590338706970215,-6.015832901000977,-2.233759641647339
1697665028024952800,3.938952880859375,12.317329406738281,-6.701717376708984,-0.26491832733154297
1697665028034544600,3.948544677734375,12.577655792236328,-6.831996440887451,0.3221602439880371
1697665028044135700,3.9581357421875,11.956648826599121,-6.440230369567871,1.9528083801269531
1697665028053726000,3.967725830078125,10.763670921325684,-5.89644718170166,2.4630637168884277
1697665028063317000,3.97731689453125,10.590235710144043,-4.565935134887695,2.4856910705566406
1697665028072909000,3.986908935546875,10.27011489868164,-3.4540414810180664,2.7113513946533203
1697665028082500000,3.9965,8.791688919067383,-2.2392139434814453,4.13613224029541
1697665028092090400,4.00609033203125,6.60450553894043,-2.7082042694091797,4.091377258300781
1697665028101681400,4.015681396484375,2.520002841949463,2.355652332305908,11.769505500793457
1697665028111273200,4.025273193359375,-0.8209807872772217,0.24931907653808594,8.76836109161377
1697665028120864300,4.0348642578125,6.487459182739258,-3.680837631225586,-0.5211801528930664
1697665028130454500,4.04445458984375,8.752490997314453,-3.266177177429199,-1.1045989990234375
1697665028140045800,4.0540458984375,8.37622356414795,-4.411397933959961,1.5511474609375
1697665028149637600,4.0636376953125,5.878626346588135,-5.3158159255981445,3.188689708709717
1697665028159228700,4.073228759765625,4.603368282318115,-5.258883476257324,4.892942428588867
1697665028168819000,4.08281884765625,0.899687647819519,-3.1819849014282227,5.227638244628906
1697665028178410000,4.092409912109375,-1.882846474647522,-1.9018735885620117,2.1537258625030518
1697665028188002000,4.102001953125,-4.549229621887207,0.4476318359375,1.978940725326538
1697665028197593000,4.111593017578125,-6.220560073852539,0.1173849105834961,1.1895503997802734
1697665028207183400,4.121183349609375,-5.418115139007568,1.3892183303833008,1.786759853363037
1697665028216774400,4.1307744140625,-6.761605739593506,0.8361043930053711,2.3865139484405518
1697665028226366200,4.1403662109375,-8.18198299407959,-1.9629888534545898,-0.6033453941345215
1697665028235957500,4.14995751953125,-3.9590296745300293,-4.803495407104492,-5.0440826416015625
1697665028245547500,4.159547607421875,-2.714094638824463,-4.164350509643555,-6.4261016845703125
1697665028255138800,4.169138916015625,-1.6239597797393799,-1.5025548934936523,-1.9048959016799927
1697665028264730600,4.178730712890625,1.3311614990234375,-6.565457344055176,3.470966339111328
1697665028274321700,4.18832177734375,3.967865228652954,-7.076631546020508,0.8978710174560547
1697665028283912000,4.197911865234375,-0.9951066970825195,-2.7560853958129883,-0.30849358439445496
1697665028293503200,4.207503173828125,-0.8276321887969971,-3.5875415802001953,3.6405534744262695
1697665028303095000,4.217094970703125,3.71588134765625,-5.675226211547852,7.7031073570251465
1697665028312686000,4.22668603515625,7.141359329223633,-7.314587593078613,8.446294784545898
1697665028322276400,4.2362763671875,3.214524269104004,-3.759882926940918,2.834373712539673
1697665028331867400,4.245867431640625,-1.922629475593567,-0.35230159759521484,5.5720953941345215
1697665028341459200,4.255459228515625,1.2758698463439941,-0.8698701858520508,3.187678575515747
1697665028351050500,4.265050537109375,0.4694206714630127,-0.6235179901123047,5.912182331085205
1697665028360640500,4.274640625,-3.3315420150756836,5.575552940368652,10.62493896484375
1697665028370231800,4.284231689453125,-2.8096745014190674,5.7084197998046875,9.715995788574219
1697665028379823600,4.29382373046875,-0.9274085760116577,3.061586856842041,2.125250816345215
1697665028389414700,4.30341455078125,-9.197498321533203,7.675087928771973,7.13915491104126
1697665028399005000,4.3130048828125,-5.786135673522949,7.328932762145996,10.505121231079102
1697665028408596000,4.322595947265625,-2.9715962409973145,6.185624599456787,11.738203048706055
1697665028418188000,4.33218798828125,-3.283592700958252,6.37494421005249,8.314390182495117
1697665028427779000,4.341779052734375,-2.9942421913146973,4.754395008087158,4.8822832107543945
1697665028437369300,4.351369384765625,0.34328246116638184,2.2102761268615723,2.516772508621216
1697665028446960400,4.36096044921875,0.7760751247406006,1.748009204864502,1.7738723754882812
1697665028456552400,4.370552490234375,0.46465420722961426,1.6568379402160645,3.9595165252685547
1697665028466143200,4.380143310546875,0.3794088363647461,2.063119888305664,5.413720607757568
1697665028475733500,4.3897333984375,0.6145074367523193,2.1061644554138184,2.744114637374878
1697665028485324800,4.39932470703125,-0.6627514362335205,2.2730469703674316,-0.0024220943450927734
1697665028494916600,4.40891650390625,-1.931093454360962,3.274017810821533,0.32230401039123535
1697665028504507600,4.418507568359375,-3.041621685028076,3.366428852081299,1.698839545249939
1697665028514098000,4.428097900390625,-4.859686851501465,3.8821940422058105,2.952803134918213
1697665028523689200,4.437689208984375,-3.3397514820098877,2.812715530395508,4.746999740600586
1697665028533281000,4.447281005859375,-0.8303297758102417,1.6052465438842773,1.2785903215408325
1697665028542872000,4.4568720703125,2.010761022567749,-1.835205078125,-1.3921551704406738
1697665028552462300,4.46646240234375,3.114424228668213,-3.5829763412475586,-1.9575703144073486
1697665028562053400,4.476053466796875,1.9687989950180054,-2.9154491424560547,-0.3985781669616699
1697665028571645400,4.4856455078125,0.41424560546875,-1.563131332397461,1.086104393005371
1697665028581236500,4.495236572265625,-0.9339243173599243,-0.32819557189941406,2.3660976886749268
1697665028590826800,4.50482666015625,-1.7930564880371094,1.3480463027954102,3.0457241535186768
1697665028600417800,4.514417724609375,-2.025123119354248,2.716066837310791,6.039039611816406
1697665028610009600,4.524009521484375,0.049955129623413086,0.4187583923339844,5.336518287658691
1697665028619601000,4.533600830078125,2.233860969543457,3.109732151031494,2.633411407470703
1697665028629191200,4.543191162109375,2.662081241607666,1.1524524688720703,-1.6659181118011475
1697665028638782200,4.5527822265625,4.013742446899414,-2.2020702362060547,-2.8171284198760986
1697665028648374000,4.5623740234375,3.14959454536438,-3.6830320358276367,-4.134437084197998
1697665028657965000,4.571965087890625,3.0638813972473145,-2.6410388946533203,-5.221203804016113
1697665028667555300,4.581555419921875,2.225137948989868,-2.7067766189575195,-3.8107995986938477
1697665028677146600,4.591146728515625,-0.8033890724182129,-3.5143136978149414,-3.15838885307312
1697665028686738400,4.600738525390625,-1.5590046644210815,-2.0355091094970703,-0.5866210460662842
1697665028696329500,4.61032958984375,-2.1470015048980713,-1.2826929092407227,1.6750881671905518
1697665028705919700,4.619919677734375,-1.6717400550842285,-0.8497447967529297,1.7487094402313232
1697665028715511000,4.629510986328125,-1.232523798942566,-1.3956413269042969,2.2538328170776367
1697665028725102800,4.639102783203125,-0.4876810908317566,-0.5740137100219727,3.3256359100341797
1697665028734694000,4.64869384765625,0.08610689640045166,0.47259521484375,2.6593422889709473
1697665028744284200,4.6582841796875,1.3193838596343994,-0.23590564727783203,-0.5619993209838867
1697665028753875200,4.667875244140625,1.324515461921692,-2.0604991912841797,-0.9751958847045898
1697665028763467000,4.677467041015625,1.136907935142517,-2.1641368865966797,-0.3410370945930481
1697665028773058300,4.687058349609375,-0.0017503052949905396,-1.9859199523925781,3.646430492401123
1697665028782648600,4.696648681640625,2.2410190105438232,-0.8430871963500977,2.848964214324951
1697665028792239600,4.706239501953125,2.9962778091430664,-1.7112722396850586,2.5072786808013916
1697665028801831400,4.71583154296875,2.397368907928467,-0.9490337371826172,2.6297454833984375
1697665028811422500,4.72542236328125,2.050095796585083,0.3028898239135742,2.482051134109497
1697665028821012700,4.7350126953125,2.5554351806640625,-0.37320899963378906,0.04251927137374878
1697665028830604000,4.74460400390625,2.73453950881958,-0.02899169921875,-3.3355154991149902
1697665028840195800,4.75419580078125,1.7334015369415283,-0.9163389205932617,-2.3893752098083496
1697665028849787000,4.763786865234375,0.6116011142730713,-2.624147415161133,-4.789457321166992
1697665028859377200,4.773377197265625,0.5067464113235474,-1.1691761016845703,-0.9763194918632507
1697665028868968400,4.782968505859375,-0.8371042013168335,-1.8809900283813477,-2.063127040863037
1697665028878560300,4.792560302734375,0.10194265842437744,-3.008350372314453,-0.9885740280151367
1697665028888151300,4.8021513671875,1.6920719146728516,-2.075558662414551,1.7043099403381348
1697665028897741600,4.811741455078125,2.3741769790649414,-1.4511089324951172,1.1071968078613281
1697665028907332900,4.821332763671875,1.7824915647506714,-2.684917449951172,1.3972411155700684
1697665028916924700,4.830924560546875,1.4257440567016602,-3.700946807861328,2.118006706237793
1697665028926515700,4.840515625,0.5335729122161865,-4.050233840942383,4.503794193267822
1697665028936106000,4.85010595703125,0.5684995651245117,-4.40618896484375,3.0852713584899902
1697665028945697000,4.859697021484375,-0.2896409034729004,-4.615543365478516,3.1535327434539795
1697665028955289000,4.8692890625,-1.4835418462753296,-4.310625076293945,3.904247999191284
1697665028964880000,4.8788798828125,-1.695753574371338,-2.657827377319336,5.902271270751953
1697665028974470400,4.888470458984375,-0.47800135612487793,3.8944506645202637,11.32752799987793
1697665028984061400,4.8980615234375,6.1966094970703125,7.917314052581787,-2.1849992275238037
1697665028993653200,4.9076533203125,6.409001350402832,1.4070358276367188,-23.658206939697266
1697665029003244500,4.91724462890625,-3.5419106483459473,-4.071194648742676,-1.9774425029754639
1697665029012834800,4.926834716796875,-3.149184226989746,-5.411534309387207,-1.9480186700820923
1697665029022425900,4.93642578125,-2.7596487998962402,-8.451400756835938,-4.116109371185303
1697665029032017700,4.946017578125,-0.891068696975708,-11.73001480102539,-1.052577018737793
1697665029041609000,4.95560888671875,1.3864407539367676,-8.142040252685547,-0.2912323474884033
1697665029051199000,4.965198974609375,1.2147676944732666,-2.9059066772460938,-1.7367517948150635
1697665029060790300,4.974790283203125,1.5429757833480835,-1.4740190505981445,-1.3800361156463623
1697665029070382000,4.984382080078125,2.1811749935150146,-0.9986648559570312,-0.6308712959289551
1697665029079973000,4.99397314453125,1.5263595581054688,-0.9146709442138672,-1.1222096681594849
1697665029089563400,5.0035634765625,0.3527092933654785,-0.8889427185058594,-0.3381616473197937
1697665029099154700,5.01315478515625,-0.8583989143371582,-0.9826250076293945,-0.17062044143676758
1697665029108746500,5.02274658203125,-1.0507161617279053,-0.26753711700439453,-0.1385323405265808
1697665029118337500,5.032337646484375,-0.6350882053375244,1.0362815856933594,-0.5140582323074341
1697665029127927800,5.041927734375,-2.2974674701690674,1.5863618850708008,-1.8360614776611328
1697665029137519000,5.05151904296875,-1.7124335765838623,2.5315937995910645,-2.334712505340576
1697665029147111000,5.06111083984375,-1.4062626361846924,2.886592388153076,-2.907918930053711
1697665029156702000,5.070701904296875,-2.371831178665161,1.3731346130371094,-2.4660749435424805
1697665029166292200,5.080292236328125,-1.2141671180725098,1.4865522384643555,-2.330695390701294
1697665029175883300,5.08988330078125,-0.635911226272583,1.3687734603881836,-1.7637412548065186
1697665029185475300,5.099475341796875,0.7628649473190308,1.001190185546875,-1.5785102844238281
1697665029195066400,5.10906640625,3.64933443069458,4.664788722991943,-1.8523633480072021
1697665029204656600,5.11865673828125,3.4066145420074463,4.563292980194092,-1.3241454362869263
1697665029214247700,5.12824755859375,0.40748167037963867,5.306888103485107,-2.247725486755371
1697665029223839700,5.13783984375,-5.034122943878174,2.4271435737609863,0.33170193433761597
1697665029233430800,5.1474306640625,-1.922224760055542,2.6143970489501953,-0.6254637241363525
1697665029243021000,5.15702099609375,1.1822924613952637,2.0643186569213867,-0.20064914226531982
1697665029252612000,5.166612060546875,-0.28649330139160156,-0.9253826141357422,-0.2529597282409668
1697665029262204200,5.1762041015625,5.8697052001953125,-9.55752182006836,-3.8311874866485596
1697665029271795200,5.185795166015625,6.419336318969727,-3.489171028137207,1.9985535144805908
1697665029281385500,5.195385498046875,3.727299213409424,0.39442920684814453,2.072864055633545
1697665029290976500,5.2049765625,6.389951705932617,0.9358921051025391,-0.5798580646514893
1697665029300568300,5.214568359375,0.9857698678970337,2.7168426513671875,0.62100750207901
1697665029310159600,5.22415966796875,-1.728576898574829,4.203888416290283,1.499585747718811
1697665029319750000,5.23375,-2.9197680950164795,5.1058197021484375,1.6237905025482178
1697665029329341000,5.2433408203125,-4.552362442016602,5.259212493896484,1.7368049621582031
1697665029338932700,5.2529326171875,1.6278502941131592,2.7591805458068848,0.2221134901046753
1697665029348523800,5.262523681640625,0.04701042175292969,2.5051193237304688,0.9578623175621033
1697665029358114000,5.272114013671875,1.5544987916946411,2.5677289962768555,1.0671212673187256
1697665029367705300,5.281705322265625,2.3982362747192383,2.8256983757019043,1.2649405002593994
1697665029377297200,5.291297119140625,3.1936161518096924,1.4540472030639648,1.0497856140136719
1697665029386888200,5.30088818359375,1.6345878839492798,-0.5493021011352539,1.2834484577178955
1697665029396478500,5.310478515625,0.672680139541626,-1.129384994506836,-0.1997544765472412
1697665029406069800,5.32006982421875,0.5736539363861084,-0.2601661682128906,-1.0753157138824463
1697665029415661600,5.32966162109375,0.09410285949707031,0.5336017608642578,-1.3245141506195068
1697665029425252600,5.339252685546875,0.83038330078125,0.47682952880859375,-1.2112929821014404
1697665029434843000,5.3488427734375,1.367833137512207,0.08966732025146484,-0.8283345699310303
1697665029444434200,5.35843408203125,1.8742717504501343,-0.707798957824707,-0.8698704242706299
1697665029454026000,5.36802587890625,1.839423418045044,-1.2862443923950195,-0.8935196399688721
1697665029463617000,5.377616943359375,1.8227978944778442,-1.4694032669067383,-0.8491413593292236
1697665029473207300,5.387207275390625,2.132579803466797,-1.515172004699707,-0.3404834270477295
1697665029482798600,5.396798583984375,1.8045727014541626,-1.9117851257324219,0.20244550704956055
1697665029492390400,5.406390380859375,1.8943333625793457,-1.2854738235473633,-0.2515449523925781
1697665029501981400,5.4159814453125,1.5777175426483154,-0.8443412780761719,0.39078640937805176
1697665029511571700,5.42557177734375,1.2149999141693115,-0.9528188705444336,0.1658930778503418
1697665029521163000,5.4351630859375,3.111125946044922,-0.7095098495483398,0.34935832023620605
1697665029530754800,5.4447548828125,1.9489266872406006,-1.7141408920288086,-0.02517557144165039
1697665029540345900,5.454345947265625,-0.6605384349822998,-2.141596794128418,0.10223960876464844
1697665029549936000,5.46393603515625,-1.0415980815887451,-2.2716102600097656,0.7632346153259277
1697665029559527400,5.47352734375,0.7583951950073242,-2.7460622787475586,1.3748619556427002
1697665029569119200,5.483119140625,1.839621901512146,-1.4032554626464844,-0.05237245559692383
1697665029578710300,5.492710205078125,1.6049268245697021,-2.4753618240356445,-0.10090780258178711
1697665029588300500,5.502300537109375,0.7972671985626221,-3.338932991027832,0.22892308235168457
1697665029597891800,5.511891845703125,0.4543948173522949,-3.0489721298217773,0.6154019832611084
1697665029607483600,5.521483642578125,-0.7359027862548828,-2.7077722549438477,0.2191777229309082
1697665029617074700,5.53107470703125,-0.8977048397064209,-3.3175764083862305,-0.3358612060546875
1697665029626665000,5.5406650390625,0.019974708557128906,-2.4834365844726562,-0.30501246452331543
1697665029636256300,5.55025634765625,0.5640625953674316,-1.9446477890014648,-1.196580171585083
1697665029645848000,5.55984814453125,1.3167452812194824,-0.1508655548095703,-0.9925787448883057
1697665029655439000,5.569439208984375,0.22538447380065918,0.42916107177734375,0.21464157104492188
1697665029665029400,5.579029296875,-1.8970444202423096,0.3123798370361328,-1.011263370513916
1697665029674620700,5.58862060546875,-2.6072285175323486,0.5551843643188477,-1.5978777408599854
1697665029684212500,5.59821240234375,-3.0607717037200928,1.3788132667541504,-1.87382972240448
1697665029693803500,5.607803466796875,-2.6720268726348877,1.6932597160339355,-1.8256343603134155
1697665029703393800,5.617393798828125,-2.401888370513916,1.9182281494140625,-1.154614806175232
1697665029712985000,5.626985107421875,-2.2495696544647217,2.4320878982543945,-0.397794246673584
1697665029722577000,5.636576904296875,-1.620959758758545,2.7778544425964355,-0.13199615478515625
1697665029732168000,5.64616796875,-0.9609024524688721,4.1461381912231445,0.5177142024040222
1697665029741758200,5.65575830078125,-0.8815150260925293,5.776421070098877,1.1440666913986206
1697665029751349500,5.665349609375,-1.627673864364624,7.15356969833374,1.4935033321380615
1697665029760941300,5.67494140625,-1.1728863716125488,8.376091957092285,2.018981695175171
1697665029770532400,5.684532470703125,0.589702844619751,9.923040390014648,2.2916359901428223
1697665029780122600,5.69412255859375,3.6374731063842773,5.750040054321289,2.253983974456787
1697665029789714000,5.7037138671875,4.4770331382751465,2.1221776008605957,4.586731433868408
1697665029799305700,5.7133056640625,1.3876245021820068,14.427825927734375,-2.2058684825897217
1697665029808896800,5.722896728515625,3.1857402324676514,12.294610977172852,-0.4901047646999359
1697665029818487000,5.732487060546875,6.419707775115967,8.90830135345459,1.0079834461212158
1697665029828078300,5.742078369140625,6.979612827301025,6.28326940536499,1.0230965614318848
1697665029837670100,5.751670166015625,2.6764349937438965,2.490382671356201,1.716629981994629
1697665029847261200,5.76126123046875,0.8617761731147766,-0.3022146224975586,2.412381649017334
1697665029856851500,5.7708515625,2.6853723526000977,-9.374282836914062,5.054296016693115
1697665029866442800,5.78044287109375,-4.227875709533691,-51.08420944213867,10.009714126586914
1697665029876034600,5.79003466796875,-8.725266456604004,-33.698543548583984,2.9318389892578125
1697665029885625600,5.79962548828125,0.221652090549469,-2.999056816101074,-6.540622234344482
1697665029895215900,5.8092158203125,4.029444694519043,0.9986019134521484,-2.8583948612213135
1697665029904807200,5.81880712890625,2.3112571239471436,1.8422698974609375,-2.9869232177734375
1697665029914399000,5.82839892578125,0.09234786033630371,1.9654498100280762,-2.3501482009887695
1697665029923990000,5.837989990234375,-0.2615243196487427,0.9479656219482422,-1.6594061851501465
1697665029933580300,5.847580322265625,-0.27800238132476807,0.1736164093017578,-1.3696362972259521
1697665029943171600,5.857171630859375,-0.5369163751602173,0.23504066467285156,-1.0578440427780151
1697665029952763400,5.866763427734375,-1.0639469623565674,0.7548112869262695,-0.17325830459594727
1697665029962354700,5.876354736328125,-1.4411180019378662,1.3888359069824219,1.2530770301818848
1697665029971944700,5.88594482421875,-1.093353509902954,1.4532718658447266,1.0470715761184692
1697665029981536000,5.895535888671875,-0.5477706789970398,0.9922170639038086,1.3858587741851807
1697665029991127800,5.9051279296875,-0.3740130066871643,0.5473241806030273,1.6353867053985596
1697665030000719000,5.914718994140625,-1.3543751239776611,0.5159292221069336,1.7531194686889648
1697665030010309400,5.924309326171875,-1.0226181745529175,0.5147571563720703,2.0031094551086426
1697665030019900400,5.933900390625,-0.832535982131958,2.459151268005371,0.9050381183624268
1697665030029492200,5.9434921875,-0.1838032305240631,4.107860565185547,-0.8248293399810791
1697665030039083500,5.95308349609375,0.8950202465057373,2.8040971755981445,0.11902642250061035
1697665030048673800,5.962673828125,2.416313409805298,2.967590808868408,-1.694105625152588
1697665030058264800,5.972264892578125,1.861339807510376,2.7683205604553223,-1.8311454057693481
1697665030067856600,5.981856689453125,1.9959015846252441,2.1358747482299805,-1.650132179260254
1697665030077448000,5.991447998046875,1.6590354442596436,1.5492496490478516,-1.860662579536438
1697665030087038200,6.0010380859375,1.0703412294387817,1.3333005905151367,-1.9141881465911865
1697665030096629200,6.010629150390625,0.6431013345718384,1.0308780670166016,-1.5991448163986206
1697665030106221300,6.02022119140625,0.5633813738822937,0.821162223815918,-1.0966957807540894
1697665030115812400,6.029812255859375,0.766502320766449,0.15466976165771484,-0.39823198318481445
1697665030125402600,6.039402587890625,1.4601060152053833,-0.4845924377441406,0.0074503421783447266
1697665030134993700,6.04899365234375,1.8827731609344482,-1.1990175247192383,0.2541313171386719
1697665030144585700,6.058585693359375,1.7821502685546875,-2.210495948791504,0.7106869220733643
1697665030154176800,6.0681767578125,1.858215570449829,-3.215076446533203,1.4293012619018555
1697665030163767000,6.07776708984375,1.7187159061431885,-3.8476619720458984,1.9571175575256348
1697665030173358300,6.0873583984375,0.6586825251579285,-4.4877471923828125,2.6386959552764893
1697665030182950100,6.0969501953125,-1.2193636894226074,-6.065459251403809,2.840532064437866
1697665030192541200,6.106541259765625,-3.0821990966796875,-8.428999900817871,2.8719446659088135
1697665030202131500,6.11613134765625,-2.946470022201538,-9.133661270141602,2.059969186782837
1697665030211722800,6.12572265625,-2.9540042877197266,-7.477808952331543,0.3523685932159424
1697665030221314600,6.135314453125,-1.4699417352676392,-5.672125816345215,-1.331432580947876
1697665030230905600,6.144905517578125,-0.8087103366851807,-4.109112739562988,-2.3591296672821045
1697665030240495900,6.154495849609375,0.20537590980529785,-3.4388341903686523,-1.4680980443954468
1697665030250087200,6.164087158203125,2.2095694541931152,-1.8596773147583008,-1.0882573127746582
1697665030259679000,6.173678955078125,2.5992202758789062,-0.23880290985107422,-0.8140990734100342
1697665030269270000,6.18327001953125,2.9402618408203125,0.4223785400390625,-1.0195894241333008
1697665030278860300,6.1928603515625,2.0493788719177246,-0.854640007019043,0.5401886701583862
1697665030288451600,6.20245166015625,0.3644016981124878,-2.651698112487793,1.4759098291397095
1697665030298043400,6.21204345703125,1.4690018892288208,-0.1615915298461914,1.7252486944198608
1697665030307634700,6.221634765625,0.21755266189575195,-0.3711996078491211,0.7560261487960815
1697665030317225000,6.231224853515625,-1.0992318391799927,-0.04118919372558594,-0.0388721227645874
1697665030326816000,6.24081591796875,-2.459463596343994,0.7635955810546875,-2.444797992706299
1697665030336408000,6.250407958984375,-1.2787768840789795,1.6217155456542969,-3.836961269378662
1697665030345999000,6.2599990234375,-0.4582141637802124,1.6093807220458984,-4.010713577270508
1697665030355589400,6.26958935546875,-0.051694631576538086,1.7809391021728516,-3.48551082611084
1697665030365180400,6.279180419921875,0.7411147952079773,1.7009410858154297,-3.522171974182129
1697665030374772500,6.2887724609375,1.602831482887268,1.4132442474365234,-3.08286190032959
1697665030384363500,6.298363525390625,2.2292394638061523,0.8826236724853516,-3.339571714401245
1697665030393953800,6.307953857421875,2.4214425086975098,0.6364097595214844,-2.7836310863494873
1697665030403544800,6.317544921875,2.3279056549072266,0.16422557830810547,-1.7739591598510742
1697665030413137000,6.327136962890625,1.9119473695755005,-0.40686702728271484,-0.9492775797843933
1697665030422728000,6.33672802734375,1.1270968914031982,-0.5230731964111328,0.35955125093460083
1697665030432318200,6.346318115234375,0.07378149032592773,-1.0103778839111328,0.8397639393806458
1697665030441909500,6.355909423828125,-0.08397650718688965,-0.8240365982055664,0.8922224640846252
1697665030451501300,6.365501220703125,-0.32394933700561523,-0.051296234130859375,1.1485698223114014
1697665030461092400,6.37509228515625,0.32074594497680664,0.5024805068969727,-0.03756260871887207
1697665030470682600,6.3846826171875,0.17324388027191162,2.252694606781006,0.3159593939781189
1697665030480274000,6.39427392578125,0.40974950790405273,3.0655784606933594,-0.6846345067024231
1697665030489865700,6.40386572265625,0.6768338680267334,2.9029178619384766,-1.5886008739471436
1697665030499457000,6.41345703125,0.8951234817504883,2.766749382019043,-1.7997820377349854
1697665030509047300,6.42304736328125,0.9030551910400391,2.8030314445495605,-1.3138710260391235
1697665030518638300,6.432638427734375,0.35725343227386475,1.0658817291259766,-2.621925115585327
1697665030528230100,6.442230224609375,0.8315119743347168,2.848341941833496,-1.0941109657287598
1697665030537821400,6.451821533203125,0.8123831748962402,4.315292835235596,1.1860402822494507
1697665030547411700,6.46141162109375,0.5827231407165527,4.34393310546875,1.9995524883270264
1697665030557002800,6.471002685546875,0.9811227321624756,3.685245990753174,2.175121784210205
1697665030566594800,6.4805947265625,1.2653435468673706,2.6894288063049316,1.97397780418396
1697665030576185900,6.490185791015625,1.824252724647522,1.5507268905639648,1.850408673286438
1697665030585776000,6.499776123046875,2.470942497253418,1.058863639831543,1.1977896690368652
1697665030595367200,6.5093671875,2.7606210708618164,0.8912792205810547,0.6492928266525269
1697665030604959200,6.518959228515625,3.658428192138672,0.5125818252563477,0.4192821979522705
1697665030614550300,6.52855029296875,3.793896436691284,0.2308816909790039,0.6848020553588867
1697665030624140500,6.538140625,2.7049684524536133,-0.31261348724365234,1.3770227432250977
1697665030633731800,6.54773193359375,3.1987690925598145,-0.8037996292114258,2.91904354095459
1697665030643323600,6.55732373046875,2.5553300380706787,-1.49798583984375,3.4355616569519043
1697665030652914700,6.566914794921875,2.1209495067596436,-2.3638229370117188,3.1087889671325684
1697665030662505000,6.5765048828125,1.9750292301177979,-2.6271286010742188,2.980109691619873
1697665030672096300,6.58609619140625,1.7045300006866455,-2.779904365539551,3.6454920768737793
1697665030681688000,6.59568798828125,0.905092716217041,-3.198056221008301,4.381322860717773
1697665030691279400,6.605279296875,-0.5523350238800049,-3.668961524963379,5.059391975402832
1697665030700869600,6.61486962890625,-1.6996893882751465,-4.068429946899414,4.154388427734375
1697665030710460700,6.624460693359375,-1.81382417678833,-4.25286865234375,2.7065539360046387
1697665030720052500,6.634052490234375,-1.0318150520324707,-4.247597694396973,1.6602768898010254
1697665030729643800,6.643643798828125,-0.14264583587646484,-3.6676692962646484,0.6802165508270264
1697665030739234000,6.653234130859375,0.5384538173675537,-2.9707603454589844,0.3592870235443115
1697665030748825000,6.6628251953125,1.172567367553711,-2.1573095321655273,-0.06106114387512207
1697665030758417200,6.672417236328125,1.1141901016235352,-1.1845664978027344,-0.5365703105926514
1697665030768008200,6.68200830078125,0.5745433568954468,-0.5246086120605469,-0.6592134237289429
1697665030777598500,6.691598388671875,-0.08418822288513184,0.17533588409423828,-0.9441845417022705
1697665030787189800,6.701189697265625,-0.5783655643463135,0.7252616882324219,-0.9804613590240479
1697665030796781600,6.710781494140625,-0.9039998054504395,1.037816047668457,-0.6402846574783325
1697665030806372600,6.72037255859375,-1.1729414463043213,1.3309431076049805,-0.46052324771881104
1697665030815963000,6.729962890625,-1.3136610984802246,1.3684520721435547,-0.4855860471725464
1697665030825554200,6.73955419921875,-1.7388579845428467,1.5167779922485352,-0.7638369798660278
1697665030835146000,6.74914599609375,-1.9668530225753784,1.1014719009399414,-0.6393914222717285
1697665030844737300,6.7587373046875,-2.302083730697632,-0.031691551208496094,-0.2169036865234375
1697665030854327600,6.76832763671875,-2.8167946338653564,-1.1339282989501953,-0.5215533971786499
1697665030863918600,6.777918701171875,-2.966865062713623,-2.308124542236328,-1.5409810543060303
1697665030873510400,6.787510498046875,-2.651141881942749,-3.155118942260742,-2.4081079959869385
1697665030883101700,6.797101806640625,-2.3167223930358887,-4.169260025024414,-2.0855655670166016
1697665030892692000,6.80669189453125,-1.9374964237213135,-4.276586532592773,-1.066587209701538
1697665030902283000,6.816282958984375,-1.7791423797607422,-3.71258544921875,-0.11316555738449097
1697665030911875000,6.825875,-0.9997817873954773,-2.9565200805664062,0.41854560375213623
1697665030921466000,6.835466064453125,-1.0145529508590698,-2.5557470321655273,1.1348941326141357
1697665030931056400,6.845056396484375,-0.8112479448318481,-1.04522705078125,1.4514141082763672
1697665030940647700,6.854647705078125,-0.6051619648933411,0.6911420822143555,1.2782775163650513
1697665030950239500,6.864239501953125,-0.05058121681213379,2.203700065612793,1.0872631072998047
1697665030959830500,6.87383056640625,0.08628731966018677,3.2513914108276367,1.1004087924957275
1697665030969420800,6.8834208984375,-0.257220059633255,3.529392719268799,0.9119652509689331
1697665030979012000,6.89301220703125,-0.46696776151657104,2.9419069290161133,0.2600194215774536
1697665030988604000,6.90260400390625,-0.23353803157806396,2.293889045715332,0.059712886810302734
1697665030998195200,6.9121953125,0.18036428093910217,1.7459211349487305,-0.10658538341522217
1697665031007785500,6.921785400390625,0.19264629483222961,1.3147993087768555,-0.13970482349395752
1697665031017376500,6.93137646484375,0.11208832263946533,1.038701057434082,-0.09489047527313232
1697665031026968600,6.940968505859375,0.11650888621807098,0.8480491638183594,-0.18203842639923096
1697665031036559600,6.9505595703125,0.1447802633047104,0.981471061706543,-0.2639617919921875
1697665031046150000,6.96014990234375,-0.26061785221099854,1.2087469100952148,-0.06816112995147705
1697665031055741200,6.9697412109375,-0.7163792848587036,1.5393476486206055,-0.001082777976989746
1697665031065333000,6.9793330078125,-0.7303420901298523,1.9425463676452637,-0.20786607265472412
1697665031074924000,6.988924072265625,-0.1204947829246521,2.330479145050049,-0.30084657669067383
1697665031084514300,6.998514404296875,0.7405812740325928,2.584725856781006,-0.3607438802719116
1697665031094105600,7.008105712890625,1.5294907093048096,2.5179243087768555,-0.38484299182891846
1697665031103697400,7.017697509765625,1.9360458850860596,2.0841684341430664,-0.7995489835739136
1697665031113288700,7.027288818359375,2.010226249694824,1.1797370910644531,-1.2946727275848389
1697665031122879000,7.03687890625,2.2029154300689697,0.6340885162353516,-1.626162052154541
1697665031132470000,7.046469970703125,2.6924350261688232,0.7542743682861328,-1.9726380109786987
1697665031142062000,7.05606201171875,2.9899179935455322,0.7944793701171875,-2.313671827316284
1697665031151653000,7.065653076171875,3.0804295539855957,1.5137758255004883,-2.752164602279663
1697665031161243400,7.075243408203125,3.090895891189575,1.6879305839538574,-2.5829858779907227
1697665031170834400,7.08483447265625,2.1335644721984863,2.305398464202881,-1.4354368448257446
1697665031180426500,7.094426513671875,-2.002898931503296,-0.15844345092773438,0.8482131958007812
1697665031190017500,7.104017578125,-3.867246627807617,-5.110616683959961,0.974402904510498
1697665031199607800,7.11360791015625,-3.9379093647003174,-8.68524169921875,-0.6804940700531006
1697665031209199000,7.12319921875,-2.9404890537261963,-9.768132209777832,-3.889132261276245
1697665031218791000,7.132791015625,-1.524592638015747,-8.226791381835938,-3.1590824127197266
1697665031228382000,7.1423818359375,-1.2980108261108398,-5.986912727355957,0.8094452619552612
1697665031237972500,7.151972412109375,-2.572037696838379,-3.1635923385620117,0.7178517580032349
1697665031247563500,7.1615634765625,-1.648240327835083,-1.677433967590332,1.4602197408676147
1697665031257155300,7.1711552734375,-0.6648885607719421,-1.1685819625854492,1.3780080080032349
1697665031266746600,7.18074658203125,0.7255541086196899,-0.4519214630126953,0.8279377222061157
1697665031276337000,7.1903369140625,-1.018326997756958,0.33220958709716797,-2.235795497894287
1697665031285928000,7.199927978515625,-2.387148380279541,0.05699348449707031,-3.1366777420043945
1697665031295520000,7.20952001953125,-1.7261956930160522,0.47763919830322266,-2.2213170528411865
1697665031305111000,7.219111083984375,-0.8893216848373413,1.1624298095703125,-1.9615452289581299
1697665031314701300,7.228701416015625,-0.3905460834503174,1.3658733367919922,-2.4052181243896484
1697665031324292600,7.238292724609375,0.1702413558959961,1.266427993774414,-3.3256044387817383
1697665031333884400,7.247884521484375,0.8144906163215637,0.9653329849243164,-3.840625762939453
1697665031343475500,7.257475341796875,0.7465933561325073,0.6967496871948242,-4.332306861877441
1697665031353066000,7.26706591796875,0.5687057375907898,0.4120187759399414,-4.173820495605469
1697665031362657000,7.276656982421875,0.4741690158843994,0.14873218536376953,-3.8358349800109863
1697665031372248800,7.286248779296875,0.194610595703125,-0.1463298797607422,-3.439345359802246
1697665031381840100,7.295840087890625,0.24273431301116943,-0.3158760070800781,-2.7246620655059814
1697665031391430400,7.305430419921875,0.6219426989555359,-0.3099784851074219,-1.8356205224990845
1697665031401021400,7.315021484375,0.8294651508331299,0.012312889099121094,-1.0572810173034668
1697665031410613500,7.324613525390625,1.230116844177246,0.4453420639038086,-0.17235824465751648
1697665031420204500,7.33420458984375,1.545383095741272,0.9724035263061523,0.22020941972732544
1697665031429794800,7.343794921875,1.615039587020874,1.4164514541625977,0.7057084441184998
1697665031439386000,7.35338623046875,1.1550312042236328,1.739013671875,1.1154481172561646
1697665031448978000,7.36297802734375,0.7419060468673706,2.033069133758545,1.0458743572235107
1697665031458569200,7.3725693359375,0.3461027145385742,2.1431288719177246,0.6964491605758667
1697665031468159500,7.382159423828125,-0.02478504180908203,2.2893123626708984,0.39457231760025024
1697665031477750500,7.39175048828125,0.04152357578277588,2.3955259323120117,0.5441539883613586
1697665031487342800,7.4013427734375,0.21035397052764893,2.4765682220458984,0.5834735035896301
1697665031496934000,7.410933837890625,0.7321312427520752,2.9031929969787598,0.1409454345703125
1697665031506524200,7.420524169921875,1.2016911506652832,3.156981945037842,0.3725443482398987
1697665031516115500,7.430115478515625,1.1471525430679321,3.546727180480957,0.23601967096328735
1697665031525707300,7.439707275390625,1.5985201597213745,3.8591995239257812,0.4241941571235657
1697665031535298300,7.44929833984375,2.047441005706787,3.799053192138672,1.1545214653015137
1697665031544888600,7.458888671875,1.6907503604888916,3.639115333557129,1.5003390312194824
1697665031554479900,7.46847998046875,1.419339895248413,2.9255752563476562,1.682309865951538
1697665031564071700,7.47807177734375,1.3301819562911987,1.8296284675598145,1.798453450202942
1697665031573663000,7.4876630859375,1.481643557548523,0.529332160949707,2.01265811920166
1697665031583253200,7.497253173828125,1.2736328840255737,-0.5835447311401367,1.9627044200897217
1697665031592844300,7.50684423828125,0.8843734264373779,-1.2257862091064453,1.905468225479126
1697665031602436400,7.516436279296875,1.3529651165008545,-1.7235660552978516,1.8715600967407227
1697665031612027400,7.52602734375,1.2325332164764404,-1.6996517181396484,1.7659173011779785
1697665031621617700,7.53561767578125,1.1899996995925903,-1.3726015090942383,1.976149559020996
1697665031631209000,7.545208984375,1.3955223560333252,-0.9551429748535156,2.1439554691314697
1697665031640800800,7.55480078125,1.9857083559036255,-0.6279315948486328,2.3482728004455566
1697665031650391800,7.564391845703125,2.4857640266418457,-0.8295431137084961,2.333721876144409
1697665031659982300,7.573982421875,2.485530376434326,-1.1248188018798828,2.129499673843384
1697665031669573400,7.583573486328125,1.9951632022857666,-1.350198745727539,1.8337715864181519
1697665031679165200,7.593165283203125,1.3931944370269775,-1.8411102294921875,1.7291185855865479
1697665031688756500,7.602756591796875,0.9492633938789368,-2.6089582443237305,1.5629361867904663
1697665031698346800,7.6123466796875,0.5659693479537964,-3.347294807434082,1.2239091396331787
1697665031707937800,7.621937744140625,0.3753929138183594,-4.062548637390137,0.778140127658844
1697665031717529900,7.63152978515625,-0.14636170864105225,-4.488580703735352,-0.22238922119140625
1697665031727121000,7.641120849609375,0.05064523220062256,-5.112391471862793,-0.3855867385864258
1697665031736711200,7.650711181640625,-0.023367762565612793,-4.885110855102539,-1.3742276430130005
1697665031746302500,7.660302490234375,0.32911205291748047,-3.9476232528686523,-1.472032904624939
1697665031755894300,7.669894287109375,1.1318000555038452,-3.2353134155273438,-1.3242040872573853
1697665031765485600,7.679485595703125,2.151020050048828,-2.865873336791992,-1.1382946968078613
1697665031775075800,7.689075927734375,2.5765738487243652,-2.404728889465332,-1.132538914680481
1697665031784667000,7.6986669921875,2.24267578125,-1.731607437133789,-1.3476139307022095
1697665031794259000,7.708259033203125,1.6489168405532837,-0.7991228103637695,-1.5223004817962646
1697665031803850000,7.71785009765625,1.2041347026824951,0.19053936004638672,-1.465283989906311
1697665031813440300,7.727440185546875,0.746784508228302,1.3146381378173828,-1.2021867036819458
1697665031823031600,7.737031494140625,0.43465375900268555,2.3472390174865723,-0.7310490608215332
1697665031832623400,7.746623291015625,0.06381022930145264,3.167840003967285,-0.4043506383895874
1697665031842214400,7.75621435546875,-0.3973344564437866,3.5774765014648438,-0.17787951231002808
1697665031851805000,7.765804931640625,-0.7624607086181641,3.485258102416992,-0.13200271129608154
1697665031861396000,7.77539599609375,-1.1605099439620972,2.7578229904174805,0.29641473293304443
1697665031870988000,7.784988037109375,-1.4875497817993164,1.7086725234985352,0.7502949833869934
1697665031880579000,7.7945791015625,-2.069841146469116,0.4834918975830078,1.0026371479034424
1697665031890169300,7.80416943359375,-2.6060128211975098,-0.9150400161743164,1.1557564735412598
1697665031899760600,7.8137607421875,-2.6852669715881348,-2.060910224914551,1.2514679431915283
1697665031909352400,7.8233525390625,-2.871095657348633,-3.3193531036376953,1.4737621545791626
1697665031918943500,7.832943603515625,-2.920919418334961,-4.7966461181640625,2.0792105197906494
1697665031928533800,7.84253369140625,-2.3470537662506104,-5.81089973449707,2.8803629875183105
1697665031938125000,7.852125,-1.5041673183441162,-6.057297706604004,3.594957113265991
1697665031947717000,7.861717041015625,-1.537514090538025,-4.408160209655762,3.4450271129608154
1697665031957308200,7.87130810546875,-1.9758352041244507,-1.5154685974121094,3.098881483078003
1697665031966898400,7.8808984375,-2.0089035034179688,0.6496391296386719,2.6496245861053467
1697665031976489700,7.89048974609375,-2.0596959590911865,1.575179100036621,1.8244187831878662
1697665031986081500,7.90008154296875,-0.277538001537323,1.901423454284668,0.925778865814209
1697665031995672600,7.909672607421875,1.5930759906768799,1.3025312423706055,-0.41971659660339355
1697665032005262800,7.919262939453125,2.9647927284240723,0.29207706451416016,-1.6874771118164062
1697665032014854100,7.928854248046875,3.3591105937957764,-0.11338520050048828,-2.51950740814209
1697665032024446000,7.938446044921875,2.4571521282196045,0.1183023452758789,-2.5512027740478516
1697665032034037200,7.948037353515625,1.2218143939971924,0.6273469924926758,-2.1514151096343994
1697665032043627500,7.95762744140625,0.01793399453163147,1.1960601806640625,-1.836455225944519
1697665032053218600,7.967218505859375,-1.082982063293457,1.7004547119140625,-1.5485601425170898
1697665032062810600,7.976810546875,-1.8803941011428833,1.9091253280639648,-0.9927942156791687
1697665032072401700,7.986401611328125,-2.255206823348999,1.977975845336914,-0.37647366523742676
1697665032081992000,7.995991943359375,-2.4230785369873047,2.050839424133301,-0.15544378757476807
1697665032091583200,8.005583251953125,-2.1372835636138916,2.0565361976623535,-0.17676544189453125
1697665032101175000,8.015175048828125,-1.7959303855895996,1.960174560546875,-0.45409226417541504
1697665032110766300,8.024766357421875,-1.1750762462615967,1.927865982055664,-1.0856351852416992
1697665032120356600,8.034356689453125,-0.3609667718410492,1.9052104949951172,-1.5168354511260986
1697665032129947600,8.04394775390625,0.5170163512229919,2.2581496238708496,-1.7633278369903564
1697665032139539700,8.053539794921875,0.7728281617164612,2.739960193634033,-1.9522714614868164
1697665032149130800,8.063130859375,0.7959211468696594,3.223449230194092,-2.0162339210510254
1697665032158721000,8.072720947265625,0.6538549065589905,3.576718330383301,-1.9267642498016357
1697665032168312300,8.082312255859375,0.40131279826164246,3.744471549987793,-1.7657721042633057
1697665032177904000,8.091904052734375,0.19129087030887604,3.7765374183654785,-1.3574155569076538
1697665032187495400,8.101495361328125,0.377094030380249,3.572201728820801,-1.010998010635376
1697665032197085700,8.111085693359374,0.5527589321136475,3.043323040008545,-0.713646650314331
1697665032206676700,8.1206767578125,1.0364747047424316,2.745439052581787,-0.6277307271957397
1697665032216268800,8.130268798828125,0.9713934659957886,1.77850341796875,-0.5467660427093506
1697665032225859800,8.13985986328125,1.4977911710739136,0.512904167175293,-0.631973385810852
1697665032235450000,8.1494501953125,1.9885131120681763,-1.0043582916259766,-0.8912872076034546
1697665032245041400,8.15904150390625,2.0207884311676025,-2.476435661315918,-0.6356246471405029
1697665032254633200,8.16863330078125,1.1620373725891113,-3.7891807556152344,0.3310122489929199
1697665032264224500,8.178224609375,-0.8408046960830688,-5.628777503967285,1.4271836280822754
1697665032273814800,8.187814697265624,-2.7862374782562256,-8.455316543579102,2.4466068744659424
1697665032283405800,8.19740576171875,-3.3479607105255127,-10.860318183898926,3.0210511684417725
1697665032292998000,8.206997802734374,-2.7585320472717285,-11.292729377746582,2.7838237285614014
1697665032302589000,8.2165888671875,-1.3277157545089722,-8.744242668151855,2.603328227996826
1697665032312179200,8.22617919921875,-0.4441691040992737,-6.571533203125,2.5981712341308594
1697665032321770500,8.2357705078125,1.0003026723861694,-5.133892059326172,1.7217633724212646
1697665032331362300,8.2453623046875,2.2416348457336426,-3.2847375869750977,1.005591869354248
1697665032340953600,8.25495361328125,1.79508638381958,-1.472752571105957,1.2629845142364502
1697665032350544000,8.2645439453125,0.5753685235977173,-0.4341611862182617,2.070596933364868
1697665032360135000,8.274135009765626,-0.7534462213516235,0.3242807388305664,1.9615676403045654
1697665032369727000,8.28372705078125,-1.4581379890441895,1.09222412109375,1.159228801727295
1697665032379318000,8.293318115234374,-1.6699868440628052,2.192702293395996,-0.1941155195236206
1697665032388908300,8.302908203125,-1.417525291442871,2.8124771118164062,-0.39813315868377686
1697665032398499600,8.31249951171875,-1.292129397392273,2.9354710578918457,-0.6642086505889893
1697665032408091400,8.32209130859375,-0.3129653334617615,2.0352845191955566,-0.5381125211715698
1697665032417682700,8.3316826171875,0.3386008143424988,1.640380859375,-1.517271876335144
1697665032427273000,8.34127294921875,1.1505403518676758,1.6536083221435547,-2.7022104263305664
1697665032436864000,8.350864013671876,2.0876057147979736,1.5063114166259766,-3.4574532508850098
1697665032446456000,8.3604560546875,2.7063703536987305,1.0523452758789062,-3.8562211990356445
1697665032456047000,8.370047119140626,2.5460045337677,0.5050725936889648,-3.33736515045166
1697665032465637400,8.379637451171876,2.027325391769409,0.20606327056884766,-2.3524322509765625
1697665032475228700,8.389228759765626,1.5647807121276855,-0.035536766052246094,-1.1416151523590088
1697665032484820500,8.398820556640626,1.4167898893356323,-0.041062355041503906,0.0724530816078186
1697665032494411800,8.408411865234376,1.3063859939575195,0.06975364685058594,1.1696864366531372
1697665032504002000,8.418001953125,1.1720542907714844,0.04372978210449219,2.1316418647766113
1697665032513593000,8.427593017578126,0.8900299668312073,-0.08997154235839844,2.38999080657959
1697665032523185200,8.43718505859375,0.9134957194328308,-0.2329235076904297,2.227720022201538
1697665032532776200,8.446776123046876,1.030837059020996,-0.19612598419189453,1.8087072372436523
1697665032542366700,8.45636669921875,0.7088913917541504,-0.02790355682373047,1.5179328918457031
1697665032551957800,8.465957763671875,0.42398273944854736,0.34035301208496094,0.7369942665100098
1697665032561549600,8.475549560546876,-0.07316362857818604,0.7020854949951172,0.8898196816444397
1697665032571140900,8.485140869140626,0.5190945267677307,1.4636802673339844,-1.0138862133026123
1697665032580731100,8.494731201171875,1.1759581565856934,1.5738754272460938,-1.361661434173584
1697665032590322400,8.504322509765625,1.3331197500228882,1.9132928848266602,-1.5996787548065186
1697665032599914200,8.513914306640626,1.146497130393982,2.653522491455078,-1.9306771755218506
1697665032609505300,8.52350537109375,1.1056303977966309,3.110867500305176,-1.3441197872161865
1697665032619095800,8.533095703125,0.774492621421814,3.6660752296447754,-0.8703389167785645
1697665032628686800,8.542686767578125,0.585088849067688,4.23822021484375,-0.32590097188949585
1697665032638278700,8.552278564453125,0.25587618350982666,4.44101095199585,0.01583540439605713
1697665032647870000,8.561869873046875,0.3357205390930176,4.6455254554748535,0.4357143044471741
1697665032657460200,8.571460205078125,0.43779420852661133,4.2285685539245605,0.6899577975273132
1697665032667051500,8.581051513671875,0.49555349349975586,3.681520938873291,0.7615950107574463
1697665032676643300,8.590643310546875,0.4108990430831909,3.0018386840820312,0.3590582013130188
1697665032686234600,8.600234619140625,0.6014323234558105,2.003279685974121,-0.07331085205078125
1697665032695825000,8.609824951171875,1.449575424194336,1.0455541610717773,-0.4513131380081177
1697665032705416000,8.619416015625,2.239258050918579,0.3800773620605469,-0.43197691440582275
1697665032715008000,8.629008056640625,2.016400098800659,-0.08000564575195312,-0.0015550851821899414
1697665032724599000,8.63859912109375,1.8388967514038086,-0.5100193023681641,0.5739497542381287
1697665032734189300,8.648189208984375,1.7250115871429443,-0.8246450424194336,0.6194979548454285
1697665032743780600,8.657780517578125,1.5726280212402344,-0.8331098556518555,0.7178521752357483
1697665032753372400,8.667372314453125,1.5312330722808838,-0.6568088531494141,1.198397159576416
1697665032762963700,8.676963623046875,1.6922311782836914,-0.5678176879882812,1.493499994277954
1697665032772554000,8.686553955078125,1.7962706089019775,-0.7565107345581055,1.9375560283660889
1697665032782145000,8.69614501953125,1.8638553619384766,-1.2384977340698242,2.1816864013671875
1697665032791737000,8.705737060546875,1.837860107421875,-1.726449966430664,2.1383259296417236
1697665032801328000,8.715328125,1.6603846549987793,-2.3397750854492188,1.792158842086792
1697665032810918400,8.72491845703125,1.3762496709823608,-3.089900016784668,1.5067353248596191
1697665032820509700,8.734509765625,1.0831714868545532,-3.976469039916992,1.5088493824005127
1697665032830101500,8.7441015625,0.6927586793899536,-4.770500183105469,1.790709376335144
1697665032839692800,8.75369287109375,0.4016115665435791,-5.127109527587891,2.215620994567871
1697665032849283000,8.763282958984375,0.23888826370239258,-5.1891584396362305,1.957672119140625
1697665032858874400,8.772874267578125,0.05658578872680664,-5.542786598205566,1.0282809734344482
1697665032868466200,8.782466064453125,0.054874420166015625,-6.146675109863281,0.0005176067352294922
1697665032878057200,8.79205712890625,0.3134024143218994,-6.416787147521973,-0.6742461919784546
1697665032887647700,8.801647705078125,0.44980740547180176,-6.292181015014648,-1.042863130569458
1697665032897238800,8.81123876953125,0.3567392826080322,-5.582819938659668,-1.1042330265045166
1697665032906830800,8.820830810546875,0.3746969699859619,-4.296224594116211,-1.3959238529205322
1697665032916422000,8.830421875,0.626024603843689,-2.641322135925293,-1.3426779508590698
1697665032926012200,8.84001220703125,0.7389333248138428,-0.9705696105957031,-1.127722978591919
1697665032935603500,8.849603515625,0.7021834850311279,0.2729320526123047,-1.0397820472717285
1697665032945195300,8.8591953125,0.6303937435150146,1.2934045791625977,-1.1921873092651367
1697665032954786600,8.86878662109375,0.6691973209381104,2.0398736000061035,-1.1996345520019531
1697665032964376800,8.878376953125,0.8592311143875122,2.6801962852478027,-1.1064969301223755
1697665032973968000,8.8879677734375,1.1699696779251099,3.229836940765381,-1.0016220808029175
1697665032983560000,8.897559814453125,1.4165496826171875,3.7664690017700195,-0.9371001720428467
1697665032993151000,8.90715087890625,1.6121037006378174,4.209747791290283,-0.8848460912704468
1697665033002741200,8.9167412109375,1.7004539966583252,4.1968607902526855,-0.8665642738342285
1697665033012332500,8.92633251953125,1.1754196882247925,3.6630687713623047,-0.7192989587783813
1697665033021924400,8.93592431640625,0.6404167413711548,3.197111129760742,-1.1018385887145996
1697665033031515600,8.945515625,-0.3962157964706421,1.2822637557983398,-0.8462992310523987
1697665033041106000,8.95510595703125,-1.1497139930725098,-0.636754035949707,-0.5668279528617859
1697665033050697200,8.964697265625,-1.597527027130127,-2.0609827041625977,-0.2188878059387207
1697665033060289000,8.9742890625,-2.2275454998016357,-3.1593503952026367,-0.15664279460906982
1697665033069880000,8.983880126953125,-3.5602986812591553,-5.485942840576172,-0.4583292603492737
1697665033079470600,8.993470703125,-3.7976233959198,-8.16069507598877,0.3937053680419922
1697665033089061600,9.0030615234375,-2.901477336883545,-7.730583190917969,2.46099853515625
1697665033098653700,9.01265380859375,-2.8498570919036865,-3.56795597076416,3.659532070159912
1697665033108244700,9.02224462890625,-3.8995068073272705,0.1716318130493164,4.035493850708008
1697665033117835000,9.0318349609375,-3.94166898727417,2.662264823913574,4.088205814361572
1697665033127426300,9.04142626953125,-2.013211727142334,4.687259197235107,3.4158687591552734
1697665033137018000,9.05101806640625,-0.1569550335407257,4.700551509857178,2.3587565422058105
1697665033146609400,9.060609375,2.2345595359802246,2.348306655883789,1.06461763381958
1697665033156199700,9.07019970703125,4.032403469085693,0.058081626892089844,-0.6609629988670349
1697665033165791000,9.079791015625,4.0952606201171875,-1.0017986297607422,-0.6238016486167908
1697665033175382800,9.0893828125,2.4874351024627686,-0.515110969543457,-0.19062864780426025
1697665033184973800,9.098973876953124,0.45809733867645264,0.2141895294189453,-0.06908237934112549
1697665033194564400,9.108564453125,-1.4798070192337036,0.04090595245361328,-0.3726992607116699
1697665033204155400,9.1181552734375,-2.8190321922302246,0.23784160614013672,-1.1320643424987793
1697665033213747200,9.127747314453124,-3.1119377613067627,0.8404808044433594,-1.902315616607666
1697665033223338500,9.13733837890625,-2.8490400314331055,1.5170059204101562,-2.3256630897521973
1697665033232928800,9.1469287109375,-2.1990890502929688,1.8412981033325195,-2.6510586738586426
1697665033242520000,9.15652001953125,-1.280969262123108,1.889533519744873,-2.655764579772949
1697665033252112000,9.16611181640625,-0.5778337717056274,1.7115669250488281,-2.838237762451172
1697665033261703200,9.175703125,0.1849910318851471,2.0349502563476562,-2.7182435989379883
1697665033271293400,9.18529345703125,0.7550984025001526,2.4145450592041016,-2.401916980743408
1697665033280884500,9.194884521484376,1.3268332481384277,2.591592311859131,-1.9029732942581177
1697665033290476500,9.2044765625,1.7691023349761963,2.9410881996154785,-1.4415546655654907
1697665033300067600,9.214067626953126,2.1730852127075195,3.5725936889648438,-1.2357865571975708
1697665033309658000,9.223658203125,2.674403429031372,4.096838474273682,-1.2915698289871216
1697665033319249200,9.233249267578126,2.743093729019165,4.390040874481201,-1.400999903678894
1697665033328841000,9.242841064453126,2.6911420822143555,3.9715261459350586,-1.1062711477279663
1697665033338432300,9.252432373046876,2.87174654006958,3.3320493698120117,-0.6615827083587646
1697665033348022500,9.2620224609375,3.5975534915924072,2.634646415710449,-0.10609674453735352
1697665033357613800,9.27161376953125,5.025369644165039,2.5485472679138184,0.5788979530334473
1697665033367205600,9.28120556640625,4.8262434005737305,-0.2887544631958008,1.119023323059082
1697665033376797000,9.290796875,1.8850198984146118,-6.212491989135742,1.8840103149414062
1697665033386387200,9.30038720703125,-1.7681219577789307,-11.667318344116211,3.1349260807037354
1697665033395978200,9.309978271484376,-2.8635339736938477,-11.493206024169922,3.5051381587982178
1697665033405570300,9.3195703125,-4.770430088043213,-7.596471786499023,1.0436482429504395
1697665033415161300,9.329161376953126,-6.412540435791016,-4.377774238586426,-1.1553428173065186
1697665033424751600,9.338751708984375,-3.629312038421631,-2.6867151260375977,-2.12031626701355
1697665033434343000,9.348343017578125,0.5015286207199097,-3.540201187133789,-0.6955342292785645
1697665033443935000,9.35793505859375,2.1646220684051514,-3.867330551147461,0.7590519189834595
1697665033453526000,9.367526123046876,2.771552562713623,-3.7117128372192383,1.1611897945404053
1697665033463116300,9.3771162109375,2.864924907684326,-2.426571846008301,0.6210403442382812
1697665033472707600,9.38670751953125,3.033900737762451,-0.3865242004394531,-0.2307063341140747
1697665033482299400,9.39629931640625,2.7531933784484863,1.2077178955078125,-1.1363847255706787
1697665033491890400,9.405890380859375,1.8348636627197266,1.9457483291625977,-1.7741587162017822
1697665033501481000,9.41548095703125,1.3227630853652954,1.9577741622924805,-2.358910322189331
1697665033511072000,9.425072021484375,0.9844374060630798,1.7994165420532227,-2.981678009033203
1697665033520664000,9.4346640625,0.48088783025741577,1.5574283599853516,-3.632936954498291
1697665033530255000,9.444255126953125,0.45072507858276367,0.9939146041870117,-3.891685962677002
1697665033539845400,9.453845458984375,0.7865180969238281,0.5213184356689453,-4.285859107971191
1697665033549436700,9.463436767578125,1.5440127849578857,0.16418075561523438,-4.311282157897949
1697665033559028700,9.47302880859375,2.2176218032836914,-0.44980716705322266,-4.017948150634766
1697665033568619800,9.482619873046875,2.714142322540283,-1.5231914520263672,-3.270904541015625
1697665033578210000,9.4922099609375,3.0187559127807617,-2.7999935150146484,-2.247363805770874
1697665033587801300,9.50180126953125,2.7401976585388184,-3.506786346435547,-1.3247555494308472
1697665033597393200,9.51139306640625,1.6883466243743896,-3.9387569427490234,0.3458325266838074
1697665033606984400,9.520984375,0.3795086145401001,-4.133315086364746,3.049247980117798
1697665033616574700,9.53057470703125,-1.0215327739715576,-3.679837226867676,4.892734527587891
1697665033626165800,9.540165771484375,-1.8963457345962524,-2.5560598373413086,4.527615070343018
1697665033635757800,9.5497578125,-1.6379585266113281,-1.3907747268676758,3.215085744857788
1697665033645348900,9.559348876953125,-0.6189173460006714,-0.4742279052734375,2.091301918029785
1697665033654939100,9.568939208984375,0.403073787689209,0.5488405227661133,1.2987163066864014
1697665033664530400,9.578530517578125,1.4104026556015015,1.8635029792785645,0.2586067020893097
1697665033674122500,9.58812255859375,2.4804959297180176,3.2296156883239746,-0.7389450073242188
1697665033683713500,9.597713623046875,3.2966814041137695,4.648483753204346,-1.6066573858261108
1697665033693303800,9.6073037109375,3.3719441890716553,5.757228851318359,-2.0474703311920166
1697665033702895000,9.61689501953125,2.6225690841674805,6.302364349365234,-2.1708426475524902
1697665033712487000,9.62648681640625,2.1839849948883057,6.480692386627197,-2.4362611770629883
1697665033722078200,9.636078125,1.9940998554229736,6.381229400634766,-2.610971450805664
1697665033731668500,9.64566845703125,1.8051238059997559,6.068587303161621,-2.1497926712036133
1697665033741259800,9.655259765625,0.9538676738739014,5.549921035766602,-1.6935954093933105
1697665033750851600,9.6648515625,1.0102487802505493,4.8809051513671875,-1.3534748554229736
1697665033760442600,9.674442626953125,1.1378750801086426,3.5036497116088867,-0.6955764293670654
1697665033770033200,9.684033203125,1.312502145767212,2.6856656074523926,-0.33140110969543457
1697665033779624200,9.693624267578125,1.437525987625122,2.246133327484131,-0.2107837200164795
1697665033789216300,9.70321630859375,1.4794511795043945,2.154679298400879,-0.319355845451355
1697665033798807300,9.712807373046875,1.4917912483215332,2.0578360557556152,-0.521435022354126
1697665033808397600,9.7223974609375,1.551981806755066,1.5392637252807617,-0.4787095785140991
1697665033817988900,9.73198876953125,2.100700855255127,0.9517221450805664,-0.404740571975708
1697665033827581000,9.741580810546875,2.8360390663146973,0.44298267364501953,-0.629280686378479
1697665033837172000,9.751171875,3.5269968509674072,0.11835193634033203,-0.946500301361084
1697665033846762200,9.76076220703125,4.618176460266113,0.15312480926513672,-1.5166136026382446
1697665033856353500,9.770353515625,5.83820104598999,0.43747425079345703,-1.9441869258880615
1697665033865945300,9.7799453125,5.660064697265625,0.7193517684936523,-1.9990997314453125
1697665033875536600,9.78953662109375,4.445059299468994,0.46906471252441406,-1.6981875896453857
1697665033885127000,9.799126953125,2.400339126586914,-0.7792177200317383,-1.9158302545547485
1697665033894718000,9.808718017578125,2.8514082431793213,-1.7324466705322266,-1.6308761835098267
1697665033904310000,9.81831005859375,3.213428258895874,-2.5327701568603516,-0.3600339889526367
1697665033913901000,9.827901123046875,4.35588264465332,-2.414076805114746,2.053870677947998
1697665033923491600,9.83749169921875,4.768483638763428,-2.15346622467041,4.121755599975586
1697665033933082600,9.84708251953125,4.392120838165283,-2.523622512817383,5.08101749420166
1697665033942674700,9.8566748046875,3.865814447402954,-3.6499156951904297,5.545058727264404
1697665033952265700,9.866265625,2.786092758178711,-4.7062530517578125,4.674167633056641
1697665033961856000,9.87585595703125,1.9639604091644287,-5.498049736022949,3.0577468872070312
1697665033971447300,9.885447265625,2.187924385070801,-5.530068397521973,0.8992338180541992
1697665033981039000,9.8950390625,2.989187717437744,-4.643195152282715,-1.189330816268921
1697665033990630400,9.90463037109375,3.6465914249420166,-2.9488277435302734,-2.636166572570801
1697665034000220700,9.914220703125,3.522172451019287,-1.0256996154785156,-3.1385879516601562
1697665034009812000,9.92381201171875,2.825751781463623,0.784998893737793,-3.387861728668213
1697665034019403800,9.93340380859375,2.006114959716797,1.9667859077453613,-3.2489593029022217
1697665034028995000,9.9429951171875,1.075839877128601,2.420424461364746,-2.981631278991699
1697665034038585300,9.95258544921875,0.24497294425964355,2.38653564453125,-2.4530439376831055
1697665034048176400,9.96217626953125,-0.35838913917541504,1.8193254470825195,-2.481440305709839
1697665034057768400,9.9717685546875,-0.7324302196502686,0.04115486145019531,-2.7570011615753174
1697665034067359700,9.98135986328125,-0.7578973770141602,-2.2908382415771484,-3.6386568546295166
1697665034076949800,9.99094970703125,-0.5172739028930664,-4.689522743225098,-4.12239933013916
1697665034086541000,10.000541015625,-1.0182338953018188,-6.156274795532227,-4.05458927154541
1697665034096133000,10.010133056640624,-2.715877056121826,-7.0947771072387695,-2.529780387878418
1697665034105724200,10.01972412109375,-5.91727352142334,-7.124235153198242,0.6816295385360718
1697665034115314400,10.029314453125,-8.36721420288086,-5.53662109375,3.0379385948181152
1697665034124905700,10.03890576171875,-8.65953254699707,-2.9819412231445312,4.141140937805176
1697665034134497500,10.04849755859375,-6.157545566558838,-0.36546897888183594,3.6499626636505127
1697665034144088800,10.0580888671875,-2.5671873092651367,1.791646957397461,2.5498666763305664
1697665034153679000,10.06767919921875,-0.9095921516418457,2.6553025245666504,1.678606390953064
1697665034163270400,10.0772705078125,0.0011758804321289062,2.3841123580932617,1.0717788934707642
1697665034172862200,10.0868623046875,1.114753007888794,2.10634708404541,0.3413354456424713
1697665034182453500,10.09645361328125,1.847204566001892,1.7679290771484375,-0.6704319715499878
1697665034192043800,10.106043701171876,2.346025228500366,1.214578628540039,-1.417087197303772
1697665034201634800,10.115634765625,2.5140295028686523,0.9178476333618164,-1.9784908294677734
1697665034211227000,10.125226806640624,2.4695587158203125,0.8155879974365234,-2.4783568382263184
1697665034220818200,10.134818115234374,2.8740346431732178,1.0609045028686523,-2.49582576751709
1697665034230408400,10.144408447265626,3.0331783294677734,1.3932609558105469,-2.43782377243042
1697665034239999500,10.15399951171875,2.8435118198394775,1.659902572631836,-2.3744053840637207
1697665034249591600,10.163591552734376,2.533702850341797,1.9468092918395996,-2.058894395828247
1697665034259182600,10.1731826171875,2.046522617340088,2.2008872032165527,-1.5791593790054321
1697665034268773600,10.182773681640626,1.4669528007507324,2.526923179626465,-1.3722577095031738
1697665034278364700,10.19236474609375,1.1958179473876953,2.8792662620544434,-1.2502391338348389
1697665034287956700,10.201956787109374,1.0152984857559204,3.14304256439209,-1.0345618724822998
1697665034297547800,10.2115478515625,0.7952517867088318,3.461717128753662,-0.849949836730957
1697665034307138000,10.221137939453126,0.5228722095489502,3.6918487548828125,-0.6818225383758545
1697665034316729300,10.230729248046876,0.2190089225769043,3.7618489265441895,-0.4709950089454651
1697665034326321400,10.2403212890625,-0.07651698589324951,3.609640598297119,-0.0786445140838623
1697665034335912400,10.249912353515626,-0.3080459237098694,3.1134018898010254,0.4934426546096802
1697665034345502700,10.259502685546876,-0.5637704730033875,2.223165512084961,1.2123594284057617
1697665034355094000,10.269093994140626,-0.8196501731872559,0.8272619247436523,1.5939979553222656
1697665034364685800,10.278685791015626,-0.9599076509475708,-0.8771257400512695,1.1344209909439087
1697665034374277000,10.288277099609376,-0.5246533751487732,-2.7069664001464844,-0.2950255274772644
1697665034383867400,10.297867431640626,0.6108334064483643,-4.623000144958496,-2.205270290374756
1697665034393458700,10.307458740234376,2.295337677001953,-4.7808380126953125,-3.430767297744751
1697665034403050500,10.317050537109376,3.4699318408966064,-3.146364212036133,-3.270374298095703
1697665034412641800,10.326641845703126,4.462776184082031,-1.341282844543457,-1.6908485889434814
1697665034422232000,10.336232177734376,5.842228889465332,0.34470081329345703,0.11709809303283691
1697665034431823400,10.3458232421875,6.851533889770508,1.365645408630371,2.081521511077881
1697665034441415200,10.355415283203126,6.450689792633057,1.3720951080322266,3.7007217407226562
1697665034451006200,10.365006103515626,3.9790046215057373,0.5270414352416992,4.1261701583862305
1697665034460596700,10.3745966796875,1.6500048637390137,-1.3549957275390625,5.7901716232299805
1697665034470187800,10.384187744140625,-2.122905969619751,-3.046818733215332,4.955677032470703
1697665034479779800,10.39377978515625,-5.112756729125977,-4.666420936584473,-0.7239746451377869
1697665034489371000,10.403370849609376,-3.815584182739258,-7.574959754943848,-4.852700233459473
1697665034498961400,10.41296142578125,-0.2152530550956726,-9.688387870788574,-7.269804000854492
1697665034508552400,10.422552490234375,1.1527698040008545,-11.300674438476562,-6.01334285736084
1697665034518144500,10.43214453125,-1.1488139629364014,-10.287312507629395,-2.9208567142486572
1697665034527735600,10.441735595703125,-4.330405235290527,-6.904885292053223,-2.8070790767669678
1697665034537325800,10.451325927734375,-4.24935245513916,-4.051054000854492,-2.7234280109405518
1697665034546917000,10.460917236328125,-2.4929490089416504,-1.634552001953125,-2.0868194103240967
1697665034556509000,10.470509033203125,-1.1101315021514893,-0.22101116180419922,-1.6908024549484253
1697665034566100200,10.480100341796875,-1.057836890220642,0.3619117736816406,-2.4316835403442383
1697665034575690500,10.4896904296875,-1.0310174226760864,0.2726020812988281,-3.3869478702545166
1697665034585281800,10.49928173828125,-0.21327358484268188,0.21603679656982422,-3.960160255432129
1697665034594873600,10.50887353515625,0.6421260833740234,-0.2366790771484375,-4.6433539390563965
1697665034604465000,10.51846484375,1.0620980262756348,-1.0482673645019531,-5.6549224853515625
1697665034614055200,10.52805517578125,0.8099669814109802,-1.351217269897461,-6.633600234985352
1697665034623646500,10.537646484375,3.387106418609619,-1.9115915298461914,-5.071361064910889
1697665034633238300,10.54723828125,2.836181640625,-0.4676074981689453,-5.0069146156311035
1697665034642829600,10.55682958984375,2.4640250205993652,1.4329462051391602,-4.837562561035156
1697665034652419800,10.566419921875,2.613217830657959,2.3247413635253906,-3.172304391860962
1697665034662011100,10.57601123046875,4.126041412353516,2.2124314308166504,-0.8138431310653687
1697665034671603000,10.58560302734375,3.748757839202881,2.0790529251098633,0.07305407524108887
1697665034681194000,10.595194091796875,2.7777657508850098,2.0233254432678223,0.22833898663520813
1697665034690784500,10.604784423828125,2.2155776023864746,2.265796184539795,0.544791042804718
1697665034700375600,10.61437548828125,1.598888635635376,2.608952045440674,0.5086610317230225
1697665034709967600,10.623967529296875,0.6277666091918945,2.7768688201904297,-0.06314101815223694
1697665034719558700,10.63355859375,-0.4968738555908203,2.4010462760925293,-0.4603562355041504
1697665034729149000,10.64314892578125,-1.3931673765182495,1.692275047302246,-1.196223497390747
1697665034738740200,10.652740234375,-1.5481622219085693,0.83544921875,-1.9862574338912964
1697665034748332300,10.662332275390625,-0.9284262657165527,0.10978889465332031,-2.5740160942077637
1697665034757923300,10.67192333984375,0.7634979486465454,-0.3050394058227539,-2.5639896392822266
1697665034767513600,10.681513671875,2.263925552368164,-0.24955081939697266,-2.1939268112182617
1697665034777105000,10.69110498046875,3.1963372230529785,-0.022336959838867188,-1.8341933488845825
1697665034786697000,10.700697021484375,3.5514464378356934,0.22832965850830078,-1.3401037454605103
1697665034796288000,10.7102880859375,3.6613564491271973,0.5073366165161133,-0.9436190724372864
1697665034805878300,10.719878173828125,3.682671308517456,0.9079132080078125,-0.62152498960495
1697665034815469600,10.729469482421875,3.593226909637451,1.2672042846679688,-0.2512440085411072
1697665034825061400,10.739061279296875,3.5375757217407227,1.5302705764770508,-0.06588277220726013
1697665034834652700,10.748652587890625,3.3060739040374756,1.4983773231506348,-0.31254613399505615
1697665034844243000,10.758242919921875,2.8871734142303467,0.9989643096923828,-0.643335223197937
1697665034853834200,10.767834228515625,2.329556703567505,0.10327816009521484,-0.573387861251831
1697665034863426000,10.777426025390625,1.8958100080490112,-0.4862499237060547,-0.4181254208087921
1697665034873017300,10.787017333984375,2.038116455078125,-0.8578252792358398,-0.550281822681427
1697665034882607600,10.796607666015625,2.759366989135742,-0.8019790649414062,-1.1144633293151855
1697665034892199000,10.806198974609375,3.604896068572998,-0.13770580291748047,-1.27156400680542
1697665034901790700,10.815790771484375,4.046294689178467,0.7485589981079102,-0.17720651626586914
1697665034911382000,10.825382080078125,4.148979187011719,1.2070436477661133,1.0363309383392334
1697665034920972300,10.83497216796875,4.118257999420166,1.2067022323608398,1.5847245454788208
1697665034930563600,10.8445634765625,3.7744550704956055,1.1884241104125977,1.5454049110412598
1697665034940155400,10.8541552734375,3.085261583328247,1.0046491622924805,0.5456361174583435
1697665034949746700,10.86374658203125,2.601761817932129,0.07943439483642578,0.24249935150146484
1697665034959337000,10.8733369140625,2.3912453651428223,-0.7791776657104492,-0.06789463758468628
1697665034968928000,10.882927978515625,2.285936117172241,-1.3334283828735352,-1.0278478860855103
1697665034978520000,10.89252001953125,2.5478055477142334,-1.5379972457885742,-2.024290084838867
1697665034988111000,10.902111083984375,2.6208181381225586,-1.320296287536621,-3.0469632148742676
1697665034997701600,10.91170166015625,2.6959640979766846,-1.2168331146240234,-3.9766509532928467
1697665035007292700,10.921292724609375,2.2955105304718018,-0.8917398452758789,-4.758701801300049
1697665035016884700,10.930884765625,1.636657476425171,-0.2993631362915039,-5.153364181518555
1697665035026475800,10.940475830078125,0.8966965675354004,-0.00408935546875,-5.133429527282715
1697665035036066300,10.95006640625,-0.5411807298660278,-0.7078933715820312,-4.9186272621154785
1697665035045657300,10.9596572265625,-2.566291332244873,-2.6012887954711914,-4.477053165435791
1697665035055249400,10.96924951171875,-3.7749428749084473,-5.110590934753418,-4.587164878845215
1697665035064840400,10.97884033203125,-3.9877359867095947,-7.411280632019043,-4.1230926513671875
1697665035074431000,10.988430908203124,-4.674475193023682,-8.955443382263184,-3.502139091491699
1697665035084022000,10.99802197265625,-6.648741722106934,-8.747432708740234,-2.143839120864868
1697665035093614000,11.007614013671875,-7.959447383880615,-6.97074031829834,0.2195436954498291
1697665035103205000,11.017205078125,-7.504122257232666,-4.629391670227051,2.7772860527038574
1697665035112795400,11.02679541015625,-4.70811128616333,-1.036123275756836,3.6791701316833496
1697665035122386700,11.03638671875,-3.7291760444641113,0.9515819549560547,4.351123332977295
1697665035131978800,11.045978759765624,-3.419536828994751,2.244292736053467,4.496359348297119
1697665035141569800,11.05556982421875,-2.1053900718688965,3.428511619567871,4.331115245819092
1697665035151160000,11.06516015625,-0.06814220547676086,3.558070182800293,2.80393385887146
1697665035160751400,11.07475146484375,2.0830066204071045,2.3953018188476562,1.259324312210083
1697665035170343400,11.084343505859374,4.290513038635254,0.4597454071044922,0.06107950210571289
1697665035179934500,11.0939345703125,6.348320960998535,-0.9416627883911133,-0.938495397567749
1697665035189524700,11.103524658203124,6.692651748657227,-1.2112197875976562,-1.766951084136963
1697665035199116000,11.113115966796874,4.162442207336426,-0.9041624069213867,-1.9409277439117432
1697665035208707800,11.122707763671874,1.7594763040542603,-0.7217206954956055,-2.143685817718506
1697665035218299100,11.132299072265624,0.008137017488479614,-0.8613519668579102,-2.30062198638916
1697665035227889400,11.141889404296874,-1.5342234373092651,-1.142526626586914,-2.2465310096740723
1697665035237480700,11.151480712890624,-2.7538137435913086,-1.3687572479248047,-1.9141392707824707
1697665035247072500,11.161072509765624,-3.000420093536377,-1.3653736114501953,-1.4033597707748413
1697665035256663800,11.170663818359374,-3.3629233837127686,-0.9669828414916992,-1.8015609979629517
1697665035266254000,11.180254150390626,-1.8191241025924683,-0.23724651336669922,-2.343874931335449
1697665035275845400,11.189845458984376,-0.5631949305534363,0.00588226318359375,-2.4611575603485107
1697665035285437200,11.199437255859374,0.2833501398563385,0.2085123062133789,-2.322373390197754
1697665035295028500,11.209028564453124,0.8429617285728455,0.6190891265869141,-2.711730480194092
1697665035304618800,11.21861865234375,1.29029381275177,1.0269756317138672,-3.0285069942474365
1697665035314210000,11.2282099609375,1.631959080696106,1.4533395767211914,-3.233292579650879
1697665035323801900,11.2378017578125,1.7220901250839233,1.8596463203430176,-3.372539520263672
1697665035333393200,11.24739306640625,1.6728640794754028,2.0594558715820312,-3.394456386566162
1697665035342983400,11.2569833984375,1.645810842514038,1.9597444534301758,-3.1930158138275146
1697665035352574700,11.26657470703125,1.785309910774231,1.7424488067626953,-2.984631061553955
1697665035362166500,11.27616650390625,2.108635663986206,1.311981201171875,-2.732239007949829
1697665035371757800,11.2857578125,2.381039619445801,0.8764991760253906,-2.434020757675171
1697665035381348000,11.29534814453125,2.507084608078003,0.33573246002197266,-2.049427032470703
1697665035390939400,11.304939453125,2.57352352142334,-0.22870159149169922,-1.4682329893112183
1697665035400531200,11.31453125,2.493135929107666,-0.8785514831542969,-0.8784747123718262
1697665035410122500,11.32412255859375,2.288512706756592,-1.6634273529052734,-0.42211461067199707
1697665035419712800,11.333712646484376,2.089237689971924,-2.4180908203125,-0.14124202728271484
1697665035429304000,11.343303955078126,1.68038010597229,-3.0524721145629883,0.1607213020324707
1697665035438895900,11.352895751953126,1.1825710535049438,-3.23736572265625,-0.1351790428161621
1697665035448487200,11.362487060546876,0.08035188913345337,-5.287727355957031,-1.0153595209121704
1697665035458077400,11.372077392578126,-0.8902812004089355,-7.789414405822754,-1.302878975868225
1697665035467668700,11.381668701171876,-2.120558023452759,-9.951461791992188,-0.8425354957580566
1697665035477260500,11.391260498046876,-2.359307050704956,-10.084487915039062,-1.7920160293579102
1697665035486851800,11.400851806640626,-1.4833818674087524,-8.23572826385498,-2.0054397583007812
1697665035496442000,11.410442138671876,-0.552571713924408,-5.710420608520508,-0.30794239044189453
1697665035506033400,11.420033447265626,-0.7173024415969849,-3.454220771789551,0.7462112903594971
1697665035515625200,11.429625244140626,-0.45807945728302,-1.4106016159057617,0.7170078754425049
1697665035525216500,11.439216552734376,-0.6680684089660645,-0.1614675521850586,0.3093395233154297
1697665035534806800,11.448806884765625,-0.912299633026123,0.24481487274169922,0.2617313861846924
1697665035544397800,11.458397705078125,-0.8470684885978699,0.6197357177734375,0.38798046112060547
1697665035553990000,11.467989990234376,-0.9203816056251526,1.1661319732666016,0.20636916160583496
1697665035563581200,11.477581298828126,-1.1543352603912354,1.660858154296875,-0.11505413055419922
1697665035573171500,11.48717138671875,-1.2132582664489746,2.084832191467285,-0.7716599702835083
1697665035582762800,11.4967626953125,-1.205411672592163,2.1948776245117188,-1.5029743909835815
1697665035592354600,11.5063544921875,-1.0463480949401855,1.8702192306518555,-2.025371551513672
1697665035601945900,11.51594580078125,-0.7642988562583923,1.3481855392456055,-2.5216760635375977
1697665035611536100,11.5255361328125,-0.45438408851623535,0.7051382064819336,-2.6313629150390625
1697665035621127200,11.535127197265625,-0.2232990860939026,0.28021907806396484,-2.860189914703369
1697665035630719200,11.54471923828125,0.13646817207336426,0.11351966857910156,-3.0353963375091553
1697665035640310300,11.554310302734375,0.46760720014572144,0.0013990402221679688,-2.8618364334106445
1697665035649900800,11.56390087890625,0.7190618515014648,-0.0708150863647461,-2.2929911613464355
1697665035659491800,11.573491943359375,1.0308070182800293,-0.203643798828125,-1.524145483970642
1697665035669084000,11.583083984375,1.3591649532318115,-0.2467193603515625,-0.7918491959571838
1697665035678675200,11.59267529296875,1.0325777530670166,-0.5302925109863281,-0.19673651456832886
1697665035688265500,11.602265380859375,0.3039094805717468,-0.8392324447631836,0.16507560014724731
1697665035697856800,11.611856689453125,0.022981643676757812,-0.7604084014892578,0.5737878084182739
1697665035707448600,11.621448486328125,-0.09178853034973145,-0.4640645980834961,0.3685002326965332
1697665035717039900,11.631039794921875,0.20637327432632446,-0.021749496459960938,-0.5593998432159424
1697665035726630100,11.640630126953125,0.699915885925293,0.7219839096069336,-1.4024285078048706
1697665035736221200,11.65022119140625,0.6409175395965576,1.4034299850463867,-1.9822051525115967
1697665035745813200,11.659813232421875,0.12092244625091553,1.8529186248779297,-2.2540054321289062
1697665035755404300,11.669404296875,0.3143186569213867,2.0091395378112793,-2.7288765907287598
1697665035764994800,11.678994873046875,0.19843924045562744,1.9778990745544434,-2.916738510131836
1697665035774585900,11.6885859375,-0.3311716318130493,1.9837002754211426,-2.525507926940918
1697665035784178000,11.698177978515625,-0.47756946086883545,2.2770113945007324,-2.1785221099853516
1697665035793769200,11.707769287109375,-0.31631743907928467,2.611131191253662,-1.8159847259521484
1697665035803359500,11.717359375,0.11184656620025635,2.9503965377807617,-1.4344223737716675
1697665035812950800,11.72695068359375,0.6612116098403931,3.027719497680664,-0.8306633234024048
1697665035822542600,11.73654248046875,0.8699668049812317,2.8296360969543457,-0.650333046913147
1697665035832134000,11.7461337890625,1.200476884841919,2.187716484069824,-0.5178669095039368
1697665035841724200,11.75572412109375,1.3840129375457764,1.5118932723999023,-0.40651965141296387
1697665035851315500,11.7653154296875,1.1243486404418945,1.0386295318603516,-0.32991456985473633
1697665035860907300,11.7749072265625,1.079661250114441,0.5716867446899414,-0.14210408926010132
1697665035870498300,11.784498291015625,1.051011323928833,0.3164215087890625,-0.1446613073348999
1697665035880088800,11.7940888671875,0.7904791831970215,0.2818260192871094,0.14809244871139526
1697665035889680000,11.803679931640625,0.5017951726913452,0.2764415740966797,0.6725512146949768
1697665035899272000,11.81327197265625,0.6961634159088135,0.23622703552246094,1.2495986223220825
1697665035908863200,11.82286328125,1.2038400173187256,0.10467338562011719,1.8852508068084717
1697665035918453500,11.83245361328125,2.0506725311279297,-0.055176734924316406,2.476508855819702
1697665035928044500,11.84204443359375,2.6957552433013916,-0.28855228424072266,3.023529529571533
1697665035937636600,11.85163671875,2.582784652709961,-0.7661228179931641,3.3725333213806152
1697665035947228000,11.861227783203125,2.0744261741638184,-1.577347755432129,3.7488811016082764
1697665035956818200,11.870818115234375,1.3227332830429077,-2.5483036041259766,3.4868268966674805
1697665035966409500,11.880409423828125,0.5439746379852295,-3.4519128799438477,2.6117477416992188
1697665035976001300,11.890001220703125,0.02849113941192627,-3.995173454284668,1.5356773138046265
1697665035985592600,11.899592529296875,-0.17458903789520264,-4.535144805908203,1.343766212463379
1697665035995182800,11.909182861328125,-0.5818142890930176,-4.724684715270996,0.8987301588058472
1697665036004774100,11.918774169921875,-0.8774087429046631,-4.388297080993652,0.2521933317184448
1697665036014366000,11.928365966796875,-0.94905686378479,-3.7548294067382812,-0.5230185985565186
1697665036023957200,11.937957275390625,-0.6082425117492676,-2.9349365234375,-1.1973564624786377
1697665036033547500,11.947547607421875,-0.19107961654663086,-1.7468900680541992,-1.5744900703430176
1697665036043138800,11.957138916015625,-0.03486299514770508,-0.4294471740722656,-1.5505057573318481
1697665036052730600,11.966730712890625,0.09457111358642578,0.70733642578125,-1.4521125555038452
1697665036062322000,11.976322021484375,0.1912146806716919,1.6139583587646484,-1.6578789949417114
1697665036071912200,11.985912109375,0.11078965663909912,2.1734442710876465,-1.7957959175109863
1697665036081503500,11.99550341796875,-0.0886162519454956,2.380812644958496,-1.975598692893982
1697665036091095300,12.00509521484375,-0.21536219120025635,2.4506607055664062,-2.297623872756958
1697665036100686600,12.0146865234375,-0.34332752227783203,2.344048500061035,-2.542606830596924
1697665036110276900,12.02427685546875,-0.4463675022125244,2.029534339904785,-2.757671356201172
1697665036119868200,12.0338681640625,-0.5224748849868774,1.2657690048217773,-2.897529125213623
1697665036129460000,12.0434599609375,-0.992385983467102,0.31096649169921875,-2.6794283390045166
1697665036139051300,12.05305126953125,-1.395034909248352,-0.674957275390625,-2.389219284057617
1697665036148641500,12.0626416015625,-1.5706979036331177,-1.58709716796875,-1.9283932447433472
1697665036158232800,12.07223291015625,-1.4560530185699463,-1.9693517684936523,-1.3951091766357422
1697665036167824600,12.08182470703125,-1.1873942613601685,-2.0400686264038086,-0.3139026165008545
1697665036177416000,12.091416015625,-0.8112455010414124,-1.2722301483154297,0.6921902894973755
1697665036187007000,12.101007080078125,-1.0945556163787842,-0.7812271118164062,1.8602322340011597
1697665036196598000,12.110597900390625,-1.8164163827896118,-0.6097326278686523,2.1791112422943115
1697665036206189800,12.12018994140625,-2.31990385055542,-0.6232891082763672,3.146338939666748
1697665036215781000,12.129781005859375,-2.6607818603515625,-0.7190427780151367,4.053941249847412
1697665036225371400,12.139371337890625,-3.291971206665039,-0.514918327331543,4.313417434692383
1697665036234962700,12.148962646484375,-4.322113513946533,0.5041618347167969,3.3484599590301514
1697665036244554500,12.158554443359375,-3.5579495429992676,0.9746866226196289,3.2950241565704346
1697665036254145800,12.168145751953125,-3.120793342590332,1.7346181869506836,0.9881730079650879
1697665036263736000,12.177736083984374,-1.5487470626831055,1.8414945602416992,-1.4643354415893555
