time,seconds_elapsed,z,y,x
1697649262479547600,0.151547607421875,-0.35230615735054016,-0.017409147694706917,0.1382041871547699
1697649262489140500,0.161140380859375,-0.29977330565452576,0.08521319180727005,0.277630090713501
1697649262498734300,0.170734375,-0.2838912606239319,0.1719534993171692,0.40712970495224
1697649262508328700,0.18032861328125,-0.30343836545944214,0.2635805904865265,0.5121954083442688
1697649262517922000,0.189922119140625,-0.3364241421222687,0.3662029206752777,0.568393349647522
1697649262527515100,0.19951513671875,-0.34375429153442383,0.46638187766075134,0.568393349647522
1697649262537108700,0.209108642578125,-0.3205420970916748,0.5213581323623657,0.5280774831771851
1697649262546703000,0.218703125,-0.2838912606239319,0.5299099683761597,0.4572191834449768
1697649262556296400,0.22829638671875,-0.2533488869667053,0.5164713859558105,0.3521534502506256
1697649262565889300,0.23788916015625,-0.25090551376342773,0.4737120568752289,0.2214321345090866
1697649262575483100,0.247483154296875,-0.2851129472255707,0.4175141155719757,0.05512896552681923
1697649262585077500,0.257077392578125,-0.33031564950942993,0.37597647309303284,-0.1525591015815735
1697649262594671000,0.266671142578125,-0.38040512800216675,0.328330397605896,-0.35169529914855957
1697649262604264000,0.276263916015625,-0.47081053256988525,0.29534465074539185,-0.46164780855178833
1697649262613857500,0.285857421875,-0.6198572516441345,0.3637595474720001,-0.5178457498550415
1697649262623452000,0.295451904296875,-0.7481352090835571,0.4199574887752533,-0.5752654075622559
1697649262633045500,0.30504541015625,-0.8422056436538696,0.42850935459136963,-0.5960342288017273
1697649262642638300,0.314638427734375,-0.9020686745643616,0.4480564594268799,-0.5459447503089905
1697649262652232000,0.32423193359375,-0.8703046441078186,0.4883723855018616,-0.5349494814872742
1697649262661826300,0.333826416015625,-0.7163711190223694,0.3955236077308655,-0.6424586176872253
1697649262671420000,0.343419921875,-0.43415969610214233,0.19883078336715698,-0.8086090683937073
1697649262681012700,0.3530126953125,-0.31443363428115845,-0.0198525357991457,-0.9759812355041504
1697649262690606300,0.3626064453125,-0.4011739492416382,-0.1713426560163498,-1.061499834060669
1697649262700200700,0.37220068359375,-0.4512633979320526,-0.34482327103614807,-1.0321791172027588
1697649262709794300,0.381794189453125,-0.36574479937553406,-0.6013791561126709,-0.9197832345962524
1697649262719387100,0.39138720703125,-0.18737739324569702,-0.8383878469467163,-0.7915053367614746
1697649262728980700,0.400980712890625,0.009315420873463154,-0.9568922519683838,-0.6449019908905029
1697649262738575000,0.4105751953125,0.1620272397994995,-0.9923213720321655,-0.49829864501953125
1697649262748168700,0.420168701171875,0.26220619678497314,-0.9385668039321899,-0.3761292099952698
1697649262757761500,0.429761474609375,0.31596073508262634,-0.7748597264289856,-0.2808370292186737
1697649262767355100,0.439355224609375,0.3232909142971039,-0.6697940230369568,-0.19409671425819397
1697649262776949500,0.448949462890625,0.30740886926651,-0.634364902973175,-0.07070557028055191
1697649262786543000,0.458543212890625,0.27686652541160583,-0.6282563805580139,0.09422318637371063
1697649262796136000,0.468135986328125,0.2170034945011139,-0.6991146802902222,0.24097923934459686
1697649262805729500,0.4777294921875,0.13026317954063416,-0.8090671896934509,0.3264978528022766
1697649262815324000,0.487323974609375,0.03374931216239929,-0.901915967464447,0.3301629424095154
1697649262824917500,0.49691748046875,-0.05543438717722893,-0.8664868474006653,0.25563958287239075
1697649262834510300,0.50651025390625,-0.15561333298683167,-0.5745018720626831,0.10644013434648514
1697649262844104000,0.51610400390625,-0.2667875289916992,-0.3570402264595032,-0.06337540596723557
1697649262853698300,0.5256982421875,-0.3474193811416626,-0.19944162666797638,-0.18187977373600006
1697649262863292000,0.5352919921875,-0.40606072545051575,-0.05528167635202408,-0.26006820797920227
1697649262872884700,0.544884765625,-0.47325390577316284,0.057114217430353165,-0.35169529914855957
1697649262882478300,0.554478271484375,-0.5257867574691772,0.17439688742160797,-0.47019967436790466
1697649262892072700,0.56407275390625,-0.552664041519165,0.2586938142776489,-0.585038959980011
1697649262901666300,0.573666259765625,-0.5587725043296814,0.3014531135559082,-0.6730009913444519
1697649262911259100,0.583259033203125,-0.5514423847198486,0.2867927849292755,-0.7316423058509827
1697649262920852700,0.592852783203125,-0.529451847076416,0.2098260372877121,-0.7597413063049316
1697649262930447000,0.602447021484375,-0.48424917459487915,0.07543963938951492,-0.7548545002937317
1697649262940040700,0.612040771484375,-0.42194274067878723,-0.0528382882475853,-0.7206470370292664
1697649262949633500,0.621633544921875,-0.3706315755844116,-0.13835690915584564,-0.6839962005615234
1697649262959227100,0.63122705078125,-0.3205420970916748,-0.21776704490184784,-0.6607840061187744
1697649262968821500,0.640821533203125,-0.24724042415618896,-0.16645587980747223,-0.6534538269042969
1697649262978415000,0.6504150390625,-0.16172181069850922,0.1560714691877365,-0.6986565589904785
1697649262988008000,0.660008056640625,-0.09330692142248154,0.25747212767601013,-0.6925480961799622
1697649262997601500,0.6696015625,0.004428642801940441,0.377198189496994,-0.682774543762207
1697649263007196000,0.67919580078125,0.1522536724805832,0.6667397618293762,-0.7719582319259644
1697649263016789500,0.68878955078125,0.20722992718219757,0.9135220646858215,-0.9991934299468994
1697649263026382300,0.69838232421875,0.21211670339107513,0.7950177192687988,-0.9906415343284607
1697649263035976000,0.707975830078125,0.28908345103263855,0.8524373769760132,-0.8379297256469727
1697649263045570300,0.7175703125,0.3184041380882263,0.9379559755325317,-0.7023216485977173
1697649263055164000,0.727163818359375,0.2976353168487549,1.0283613204956055,-0.5044071078300476
1697649263064756700,0.7367568359375,0.27564483880996704,1.1016629934310913,-0.1635543555021286
1697649263074350300,0.746350341796875,0.23899398744106293,1.0808942317962646,0.2629697322845459
1697649263083944700,0.75594482421875,0.19623468816280365,0.929404079914093,0.7076665759086609
1697649263093538600,0.76553857421875,0.15958385169506073,0.7033905982971191,1.110825777053833
1697649263103131100,0.775131103515625,0.12293300777673721,0.45416492223739624,1.410140872001648
1697649263112724700,0.784724853515625,0.06795676052570343,0.20127417147159576,1.5714045763015747
1697649263122319000,0.794319091796875,-0.007788302376866341,-0.033291175961494446,1.5982818603515625
1697649263131912700,0.80391259765625,-0.09452861547470093,-0.22754059731960297,1.5054330825805664
1697649263141505500,0.813505615234375,-0.19715094566345215,-0.3680354654788971,1.3111836910247803
1697649263151099400,0.823099365234375,-0.3107685446739197,-0.46210595965385437,1.03996741771698
1697649263160693800,0.83269384765625,-0.42072105407714844,-0.5036435723304749,0.7284353375434875
1697649263170287000,0.842287109375,-0.5221216678619385,-0.49264830350875854,0.4022429287433624
1697649263179880000,0.8518798828125,-0.6186355352401733,-0.44133713841438293,0.08811471611261368
1697649263189473500,0.8614736328125,-0.6943806409835815,-0.3423798978328705,-0.20631365478038788
1697649263199068000,0.87106787109375,-0.7285880446434021,-0.18722468614578247,-0.48241662979125977
1697649263208661800,0.880661865234375,-0.710262656211853,-0.007635590620338917,-0.7450809478759766
1697649263218254300,0.89025439453125,-0.6418477296829224,0.16217994689941406,-0.9894198179244995
1697649263227848200,0.89984814453125,-0.5367820262908936,0.2892361879348755,-1.2056597471237183
1697649263237442600,0.909442626953125,-0.4133908748626709,0.36009445786476135,-1.3852488994598389
1697649263247036000,0.919035888671875,-0.2814478874206543,0.37353309988975525,-1.5196353197097778
1697649263256628700,0.928628662109375,-0.1495048701763153,0.33199548721313477,-1.5929369926452637
1697649263266222600,0.93822265625,-0.011453386396169662,0.25747212767601013,-1.589271903038025
1697649263275817000,0.94781689453125,0.12781979143619537,0.1438545286655426,-1.4878711700439453
1697649263285410300,0.957410400390625,0.2560977041721344,0.055892523378133774,-1.265522837638855
1697649263295003100,0.967003173828125,0.36727190017700195,0.005803049076348543,-0.9466605186462402
1697649263304597000,0.976596923828125,0.4637857675552368,-0.02473931387066841,-0.5825955867767334
1697649263314191400,0.98619140625,0.5541911721229553,-0.05650337040424347,-0.22097399830818176
1697649263323784700,0.99578466796875,0.6384881138801575,-0.07971556484699249,0.10766182839870453
1697649263333377800,1.005377685546875,0.695907711982727,-0.08948912471532822,0.3790307343006134
1697649263342971400,1.014971435546875,0.7252284288406372,-0.11025793105363846,0.5720584392547607
1697649263352565800,1.024565673828125,0.7484406232833862,-0.14690876007080078,0.6881194114685059
1697649263362159000,1.0341591796875,0.7728744745254517,-0.18966807425022125,0.7296570539474487
1697649263371752000,1.043751953125,0.783869743347168,-0.23242738842964172,0.7101099491119385
1697649263381345800,1.053345703125,0.7728744745254517,-0.275186687707901,0.638029932975769
1697649263390940200,1.062940185546875,0.7459971904754639,-0.30572906136512756,0.5329642295837402
1697649263400533800,1.07253369140625,0.7178982496261597,-0.3045073449611664,0.39979952573776245
1697649263410126600,1.082126708984375,0.695907711982727,-0.28496024012565613,0.2507528066635132
1697649263419720200,1.09172021484375,0.6800256967544556,-0.24464432895183563,0.12232216447591782
1697649263429314600,1.101314453125,0.6678087711334229,-0.14813046157360077,0.05635065957903862
1697649263438908000,1.110907958984375,0.6629219651222229,-0.0198525357991457,0.05512896552681923
1697649263448500700,1.120500732421875,0.6739172339439392,0.10231691598892212,0.11010521650314331
1697649263458094600,1.130094482421875,0.7032378911972046,0.222042977809906,0.21165858209133148
1697649263467689000,1.13968896484375,0.7337802648544312,0.31855684518814087,0.3423798978328705
1697649263477282600,1.149282470703125,0.7496622800827026,0.3686463236808777,0.47554460167884827
1697649263486875400,1.15887548828125,0.7594358325004578,0.377198189496994,0.5940489768981934
1697649263496469000,1.168468994140625,0.7704311013221741,0.3393256664276123,0.6771242022514343
1697649263506063400,1.1780634765625,0.7863131165504456,0.2513636350631714,0.7247702479362488
1697649263515657000,1.187656982421875,0.798530101776123,0.12797249853610992,0.7430956959724426
1697649263525249800,1.197249755859375,0.8046385645866394,-0.003970507066696882,0.740652322769165
1697649263534843400,1.206843505859375,0.8058602213859558,-0.1432436853647232,0.7162184119224548
1697649263544437800,1.216437744140625,0.8034168481826782,-0.2654131352901459,0.6722373962402344
1697649263554031400,1.22603125,0.7899782061576843,-0.3301629424095154,0.611152708530426
1697649263563624200,1.235624267578125,0.7631009221076965,-0.3264978528022766,0.5305208563804626
1697649263573217800,1.2452177734375,0.7337802648544312,-0.2483094036579132,0.4230117201805115
1697649263582812200,1.254812255859375,0.7069029808044434,-0.11514470726251602,0.2764083743095398
1697649263592405800,1.26440576171875,0.6824691295623779,0.04734066128730774,0.09055810421705246
1697649263601998600,1.27399853515625,0.6665870547294617,0.222042977809906,-0.11346487700939178
1697649263611592200,1.28359228515625,0.6592568755149841,0.4052971601486206,-0.30160582065582275
1697649263621186600,1.2931865234375,0.6604785919189453,0.5946598052978516,-0.4384356141090393
1697649263630780200,1.3027802734375,0.6812474131584167,0.7742488980293274,-0.4897467792034149
1697649263640373000,1.312373046875,0.7350019812583923,0.9232956171035767,-0.43110546469688416
1697649263649966600,1.321966552734375,0.8168554902076721,1.0112576484680176,-0.2698417901992798
1697649263659561000,1.33156103515625,0.9109259843826294,1.0088142156600952,-0.041384901851415634
1697649263669154600,1.341154541015625,1.0013313293457031,0.911078691482544,0.20555010437965393
1697649263678747400,1.350747314453125,1.0880717039108276,0.7461498975753784,0.4352286756038666
1697649263688341000,1.360341064453125,1.1601516008377075,0.564117431640625,0.6184828281402588
1697649263697935400,1.369935302734375,1.2029110193252563,0.38452833890914917,0.740652322769165
1697649263707529000,1.379529052734375,1.2102410793304443,0.21471281349658966,0.7968502640724182
1697649263717121800,1.389121826171875,1.1833637952804565,0.08521319180727005,0.7895200848579407
1697649263726715400,1.39871533203125,1.122279167175293,-0.00030542362947016954,0.7308787703514099
1697649263736309800,1.408309814453125,1.0294303894042969,-0.051616594195365906,0.6465818285942078
1697649263745903400,1.4179033203125,0.9158127307891846,-0.047951508313417435,0.5415160655975342
1697649263755496200,1.42749609375,0.7948650121688843,0.007024743594229221,0.41445985436439514
1697649263765089800,1.43708984375,0.6714738607406616,0.08154810965061188,0.27029991149902344
1697649263774684200,1.44668408203125,0.5554128885269165,0.1585148572921753,0.12720894813537598
1697649263784277800,1.45627783203125,0.4540122151374817,0.23303823173046112,-0.004734066314995289
1697649263793870600,1.46587060546875,0.38071054220199585,0.2745758295059204,-0.11712995916604996
1697649263803464200,1.475464111328125,0.3452814221382141,0.28068432211875916,-0.19531841576099396
1697649263813058600,1.48505859375,0.3452814221382141,0.25747212767601013,-0.23807771503925323
1697649263822652200,1.494652099609375,0.38071054220199585,0.21226942539215088,-0.24662958085536957
1697649263832245000,1.504244873046875,0.4503471553325653,0.14996300637722015,-0.23196925222873688
1697649263841838600,1.513838623046875,0.5456393361091614,0.08154810965061188,-0.20509196817874908
1697649263851433000,1.523432861328125,0.6384881138801575,0.015576604753732681,-0.16966283321380615
1697649263861026600,1.533026611328125,0.7020162343978882,-0.027182703837752342,-0.1256818175315857
1697649263870619400,1.542619384765625,0.7252284288406372,-0.04062134400010109,-0.07437065243721008
1697649263880213000,1.552212890625,0.7081246972084045,-0.00519220158457756,-0.010842538438737392
1697649263889807400,1.561807373046875,0.6604785919189453,0.06933116167783737,0.05268557742238045
1697649263899401000,1.57140087890625,0.6006155610084534,0.14874130487442017,0.10399674624204636
1697649263908993800,1.580993896484375,0.5383091568946838,0.22570806741714478,0.14797775447368622
1697649263918587400,1.59058740234375,0.4784461259841919,0.26724568009376526,0.1969982385635376
1697649263928181800,1.600181640625,0.42102646827697754,0.3038965165615082,0.23853585124015808
1697649263937775400,1.609775390625,0.3733803927898407,0.36131614446640015,0.2495311051607132
1697649263947368200,1.6193681640625,0.34161633253097534,0.4089622497558594,0.22876229882240295
1697649263956961800,1.6289619140625,0.3208475112915039,0.44072631001472473,0.20066332817077637
1697649263966556200,1.63855615234375,0.2976353168487549,0.45416492223739624,0.17363333702087402
1697649263976149800,1.648149658203125,0.2683146595954895,0.4688252806663513,0.14675605297088623
1697649263985742600,1.65774267578125,0.24510246515274048,0.45294323563575745,0.12232216447591782
1697649263995336200,1.667336181640625,0.2304421216249466,0.4052971601486206,0.10521844029426575
1697649264004930600,1.6769306640625,0.2047865390777588,0.3429907262325287,0.0844496339559555
1697649264014524200,1.686524169921875,0.16080553829669952,0.2757975459098816,0.05635065957903862
1697649264024117000,1.696116943359375,0.10460758954286575,0.21837788820266724,0.02214321307837963
1697649264033710600,1.705710693359375,0.0459662564098835,0.16584503650665283,-0.024281177669763565
1697649264043305000,1.715304931640625,-0.017561858519911766,0.11209046840667725,-0.08170082420110703
1697649264052898600,1.724898681640625,-0.07742489129304886,0.07055285573005676,-0.14400723576545715
1697649264062491100,1.7344912109375,-0.13117945194244385,0.04856235533952713,-0.20753535628318787
1697649264072085000,1.7440849609375,-0.1898207813501358,0.020463382825255394,-0.2673983871936798
1697649264081679400,1.753679443359375,-0.26067906618118286,-0.0393996499478817,-0.3199312388896942
1697649264091273000,1.76327294921875,-0.3327590525150299,-0.1310267299413681,-0.36757734417915344
1697649264100865800,1.77286572265625,-0.3865135908126831,-0.21165858209133148,-0.4115583300590515
1697649264110459400,1.78245947265625,-0.4268295168876648,-0.26663482189178467,-0.4653128981590271
1697649264120053800,1.7920537109375,-0.45981526374816895,-0.28373855352401733,-0.5422796607017517
1697649264129647400,1.8016474609375,-0.4818057715892792,-0.23242738842964172,-0.6302416324615479
1697649264139240000,1.811239990234375,-0.4928010404109955,-0.12369657307863235,-0.7230904698371887
1697649264148833800,1.820833740234375,-0.48791423439979553,0.037567105144262314,-0.8086090683937073
1697649264158428200,1.83042822265625,-0.45981526374816895,0.23425991833209991,-0.8660287261009216
1697649264168021500,1.840021484375,-0.40728241205215454,0.42362257838249207,-0.8782456517219543
1697649264177614300,1.8496142578125,-0.3315373361110687,0.555565595626831,-0.8379297256469727
1697649264187208200,1.859208251953125,-0.2411319613456726,0.6178719997406006,-0.7499676942825317
1697649264196802600,1.868802490234375,-0.1507265567779541,0.6007682681083679,-0.6400152444839478
1697649264206396200,1.878396240234375,-0.05787777900695801,0.5286883115768433,-0.525175929069519
1697649264215988700,1.88798876953125,0.0459662564098835,0.43950459361076355,-0.3993414044380188
1697649264225582600,1.89758251953125,0.1375933438539505,0.351542592048645,-0.24907296895980835
1697649264235177000,1.907177001953125,0.19867807626724243,0.2599155008792877,-0.06704048812389374
1697649264244770300,1.916770263671875,0.22433365881443024,0.1817270666360855,0.14431266486644745
1697649264254363100,1.926363037109375,0.20722992718219757,0.12064233422279358,0.3790307343006134
1697649264263957000,1.93595703125,0.1388150453567505,0.06200099736452103,0.611152708530426
1697649264273551400,1.94555126953125,0.03008422814309597,0.016798298805952072,0.8102889060974121
1697649264283144700,1.955144775390625,-0.10308047384023666,-0.003970507066696882,0.9336800575256348
1697649264292737500,1.964737548828125,-0.23868857324123383,0.0021379655227065086,0.9703308939933777
1697649264302331400,1.974331298828125,-0.3620797097682953,0.016798298805952072,0.9312366247177124
1697649264311925800,1.98392578125,-0.4549284875392914,0.03145863488316536,0.8249492049217224
1697649264321519000,1.99351904296875,-0.49524441361427307,0.03268032893538475,0.6612421870231628
1697649264331112000,2.00311181640625,-0.5074613690376282,-0.032069481909275055,0.47798797488212585
1697649264340705800,2.012705810546875,-0.5367820262908936,-0.17745113372802734,0.3264978528022766
1697649264350300200,2.022300048828125,-0.5196782946586609,-0.3436015844345093,0.19455485045909882
1697649264359893500,2.0318935546875,-0.4524851143360138,-0.4743228852748871,0.05512896552681923
1697649264369486300,2.041486328125,-0.3889569938182831,-0.6221479177474976,-0.111021488904953
1697649264379080000,2.051079833984375,-0.3620797097682953,-0.740652322769165,-0.2820587158203125
1697649264388674600,2.060674560546875,-0.36452311277389526,-0.740652322769165,-0.4359922409057617
1697649264398268000,2.070267822265625,-0.37796175479888916,-0.61481773853302,-0.5740436911582947
1697649264407860700,2.07986083984375,-0.399952232837677,-0.40468630194664,-0.6937697529792786
1697649264417454300,2.089454345703125,-0.425607830286026,-0.16401249170303345,-0.7744016051292419
1697649264427048700,2.099048583984375,-0.4402681589126587,0.07543963938951492,-0.8012788891792297
1697649264436642300,2.108642333984375,-0.4280512034893036,0.2733541429042816,-0.7707365155220032
1697649264446235100,2.118235107421875,-0.3865135908126831,0.40163207054138184,-0.682774543762207
1697649264455829000,2.1278291015625,-0.32542887330055237,0.43828290700912476,-0.5459447503089905
1697649264465423400,2.13742333984375,-0.2545706033706665,0.3943018913269043,-0.3736858069896698
1697649264475016700,2.1470166015625,-0.18249061703681946,0.2990097403526306,-0.17943638563156128
1697649264484609500,2.156609619140625,-0.12751436233520508,0.1304158866405487,0.016034740954637527
1697649264494203100,2.166203125,-0.09452861547470093,-0.06139015033841133,0.19821994006633759
1697649264503797500,2.175797607421875,-0.06765133142471313,-0.22876229882240295,0.34848836064338684
1697649264513391000,2.18539111328125,-0.032222192734479904,-0.3142809271812439,0.45233240723609924
1697649264522984000,2.19498388671875,0.005650337319821119,-0.36070531606674194,0.49142661690711975
1697649264532577500,2.20457763671875,0.03130592033267021,-0.3692571818828583,0.4816530644893646
1697649264542172000,2.214171875,0.02886253222823143,-0.3533751368522644,0.43889376521110535
1697649264551765500,2.223765625,0.005650337319821119,-0.3167243003845215,0.37536564469337463
1697649264561358300,2.2333583984375,-0.028557108715176582,-0.2861819267272949,0.29473379254341125
1697649264570952000,2.242951904296875,-0.0590994730591774,-0.2507528066635132,0.2092151790857315
1697649264580546300,2.25254638671875,-0.07742489129304886,-0.2104368805885315,0.13087402284145355
1697649264590140000,2.262139892578125,-0.07498150318861008,-0.1713426560163498,0.07467607408761978
1697649264599732700,2.271732666015625,-0.0456608310341835,-0.12858334183692932,0.06490252166986465
1697649264609326300,2.281326416015625,0.010537114925682545,-0.07971556484699249,0.10521844029426575
1697649264618920700,2.290920654296875,0.10216420143842697,0.008246437646448612,0.18585027754306793
1697649264628514300,2.300514404296875,0.20600824058055878,0.09865183383226395,0.3045073449611664
1697649264638107100,2.310107177734375,0.3049654960632324,0.16340164840221405,0.46210595965385437
1697649264647700700,2.31970068359375,0.4027010500431061,0.2208212912082672,0.6319214701652527
1697649264657295000,2.329295166015625,0.49799323081970215,0.2648022770881653,0.7797465324401855
1697649264666888700,2.338888671875,0.5810684561729431,0.3173351585865021,0.8958075046539307
1697649264676481500,2.3484814453125,0.654370129108429,0.3662029206752777,0.9703308939933777
1697649264686075100,2.3580751953125,0.7264500856399536,0.40041038393974304,1.0118684768676758
1697649264695669500,2.36766943359375,0.7875348329544067,0.3918585181236267,1.0289721488952637
1697649264705263000,2.37726318359375,0.8046385645866394,0.31122666597366333,1.0375241041183472
1697649264714856000,2.38685595703125,0.7435538172721863,0.12064233422279358,1.0265288352966309
1697649264724449500,2.396449462890625,0.5871769189834595,-0.21898874640464783,0.9446752667427063
1697649264734044000,2.4060439453125,0.36727190017700195,-0.6649072170257568,0.7565343379974365
1697649264743637500,2.415637451171875,0.13270656764507294,-1.1315945386886597,0.4694361090660095
1697649264753230300,2.425230224609375,-0.06887302547693253,-1.4846643209457397,0.10521844029426575
1697649264762824000,2.434823974609375,-0.23258009552955627,-1.6239374876022339,-0.30160582065582275
1697649264772418300,2.444418212890625,-0.3828485310077667,-1.6092771291732788,-0.7010999321937561
1697649264782012000,2.454011962890625,-0.5416688323020935,-1.386928677558899,-1.0663865804672241
1697649264791604700,2.463604736328125,-0.6907155513763428,-1.0301939249038696,-1.3657017946243286
1697649264801198300,2.4731982421875,-0.7970029711723328,-0.5696150660514832,-1.547734260559082
1697649264810792700,2.482792724609375,-0.825101912021637,0.02901524491608143,-1.5978237390518188
1697649264820386300,2.49238623046875,-0.7346965670585632,0.7131641507148743,-1.5049749612808228
1697649264829979100,2.501979248046875,-0.5257867574691772,1.3020209074020386,-1.2545275688171387
1697649264839572700,2.51157275390625,-0.24479703605175018,1.6379868984222412,-0.8733588457107544
1697649264849167000,2.5211669921875,0.02886253222823143,1.6721943616867065,-0.43477052450180054
1697649264858760700,2.5307607421875,0.2292204350233078,1.4571760892868042,-0.0035123717971146107
1697649264868353300,2.540353271484375,0.42957833409309387,0.9733850955963135,0.39979952573776245
1697649264877947100,2.549947021484375,0.5529694557189941,0.3710896968841553,0.7284353375434875
1697649264887541500,2.55954150390625,0.5468609929084778,-0.20188501477241516,0.9654440879821777
1697649264897134800,2.569134765625,0.4527905285358429,-0.6930062174797058,1.0815050601959229
1697649264906727700,2.578727783203125,0.30740886926651,-0.9923213720321655,1.064401388168335
1697649264916321500,2.588321533203125,0.1498102843761444,-1.0485193729400635,0.9385668039321899
1697649264925916000,2.597916015625,-0.010231691412627697,-0.9055810570716858,0.7333221435546875
1697649264935509200,2.60750927734375,-0.16783028841018677,-0.6258130073547363,0.4816530644893646
1697649264945102000,2.61710205078125,-0.3071034550666809,-0.2910687327384949,0.21165858209133148
1697649264954695700,2.62669580078125,-0.4121691882610321,-0.011300674639642239,-0.04871506989002228
1697649264964290000,2.6362900390625,-0.4769189953804016,0.17317520081996918,-0.2796153426170349
1697649264973883600,2.645883544921875,-0.4928010404109955,0.25380703806877136,-0.47264307737350464
1697649264983476500,2.6554765625,-0.45737189054489136,0.222042977809906,-0.6241331696510315
1697649264993070000,2.665070068359375,-0.376740038394928,0.10231691598892212,-0.7316423058509827
1697649265002664400,2.67466455078125,-0.24601873755455017,-0.08215895295143127,-0.7902836203575134
1697649265012258000,2.684258056640625,-0.07986827939748764,-0.3301629424095154,-0.7988355159759521
1697649265021851000,2.693850830078125,0.10216420143842697,-0.5635066032409668,-0.7438592314720154
1697649265031444500,2.703444580078125,0.29030516743659973,-0.7113316059112549,-0.6387935280799866
1697649265041038800,2.713038818359375,0.4784461259841919,-0.8090671896934509,-0.5239542126655579
1697649265050632400,2.722632568359375,0.6568135023117065,-0.870151937007904,-0.42133188247680664
1697649265060225300,2.732225341796875,0.8046385645866394,-0.8567132949829102,-0.3382566571235657
1697649265069819000,2.74181884765625,0.8938222527503967,-0.7626428008079529,-0.27717193961143494
1697649265079413200,2.751413330078125,0.9121476411819458,-0.6209262609481812,-0.23319093883037567
1697649265089006800,2.7610068359375,0.8681666851043701,-0.4584408700466156,-0.20997874438762665
1697649265098599700,2.770599609375,0.7802046537399292,-0.29473379254341125,-0.20509196817874908
1697649265108193300,2.780193359375,0.6665870547294617,-0.13835690915584564,-0.22341738641262054
1697649265117787600,2.78978759765625,0.5383091568946838,0.018019994720816612,-0.26495498418807983
1697649265127381200,2.79938134765625,0.40758782625198364,0.1572931706905365,-0.3223746418952942
1697649265136974000,2.80897412109375,0.284196674823761,0.28190600872039795,-0.3859027624130249
1697649265146567700,2.818567626953125,0.18035265803337097,0.3649812340736389,-0.4421007037162781
1697649265156162000,2.828162109375,0.09727742522954941,0.40163207054138184,-0.4811949133872986
1697649265165755600,2.837755615234375,0.036192700266838074,0.3955236077308655,-0.49707695841789246
1697649265175348500,2.847348388671875,-0.0029015245381742716,0.34421244263648987,-0.5056288242340088
1697649265184942000,2.856942138671875,-0.028557108715176582,0.2880144715309143,-0.5178457498550415
1697649265194536400,2.866536376953125,-0.05543438717722893,0.20127417147159576,-0.49585527181625366
1697649265204130000,2.876130126953125,-0.07375980913639069,0.06810946762561798,-0.44698747992515564
1697649265213723000,2.885722900390625,-0.09452861547470093,-0.04428642615675926,-0.3871244490146637
1697649265223316500,2.89531640625,-0.12873606383800507,-0.145687073469162,-0.3174878656864166
1697649265232910800,2.904910888671875,-0.18493400514125824,-0.22754059731960297,-0.24662958085536957
1697649265242504400,2.91450439453125,-0.2692309319972992,-0.24586601555347443,-0.17943638563156128
1697649265252097000,2.924096923828125,-0.3694098889827728,-0.22021043300628662,-0.13056860864162445
1697649265261691000,2.93369091796875,-0.47081053256988525,-0.20188501477241516,-0.11957334727048874
1697649265271285200,2.94328515625,-0.5648810267448425,-0.19944162666797638,-0.1513374149799347
1697649265280878600,2.952878662109375,-0.6528429985046387,-0.17622943222522736,-0.22341738641262054
1697649265290471400,2.962471435546875,-0.7530219554901123,-0.17989452183246613,-0.3370349705219269
1697649265300065300,2.972065185546875,-0.8800781965255737,-0.24097923934459686,-0.48363831639289856
1697649265309659600,2.98165966796875,-1.0132428407669067,-0.29839888215065,-0.631463348865509
1697649265319253000,2.9912529296875,-1.1158652305603027,-0.29717719554901123,-0.7524111270904541
1697649265328845800,3.000845703125,-1.1525160074234009,-0.22021043300628662,-0.8147175312042236
1697649265338439400,3.010439453125,-1.126860499382019,-0.08582404255867004,-0.789061963558197
1697649265348033800,3.02003369140625,-1.056002140045166,0.11331216990947723,-0.6583406329154968
1697649265357627400,3.02962744140625,-0.9533798694610596,0.34543412923812866,-0.4396573007106781
1697649265367220200,3.03922021484375,-0.8275453448295593,0.5702258944511414,-0.16111096739768982
1697649265376813800,3.048813720703125,-0.6809419989585876,0.7510367035865784,0.1516428291797638
1697649265386408200,3.058408203125,-0.5123481154441833,0.846328854560852,0.47676628828048706
1697649265396001800,3.068001708984375,-0.33031564950942993,0.846328854560852,0.7858549952507019
1697649265405594600,3.0775947265625,-0.15439164638519287,0.7583668828010559,1.0595145225524902
1697649265415188200,3.087188232421875,0.0068720318377017975,0.5909947156906128,1.2867497205734253
1697649265424782600,3.096782470703125,0.16691401600837708,0.33566057682037354,1.4602303504943848
1697649265434376200,3.106376220703125,0.2976353168487549,0.0656660795211792,1.5726262331008911
1697649265443969000,3.115968994140625,0.3855973184108734,-0.18600298464298248,1.6324893236160278
1697649265453562600,3.125562744140625,0.4283566474914551,-0.4315635859966278,1.6495929956436157
1697649265463157000,3.135156982421875,0.42102646827697754,-0.6624638438224792,1.6166073083877563
1697649265472750600,3.14475048828125,0.3465031087398529,-0.8322793841362,1.5298669338226318
1697649265482343400,3.154343505859375,0.20967331528663635,-0.9129112362861633,1.3820419311523438
1697649265491937000,3.16393701171875,0.08750387281179428,-0.9703308939933777,1.1951227188110352
1697649265501531400,3.173531494140625,0.008093725889921188,-1.0094250440597534,0.9874345660209656
1697649265511124700,3.183124755859375,-0.04810422286391258,-1.041189193725586,0.7601994276046753
1697649265520717600,3.192717529296875,-0.09208522737026215,-1.0363023281097412,0.51341712474823
1697649265530311400,3.2023115234375,-0.13240113854408264,-0.9923213720321655,0.25686126947402954
1697649265539905800,3.21190576171875,-0.15927842259407043,-0.9202414155006409,0.03924693539738655
1697649265549499100,3.2214990234375,-0.16783028841018677,-0.6087092757225037,-0.15622419118881226
1697649265559092000,3.231092041015625,-0.3877353072166443,-0.18111620843410492,-0.3345915973186493
1697649265568685600,3.240685546875,-0.7408050298690796,0.15362808108329773,-0.4628695249557495
1697649265578280000,3.250280029296875,-0.8324320912361145,0.43828290700912476,-0.4811949133872986
1697649265587873500,3.25987353515625,-0.7029324769973755,0.4627167880535126,-0.4372139275074005
1697649265597466400,3.26946630859375,-0.5502206683158875,0.2098260372877121,-0.3504736125469208
1697649265607060000,3.27906005859375,-0.4011739492416382,-0.11514470726251602,-0.241742804646492
1697649265616654300,3.288654296875,-0.2582356929779053,-0.3118375241756439,-0.1525591015815735
1697649265626248000,3.298248046875,-0.12873606383800507,-0.35948359966278076,-0.1391204595565796
1697649265635840800,3.3078408203125,0.016645587980747223,-0.22876229882240295,-0.2429644912481308
1697649265645434400,3.317434326171875,0.13514995574951172,0.20616094768047333,-0.48486000299453735
1697649265655028700,3.32702880859375,0.06184828653931618,0.4883723855018616,-0.7927270531654358
1697649265664622300,3.336622314453125,-0.04810422286391258,0.10842538625001907,-0.973537802696228
1697649265674215200,3.346215087890625,-0.09575030952692032,-0.19944162666797638,-0.9429954290390015
1697649265683808800,3.355808837890625,-0.11651911586523056,-0.30572906136512756,-0.7829535007476807
1697649265693403100,3.365403076171875,-0.08108997344970703,-0.5146388411521912,-0.561826765537262
1697649265702996700,3.374996826171875,0.01175880990922451,-0.8420529365539551,-0.31504446268081665
1697649265712589600,3.384589599609375,0.15591876208782196,-1.087613582611084,-0.10735640674829483
1697649265722183200,3.39418310546875,0.3220692276954651,-1.0045382976531982,-0.03161134570837021
1697649265731777500,3.403777587890625,0.441795289516449,-0.9129112362861633,-0.2441861927509308
1697649265741371000,3.413370849609375,0.4796678125858307,-0.9349017143249512,-0.6705575585365295
1697649265750963700,3.422963623046875,0.4747810363769531,-0.7931851744651794,-0.9283351302146912
1697649265760557600,3.4325576171875,0.4772244095802307,-0.6404733657836914,-0.9637642502784729
1697649265770152000,3.44215185546875,0.48333290219306946,-0.4352286756038666,-0.8880192041397095
1697649265779745300,3.451745361328125,0.49921491742134094,-0.20432840287685394,-0.7695148587226868
1697649265789338000,3.461338134765625,0.5102101564407349,0.060779303312301636,-0.6009209752082825
1697649265798931700,3.470931640625,0.4869979918003082,0.2208212912082672,-0.35291701555252075
1697649265808526300,3.4805263671875,0.42957833409309387,0.222042977809906,-0.04504998400807381
1697649265818119700,3.49011962890625,0.3342861533164978,0.21837788820266724,0.25686126947402954
1697649265827712500,3.49971240234375,0.2011214643716812,0.30633988976478577,0.5268557667732239
1697649265837306000,3.50930615234375,0.04474456235766411,0.40163207054138184,0.7516475319862366
1697649265846900500,3.518900390625,-0.09575030952692032,0.4480564594268799,0.8909206986427307
1697649265856494000,3.528494140625,-0.1360662281513214,0.26846736669540405,0.7785248160362244
1697649265866087000,3.5380869140625,-0.09208522737026215,0.19027891755104065,0.583053708076477
1697649265875680500,3.547680419921875,-0.05665608495473862,0.19027891755104065,0.47554460167884827
1697649265885275000,3.55727490234375,-0.004123218823224306,0.2855710983276367,0.3387148082256317
1697649265894868500,3.566868408203125,0.04107947647571564,0.4993676245212555,0.14309096336364746
1697649265904461300,3.57646142578125,0.08383878320455551,0.6398624777793884,-0.07803573459386826
1697649265914055000,3.586054931640625,0.1388150453567505,0.6728482842445374,-0.27472856640815735
1697649265923649300,3.595649169921875,0.2011214643716812,0.693617045879364,-0.4140017330646515
1697649265933243000,3.605242919921875,0.29030516743659973,0.7119424939155579,-0.4811949133872986
1697649265942835500,3.61483544921875,0.39414918422698975,0.7656970620155334,-0.476308137178421
1697649265952429300,3.62442919921875,0.48333290219306946,0.8011261820793152,-0.3834593594074249
1697649265962023700,3.634023681640625,0.5212054252624512,0.5885513424873352,-0.26006820797920227
1697649265971617000,3.643616943359375,0.4784461259841919,0.09009996801614761,-0.1635543555021286
1697649265981209900,3.6532099609375,0.358720064163208,0.09620844572782516,0.11254860460758209
1697649265990803500,3.662803466796875,0.2304421216249466,-0.18111620843410492,0.38880428671836853
1697649266000397800,3.672397705078125,0.13392825424671173,-0.36070531606674194,0.5745018720626831
1697649266009991400,3.681991455078125,0.03374931216239929,-0.3912476599216461,0.6759024858474731
1697649266019584300,3.691584228515625,-0.0590994730591774,-0.4315635859966278,0.7430956959724426
1697649266029177900,3.701177734375,-0.12629267573356628,-0.43889376521110535,0.7846332788467407
1697649266038772200,3.710772216796875,-0.15683503448963165,-0.3643703758716583,0.7944068312644958
1697649266048365800,3.72036572265625,-0.17393875122070312,-0.6172611713409424,0.7467607855796814
1697649266057958700,3.729958740234375,-0.20570281147956848,-0.7223268747329712,0.6697940230369568
1697649266067552300,3.73955224609375,-0.22524993121623993,-0.37414395809173584,0.6099309921264648
1697649266077146600,3.749146728515625,-0.24724042415618896,-0.3643703758716583,0.5806103348731995
1697649266086740200,3.758740234375,-0.2570139765739441,-0.3680354654788971,0.5720584392547607
1697649266096333000,3.7683330078125,-0.21914145350456238,-0.24708771705627441,0.5769452452659607
1697649266105926700,3.7779267578125,-0.1507265567779541,-0.18600298464298248,0.6038225293159485
1697649266115521000,3.78752099609375,-0.06398624926805496,-0.20677179098129272,0.6355865597724915
1697649266125114400,3.7971142578125,0.039857782423496246,-0.2483094036579132,0.6306998133659363
1697649266134707200,3.806707275390625,0.1522536724805832,-0.28496024012565613,0.5757235288619995
1697649266144301000,3.816301025390625,0.25121092796325684,-0.3533751368522644,0.4706578254699707
1697649266153895400,3.8258955078125,0.32573428750038147,-0.5097520351409912,0.3167243003845215
1697649266163488800,3.83548876953125,0.3599417507648468,-0.7333221435546875,0.13576079905033112
1697649266173081600,3.84508154296875,0.34161633253097534,-0.9373451471328735,-0.04504998400807381
1697649266182675200,3.85467529296875,0.28541839122772217,-1.0790616273880005,-0.1904316395521164
1697649266192269600,3.86426953125,0.2047865390777588,-1.1767972707748413,-0.2796153426170349
1697649266201863200,3.87386328125,0.1119377613067627,-1.2342169284820557,-0.3101576864719391
1697649266211456000,3.8834560546875,0.012980503961443901,-1.2171131372451782,-0.28938889503479004
1697649266221049600,3.893049560546875,-0.08842013776302338,-1.077839970588684,-0.217308908700943
1697649266230644000,3.90264404296875,-0.18249061703681946,-0.8616000413894653,-0.09269607067108154
1697649266240237600,3.912237548828125,-0.270452618598938,-0.6551336646080017,0.07101099193096161
1697649266249830400,3.921830322265625,-0.3706315755844116,-0.4828747510910034,0.24708771705627441
1697649266259424000,3.931424072265625,-0.47325390577316284,-0.34848836064338684,0.4083513915538788
1697649266269018400,3.941018310546875,-0.5538857579231262,-0.25319617986679077,0.5390726923942566
1697649266278612000,3.950612060546875,-0.6113054156303406,-0.21776704490184784,0.634364902973175
1697649266288204800,3.960204833984375,-0.635739266872406,-0.2104368805885315,0.6930062174797058
1697649266297798100,3.969798095703125,-0.6332958936691284,-0.22998400032520294,0.7296570539474487
1697649266307392800,3.979392822265625,-0.6174138784408569,-0.30695074796676636,0.7650861740112305
1697649266316986000,3.988986083984375,-0.6027535200119019,-0.4205683469772339,0.7809682488441467
1697649266326579000,3.998578857421875,-0.5966450572013855,-0.564728319644928,0.7638645172119141
1697649266336172500,4.008172607421875,-0.612527072429657,-0.7382088899612427,0.7052231431007385
1697649266345767000,4.017766845703125,-0.6320741772651672,-0.8848122358322144,0.6099309921264648
1697649266355360500,4.027360595703125,-0.6491779088973999,-0.9568922519683838,0.504865288734436
1697649266364953300,4.036953369140625,-0.663838267326355,-0.9568922519683838,0.4059080183506012
1697649266374547000,4.046546875,-0.6662816405296326,-0.8616000413894653,0.32283276319503784
1697649266384141300,4.056141357421875,-0.6540647149085999,-0.72599196434021,0.2910687327384949
1697649266393735000,4.06573486328125,-0.6601731777191162,-0.7186617851257324,0.3179459869861603
1697649266403327700,4.07532763671875,-0.7017107605934143,-0.8286142945289612,0.34971004724502563
1697649266412921300,4.08492138671875,-0.7518002390861511,-0.9605573415756226,0.33627140522003174
1697649266422515700,4.094515625,-0.7896727919578552,-1.0472975969314575,0.27029991149902344
1697649266432109300,4.104109375,-0.7957812547683716,-1.0265288352966309,0.14064757525920868
1697649266441702100,4.1137021484375,-0.7627955079078674,-0.9006943106651306,-0.04016320779919624
1697649266451295500,4.12329541015625,-0.7078192830085754,-0.7137750387191772,-0.2441861927509308
1697649266460890000,4.13289013671875,-0.6479562520980835,-0.51341712474823,-0.4359922409057617
1697649266470483500,4.1424833984375,-0.6003101468086243,-0.3802524209022522,-0.5667135715484619
1697649266480076300,4.152076171875,-0.589314877986908,-0.32038938999176025,-0.6094728708267212
1697649266489670000,4.161669921875,-0.6137487888336182,-0.25808295607566833,-0.5630484819412231
1697649266499264300,4.17126416015625,-0.663838267326355,-0.20677179098129272,-0.4262186884880066
1697649266508857900,4.18085791015625,-0.7432484030723572,-0.18966807425022125,-0.2295258641242981
1697649266518450700,4.19045068359375,-0.8055548071861267,-0.19088977575302124,-0.04504998400807381
1697649266528044300,4.200044189453125,-0.7835643291473389,-0.1847812980413437,0.0844496339559555
1697649266537638700,4.209638671875,-0.4622586667537689,-0.324054479598999,0.1907370537519455
1697649266547232300,4.219232177734375,0.008093725889921188,0.020463382825255394,0.2861819267272949
1697649266556825000,4.2288251953125,0.3318427801132202,0.1841704547405243,0.36314868927001953
1697649266566418700,4.238418701171875,0.41736137866973877,0.27946263551712036,0.3680354654788971
1697649266576013000,4.248012939453125,0.34405970573425293,0.517693042755127,0.33627140522003174
1697649266585606400,4.2576064453125,0.25121092796325684,0.7058340311050415,0.3301629424095154
1697649266595199200,4.26719921875,0.20356485247612,0.7754706144332886,0.3252761662006378
1697649266604793000,4.27679296875,0.17424418032169342,0.8426637649536133,0.28496024012565613
1697649266614387500,4.286387451171875,0.13026317954063416,0.7803573608398438,0.20432840287685394
1697649266623980800,4.295980712890625,-0.052990999072790146,0.5861079692840576,-0.03649812191724777
1697649266633573600,4.30557373046875,-0.23991025984287262,0.5836645364761353,-0.45676103234291077
1697649266643167200,4.315167236328125,-0.2533488869667053,0.5396835803985596,-0.8941276669502258
1697649266652761600,4.32476171875,-0.1385096162557602,0.33566057682037354,-1.2948434352874756
1697649266662355200,4.334355224609375,-0.02489202655851841,0.1707318127155304,-1.7016677856445312
1697649266671948000,4.343947998046875,0.0325276181101799,0.10720369219779968,-2.0693976879119873
1697649266681541600,4.353541748046875,0.08994726091623306,0.058335911482572556,-2.279529333114624
1697649266691136000,4.363135986328125,0.21089501678943634,-0.08948912471532822,-2.258760452270508
1697649266700729600,4.3727294921875,0.37704548239707947,-0.26907822489738464,-2.0241951942443848
1697649266710322200,4.382322265625,0.5370874404907227,-0.23242738842964172,-1.6625735759735107
1697649266719916000,4.391916015625,0.62627112865448,0.042453885078430176,-1.2838482856750488
1697649266729510400,4.401510498046875,0.6433748602867126,0.22815145552158356,-0.9442171454429626
1697649266739103700,4.411103759765625,0.645818293094635,0.7327113151550293,-0.7084301114082336
1697649266748696600,4.420696533203125,0.709346354007721,1.201841950416565,-0.39201122522354126
1697649266758290200,4.430290283203125,0.7777612805366516,1.1187667846679688,0.12843063473701477
1697649266767884500,4.439884521484375,0.7313368916511536,1.0723423957824707,0.6441384553909302
1697649266777478100,4.44947802734375,0.5334223508834839,0.9794935584068298,0.9153546094894409
1697649266787071000,4.459071044921875,0.17180079221725464,0.6642963886260986,0.9471186995506287
1697649266796664600,4.46866455078125,-0.25945737957954407,0.22815145552158356,0.8774821162223816
1697649266806259000,4.478259033203125,-0.6418477296829224,-0.1969982385635376,0.7797465324401855
1697649266815852500,4.4878525390625,-0.9179506897926331,-0.41445985436439514,0.583053708076477
1697649266825445400,4.4974453125,-1.0596672296524048,-0.08338065445423126,0.2348707765340805
1697649266835039000,4.5070390625,-1.1745065450668335,0.29534465074539185,-0.10002623498439789
1697649266844633300,4.51663330078125,-1.1305255889892578,0.42728766798973083,-0.349251925945282
1697649266854227000,4.52622705078125,-0.9472714066505432,0.4321744441986084,-0.49829864501953125
1697649266863819500,4.535819580078125,-0.6650599241256714,0.3429907262325287,-0.6192464232444763
1697649266873413000,4.5454130859375,-0.35474956035614014,0.3002314269542694,-0.7120952010154724
1697649266883007500,4.555007568359375,-0.11651911586523056,0.41140562295913696,-0.7255338430404663
1697649266892601000,4.56460107421875,0.03130592033267021,0.555565595626831,-0.6387935280799866
1697649266902194000,4.57419384765625,0.13270656764507294,0.6044333577156067,-0.4909684956073761
1697649266911787500,4.58378759765625,0.19867807626724243,0.6093201637268066,-0.3333698809146881
1697649266921382000,4.5933818359375,0.22189027070999146,0.6019899845123291,-0.22097399830818176
1697649266930975500,4.6029755859375,0.23899398744106293,0.661853015422821,-0.2686200737953186
1697649266940568300,4.612568359375,0.29030516743659973,0.6826218366622925,-0.3309265077114105
1697649266950162000,4.622161865234375,0.4271349310874939,0.4957025647163391,-0.22586077451705933
1697649266959756300,4.63175634765625,0.5273138880729675,0.1438545286655426,-0.14156384766101837
1697649266969349600,4.641349609375,0.6152759194374084,0.19394400715827942,-0.23807771503925323
1697649266978942500,4.6509423828125,0.760657548904419,-0.2605263590812683,-0.2942756712436676
1697649266988536300,4.660536376953125,0.9500201940536499,-0.8750386834144592,-0.16844113171100616
1697649266998130400,4.67013037109375,1.0184351205825806,-0.6612421870231628,-0.060932014137506485
1697649267007724000,4.67972412109375,0.8315158486366272,-0.8958075046539307,0.1113269105553627
1697649267017316900,4.68931689453125,0.5358657836914062,-0.855491578578949,0.3106158375740051
1697649267026910500,4.698910400390625,0.3465031087398529,-0.6135960817337036,0.4816530644893646
1697649267036504800,4.7085048828125,0.2670929729938507,-0.23120568692684174,0.5659499764442444
1697649267046098400,4.718098388671875,0.27686652541160583,0.18539214134216309,0.5732801556587219
1697649267055691300,4.727691162109375,0.32817769050598145,0.5457920432090759,0.5036435723304749
1697649267065284900,4.737284912109375,0.3855973184108734,0.7082774043083191,0.34726667404174805
1697649267074879200,4.746879150390625,0.43446511030197144,0.6691831946372986,0.12354385852813721
1697649267084472800,4.756472900390625,0.46012070775032043,0.48959407210350037,-0.12690351903438568
1697649267094065400,4.7660654296875,0.4491254389286041,0.2489202618598938,-0.3480302393436432
1697649267103659000,4.775658935546875,0.3990359604358673,0.02901524491608143,-0.5117372870445251
1697649267113253400,4.78525341796875,0.3245126008987427,-0.13957859575748444,-0.60825115442276
1697649267122847000,4.794846923828125,0.2560977041721344,-0.21165858209133148,-0.6351284384727478
1697649267132439800,4.804439697265625,0.21944688260555267,-0.13835690915584564,-0.5691569447517395
1697649267142033400,4.814033447265625,0.22677704691886902,0.07421794533729553,-0.3993414044380188
1697649267151627800,4.823627685546875,0.27808821201324463,0.3564293682575226,-0.14034216105937958
1697649267161221400,4.833221435546875,0.36727190017700195,0.6227588057518005,0.15530791878700256
1697649267170814200,4.842814208984375,0.46989426016807556,0.7950177192687988,0.42545512318611145
1697649267180407600,4.852407470703125,0.5590779781341553,0.8170081973075867,0.6184828281402588
1697649267190002200,4.862002197265625,0.617719292640686,0.6887302994728088,0.7308787703514099
1697649267199595500,4.871595458984375,0.6311579346656799,0.45172154903411865,0.7675296068191528
1697649267209188400,4.881188232421875,0.603058934211731,0.16217994689941406,0.7382088899612427
1697649267218782000,4.890781982421875,0.5444176197052002,-0.13469181954860687,0.6539120078086853
1697649267228376300,4.900376220703125,0.46134239435195923,-0.3961344361305237,0.5158604979515076
1697649267237970000,4.909969970703125,0.36360684037208557,-0.5586197972297668,0.3374931216239929
1697649267247562800,4.919562744140625,0.2585411071777344,-0.6026008129119873,0.1382041871547699
1697649267257156400,4.92915625,0.14858859777450562,-0.5415160655975342,-0.06459710001945496
1697649267266750700,4.938750732421875,0.036192700266838074,-0.38758260011672974,-0.2527380585670471
1697649267276344300,4.94834423828125,-0.06154286116361618,-0.17867282032966614,-0.41888850927352905
1697649267285937200,4.957937255859375,-0.12751436233520508,0.04978405311703682,-0.5496098399162292
1697649267295530500,4.967530517578125,-0.15316994488239288,0.25380703806877136,-0.6436802744865417
1697649267305125000,4.977125,-0.1360662281513214,0.39796698093414307,-0.6962131857872009
1697649267314718500,4.986718505859375,-0.07986827939748764,0.46393850445747375,-0.6986565589904785
1697649267324311300,4.996311279296875,0.010537114925682545,0.457830011844635,-0.6534538269042969
1697649267333905000,5.00590478515625,0.11804623156785965,0.3967452943325043,-0.5654918551445007
1697649267343499300,5.015499267578125,0.22677704691886902,0.2843494117259979,-0.44576579332351685
1697649267353092900,5.0250927734375,0.32695600390434265,0.15240639448165894,-0.30160582065582275
1697649267362685700,5.034685791015625,0.4161396920681,0.018019994720816612,-0.14645062386989594
1697649267372279300,5.044279296875,0.4943281412124634,-0.11147962510585785,-0.0035123717971146107
1697649267381873700,5.053873779296875,0.5505260825157166,-0.21410197019577026,0.11621369421482086
1697649267391467300,5.06346728515625,0.5749599933624268,-0.2727433145046234,0.2104368805885315
1697649267401059800,5.073059814453125,0.5651864409446716,-0.30939415097236633,0.277630090713501
1697649267410653400,5.0826533203125,0.5175403356552124,-0.3436015844345093,0.32038938999176025
1697649267420247800,5.092247802734375,0.43324342370033264,-0.34971004724502563,0.34848836064338684
1697649267429841400,5.10184130859375,0.3184041380882263,-0.3118375241756439,0.3668137788772583
1697649267439434200,5.111434326171875,0.19256959855556488,-0.24708771705627441,0.3692571818828583
1697649267449027800,5.12102783203125,0.0716218426823616,-0.1847812980413437,0.3521534502506256
1697649267458622200,5.130622314453125,-0.032222192734479904,-0.12736165523529053,0.3277195692062378
1697649267468215800,5.1402158203125,-0.111632339656353,-0.0784938707947731,0.30939415097236633
1697649267477808400,5.149808349609375,-0.16783028841018677,-0.08093725889921188,0.28251686692237854
1697649267487402200,5.15940234375,-0.20570281147956848,-0.14080029726028442,0.24342262744903564
1697649267496996600,5.16899658203125,-0.23624517023563385,-0.24464432895183563,0.20188501477241516
1697649267506590000,5.17858984375,-0.2680092453956604,-0.37292224168777466,0.16996824741363525
1697649267516182800,5.188182861328125,-0.2973299026489258,-0.4999784827232361,0.14553436636924744
1697649267525776400,5.1977763671875,-0.3107685446739197,-0.6062659025192261,0.1247655525803566
1697649267535370800,5.207370849609375,-0.3058817684650421,-0.6685723066329956,0.13087402284145355
1697649267544964400,5.21696435546875,-0.28999972343444824,-0.6502469182014465,0.17363333702087402
1697649267554557200,5.22655712890625,-0.25945737957954407,-0.5757235288619995,0.23853585124015808
1697649267564150800,5.23615087890625,-0.21303297579288483,-0.43767204880714417,0.3155026137828827
1697649267573745200,5.2457451171875,-0.16172181069850922,-0.27152159810066223,0.381474107503891
1697649267583338500,5.25533837890625,-0.12018419802188873,-0.15301723778247833,0.4156815707683563
1697649267592931300,5.264931396484375,-0.10308047384023666,-0.10048437118530273,0.41079479455947876
1697649267602525000,5.27452490234375,-0.11651911586523056,-0.08093725889921188,0.37292224168777466
1697649267612119300,5.284119384765625,-0.15439164638519287,-0.07727217674255371,0.3118375241756439
1697649267621713000,5.293712890625,-0.2166980654001236,-0.09071081876754761,0.23853585124015808
1697649267631305700,5.3033056640625,-0.30099499225616455,-0.12491826713085175,0.15530791878700256
1697649267640899300,5.3128994140625,-0.40361732244491577,-0.1701209545135498,0.049020491540431976
1697649267650493700,5.32249365234375,-0.5184566378593445,-0.2593046724796295,-0.09391776472330093
1697649267660087300,5.33208740234375,-0.6455128192901611,-0.41201648116111755,-0.27717193961143494
1697649267669680000,5.34168017578125,-0.7774558663368225,-0.5891621708869934,-0.48608171939849854
1697649267679273500,5.3512734375,-0.8898517489433289,-0.7382088899612427,-0.6888830065727234
1697649267688868000,5.3608681640625,-0.9582666158676147,-0.7907418012619019,-0.8428165316581726
1697649267698461400,5.37046142578125,-0.9668185114860535,-0.694227933883667,-0.9136747717857361
1697649267708054300,5.38005419921875,-0.9179506897926331,-0.44988900423049927,-0.8770239353179932
1697649267717648000,5.38964794921875,-0.8214368224143982,-0.09071081876754761,-0.7353073954582214
1697649267727242200,5.3992421875,-0.6784985661506653,0.3258870244026184,-0.5215108394622803
1697649267736835800,5.4088359375,-0.48791423439979553,0.7180509567260742,-0.27839362621307373
1697649267746428700,5.4184287109375,-0.26190075278282166,1.012479305267334,-0.0328330397605896
1697649267756022300,5.428022216796875,-0.02244863659143448,1.1517524719238281,0.1882936656475067
1697649267765616600,5.43761669921875,0.20234315097332,1.137092113494873,0.3826957941055298
1697649267775210000,5.4472099609375,0.3868190348148346,1.012479305267334,0.5439594984054565
1697649267784802800,5.456802734375,0.5150969624519348,0.8267817497253418,0.671015739440918
1697649267794396400,5.466396484375,0.5786250829696655,0.6264238357543945,0.7553126215934753
1697649267803990800,5.47599072265625,0.5859552621841431,0.4590517282485962,0.7931851744651794
1697649267813584400,5.48558447265625,0.5541911721229553,0.33199548721313477,0.777303159236908
1697649267823177200,5.49517724609375,0.49677154421806335,0.24525517225265503,0.7076665759086609
1697649267832770600,5.5047705078125,0.4124746024608612,0.20616094768047333,0.583053708076477
1697649267842365200,5.514365234375,0.30985227227211,0.2086043357849121,0.41445985436439514
1697649267851958500,5.52395849609375,0.19745637476444244,0.23792500793933868,0.2104368805885315
1697649267861551400,5.53355126953125,0.09239064902067184,0.28190600872039795,-0.01817270554602146
1697649267871145000,5.54314501953125,0.0068720318377017975,0.3136700689792633,-0.25029465556144714
1697649267880739300,5.5527392578125,-0.051769305020570755,0.3173351585865021,-0.46042612195014954
1697649267890333000,5.5623330078125,-0.08231166750192642,0.2770192325115204,-0.6265766024589539
1697649267899925800,5.57192578125,-0.09330692142248154,0.18783552944660187,-0.7243121266365051
1697649267909519000,5.58151904296875,-0.08353336155414581,0.08399149775505066,-0.7560762166976929
1697649267919113700,5.59111376953125,-0.05421269312500954,-0.02473931387066841,-0.7450809478759766
1697649267928707000,5.60070703125,-0.013896775431931019,-0.12125317752361298,-0.7047650218009949
1697649267938300000,5.6102998046875,0.02641914412379265,-0.2079934924840927,-0.6461237072944641
1697649267947893500,5.6198935546875,0.058183200657367706,-0.277630090713501,-0.5777087807655334
1697649267957487900,5.62948779296875,0.08872556686401367,-0.30939415097236633,-0.5092939138412476
1697649267967081500,5.63908154296875,0.1241547018289566,-0.3106158375740051,-0.4408790171146393
1697649267976674300,5.64867431640625,0.16691401600837708,-0.28007346391677856,-0.37002071738243103
1697649267986268000,5.658267822265625,0.2145601063966751,-0.22631891071796417,-0.2954973578453064
1697649267995862300,5.6678623046875,0.26464956998825073,-0.15301723778247833,-0.2148655205965042
1697649268005455600,5.67745556640625,0.3184041380882263,-0.07727217674255371,-0.13056860864162445
1697649268015048400,5.68704833984375,0.3709369897842407,-0.0198525357991457,-0.04504998400807381
1697649268024642000,5.69664208984375,0.4161396920681,0.018019994720816612,0.03802524134516716
1697649268034236400,5.706236328125,0.44790375232696533,0.04489727318286896,0.10888352245092392
1697649268043830000,5.715830078125,0.47111594676971436,0.06322269141674042,0.1650814712047577
1697649268053422800,5.7254228515625,0.4796678125858307,0.07055285573005676,0.20677179098129272
1697649268063016400,5.735016357421875,0.47233763337135315,0.07421794533729553,0.24342262744903564
1697649268072610800,5.74461083984375,0.44790375232696533,0.0656660795211792,0.2764083743095398
1697649268082204200,5.7542041015625,0.41858309507369995,0.0522274412214756,0.30939415097236633
1697649268091797000,5.763796875,0.3880407214164734,0.04734066128730774,0.33627140522003174
1697649268101390600,5.773390625,0.3574983477592468,0.03390202298760414,0.3509317636489868
1697649268110985000,5.78298486328125,0.3208475112915039,0.01435491070151329,0.3545968234539032
1697649268120578600,5.79257861328125,0.2805316150188446,0.015576604753732681,0.35948359966278076
1697649268130171400,5.80217138671875,0.24510246515274048,0.03145863488316536,0.3668137788772583
1697649268139765000,5.811764892578125,0.21822518110275269,0.04611896723508835,0.37536564469337463
1697649268149359400,5.821359375,0.19379130005836487,0.057114217430353165,0.3790307343006134
1697649268158952700,5.83095263671875,0.1644706279039383,0.06444438546895981,0.3790307343006134
1697649268168545500,5.840545654296875,0.12781979143619537,0.06200099736452103,0.37292224168777466
1697649268178139100,5.85013916015625,0.07773031294345856,0.04367557913064957,0.36070531606674194
1697649268187733500,5.8597333984375,0.016645587980747223,0.013133215717971325,0.34604495763778687
1697649268197327000,5.8693271484375,-0.04810422286391258,-0.007635590620338917,0.3252761662006378
1697649268206920000,5.878919921875,-0.10552386194467545,-0.016187451779842377,0.29229041934013367
1697649268216513500,5.888513427734375,-0.1519482582807541,-0.02107422985136509,0.251974493265152
1697649268226108000,5.89810791015625,-0.19470755755901337,-0.003970507066696882,0.2238755226135254
1697649268235701200,5.907701171875,-0.2301367074251175,0.0522274412214756,0.21654535830020905
1697649268245294000,5.917294189453125,-0.25212720036506653,0.12675081193447113,0.21776704490184784
1697649268254887700,5.9268876953125,-0.2545706033706665,0.1841704547405243,0.22876229882240295
1697649268264482000,5.93648193359375,-0.24479703605175018,0.2244863659143448,0.24708771705627441
1697649268274075600,5.94607568359375,-0.2313583940267563,0.2367033064365387,0.26663482189178467
1697649268283668500,5.95566845703125,-0.21914145350456238,0.21349111199378967,0.28129515051841736
1697649268293261800,5.96526171875,-0.21303297579288483,0.15973655879497528,0.28496024012565613
1697649268302856400,5.9748564453125,-0.21181128919124603,0.08887827396392822,0.275186687707901
1697649268312449800,5.98444970703125,-0.21303297579288483,0.03023693896830082,0.2483094036579132
1697649268322042600,5.994042724609375,-0.2154763638973236,-0.002748812548816204,0.2079934924840927
1697649268331636200,6.00363623046875,-0.22402822971343994,-0.025961007922887802,0.15897299349308014
1697649268341230600,6.013230712890625,-0.2435753494501114,-0.07116370648145676,0.10644013434648514
1697649268350824200,6.02282421875,-0.28633466362953186,-0.144465371966362,0.06368082761764526
1697649268360416800,6.032416748046875,-0.3571929335594177,-0.24342262744903564,0.03802524134516716
1697649268370010600,6.0420107421875,-0.45615020394325256,-0.34604495763778687,0.030695075169205666
1697649268379604700,6.051604736328125,-0.5673243999481201,-0.39735615253448486,0.051463883370161057
1697649268389198300,6.0611982421875,-0.658951461315155,-0.35948359966278076,0.10766182839870453
1697649268398791200,6.070791259765625,-0.7041541934013367,-0.24220094084739685,0.1907370537519455
1697649268408384800,6.080384765625,-0.6992673873901367,-0.06383354216814041,0.28496024012565613
1697649268417979100,6.089979248046875,-0.6503996253013611,0.13774605095386505,0.3802524209022522
1697649268427572700,6.09957275390625,-0.5746545791625977,0.30633988976478577,0.4608842432498932
1697649268437165300,6.109165283203125,-0.4891359508037567,0.3967452943325043,0.5170822143554688
1697649268446759000,6.118759033203125,-0.40972578525543213,0.38941511511802673,0.5439594984054565
1697649268456353300,6.128353271484375,-0.3461976945400238,0.29290124773979187,0.5390726923942566
1697649268465947000,6.13794677734375,-0.296108216047287,0.1291942000389099,0.50853031873703
1697649268475539700,6.147539794921875,-0.2570139765739441,-0.06139015033841133,0.46577104926109314
1697649268485133300,6.15713330078125,-0.23991025984287262,-0.23242738842964172,0.4205683469772339
1697649268494727700,6.166727783203125,-0.24724042415618896,-0.3436015844345093,0.37536564469337463
1697649268504321300,6.1763212890625,-0.2692309319972992,-0.37536564469337463,0.33260634541511536
1697649268513913900,6.185913818359375,-0.296108216047287,-0.33504971861839294,0.3032856583595276
1697649268523507500,6.195507568359375,-0.31687700748443604,-0.2360924631357193,0.2898470163345337
1697649268533101800,6.205101806640625,-0.3327590525150299,-0.1041494607925415,0.28496024012565613
1697649268542695400,6.2146953125,-0.3352024257183075,0.03634541109204292,0.28373855352401733
1697649268552288300,6.224288330078125,-0.319320410490036,0.1695101112127304,0.28129515051841736
1697649268561881900,6.2338818359375,-0.28877803683280945,0.26724568009376526,0.2764083743095398
1697649268571476200,6.243476318359375,-0.2533488869667053,0.3161134421825409,0.27152159810066223
1697649268581069600,6.253069580078125,-0.21791976690292358,0.31977853178977966,0.275186687707901
1697649268590662400,6.262662353515625,-0.18126893043518066,0.2867927849292755,0.28373855352401733
1697649268600256000,6.272256103515625,-0.14706148207187653,0.22937314212322235,0.29351210594177246
1697649268609850400,6.281850341796875,-0.11407572776079178,0.16706672310829163,0.2996205687522888
1697649268619444000,6.29144384765625,-0.0847550556063652,0.12186402827501297,0.30084228515625
1697649268629036800,6.301036865234375,-0.06276455521583557,0.08887827396392822,0.29229041934013367
1697649268638630100,6.310630126953125,-0.07009471952915192,0.025350160896778107,0.28007346391677856
1697649268648224800,6.320224853515625,-0.11285403370857239,-0.013744063675403595,0.29351210594177246
1697649268657818000,6.329818115234375,-0.13362284004688263,0.022906772792339325,0.29351210594177246
1697649268667411000,6.339410888671875,-0.12140589207410812,0.057114217430353165,0.24220094084739685
1697649268677004500,6.349004638671875,-0.10430216789245605,0.06933116167783737,0.16141638159751892
1697649268686599000,6.358598876953125,-0.10674555599689484,0.07299624383449554,0.06368082761764526
1697649268696192500,6.368192626953125,-0.1250709742307663,0.07666133344173431,-0.0462716780602932
1697649268705785000,6.37778515625,-0.14339639246463776,0.07299624383449554,-0.16721943020820618
1697649268715378700,6.387378662109375,-0.1495048701763153,0.06933116167783737,-0.2930539846420288
1697649268724973000,6.39697314453125,-0.14461809396743774,0.055892523378133774,-0.41888850927352905
1697649268734566700,6.406566650390625,-0.12873606383800507,0.025350160896778107,-0.5215108394622803
1697649268744159500,6.416159423828125,-0.10063708573579788,-0.02229592576622963,-0.5874823331832886
1697649268753753000,6.425753173828125,-0.07742489129304886,-0.09559759497642517,-0.6106945276260376
1697649268763347500,6.435347412109375,-0.06276455521583557,-0.1713426560163498,-0.5935907959938049
1697649268772940800,6.44494091796875,-0.0590994730591774,-0.24464432895183563,-0.5471664071083069
1697649268782533600,6.45453369140625,-0.06154286116361618,-0.3142809271812439,-0.4909684956073761
1697649268792127200,6.464127197265625,-0.07375980913639069,-0.3765873312950134,-0.43477052450180054
1697649268801721600,6.4737216796875,-0.09208522737026215,-0.4034646153450012,-0.37735089659690857
1697649268811315200,6.483315185546875,-0.12995775043964386,-0.3961344361305237,-0.31504446268081665
1697649268820907800,6.49290771484375,-0.18615570664405823,-0.37047886848449707,-0.24785128235816956
1697649268830501600,6.502501708984375,-0.23502348363399506,-0.3032856583595276,-0.17943638563156128
1697649268840095700,6.512095703125,-0.24601873755455017,-0.17256435751914978,-0.1256818175315857
1697649268849689300,6.521689453125,-0.22402822971343994,-0.006413896102458239,-0.09391776472330093
1697649268859282200,6.5312822265625,-0.20081603527069092,0.13530266284942627,-0.0584886260330677
1697649268868875800,6.540875732421875,-0.19470755755901337,0.24525517225265503,-0.007177455350756645
1697649268878470100,6.55047021484375,-0.20936790108680725,0.2855710983276367,0.04046862944960594
1697649268888063500,6.5600634765625,-0.23746687173843384,0.26968905329704285,0.07834116369485855
1697649268897656300,6.56965625,-0.27411770820617676,0.21593450009822845,0.09666658192873001
1697649268907250000,6.57925,-0.3107685446739197,0.1450762301683426,0.09422318637371063
1697649268916844300,6.58884423828125,-0.3571929335594177,0.041232191026210785,0.06123743951320648
1697649268926438000,6.59843798828125,-0.425607830286026,-0.06749862432479858,0.0050394898280501366
1697649268936030500,6.608030517578125,-0.49768781661987305,-0.1835595965385437,-0.07559234648942947
1697649268945624300,6.617624267578125,-0.5587725043296814,-0.32283276319503784,-0.17454960942268372
1697649268955218400,6.627218505859375,-0.6064186096191406,-0.4462239146232605,-0.2698417901992798
1697649268964812000,6.63681201171875,-0.6149705052375793,-0.5195255875587463,-0.3345915973186493
1697649268974404900,6.64640478515625,-0.5819846987724304,-0.5207473039627075,-0.34314343333244324
1697649268983998500,6.65599853515625,-0.5282301902770996,-0.4486673176288605,-0.27472856640815735
1697649268993592800,6.6655927734375,-0.474475622177124,-0.2996205687522888,-0.1256818175315857
1697649269003186200,6.675186279296875,-0.423164427280426,-0.07605048269033432,0.09055810421705246
1697649269012779000,6.684779052734375,-0.36574479937553406,0.19883078336715698,0.33627140522003174
1697649269022372600,6.69437255859375,-0.28999972343444824,0.46516019105911255,0.5806103348731995
1697649269031967000,6.703967041015625,-0.19592925906181335,0.6520794630050659,0.8066238164901733
1697649269041560600,6.713560546875,-0.09575030952692032,0.7253811359405518,1.017976999282837
1697649269051153400,6.7231533203125,-0.005344913341104984,0.6923953890800476,1.2110047340393066
1697649269060746800,6.732746826171875,0.06917845457792282,0.5824428796768188,1.3808202743530273
1697649269070341400,6.74234130859375,0.12171131372451782,0.434617817401886,1.526201844215393
1697649269079934700,6.751934814453125,0.14492350816726685,0.26968905329704285,1.628824234008789
1697649269089527600,6.761527587890625,0.14003673195838928,0.09620844572782516,1.669140100479126
1697649269099121200,6.77112109375,0.0984991192817688,-0.05528167635202408,1.637376070022583
1697649269108715500,6.780715576171875,0.02886253222823143,-0.16767756640911102,1.5310887098312378
1697649269118308900,6.790308837890625,-0.08353336155414581,-0.23853585124015808,1.3576080799102783
1697649269127901700,6.799901611328125,-0.2301367074251175,-0.2507528066635132,1.142589807510376
1697649269137495300,6.809495361328125,-0.37918344140052795,-0.21410197019577026,0.9055810570716858
1697649269147089700,6.819089599609375,-0.5111264586448669,-0.12247487902641296,0.6734591126441956
1697649269156683300,6.828683349609375,-0.6051968932151794,0.015576604753732681,0.46699273586273193
1697649269166275800,6.83827587890625,-0.6552863717079163,0.17561858892440796,0.3167243003845215
1697649269175869700,6.84786962890625,-0.658951461315155,0.328330397605896,0.2348707765340805
1697649269185463800,6.8574638671875,-0.6247440576553345,0.4431696832180023,0.21898874640464783
1697649269195057400,6.867057373046875,-0.5599942207336426,0.49081575870513916,0.2593046724796295
1697649269204650200,6.876650146484375,-0.48302745819091797,0.45172154903411865,0.33504971861839294
1697649269214243800,6.886243896484375,-0.4146125912666321,0.3429907262325287,0.42789849638938904
1697649269223838200,6.895838134765625,-0.36574479937553406,0.1817270666360855,0.5183038711547852
1697649269233431600,6.905431640625,-0.34253260493278503,0.005803049076348543,0.5818319916725159
1697649269243024400,6.9150244140625,-0.3339807391166687,-0.15301723778247833,0.6001574397087097
1697649269252618000,6.924617919921875,-0.3449759781360626,-0.2654131352901459,0.559841513633728
1697649269262212400,6.93421240234375,-0.3633013963699341,-0.30817243456840515,0.4706578254699707
1697649269271806000,6.943805908203125,-0.3718532621860504,-0.28373855352401733,0.3399364948272705
1697649269281398500,6.9533984375,-0.36574479937553406,-0.21532365679740906,0.19455485045909882
1697649269290992000,6.9629921875,-0.34253260493278503,-0.12125317752361298,0.05635065957903862
1697649269300586500,6.97258642578125,-0.29977330565452576,-0.025961007922887802,-0.05604523420333862
1697649269310180000,6.98218017578125,-0.2411319613456726,0.05467082932591438,-0.12812520563602448
1697649269319773000,6.99177294921875,-0.17271706461906433,0.10842538625001907,-0.15866757929325104
1697649269329366500,7.001366455078125,-0.10552386194467545,0.14996300637722015,-0.15622419118881226
1697649269338961000,7.0109609375,-0.03955236077308655,0.19027891755104065,-0.12934690713882446
1697649269348554200,7.02055419921875,0.025197450071573257,0.21349111199378967,-0.08903098851442337
1697649269358147000,7.03014697265625,0.08383878320455551,0.21593450009822845,-0.043828289955854416
1697649269367740700,7.03974072265625,0.13148486614227295,0.197609081864357,0.00015271181473508477
1697649269377335000,7.0493349609375,0.17180079221725464,0.1560714691877365,0.03558185324072838
1697649269386928400,7.058928466796875,0.20600824058055878,0.10598199814558029,0.05635065957903862
1697649269396521200,7.068521240234375,0.23532891273498535,0.07421794533729553,0.06612421572208405
1697649269406114800,7.07811474609375,0.252432644367218,0.057114217430353165,0.072232685983181
1697649269415709200,7.087709228515625,0.25121092796325684,0.03512371703982353,0.08200624585151672
1697649269425302800,7.097302734375,0.2279987335205078,0.009468132629990578,0.09544488787651062
1697649269434895400,7.106895263671875,0.19745637476444244,-0.01252236869186163,0.11377029865980148
1697649269444489000,7.116489013671875,0.15958385169506073,-0.02351761981844902,0.13087402284145355
1697649269454083300,7.126083251953125,0.10705098509788513,-0.018630841746926308,0.13942588865756989
1697649269463677000,7.135677001953125,0.0459662564098835,0.0021379655227065086,0.13576079905033112
1697649269473269800,7.145269775390625,-0.012675080448389053,0.03634541109204292,0.11621369421482086
1697649269482863400,7.15486328125,-0.06398624926805496,0.08765657991170883,0.07589777559041977
1697649269492457700,7.164457763671875,-0.10552386194467545,0.1572931706905365,0.025808297097682953
1697649269502051000,7.174051025390625,-0.12995775043964386,0.222042977809906,-0.023059483617544174
1697649269511644000,7.183643798828125,-0.13362284004688263,0.2586938142776489,-0.060932014137506485
1697649269521237500,7.193237548828125,-0.10918894410133362,0.25747212767601013,-0.0853659063577652
1697649269530832000,7.202831787109375,-0.05665608495473862,0.20371755957603455,-0.0975828468799591
1697649269540425200,7.21242529296875,0.015423892997205257,0.09987352788448334,-0.10002623498439789
1697649269550018000,7.22201806640625,0.08750387281179428,-0.04306473210453987,-0.10124793648719788
1697649269559611600,7.231611572265625,0.16080553829669952,-0.20555010437965393,-0.1122431829571724
1697649269569206000,7.2412060546875,0.2414373755455017,-0.3643703758716583,-0.14889401197433472
1697649269578799600,7.250799560546875,0.3245126008987427,-0.48898324370384216,-0.22341738641262054
1697649269588392200,7.26039208984375,0.3990359604358673,-0.5854970812797546,-0.3345915973186493
1697649269597985800,7.26998583984375,0.4540122151374817,-0.6624638438224792,-0.4665345847606659
1697649269607580200,7.279580078125,0.4821111857891083,-0.7247702479362488,-0.60825115442276
1697649269617173800,7.289173828125,0.465007483959198,-0.7968502640724182,-0.7511894106864929
1697649269626766600,7.2987666015625,0.4014793634414673,-0.8958075046539307,-0.8941276669502258
1697649269636360000,7.30835986328125,0.30374380946159363,-1.008203387260437,-1.0468394756317139
1697649269645954600,7.31795458984375,0.18279604613780975,-1.077839970588684,-1.2203201055526733
1697649269655548000,7.3275478515625,0.05085303261876106,-1.0582928657531738,-1.398687481880188
1697649269665140700,7.337140625,-0.08231166750192642,-0.9239065051078796,-1.5440691709518433
1697649269674734300,7.346734375,-0.20814619958400726,-0.7015580534934998,-1.6198142766952515
1697649269684328700,7.35632861328125,-0.30343836545944214,-0.4193466305732727,-1.6161491870880127
1697649269693922000,7.365922119140625,-0.3608580231666565,-0.11392301321029663,-1.539182424545288
1697649269703515000,7.375514892578125,-0.3742966651916504,0.1560714691877365,-1.4121261835098267
1697649269713108500,7.3851083984375,-0.3474193811416626,0.3417690396308899,-1.264301061630249
1697649269722702800,7.394702880859375,-0.28877803683280945,0.41262730956077576,-1.1201411485671997
1697649269732296400,7.40429638671875,-0.2154763638973236,0.3674246370792389,-0.9845330715179443
1697649269741889000,7.413888916015625,-0.14095300436019897,0.22570806741714478,-0.8586985468864441
1697649269751482600,7.423482666015625,-0.07742489129304886,0.016798298805952072,-0.7487460374832153
1697649269761077000,7.433076904296875,-0.02733541466295719,-0.19944162666797638,-0.6607840061187744
1697649269770670600,7.442670654296875,0.008093725889921188,-0.38636088371276855,-0.6021426916122437
1697649269780263200,7.45226318359375,0.02764083817601204,-0.5109737515449524,-0.5740436911582947
1697649269789856800,7.461856689453125,0.03130592033267021,-0.5549547076225281,-0.5777087807655334
1697649269799451100,7.471451171875,0.010537114925682545,-0.5219689607620239,-0.6119162440299988
1697649269809044700,7.481044677734375,-0.02733541466295719,-0.4230117201805115,-0.6754443645477295
1697649269818637600,7.490637451171875,-0.07498150318861008,-0.29473379254341125,-0.765849769115448
1697649269828231200,7.500231201171875,-0.12751436233520508,-0.1566823273897171,-0.8733588457107544
1697649269837825500,7.509825439453125,-0.18249061703681946,-0.04306473210453987,-0.9857547879219055
1697649269847419000,7.5194189453125,-0.23624517023563385,0.022906772792339325,-1.0859336853027344
1697649269857011700,7.52901171875,-0.27411770820617676,0.042453885078430176,-1.1677871942520142
1697649269866605300,7.538605224609375,-0.28877803683280945,0.027793550863862038,-1.2288719415664673
1697649269876199700,7.54819970703125,-0.2680092453956604,-0.007635590620338917,-1.2704095840454102
1697649269885793000,7.55779296875,-0.21058958768844604,-0.03695625811815262,-1.2899566888809204
1697649269895385900,7.5673857421875,-0.12873606383800507,-0.0528382882475853,-1.28018319606781
1697649269904979500,7.5769794921875,-0.03588727489113808,-0.06749862432479858,-1.233758807182312
1697649269914573800,7.58657373046875,0.06673506647348404,-0.08338065445423126,-1.1592353582382202
1697649269924167400,7.59616748046875,0.1779092699289322,-0.09315420687198639,-1.0663865804672241
1697649269933760000,7.605760009765625,0.2817533016204834,-0.1053711548447609,-0.9600991606712341
1697649269943353600,7.615353515625,0.36360684037208557,-0.12003148347139359,-0.8379297256469727
1697649269952948000,7.624947998046875,0.42224815487861633,-0.145687073469162,-0.7120952010154724
1697649269962541600,7.63454150390625,0.4540122151374817,-0.1835595965385437,-0.5972558856010437
1697649269972134400,7.644134521484375,0.4637857675552368,-0.22754059731960297,-0.49585527181625366
1697649269981727700,7.653727783203125,0.46134239435195923,-0.25319617986679077,-0.4127800464630127
1697649269991322000,7.663322021484375,0.4637857675552368,-0.24708771705627441,-0.3590254783630371
1697649270000915700,7.672915771484375,0.4784461259841919,-0.21288026869297028,-0.3309265077114105
1697649270010508500,7.682508544921875,0.49677154421806335,-0.15423893928527832,-0.31137940287590027
1697649270020102000,7.692101806640625,0.5065450668334961,-0.08948912471532822,-0.2954973578453064
1697649270029696300,7.7016962890625,0.5016583204269409,-0.029626091942191124,-0.27595025300979614
1697649270039289900,7.711289794921875,0.48577627539634705,0.0021379655227065086,-0.24540787935256958
1697649270048882700,7.720882568359375,0.465007483959198,0.0009162708884105086,-0.20142687857151031
1697649270058476000,7.73047607421875,0.4369085133075714,-0.016187451779842377,-0.14767232537269592
1697649270068070700,7.740070556640625,0.4002576768398285,-0.04184303805232048,-0.08780929446220398
1697649270077664000,7.7496640625,0.358720064163208,-0.08093725889921188,-0.029167955741286278
1697649270087256800,7.7592568359375,0.30374380946159363,-0.12125317752361298,0.016034740954637527
1697649270096850400,7.768850341796875,0.24510246515274048,-0.13713520765304565,0.03680354729294777
1697649270106444800,7.77844482421875,0.18646112084388733,-0.13591352105140686,0.04046862944960594
1697649270116038100,7.7880380859375,0.12781979143619537,-0.1310267299413681,0.031916771084070206
1697649270125631000,7.797630859375,0.06184828653931618,-0.1188097894191742,0.029473381116986275
1697649270135224600,7.807224609375,-0.012675080448389053,-0.10659284889698029,0.03436015918850899
1697649270144819000,7.81681884765625,-0.09330692142248154,-0.09559759497642517,0.04413371533155441
1697649270154412300,7.826412353515625,-0.17882554233074188,-0.08338065445423126,0.05390727147459984
1697649270164005000,7.836005126953125,-0.2692309319972992,-0.047951508313417435,0.0587940476834774
1697649270173598700,7.8455986328125,-0.35108447074890137,0.011911521665751934,0.06001574173569679
1697649270183193000,7.855193115234375,-0.4158342778682709,0.07666133344173431,0.046577103435993195
1697649270192786700,7.86478662109375,-0.45737189054489136,0.12797249853610992,0.02092151902616024
1697649270202379300,7.874379150390625,-0.4781406819820404,0.16095824539661407,0.0038177953101694584
1697649270211972900,7.883972900390625,-0.4805840849876404,0.1719534993171692,0.007482878863811493
1697649270221567200,7.893567138671875,-0.4683671295642853,0.1719534993171692,0.03924693539738655
1697649270231160800,7.903160888671875,-0.4366030693054199,0.14751961827278137,0.08689302206039429
1697649270240753400,7.91275341796875,-0.37918344140052795,0.10353861004114151,0.13576079905033112
1697649270250347000,7.922346923828125,-0.29977330565452576,0.042453885078430176,0.17241163551807404
1697649270259941400,7.93194140625,-0.21058958768844604,-0.03573456406593323,0.19455485045909882
1697649270269535000,7.941534912109375,-0.11896250396966934,-0.12003148347139359,0.19821994006633759
1697649270279127600,7.95112744140625,-0.03833066672086716,-0.21532365679740906,0.18218518793582916
1697649270288721200,7.96072119140625,0.012980503961443901,-0.33382803201675415,0.15408621728420258
1697649270298315500,7.9703154296875,0.017867282032966614,-0.49264830350875854,0.12843063473701477
1697649270307909000,7.9799091796875,-0.02367033064365387,-0.7015580534934998,0.09177979826927185
1697649270317502000,7.989501953125,-0.0847550556063652,-0.9092461466789246,0.031916771084070206
1697649270327095300,7.99909521484375,-0.13973131775856018,-1.0045382976531982,-0.0719272643327713
1697649270336689700,8.008689697265625,-0.1629435122013092,-0.9715525507926941,-0.20875705778598785
1697649270346283300,8.018283203125,-0.15439164638519287,-0.823727548122406,-0.33947837352752686
1697649270355876000,8.0278759765625,-0.12751436233520508,-0.5732801556587219,-0.4286620616912842
1697649270365469400,8.037469482421875,-0.111632339656353,-0.2764083743095398,-0.46164780855178833
1697649270375063800,8.047063720703125,-0.10674555599689484,-0.011300674639642239,-0.4372139275074005
1697649270384657400,8.056657470703126,-0.09086353331804276,0.19883078336715698,-0.3712424337863922
1697649270394250200,8.066250244140624,-0.050547610968351364,0.35765108466148376,-0.266176700592041
1697649270403843600,8.075843505859375,0.005650337319821119,0.4749337434768677,-0.12323843687772751
1697649270413438200,8.085438232421875,0.06795676052570343,0.5567872524261475,0.03436015918850899
1697649270423031600,8.095031494140626,0.14492350816726685,0.6252021789550781,0.17118994891643524
1697649270432624400,8.104624267578124,0.23777230083942413,0.661853015422821,0.2654131352901459
1697649270442218000,8.114218017578125,0.32817769050598145,0.6410841941833496,0.3167243003845215
1697649270451812400,8.123812255859375,0.4002576768398285,0.5824428796768188,0.3399364948272705
1697649270461405700,8.13340576171875,0.4515688419342041,0.5128062963485718,0.34604495763778687
1697649270470998500,8.14299853515625,0.4784461259841919,0.43706122040748596,0.3387148082256317
1697649270480592100,8.152592041015625,0.4894413650035858,0.3649812340736389,0.31916770339012146
1697649270490186500,8.1621865234375,0.4808894991874695,0.3026748299598694,0.2764083743095398
1697649270499779800,8.17177978515625,0.465007483959198,0.25258535146713257,0.19821994006633759
1697649270509372700,8.18137255859375,0.43446511030197144,0.23303823173046112,0.07467607408761978
1697649270518966300,8.19096630859375,0.3843756318092346,0.23792500793933868,-0.09025268256664276
1697649270528560600,8.200560546875,0.32939937710762024,0.25502872467041016,-0.2673983871936798
1697649270538154000,8.210154052734374,0.27808821201324463,0.2586938142776489,-0.4249969720840454
1697649270547746800,8.219746826171875,0.2304421216249466,0.25747212767601013,-0.5471664071083069
1697649270557340400,8.22934033203125,0.19256959855556488,0.24403348565101624,-0.6192464232444763
1697649270566934800,8.238934814453126,0.17424418032169342,0.2086043357849121,-0.631463348865509
1697649270576528100,8.248528076171874,0.17424418032169342,0.16584503650665283,-0.5935907959938049
1697649270586121000,8.258120849609375,0.18646112084388733,0.11575555801391602,-0.5263976454734802
1697649270595714600,8.267714599609375,0.20356485247612,0.08643488585948944,-0.44332239031791687
1697649270605309000,8.277308837890626,0.22311195731163025,0.07299624383449554,-0.35169529914855957
1697649270614902300,8.28690234375,0.24632415175437927,0.0656660795211792,-0.2527380585670471
1697649270624495000,8.2964951171875,0.2658712565898895,0.055892523378133774,-0.15378080308437347
1697649270634088700,8.306088623046875,0.27320143580436707,0.041232191026210785,-0.05726693198084831
1697649270643683000,8.31568310546875,0.2670929729938507,0.021685076877474785,0.014813045971095562
1697649270653276400,8.3252763671875,0.2670929729938507,0.011911521665751934,0.04169032722711563
1697649270662869200,8.334869140625,0.2707580327987671,0.008246437646448612,0.031916771084070206
1697649270672462800,8.344462890625,0.2683146595954895,0.003359660040587187,-0.0010689827613532543
1697649270682057200,8.35405712890625,0.2536543309688568,0.005803049076348543,-0.04871506989002228
1697649270691650600,8.363650634765625,0.21211670339107513,0.011911521665751934,-0.10613471269607544
1697649270701243400,8.373243408203125,0.1510319858789444,0.04489727318286896,-0.16599774360656738
1697649270710837000,8.3828369140625,0.09483403712511063,0.09620844572782516,-0.217308908700943
1697649270720431400,8.392431396484374,0.04352286830544472,0.14751961827278137,-0.23685602843761444
1697649270730024700,8.402024658203125,-0.009009997360408306,0.1707318127155304,-0.2160872220993042
1697649270739617500,8.411617431640625,-0.05787777900695801,0.1707318127155304,-0.16966283321380615
1697649270749211100,8.421211181640626,-0.0847550556063652,0.16584503650665283,-0.11590826511383057
1697649270758805500,8.430805419921874,-0.0859767496585846,0.15118469297885895,-0.06581879407167435
1697649270768398800,8.44039892578125,-0.07375980913639069,0.1304158866405487,-0.019394399598240852
1697649270777991700,8.44999169921875,-0.06032116711139679,0.10231691598892212,0.025808297097682953
1697649270787585300,8.459585205078126,-0.04688252881169319,0.0656660795211792,0.06856760382652283
1697649270797179600,8.4691796875,-0.034665580838918686,0.021685076877474785,0.11865708231925964
1697649270806773000,8.47877294921875,-0.033443886786699295,-0.028404397889971733,0.18340688943862915
1697649270816365800,8.48836572265625,-0.052990999072790146,-0.0784938707947731,0.27029991149902344
1697649270825959400,8.49795947265625,-0.08964183181524277,-0.12369657307863235,0.3680354654788971
1697649270835553800,8.5075537109375,-0.1372879147529602,-0.1432436853647232,0.47676628828048706
1697649270845147100,8.517147216796875,-0.1910424828529358,-0.14080029726028442,0.5928272604942322
1697649270854740000,8.526739990234375,-0.23746687173843384,-0.12736165523529053,0.7101099491119385
1697649270864333600,8.53633349609375,-0.2716743052005768,-0.11270131915807724,0.8127322793006897
1697649270873928000,8.545927978515625,-0.28877803683280945,-0.10903623700141907,0.8872556686401367
1697649270883521500,8.555521484375,-0.293664813041687,-0.1175880953669548,0.930014967918396
1697649270893114000,8.565114013671876,-0.293664813041687,-0.13591352105140686,0.9361234307289124
1697649270902707700,8.574707763671874,-0.28877803683280945,-0.17378604412078857,0.9214630722999573
1697649270912302000,8.584302001953125,-0.27533939480781555,-0.2348707765340805,0.9006943106651306
1697649270921895400,8.5938955078125,-0.26434415578842163,-0.30084228515625,0.8860339522361755
1697649270931488300,8.60348828125,-0.25945737957954407,-0.3558185398578644,0.878703773021698
1697649270941081900,8.613081787109374,-0.2570139765739441,-0.38391751050949097,0.8640434741973877
1697649270950676200,8.62267626953125,-0.23380178213119507,-0.34482327103614807,0.8261709213256836
1697649270960269600,8.63226953125,-0.18493400514125824,-0.28129515051841736,0.7675296068191528
1697649270969862400,8.6418623046875,-0.10918894410133362,-0.24342262744903564,0.7088882327079773
1697649270979456000,8.6514560546875,-0.017561858519911766,-0.23364907503128052,0.6759024858474731
1697649270989050400,8.66105029296875,0.06917845457792282,-0.25563958287239075,0.6856760382652283
1697649270998643700,8.670643798828126,0.13514995574951172,-0.3167243003845215,0.7308787703514099
1697649271008236500,8.680236572265626,0.17913095653057098,-0.40468630194664,0.800515353679657
1697649271017830100,8.689830078125,0.2145601063966751,-0.51341712474823,0.8884773254394531
1697649271027424500,8.699424560546875,0.252432644367218,-0.6099309921264648,0.9727742671966553
1697649271037017900,8.709017822265626,0.2927485406398773,-0.6917845010757446,1.0460759401321411
1697649271046610700,8.718610595703124,0.31596073508262634,-0.7284353375434875,1.1132690906524658
1697649271056204300,8.728204345703125,0.3245126008987427,-0.7076665759086609,1.1523633003234863
1697649271065798700,8.737798583984375,0.3465031087398529,-0.6026008129119873,1.1389247179031372
1697649271075392000,8.74739208984375,0.3599417507648468,-0.430341899394989,1.0839484930038452
1697649271084984800,8.75698486328125,0.3367295563220978,-0.29595550894737244,0.9703308939933777
1697649271094578400,8.766578369140625,0.27320143580436707,-0.25319617986679077,0.7797465324401855
1697649271104172800,8.7761728515625,0.17424418032169342,-0.324054479598999,0.51341712474823
1697649271113766100,8.78576611328125,0.04230117425322533,-0.46210595965385437,0.18585027754306793
1697649271123359000,8.79535888671875,-0.1250709742307663,-0.6099309921264648,-0.1391204595565796
1697649271132952600,8.80495263671875,-0.32787227630615234,-0.7235485911369324,-0.3968980014324188
1697649271142547000,8.814546875,-0.5257867574691772,-0.7650861740112305,-0.5483881235122681
1697649271152140300,8.824140380859374,-0.6882721781730652,-0.7369872331619263,-0.5960342288017273
1697649271161733000,8.833733154296874,-0.7713474035263062,-0.6368082761764526,-0.5728220343589783
1697649271171326500,8.843326416015625,-0.7603521347045898,-0.4816530644893646,-0.5178457498550415
1697649271180920800,8.8529208984375,-0.6699467301368713,-0.33382803201675415,-0.4494308829307556
1697649271190514400,8.862514404296874,-0.5318952798843384,-0.23364907503128052,-0.372464120388031
1697649271200107300,8.872107177734375,-0.3828485310077667,-0.19211146235466003,-0.30282753705978394
1697649271209700600,8.88170068359375,-0.2655658423900604,-0.19821994006633759,-0.28694549202919006
1697649271219295000,8.891294921875,-0.19959434866905212,-0.24464432895183563,-0.346808522939682
1697649271228888600,8.900888671875,-0.18126893043518066,-0.2874036431312561,-0.455539345741272
1697649271238481400,8.9104814453125,-0.21058958768844604,-0.3692571818828583,-0.5923691391944885
1697649271248074800,8.92007470703125,-0.28755635023117065,-0.50853031873703,-0.7279772162437439
1697649271257669000,8.929669189453126,-0.39262208342552185,-0.642916738986969,-0.8550334572792053
1697649271267262700,8.9392626953125,-0.5074613690376282,-0.7223268747329712,-0.9772028923034668
1697649271276855600,8.94885546875,-0.635739266872406,-0.7394306063652039,-1.1128109693527222
1697649271286449000,8.958448974609375,-0.7554653286933899,-0.6490252017974854,-1.256971001625061
1697649271296043300,8.968043212890626,-0.8373188972473145,-0.4608842432498932,-1.3864705562591553
1697649271305636900,8.977636962890625,-0.8544226288795471,-0.21410197019577026,-1.4952013492584229
1697649271315229400,8.9872294921875,-0.8116632699966431,0.04611896723508835,-1.579498291015625
1697649271324823000,8.996822998046875,-0.7151494026184082,0.2843494117259979,-1.617370843887329
1697649271334417400,9.00641748046875,-0.5722111463546753,0.4443913698196411,-1.59415864944458
1697649271344011000,9.016010986328125,-0.4109475016593933,0.4871506989002228,-1.4719891548156738
1697649271353603600,9.025603515625,-0.26312246918678284,0.3820849657058716,-1.2459757328033447
1697649271363197200,9.035197265625,-0.13362284004688263,0.1829487532377243,-0.9674293398857117
1697649271372791600,9.04479150390625,-0.018783552572131157,-0.00030542362947016954,-0.6949914693832397
1697649271382385000,9.054385009765625,0.07773031294345856,-0.16034740209579468,-0.4543176591396332
1697649271391977700,9.063977783203125,0.14370182156562805,-0.29473379254341125,-0.23929941654205322
1697649271401571300,9.0735712890625,0.18523943424224854,-0.3900259733200073,-0.03894151374697685
1697649271411165700,9.083165771484374,0.21944688260555267,-0.45111069083213806,0.14186927676200867
1697649271420759000,9.092759033203125,0.25121092796325684,-0.4608842432498932,0.2739650011062622
1697649271430352000,9.102351806640625,0.27197974920272827,-0.4474456310272217,0.3509317636489868
1697649271439945500,9.111945556640626,0.2707580327987671,-0.4291202127933502,0.38391751050949097
1697649271449539800,9.121539794921874,0.24632415175437927,-0.43767204880714417,0.38513919711112976
1697649271459133200,9.13113330078125,0.19989976286888123,-0.5256340503692627,0.3778090178966522
1697649271468726000,9.14072607421875,0.13392825424671173,-0.6795675754547119,0.3802524209022522
1697649271478319600,9.150319580078126,0.058183200657367706,-0.8371661901473999,0.3949127495288849
1697649271487914000,9.1599140625,-0.021226942539215088,-0.9630007147789001,0.4059080183506012
1697649271497507300,9.16950732421875,-0.09697200357913971,-1.0448542833328247,0.4034646153450012
1697649271507100200,9.17910009765625,-0.17027367651462555,-1.0900568962097168,0.38513919711112976
1697649271516693500,9.188693603515626,-0.2582356929779053,-1.063179612159729,0.3643703758716583
1697649271526288000,9.198287841796875,-0.376740038394928,-0.9129112362861633,0.3509317636489868
1697649271535881500,9.207881591796875,-0.5209000110626221,-0.674680769443512,0.3264978528022766
1697649271545474300,9.217474365234375,-0.6784985661506653,-0.5146388411521912,0.2483094036579132
1697649271555067600,9.227067626953126,-0.8385405540466309,-0.45477578043937683,0.11621369421482086
1697649271564662000,9.236662109375,-0.9497147798538208,-0.3802524209022522,-0.03894151374697685
1697649271574255600,9.246255615234375,-0.982700526714325,-0.32038938999176025,-0.22219568490982056
1697649271583848200,9.25584814453125,-0.9423846006393433,-0.25808295607566833,-0.4237752854824066
1697649271593441800,9.26544189453125,-0.8641961812973022,-0.11025793105363846,-0.6216897964477539
1697649271603036200,9.2750361328125,-0.7896727919578552,0.08643488585948944,-0.8025006055831909
1697649271612629800,9.284629638671875,-0.7346965670585632,0.2476985603570938,-0.955212414264679
1697649271622222300,9.294222412109375,-0.6723901033401489,0.3014531135559082,-1.0773818492889404
1697649271631816000,9.30381591796875,-0.5868715047836304,0.19150061905384064,-1.1983295679092407
1697649271641410300,9.313410400390625,-0.5135698318481445,-0.0528382882475853,-1.335159420967102
1697649271651003600,9.323003662109375,-0.4891359508037567,-0.30939415097236633,-1.468324065208435
1697649271660596500,9.332596435546876,-0.5123481154441833,-0.45355409383773804,-1.5636162757873535
1697649271670190000,9.342190185546874,-0.5734328627586365,-0.5329642295837402,-1.5746115446090698
1697649271679784400,9.351784423828125,-0.6675033569335938,-0.4608842432498932,-1.4609938859939575
1697649271689377800,9.361377685546875,-0.7640172243118286,-0.25441789627075195,-1.2349804639816284
1697649271698970600,9.370970703125,-0.8226585388183594,-0.017409147694706917,-0.9320002198219299
1697649271708564200,9.380564208984374,-0.8177717924118042,0.1817270666360855,-0.5923691391944885
1697649271718158300,9.390158447265625,-0.7310314774513245,0.29290124773979187,-0.28938889503479004
1697649271727752000,9.399751953125,-0.5282301902770996,0.351542592048645,-0.062153708189725876
1697649271737344800,9.4093447265625,-0.21181128919124603,0.3967452943325043,0.11010521650314331
1697649271746938000,9.418938232421874,0.13514995574951172,0.32344362139701843,0.2360924631357193
1697649271756532500,9.428532470703125,0.42957833409309387,0.15240639448165894,0.3411581814289093
1697649271766126000,9.4381259765625,0.6384881138801575,-0.047951508313417435,0.4682144224643707
1697649271775718700,9.44771875,0.7777612805366516,-0.19211146235466003,0.6050441861152649
1697649271785312300,9.457312255859375,0.9023740887641907,-0.144465371966362,0.6832326650619507
1697649271794906600,9.46690673828125,0.9976662993431091,0.042453885078430176,0.6441384553909302
1697649271804500200,9.476500244140626,1.0098832845687866,0.23914669454097748,0.5268557667732239
1697649271814092800,9.4860927734375,0.9145910739898682,0.39796698093414307,0.3900259733200073
1697649271823686400,9.495686279296875,0.7142331600189209,0.5274665951728821,0.26785650849342346
1697649271833280800,9.50528076171875,0.4491254389286041,0.6594096422195435,0.1626380831003189
1697649271842874000,9.5148740234375,0.16935740411281586,0.7803573608398438,0.07589777559041977
1697649271852467000,9.524467041015624,-0.07498150318861008,0.8377770185470581,0.02214321307837963
1697649271862060500,9.534060546875,-0.24968381226062775,0.8341119289398193,-0.009620844386518002
1697649271871655000,9.543655029296875,-0.3461976945400238,0.8108997344970703,-0.020616095513105392
1697649271881248300,9.553248291015626,-0.36574479937553406,0.7791357040405273,-0.014507622458040714
1697649271890841000,9.562841064453124,-0.31565532088279724,0.7375980615615845,-0.0010689827613532543
1697649271900434400,9.572434326171875,-0.22036315500736237,0.6923953890800476,0.016034740954637527
1697649271910028800,9.58202880859375,-0.10552386194467545,0.638640820980072,0.024586603045463562
1697649271919622400,9.591622314453126,0.012980503961443901,0.6190937161445618,0.025808297097682953
1697649271929215200,9.60121533203125,0.12659808993339539,0.6349757313728333,0.029473381116986275
1697649271938808600,9.61080859375,0.2304421216249466,0.6667397618293762,0.04169032722711563
1697649271948403000,9.62040283203125,0.32573428750038147,0.7107207775115967,0.07589777559041977
1697649271957996500,9.62999658203125,0.40636613965034485,0.7461498975753784,0.12965233623981476
1697649271967589000,9.639589111328124,0.45767730474472046,0.7498149871826172,0.18585027754306793
1697649271977182700,9.6491826171875,0.4796678125858307,0.6997255086898804,0.2348707765340805
1697649271986777000,9.658777099609376,0.4796678125858307,0.6056550741195679,0.26785650849342346
1697649271996370400,9.668370361328124,0.47233763337135315,0.4859289824962616,0.29595550894737244
1697649272005963300,9.67796337890625,0.462564080953598,0.35887277126312256,0.32161107659339905
1697649272015556900,9.687556884765625,0.439351886510849,0.22570806741714478,0.3411581814289093
1697649272025151200,9.697151123046876,0.4124746024608612,0.10964708030223846,0.36070531606674194
1697649272034744600,9.70674462890625,0.3965925872325897,0.024128466844558716,0.40712970495224
1697649272044337400,9.71633740234375,0.3978142738342285,-0.04550812020897865,0.48898324370384216
1697649272053931000,9.725930908203125,0.4136963188648224,-0.10781454294919968,0.6038225293159485
1697649272063525000,9.735525146484376,0.44668206572532654,-0.15179555118083954,0.7382088899612427
1697649272073118700,9.74511865234375,0.4906630516052246,-0.1701209545135498,0.8738170266151428
1697649272082711300,9.754711181640625,0.5297572612762451,-0.15912571549415588,0.984991192817688
1697649272092305000,9.764304931640625,0.548082709312439,-0.14202198386192322,1.0216420888900757
1697649272101899300,9.773899169921876,0.5578562617301941,-0.15179555118083954,0.9581139087677002
1697649272111492900,9.783492919921875,0.5859552621841431,-0.18844637274742126,0.795628547668457
1697649272121085400,9.79308544921875,0.6311579346656799,-0.26785650849342346,0.5427377820014954
1697649272130679000,9.802678955078125,0.6604785919189453,-0.4987567961215973,0.21165858209133148
1697649272140273400,9.8122734375,0.6519267559051514,-0.7345438003540039,-0.1501157134771347
1697649272149866800,9.82186669921875,0.6140542030334473,-0.8530482053756714,-0.4921901822090149
1697649272159459600,9.83145947265625,0.5346440672874451,-0.9287932515144348,-0.8012788891792297
1697649272169053200,9.84105322265625,0.4259132444858551,-0.9055810570716858,-1.0334008932113647
1697649272178647600,9.8506474609375,0.29885703325271606,-0.8078454732894897,-1.1519051790237427
1697649272188241000,9.860240966796875,0.1656923145055771,-0.6416950225830078,-1.1335798501968384
1697649272197833700,9.869833740234375,0.07528692483901978,-0.3949127495288849,-0.978424608707428
1697649272207427000,9.879427001953125,0.07895200699567795,-0.10781454294919968,-0.6998782753944397
1697649272217021400,9.889021484375,0.17913095653057098,0.19394400715827942,-0.34192174673080444
1697649272226615000,9.898614990234375,0.3110739588737488,0.4089622497558594,0.08078455179929733
1697649272236207600,9.90820751953125,0.4259132444858551,0.47615543007850647,0.5549547076225281
1697649272245801200,9.91780126953125,0.5541911721229553,0.43950459361076355,1.0106468200683594
1697649272255395600,9.9273955078125,0.7301151752471924,0.3698680102825165,1.3734900951385498
1697649272264989000,9.936989013671875,0.9035958051681519,0.3417690396308899,1.6361544132232666
1697649272274581800,9.946581787109375,1.0208784341812134,0.328330397605896,1.7974181175231934
1697649272284175400,9.95617529296875,1.057529330253601,0.26968905329704285,1.8572810888290405
1697649272293769700,9.965769775390624,0.9756757616996765,0.04856235533952713,1.7974181175231934
1697649272303363000,9.975363037109375,0.73255854845047,-0.22754059731960297,1.6324893236160278
1697649272312956000,9.984955810546875,0.42957833409309387,-0.381474107503891,1.416249394416809
1697649272322549200,9.99454931640625,0.1375933438539505,-0.48043137788772583,1.134037971496582
1697649272332143600,10.0041435546875,-0.10430216789245605,-0.5696150660514832,0.7895200848579407
1697649272341737200,10.0137373046875,-0.2814478874206543,-0.5757235288619995,0.41445985436439514
1697649272351329800,10.023329833984375,-0.39384377002716064,-0.46699273586273193,0.045355409383773804
1697649272360923400,10.03292333984375,-0.4524851143360138,-0.3167243003845215,-0.30038413405418396
1697649272370517800,10.042517822265625,-0.47325390577316284,-0.16156910359859467,-0.5911474227905273
1697649272380111000,10.052111083984375,-0.4622586667537689,-0.018630841746926308,-0.8073873519897461
1697649272389704000,10.061703857421875,-0.4280512034893036,0.09009996801614761,-0.9442171454429626
1697649272399297500,10.071297607421876,-0.3730749487876892,0.1707318127155304,-1.0040801763534546
1697649272408892000,10.080891845703125,-0.3071034550666809,0.19272230565547943,-0.9930849075317383
1697649272418485200,10.0904853515625,-0.21791976690292358,0.1426328420639038,-0.9161182045936584
1697649272428078000,10.100078125,-0.09697200357913971,0.041232191026210785,-0.7805100679397583
1697649272437671400,10.10967138671875,0.05329642444849014,-0.07727217674255371,-0.6021426916122437
1697649272447265800,10.119265869140625,0.23288552463054657,-0.1969982385635376,-0.39567631483078003
1697649272456859400,10.128859375,0.4234698712825775,-0.2886253297328949,-0.17332790791988373
1697649272466452000,10.138451904296875,0.594507098197937,-0.3521534502506256,0.049020491540431976
1697649272476045600,10.148045654296874,0.7105680704116821,-0.4462239146232605,0.251974493265152
1697649272485640000,10.157639892578125,0.760657548904419,-0.5793886184692383,0.40468630194664
1697649272495233300,10.1672333984375,0.7704311013221741,-0.6954495906829834,0.4950917065143585
1697649272504826000,10.176826171875,0.7887565493583679,-0.7003363966941833,0.5329642295837402
1697649272514419700,10.186419677734374,0.858393132686615,-0.5537330508232117,0.5512896776199341
1697649272524014000,10.19601416015625,0.8926005363464355,-0.430341899394989,0.568393349647522
1697649272533607400,10.205607421875,0.8376243114471436,-0.3301629424095154,0.5928272604942322
1697649272543200300,10.2152001953125,0.7166765332221985,-0.27885177731513977,0.5854970812797546
1697649272552793600,10.224793701171874,0.5737382769584656,-0.29351210594177246,0.5109737515449524
1697649272562388000,10.234387939453125,0.4124746024608612,-0.33382803201675415,0.3802524209022522
1697649272571981600,10.243981689453125,0.2414373755455017,-0.3521534502506256,0.2079934924840927
1697649272581574100,10.25357421875,0.09727742522954941,-0.3545968234539032,0.00259610079228878
1697649272591167700,10.263167724609374,0.0032069480512291193,-0.3264978528022766,-0.2038702666759491
1697649272600762000,10.27276220703125,-0.05543438717722893,-0.19333316385746002,-0.36635565757751465
1697649272610355500,10.28235546875,-0.17027367651462555,0.06444438546895981,-0.455539345741272
1697649272619948300,10.2919482421875,-0.2973299026489258,0.26602399349212646,-0.4921901822090149
1697649272629542000,10.3015419921875,-0.37918344140052795,0.28190600872039795,-0.5312843918800354
1697649272639136000,10.311135986328125,-0.4133908748626709,0.11575555801391602,-0.5899257659912109
1697649272648729600,10.3207294921875,-0.4158342778682709,-0.09437590092420578,-0.6583406329154968
1697649272658322200,10.330322265625,-0.3962871730327606,-0.2861819267272949,-0.7267554998397827
1697649272667915800,10.339915771484375,-0.39262208342552185,-0.4450022280216217,-0.7780666947364807
1697649272677510100,10.34951025390625,-0.42072105407714844,-0.49020493030548096,-0.7744016051292419
1697649272687103500,10.359103515625,-0.47325390577316284,-0.4230117201805115,-0.6949914693832397
1697649272696696300,10.3686962890625,-0.5282301902770996,-0.3045073449611664,-0.5349494814872742
1697649272706290000,10.3782900390625,-0.5673243999481201,-0.2104368805885315,-0.32848310470581055
1697649272715884300,10.38788427734375,-0.5722111463546753,-0.16034740209579468,-0.11346487700939178
1697649272725477600,10.3974775390625,-0.5270084738731384,-0.12247487902641296,0.07589777559041977
1697649272735070500,10.407070556640624,-0.44393324851989746,-0.10048437118530273,0.2238755226135254
1697649272744663800,10.416663818359375,-0.34008920192718506,-0.1175880953669548,0.3130592107772827
1697649272754258200,10.426258056640625,-0.22402822971343994,-0.144465371966362,0.3558185398578644
1697649272763851800,10.435851806640626,-0.09208522737026215,-0.15301723778247833,0.3509317636489868
1697649272773444400,10.4454443359375,0.04230117425322533,-0.13469181954860687,0.30939415097236633
1697649272783038000,10.455037841796875,0.15958385169506073,-0.08704573661088943,0.25686126947402954
1697649272792632300,10.46463232421875,0.22555534541606903,-0.030847785994410515,0.1969982385635376
1697649272802225700,10.4742255859375,0.22677704691886902,0.07055285573005676,0.1382041871547699
1697649272811818500,10.483818603515624,0.1644706279039383,0.22692975401878357,0.08933641016483307
1697649272821411800,10.493411865234375,0.04107947647571564,0.3955236077308655,0.05512896552681923
1697649272831006200,10.503006103515625,-0.1385096162557602,0.5580089688301086,0.04169032722711563
1697649272840599800,10.512599853515624,-0.34008920192718506,0.6850652098655701,0.051463883370161057
1697649272850192400,10.5221923828125,-0.5282301902770996,0.7644753456115723,0.07467607408761978
1697649272859786000,10.531785888671875,-0.6760551929473877,0.8035695552825928,0.10766182839870453
1697649272869380400,10.54138037109375,-0.7664605975151062,0.8108997344970703,0.14064757525920868
1697649272878973700,10.5509736328125,-0.7945595979690552,0.7840224504470825,0.16752485930919647
1697649272888566500,10.56056640625,-0.7750124335289001,0.7461498975753784,0.18585027754306793
1697649272898160000,10.57016015625,-0.7261446714401245,0.7180509567260742,0.19195875525474548
1697649272907754500,10.57975439453125,-0.6565080881118774,0.7241594195365906,0.18707197904586792
1697649272917347800,10.589347900390624,-0.589314877986908,0.693617045879364,0.1650814712047577
1697649272926940400,10.5989404296875,-0.534338653087616,0.6740699410438538,0.13942588865756989
1697649272936534000,10.608533935546875,-0.4818057715892792,0.6581879258155823,0.11743538826704025
1697649272946128400,10.61812841796875,-0.4243861436843872,0.6129852533340454,0.09910997003316879
1697649272955721700,10.6277216796875,-0.35352784395217896,0.4981459379196167,0.09910997003316879
1697649272965314600,10.637314453125,-0.27411770820617676,0.30756160616874695,0.12965233623981476
1697649272974908200,10.646908203125,-0.19592925906181335,0.015576604753732681,0.19318044185638428
1697649272984502500,10.65650244140625,-0.1104106456041336,-0.34848836064338684,0.27029991149902344
1697649272994095900,10.666095947265624,0.0007635590736754239,-0.6954495906829834,0.35948359966278076
1697649273003688700,10.675688720703125,0.14003673195838928,-0.9788827300071716,0.45477578043937683
1697649273013282000,10.685281982421875,0.2805316150188446,-1.2378820180892944,0.5390726923942566
1697649273022876400,10.69487646484375,0.32817769050598145,-1.4822208881378174,0.6184828281402588
1697649273032470000,10.704469970703125,0.3232909142971039,-1.3881504535675049,0.7064448595046997
1697649273042062600,10.7140625,0.3220692276954651,-1.1389247179031372,0.7394306063652039
1697649273051656200,10.72365625,0.3061871826648712,-0.8200624585151672,0.6905628442764282
1697649273061250600,10.73325048828125,0.2695363461971283,-0.4083513915538788,0.5745018720626831
1697649273070844000,10.742843994140625,0.2414373755455017,0.03512371703982353,0.41445985436439514
1697649273080436700,10.752436767578125,0.2548760175704956,0.47859883308410645,0.2483094036579132
1697649273090030000,10.762030029296875,0.3061871826648712,0.859767496585846,0.08933641016483307
1697649273099624400,10.77162451171875,0.36605021357536316,1.0564603805541992,-0.06581879407167435
1697649273109218000,10.781218017578125,0.40514445304870605,0.9587247967720032,-0.22463907301425934
1697649273118810600,10.790810546875,0.4124746024608612,0.5799994468688965,-0.3859027624130249
1697649273128404200,10.800404296875,0.3978142738342285,0.0791047215461731,-0.5044071078300476
1697649273137998600,10.80999853515625,0.37948885560035706,-0.37047886848449707,-0.5459447503089905
1697649273147592000,10.819592041015625,0.3489464819431305,-0.694227933883667,-0.4811949133872986
1697649273157184800,10.829184814453125,0.2817533016204834,-0.8652651309967041,-0.30038413405418396
1697649273166778000,10.838778076171875,0.18035265803337097,-0.8493831157684326,-0.03527642786502838
1697649273176372500,10.84837255859375,0.07040014863014221,-0.697892963886261,0.23364907503128052
1697649273185965800,10.8579658203125,-0.02733541466295719,-0.49264830350875854,0.4608842432498932
1697649273195558700,10.86755859375,-0.09330692142248154,-0.27029991149902344,0.6074876189231873
1697649273205152300,10.87715234375,-0.10552386194467545,-0.06016845628619194,0.6539120078086853
1697649273214746600,10.88674658203125,-0.07742489129304886,0.11453386396169662,0.6160394549369812
1697649273224340000,10.896340087890625,-0.028557108715176582,0.23792500793933868,0.5256340503692627
1697649273233932800,10.905932861328125,0.014202198944985867,0.27946263551712036,0.4193466305732727
1697649273243526100,10.915526123046876,0.036192700266838074,0.23181653022766113,0.3179459869861603
1697649273253120500,10.92512060546875,0.038636088371276855,0.1328592747449875,0.24220094084739685
1697649273262713900,10.9347138671875,0.025197450071573257,0.03390202298760414,0.19944162666797638
1697649273272306700,10.944306640625,0.0007635590736754239,-0.002748812548816204,0.18585027754306793
1697649273281900300,10.953900390625,-0.029778804630041122,0.05100574716925621,0.1882936656475067
1697649273291494700,10.96349462890625,-0.06765133142471313,0.17439688742160797,0.19195875525474548
1697649273301088000,10.973087890625,-0.10552386194467545,0.34543412923812866,0.18340688943862915
1697649273310680600,10.9826806640625,-0.13362284004688263,0.5384618639945984,0.16019469499588013
1697649273320274200,10.992274169921876,-0.1507265567779541,0.7241594195365906,0.125987246632576
1697649273329868500,11.00186865234375,-0.1519482582807541,0.8817580342292786,0.09300149232149124
1697649273339462000,11.0114619140625,-0.13362284004688263,0.9770501852035522,0.07834116369485855
1697649273349054700,11.0210546875,-0.09330692142248154,0.9917105436325073,0.08322793990373611
1697649273358648300,11.0306484375,-0.037108972668647766,0.929404079914093,0.10521844029426575
1697649273368242700,11.04024267578125,0.025197450071573257,0.804791271686554,0.14431266486644745
1697649273377836000,11.0498359375,0.09116895496845245,0.6166502833366394,0.1957765519618988
1697649273387428600,11.0594287109375,0.15591876208782196,0.3930802047252655,0.2507528066635132
1697649273397022200,11.069022216796874,0.21333840489387512,0.15240639448165894,0.30084228515625
1697649273406616600,11.078616455078125,0.25976279377937317,-0.10903623700141907,0.3436015844345093
1697649273416210000,11.0882099609375,0.2939702570438385,-0.3680354654788971,0.38636088371276855
1697649273425802800,11.097802734375,0.31229567527770996,-0.5977140665054321,0.43645036220550537
1697649273435396000,11.10739599609375,0.3061871826648712,-0.8151756525039673,0.49142661690711975
1697649273444990500,11.116990478515625,0.27442312240600586,-0.953227162361145,0.5305208563804626
1697649273454584000,11.126583984375,0.2292204350233078,-0.9507837295532227,0.5024218559265137
1697649273464176600,11.1361767578125,0.1522536724805832,-0.9080244302749634,0.3961344361305237
1697649273473770200,11.145770263671874,0.03497100621461868,-0.855491578578949,0.2214321345090866
1697649273483364600,11.155364501953125,-0.10552386194467545,-0.7601994276046753,-0.019394399598240852
1697649273492958000,11.1649580078125,-0.2411319613456726,-0.5891621708869934,-0.31260108947753906
1697649273502550800,11.17455078125,-0.3596363365650177,-0.3313846290111542,-0.6204680800437927
1697649273512144100,11.18414404296875,-0.4659237563610077,-0.028404397889971733,-0.9161182045936584
1697649273521738500,11.193738525390625,-0.5551074743270874,0.21471281349658966,-1.1787824630737305
1697649273531332000,11.20333203125,-0.6271874308586121,0.29778802394866943,-1.4023525714874268
1697649273540924700,11.212924560546876,-0.6894938349723816,0.21715620160102844,-1.5660597085952759
1697649273550518300,11.222518310546874,-0.7640172243118286,0.016798298805952072,-1.644248127937317
1697649273560112600,11.232112548828125,-0.8641961812973022,-0.2617480456829071,-1.6540216207504272
1697649273569706000,11.2417060546875,-0.9729269742965698,-0.5610632300376892,-1.6320312023162842
1697649273579298800,11.251298828125,-1.0633323192596436,-0.7882983684539795,-1.602710485458374
1697649273588892200,11.26089208984375,-1.1256388425827026,-0.9055810570716858,-1.5660597085952759
1697649273598486500,11.270486572265625,-1.1610679626464844,-0.9031376838684082,-1.4903146028518677
1697649273608080000,11.280079833984376,-1.1647330522537231,-0.8115105628967285,-1.3314943313598633
1697649273617672700,11.289672607421876,-1.126860499382019,-0.6539120078086853,-1.0651649236679077
1697649273627266300,11.299266357421875,-1.0364550352096558,-0.46210595965385437,-0.7157602906227112
1697649273636860400,11.3088603515625,-0.8898517489433289,-0.26785650849342346,-0.3333698809146881
1697649273646454000,11.3184541015625,-0.6846070885658264,-0.08215895295143127,0.03802524134516716
1697649273656046600,11.328046630859374,-0.4366030693054199,0.091321662068367,0.38636088371276855
1697649273665640200,11.33764013671875,-0.18126893043518066,0.24525517225265503,0.7076665759086609
1697649273675234600,11.347234619140625,0.039857782423496246,0.3784198760986328,1.0045382976531982
1697649273684828000,11.356827880859376,0.19623468816280365,0.4737120568752289,1.2659809589385986
1697649273694420700,11.366420654296874,0.2793098986148834,0.5262449383735657,1.4761123657226562
1697649273704014000,11.37601416015625,0.2939702570438385,0.5421269536018372,1.6214940547943115
1697649273713608400,11.3856083984375,0.25121092796325684,0.5262449383735657,1.6862438917160034
1697649273723202000,11.3952021484375,0.16691401600837708,0.4724903404712677,1.6740269660949707
1697649273732794600,11.404794677734374,0.04230117425322533,0.3955236077308655,1.5946167707443237
1697649273742388200,11.41438818359375,-0.11774080991744995,0.3148917555809021,1.4626737833023071
1697649273751982300,11.423982421875,-0.29977330565452576,0.23792500793933868,1.2928582429885864
1697649273761576000,11.433575927734376,-0.4891359508037567,0.17561858892440796,1.0998305082321167
1697649273771168500,11.44316845703125,-0.6711684465408325,0.13652436435222626,0.9031376838684082
1697649273780762000,11.45276220703125,-0.8360971808433533,0.1291942000389099,0.717440128326416
1697649273790356500,11.4623564453125,-0.977813720703125,0.1585148572921753,0.5500679612159729
1697649273799949800,11.47194970703125,-1.0865445137023926,0.21837788820266724,0.4022429287433624
1697649273809542700,11.481542724609374,-1.168398141860962,0.3014531135559082,0.28373855352401733
1697649273819136000,11.491135986328125,-1.2258176803588867,0.38819342851638794,0.1957765519618988
1697649273828730400,11.50073046875,-1.2575818300247192,0.46760356426239014,0.14064757525920868
1697649273838324000,11.510323974609374,-1.2685770988464355,0.5311316847801208,0.11743538826704025
1697649273847916500,11.51991650390625,-1.260025143623352,0.5592306852340698,0.1247655525803566
1697649273857510100,11.52951025390625,-1.2343696355819702,0.5421269536018372,0.14553436636924744
1697649273867104500,11.5391044921875,-1.191610336303711,0.47859883308410645,0.1638597846031189
1697649273876697900,11.54869775390625,-1.1305255889892578,0.38575005531311035,0.16630317270755768
1697649273886290400,11.55829052734375,-1.057223916053772,0.26968905329704285,0.14797775447368622
1697649273895884000,11.567884033203125,-0.9668185114860535,0.14018943905830383,0.10155335813760757
1697649273905478400,11.577478515625,-0.8422056436538696,0.024128466844558716,0.027029991149902344
1697649273915071700,11.58707177734375,-0.6723901033401489,-0.05650337040424347,-0.05726693198084831
1697649273924664600,11.59666455078125,-0.4610369801521301,-0.07482878863811493,-0.14278554916381836
1697649273934258000,11.6062578125,-0.24724042415618896,-0.05772506445646286,-0.20142687857151031
1697649273943852300,11.615852294921876,-0.07375980913639069,-0.06994201242923737,-0.20875705778598785
1697649273953446000,11.62544580078125,0.022754060104489326,-0.16401249170303345,-0.1782146841287613
1697649273963038500,11.63503857421875,0.038636088371276855,-0.30695074796676636,-0.1647760421037674
1697649273972632000,11.644632080078125,0.022754060104489326,-0.37170055508613586,-0.2148655205965042
1697649273982226400,11.654226318359376,0.054518118500709534,-0.29839888215065,-0.3443651497364044
1697649273991819800,11.66381982421875,0.18157434463500977,-0.1188097894191742,-0.525175929069519
1697649274001412400,11.673412353515625,0.3978142738342285,0.11086877435445786,-0.71453857421875
1697649274011006000,11.683005859375,0.6470399498939514,0.25747212767601013,-0.8696937561035156
1697649274020600300,11.692600341796876,0.8620582222938538,0.15362808108329773,-0.9539906978607178
1697649274030193700,11.702193603515624,0.9671239256858826,-0.2373141646385193,-0.9466605186462402
1697649274039786500,11.711786376953125,0.9231429100036621,-0.7626428008079529,-0.8281561732292175
1697649274049379800,11.7213798828125,0.7508839964866638,-1.2158914804458618,-0.6106945276260376
1697649274058974200,11.73097412109375,0.5236487984657288,-1.448013424873352,-0.3333698809146881
1697649274068567600,11.740567626953125,0.30130040645599365,-1.3673815727233887,-0.025502873584628105
1697649274078160400,11.750160400390625,0.10705098509788513,-0.9801044464111328,0.28496024012565613
1697649274087754000,11.75975390625,-0.051769305020570755,-0.43767204880714417,0.5402944087982178
1697649274097348000,11.76934814453125,-0.164165198802948,0.08521319180727005,0.7149966955184937
1697649274106941700,11.778941650390625,-0.23502348363399506,0.4712686538696289,0.8200624585151672
1697649274116534300,11.7885341796875,-0.2838912606239319,0.6838434934616089,0.8848122358322144
1697649274126127900,11.7981279296875,-0.319320410490036,0.7424848675727844,0.9397885203361511
1697649274135722200,11.80772216796875,-0.3498627543449402,0.6838434934616089,0.9972081780433655
1697649274145315600,11.817315673828125,-0.38040512800216675,0.5470137000083923,1.0448542833328247
1697649274154908400,11.826908447265625,-0.42072105407714844,0.3833066523075104,1.0741748809814453
1697649274164501800,11.836501708984375,-0.47203221917152405,0.22937314212322235,1.0741748809814453
1697649274174096100,11.84609619140625,-0.5331169366836548,0.12552911043167114,1.0338590145111084
1697649274183689500,11.855689453125,-0.5978667736053467,0.1169772520661354,0.9581139087677002
1697649274193282300,11.8652822265625,-0.6601731777191162,0.21837788820266724,0.8567132949829102
1697649274202875600,11.874875732421875,-0.710262656211853,0.4040754735469818,0.7479824423789978
1697649274212470000,11.884469970703124,-0.7395833134651184,0.6349757313728333,0.6441384553909302
1697649274222063600,11.894063720703125,-0.7542436718940735,0.8646543025970459,0.5610632300376892
1697649274231656200,11.90365625,-0.7481352090835571,1.0430216789245605,0.504865288734436
1697649274241249800,11.913249755859376,-0.7175928354263306,1.146865725517273,0.47920966148376465
1697649274250844000,11.922843994140624,-0.6503996253013611,1.1749646663665771,0.49264830350875854
1697649274260437500,11.9324375,-0.5489989519119263,1.1346487998962402,0.5415160655975342
1697649274270030000,11.942030029296875,-0.423164427280426,1.0405782461166382,0.6233696341514587
1697649274279623700,11.951623779296876,-0.2802261710166931,0.8866447806358337,0.7321004271507263
1697649274289218000,11.961218017578124,-0.12751436233520508,0.6716265678405762,0.846939742565155
1697649274298811400,11.970811279296875,0.02641914412379265,0.42362257838249207,0.9581139087677002
1697649274308404200,11.980404296875,0.1644706279039383,0.1695101112127304,1.0509626865386963
1697649274317997600,11.98999755859375,0.27564483880996704,-0.0650552362203598,1.1169341802597046
1697649274327592000,11.999592041015624,0.3489464819431305,-0.26785650849342346,1.1535850763320923
1697649274337185300,12.009185302734375,0.3746020793914795,-0.42667680978775024,1.1633585691452026
1697649274346778000,12.018778076171875,0.34283801913261414,-0.5231906771659851,1.148698329925537
1697649274356371500,12.028371337890626,0.252432644367218,-0.5476245880126953,1.110825777053833
