time,seconds_elapsed,z,y,x
1701713474576690400,0.0986904296875,8.498869895935059,4.891880512237549,-0.09542566537857056
1701713474586284500,0.108284423828125,8.700714111328125,4.4930925369262695,0.5292215943336487
1701713474595878100,0.117878173828125,8.603815078735352,4.677057266235352,0.5195209980010986
1701713474605472300,0.12747216796875,8.361220359802246,5.124466896057129,0.0146842822432518
1701713474615067400,0.1370673828125,8.133005142211914,5.464662075042725,-0.40259844064712524
1701713474624661500,0.14666162109375,7.933720588684082,5.720165729522705,-0.7114524245262146
1701713474634255000,0.156255126953125,7.776702404022217,5.8987345695495605,-0.9477407932281494
1701713474643849200,0.16584912109375,7.68262243270874,5.994723320007324,-1.1004458665847778
1701713474653444400,0.1754443359375,7.666907787322998,6.006205081939697,-1.1464794874191284
1701713474663038500,0.18503857421875,7.695116996765137,5.976406574249268,-1.1127057075500488
1701713474672632000,0.194632080078125,7.733194351196289,5.937166213989258,-1.0574285984039307
1701713474682226200,0.20422607421875,7.768603324890137,5.897590160369873,-1.0186336040496826
1701713474691821300,0.2138212890625,7.820952892303467,5.835014820098877,-0.977583646774292
1701713474701415700,0.223415771484375,7.838384628295898,5.815104007720947,-0.9563854336738586
1701713474711009000,0.233009033203125,7.868266582489014,5.7843780517578125,-0.895392894744873
1701713474720603400,0.242603271484375,7.889340400695801,5.762424945831299,-0.8503902554512024
1701713474730198300,0.2521982421875,7.904576778411865,5.745041847229004,-0.826164186000824
1701713474739792600,0.261792724609375,7.914364337921143,5.731475353240967,-0.8266894817352295
1701713474749386000,0.271385986328125,7.919765472412109,5.719646453857422,-0.856362521648407
1701713474758980400,0.28098046875,7.913869857788086,5.717742443084717,-0.9211267232894897
1701713474768575500,0.290575439453125,7.895927429199219,5.7315778732299805,-0.9867792725563049
1701713474778169600,0.300169677734375,7.87068510055542,5.757941246032715,-1.03383469581604
1701713474787763000,0.309762939453125,7.854055881500244,5.776564121246338,-1.0561668872833252
1701713474797357300,0.319357421875,7.848669052124023,5.783990859985352,-1.0555685758590698
1701713474806952400,0.328952392578125,7.853601455688477,5.780928134918213,-1.035465121269226
1701713474816546600,0.338546630859375,7.861775875091553,5.7743940353393555,-1.0095752477645874
1701713474826140000,0.348139892578125,7.8653106689453125,5.7761383056640625,-0.9713445901870728
1701713474835734300,0.357734375,7.865427017211914,5.779934406280518,-0.9475283026695251
1701713474845329400,0.367329345703125,7.862673759460449,5.7852091789245605,-0.9381304383277893
1701713474854923500,0.376923583984375,7.860874652862549,5.789088249206543,-0.9292383790016174
1701713474864516900,0.386516845703125,7.856428146362305,5.79652738571167,-0.9204300045967102
1701713474874111200,0.396111328125,7.854372024536133,5.802501678466797,-0.9001084566116333
1701713474883706400,0.405706298828125,7.852414608001709,5.810548305511475,-0.8645785450935364
1701713474893300500,0.415300537109375,7.855411529541016,5.815836429595947,-0.7993395328521729
1701713474902894000,0.42489404296875,7.86558723449707,5.8114471435546875,-0.7280122637748718
1701713474912488200,0.43448828125,7.884301662445068,5.793912410736084,-0.6623830795288086
1701713474922083300,0.444083251953125,7.911649703979492,5.764326095581055,-0.590535044670105
1701713474931677400,0.453677490234375,7.942027568817139,5.730111598968506,-0.5102958083152771
1701713474941271000,0.46327099609375,7.972060203552246,5.6948747634887695,-0.4301789402961731
1701713474950865200,0.472865234375,7.9970808029174805,5.664924621582031,-0.35454821586608887
1701713474960460300,0.482460205078125,8.014674186706543,5.643791675567627,-0.28809335827827454
1701713474970054700,0.4920546875,8.02586841583252,5.630380153656006,-0.2337648719549179
1701713474979648000,0.50164794921875,8.033583641052246,5.620858192443848,-0.19464239478111267
1701713474989242000,0.5112421875,8.042658805847168,5.608768463134766,-0.16655708849430084
1701713474998837200,0.520837158203125,8.053141593933105,5.594554901123047,-0.13507868349552155
1701713475008431400,0.530431396484375,8.064447402954102,5.579153060913086,-0.09010583907365799
1701713475018025000,0.54002490234375,8.081027030944824,5.5557355880737305,-0.03445390611886978
1701713475027619300,0.549619384765625,8.099247932434082,5.529206275939941,0.021068470552563667
1701713475037214200,0.559214111328125,8.118192672729492,5.50111198425293,0.05572027713060379
1701713475046808300,0.568808349609375,8.14050006866455,5.467825889587402,0.07439565658569336
1701713475056402000,0.57840185546875,8.162247657775879,5.435340404510498,0.07190770655870438
1701713475065996300,0.587996337890625,8.185168266296387,5.400859355926514,0.06418562680482864
1701713475075591200,0.597591064453125,8.206914901733398,5.367833137512207,0.057492341846227646
1701713475085185500,0.607185546875,8.226755142211914,5.337358474731445,0.05910433456301689
1701713475094779000,0.61677880859375,8.242796897888184,5.312331199645996,0.07633354514837265
1701713475104373200,0.626373291015625,8.252124786376953,5.297337532043457,0.10509402304887772
1701713475113968000,0.635968017578125,8.254454612731934,5.293038845062256,0.13459542393684387
1701713475123562500,0.6455625,8.249601364135742,5.299927711486816,0.15882554650306702
1701713475133155800,0.65515576171875,8.238560676574707,5.316434860229492,0.17893682420253754
1701713475142750200,0.664750244140625,8.223063468933105,5.339707374572754,0.19782932102680206
1701713475152345000,0.674344970703125,8.2066650390625,5.364223480224609,0.21482029557228088
1701713475161939500,0.683939453125,8.193180084228516,5.384121894836426,0.23110614717006683
1701713475171532800,0.69353271484375,8.183328628540039,5.398435592651367,0.24578481912612915
1701713475181127200,0.703127197265625,8.176371574401855,5.408527851104736,0.25527140498161316
1701713475190722300,0.712722412109375,8.17078971862793,5.416849136352539,0.2575445771217346
1701713475200316400,0.72231640625,8.16478157043457,5.4260101318359375,0.2552125155925751
1701713475209910000,0.731909912109375,8.156774520874023,5.438183784484863,0.25214359164237976
1701713475219504000,0.741504150390625,8.146272659301758,5.454036712646484,0.24925270676612854
1701713475229099300,0.751099365234375,8.133549690246582,5.473079681396484,0.24730098247528076
1701713475238693400,0.760693359375,8.119473457336426,5.493884563446045,0.24850405752658844
1701713475248287000,0.770286865234375,8.104945182800293,5.515088081359863,0.2530970275402069
1701713475257881000,0.779881103515625,8.08998966217041,5.536718845367432,0.25926437973976135
1701713475267476200,0.789476318359375,8.074748992919922,5.558625221252441,0.2655172646045685
1701713475277070300,0.7990703125,8.059584617614746,5.580450057983398,0.268426775932312
1701713475286664000,0.808663818359375,8.045812606811523,5.600484371185303,0.26430773735046387
1701713475296258000,0.818258056640625,8.034589767456055,5.617061614990234,0.253725528717041
1701713475305853200,0.827853271484375,8.02740478515625,5.628021240234375,0.23779705166816711
1701713475315447300,0.837447265625,8.024500846862793,5.632940292358398,0.21849729120731354
1701713475325041000,0.847041015625,8.023937225341797,5.6344685554504395,0.19897153973579407
1701713475334635300,0.85663525390625,8.022150039672852,5.637584209442139,0.18205049633979797
1701713475344230100,0.866230224609375,8.015899658203125,5.646838665008545,0.1701754629611969
1701713475353824300,0.87582421875,8.00329875946045,5.664864540100098,0.16405317187309265
1701713475363417900,0.88541796875,7.984314441680908,5.6915717124938965,0.1646755188703537
1701713475373012200,0.89501220703125,7.960054874420166,5.725333213806152,0.16873764991760254
1701713475382607000,0.904607177734375,7.932682991027832,5.763088226318359,0.17247536778450012
1701713475392201500,0.914201416015625,7.905252456665039,5.800593376159668,0.17460159957408905
1701713475401794800,0.923794921875,7.880468368530273,5.834310531616211,0.17153282463550568
1701713475411389200,0.93338916015625,7.8599934577941895,5.862176418304443,0.16049057245254517
1701713475420984000,0.942984130859375,7.845142364501953,5.882537364959717,0.14101837575435638
1701713475430578400,0.952578369140625,7.8360514640808105,5.895238399505615,0.11339018493890762
1701713475440171800,0.962171875,7.831783294677734,5.901448726654053,0.08039604872465134
1701713475449766100,0.97176611328125,7.8310980796813965,5.90272331237793,0.04639555886387825
1701713475459361000,0.981361083984375,7.832254886627197,5.901351451873779,0.014859667047858238
1701713475468955400,0.990955322265625,7.833863258361816,5.899223804473877,-0.011371840722858906
1701713475478548700,1.000548828125,7.835056304931641,5.8975749015808105,-0.029919302091002464
1701713475488143000,1.01014306640625,7.834766864776611,5.897896766662598,-0.04047928377985954
1701713475497738000,1.019738037109375,7.832253932952881,5.901205539703369,-0.044193919748067856
1701713475507332400,1.029332275390625,7.826934337615967,5.90826416015625,-0.043656911700963974
1701713475516925700,1.03892578125,7.8190765380859375,5.918660640716553,-0.04355130344629288
1701713475526520000,1.04852001953125,7.81020450592041,5.930341720581055,-0.046151164919137955
1701713475536115000,1.058114990234375,7.802882671356201,5.939936637878418,-0.05066552013158798
1701713475545709300,1.067709228515625,7.799417972564697,5.944436073303223,-0.05608073249459267
1701713475555302700,1.077302734375,7.800289154052734,5.943203926086426,-0.06483305990695953
1701713475564897000,1.08689697265625,7.8053789138793945,5.9363627433776855,-0.0777125135064125
1701713475574492000,1.096491943359375,7.814315319061279,5.924354553222656,-0.09424853324890137
1701713475584086300,1.106086181640625,7.825643062591553,5.909072399139404,-0.1120549887418747
1701713475593679600,1.1156796875,7.837730407714844,5.892698287963867,-0.12835627794265747
1701713475603274000,1.12527392578125,7.848913192749023,5.877507209777832,-0.1409493237733841
1701713475612869000,1.134869140625,7.857620716094971,5.865658760070801,-0.1490800827741623
1701713475622463200,1.144463134765625,7.863580703735352,5.857563495635986,-0.15310494601726532
1701713475632056600,1.154056640625,7.8670125007629395,5.852935314178467,-0.15373504161834717
1701713475641651000,1.16365087890625,7.86888313293457,5.850516319274902,-0.1500881314277649
1701713475651246000,1.17324609375,7.8692755699157715,5.8501057624816895,-0.14545851945877075
1701713475660840200,1.182840087890625,7.868988990783691,5.850569248199463,-0.14227381348609924
1701713475670433500,1.19243359375,7.868751525878906,5.850909233093262,-0.1414257436990738
1701713475680028000,1.20202783203125,7.869241714477539,5.850201606750488,-0.14340215921401978
1701713475689623000,1.211623046875,7.871210098266602,5.847401142120361,-0.1494446098804474
1701713475699217200,1.221217041015625,7.874363899230957,5.842920303344727,-0.15827597677707672
1701713475708810500,1.230810546875,7.878513813018799,5.837072372436523,-0.16731201112270355
1701713475718404900,1.24040478515625,7.882418632507324,5.831523895263672,-0.17662551999092102
1701713475728000000,1.25,7.885929584503174,5.826573371887207,-0.18315407633781433
1701713475737594000,1.259593994140625,7.88787317276001,5.823808670043945,-0.18733128905296326
1701713475747187700,1.269187744140625,7.887515544891357,5.824216365814209,-0.18971911072731018
1701713475756781800,1.27878173828125,7.884822368621826,5.827830791473389,-0.19065025448799133
1701713475766377000,1.288376953125,7.879750728607178,5.834686279296875,-0.1906498670578003
1701713475775971000,1.29797119140625,7.873105049133301,5.843658447265625,-0.19041775166988373
1701713475785564700,1.307564697265625,7.865659713745117,5.853687763214111,-0.1900709867477417
1701713475795158800,1.31715869140625,7.858194828033447,5.86369514465332,-0.19036754965782166
1701713475804754000,1.32675390625,7.852414131164551,5.871389389038086,-0.19173718988895416
1701713475814348000,1.33634814453125,7.848705291748047,5.876255512237549,-0.19450321793556213
1701713475823941600,1.345941650390625,7.846660137176514,5.878896713256836,-0.19716885685920715
1701713475833536000,1.355535888671875,7.845957279205322,5.87981653213501,-0.19771148264408112
1701713475843131000,1.365130859375,7.845921993255615,5.879929065704346,-0.19578951597213745
1701713475852725000,1.37472509765625,7.845242977142334,5.880964756011963,-0.19181816279888153
1701713475862318600,1.384318603515625,7.843355655670166,5.883686542510986,-0.1854744851589203
1701713475871912700,1.39391259765625,7.840539932250977,5.88772439956665,-0.17612706124782562
1701713475881507800,1.4035078125,7.837140083312988,5.89257287979126,-0.16492176055908203
1701713475891102000,1.41310205078125,7.83321475982666,5.898077964782715,-0.1542847752571106
1701713475900695600,1.422695556640625,7.828879356384277,5.904091835021973,-0.14405827224254608
1701713475910289700,1.43228955078125,7.8246564865112305,5.909884929656982,-0.13563935458660126
1701713475919884800,1.441884765625,7.820706844329834,5.91523551940918,-0.13005080819129944
1701713475929479000,1.45147900390625,7.818114280700684,5.918713092803955,-0.1277419626712799
1701713475939072500,1.461072509765625,7.816605567932129,5.920654773712158,-0.13006265461444855
1701713475948667000,1.4706669921875,7.816053867340088,5.921224117279053,-0.13704988360404968
1701713475958261800,1.48026171875,7.8166303634643555,5.920205593109131,-0.14775784313678741
1701713475967855900,1.48985595703125,7.818037509918213,5.918033599853516,-0.15987345576286316
1701713475977449500,1.499449462890625,7.819631099700928,5.915599822998047,-0.17158402502536774
1701713475987043800,1.5090439453125,7.820815563201904,5.91378927230835,-0.17980876564979553
1701713475996638700,1.518638671875,7.820822238922119,5.913731575012207,-0.18138852715492249
1701713476006233000,1.528233154296875,7.818587779998779,5.916836261749268,-0.17644211649894714
1701713476015826400,1.537826416015625,7.814211368560791,5.922858238220215,-0.1680549830198288
1701713476025420800,1.5474208984375,7.808143615722656,5.931077003479004,-0.15998458862304688
1701713476035015700,1.557015625,7.801054954528809,5.940507888793945,-0.15588884055614471
1701713476044610000,1.566610107421875,7.794256687164307,5.949382305145264,-0.15746887028217316
1701713476054203400,1.576203369140625,7.788786888122559,5.956322193145752,-0.16558262705802917
1701713476063797800,1.5857978515625,7.785653114318848,5.959984302520752,-0.18049703538417816
1701713476073392600,1.595392578125,7.7852606773376465,5.959855079650879,-0.20060519874095917
1701713476082987000,1.604987060546875,7.787539005279541,5.956128120422363,-0.22175616025924683
1701713476092580400,1.614580322265625,7.791811943054199,5.949685096740723,-0.24348533153533936
1701713476102174700,1.6241748046875,7.797038555145264,5.942043304443359,-0.2620998024940491
1701713476111769600,1.63376953125,7.802639961242676,5.934024810791016,-0.2766614854335785
1701713476121364000,1.643364013671875,7.807711601257324,5.926888465881348,-0.28640127182006836
1701713476130957300,1.652957275390625,7.810891151428223,5.922388076782227,-0.29273521900177
1701713476140551700,1.6625517578125,7.811844348907471,5.920876979827881,-0.29781603813171387
1701713476150146600,1.672146484375,7.810600280761719,5.9222941398620605,-0.30221524834632874
1701713476159741000,1.681740966796875,7.808362007141113,5.925099849700928,-0.30506664514541626
1701713476169334300,1.691334228515625,7.806065082550049,5.9280595779418945,-0.30635207891464233
1701713476178928600,1.7009287109375,7.8038530349731445,5.930992603302002,-0.3059203028678894
1701713476188523500,1.7105234375,7.801990509033203,5.93355131149292,-0.3038148581981659
1701713476198118000,1.720117919921875,7.800495624542236,5.935688018798828,-0.3004632592201233
1701713476207711200,1.729711181640625,7.799229145050049,5.937492370605469,-0.2976471483707428
1701713476217305600,1.7393056640625,7.799031734466553,5.937847137451172,-0.29574280977249146
1701713476226900700,1.748900634765625,7.800415992736816,5.93612813949585,-0.29372745752334595
1701713476236494800,1.758494873046875,7.803981304168701,5.931576251983643,-0.290963739156723
1701713476246088200,1.768088134765625,7.808874130249023,5.925226211547852,-0.2890704274177551
1701713476255682600,1.7776826171875,7.814393043518066,5.917945384979248,-0.28906765580177307
1701713476265277700,1.787277587890625,7.819939613342285,5.910489559173584,-0.29164373874664307
1701713476274871800,1.796871826171875,7.825085163116455,5.903487682342529,-0.29539981484413147
1701713476284465200,1.806465087890625,7.829996585845947,5.89687442779541,-0.29736006259918213
1701713476294059500,1.8160595703125,7.834471225738525,5.890915870666504,-0.2975875735282898
1701713476303654400,1.825654296875,7.838228225708008,5.885944366455078,-0.29701969027519226
1701713476313248800,1.835248779296875,7.841630458831787,5.881407737731934,-0.29710590839385986
1701713476322842000,1.844842041015625,7.845245838165283,5.87652587890625,-0.2982371151447296
1701713476332436500,1.8544365234375,7.849949359893799,5.870152473449707,-0.29997026920318604
1701713476342031600,1.864031494140625,7.855967044830322,5.862011909484863,-0.3016209602355957
1701713476351625700,1.873625732421875,7.863021373748779,5.852383613586426,-0.304776132106781
1701713476361219000,1.883218994140625,7.8707098960876465,5.841821670532227,-0.308920294046402
1701713476370813400,1.8928134765625,7.878618240356445,5.830877780914307,-0.3140489161014557
1701713476380408600,1.90240869140625,7.886194705963135,5.820379734039307,-0.31858670711517334
1701713476390002700,1.912002685546875,7.8934645652771,5.810360908508301,-0.3214130401611328
1701713476399596000,1.921595947265625,7.9001898765563965,5.801194190979004,-0.3217693865299225
1701713476409190400,1.9311904296875,7.906363010406494,5.792938232421875,-0.31887829303741455
1701713476418785500,1.94078564453125,7.911371231079102,5.786418914794922,-0.31296494603157043
1701713476428379600,1.950379638671875,7.9144768714904785,5.782591819763184,-0.30510658025741577
1701713476437973000,1.959972900390625,7.915748596191406,5.781278610229492,-0.29686298966407776
1701713476447567400,1.9695673828125,7.91520357131958,5.782454013824463,-0.28840407729148865
1701713476457162500,1.97916259765625,7.912959098815918,5.785947799682617,-0.27979952096939087
1701713476466756600,1.988756591796875,7.910212516784668,5.790177822113037,-0.26973873376846313
1701713476476350000,1.998349853515625,7.907196998596191,5.794765949249268,-0.2594554126262665
1701713476485944300,2.0079443359375,7.904842853546143,5.798429012298584,-0.2491479367017746
1701713476495539500,2.01753955078125,7.903334617614746,5.800867557525635,-0.2400253713130951
1701713476505133600,2.027133544921875,7.902828216552734,5.801830291748047,-0.23336008191108704
1701713476514727000,2.036726806640625,7.903367042541504,5.80126953125,-0.22900083661079407
1701713476524321300,2.0463212890625,7.9053544998168945,5.79872989654541,-0.22467628121376038
1701713476533916400,2.05591650390625,7.90859317779541,5.7945051193237305,-0.2196982502937317
1701713476543510500,2.065510498046875,7.912639141082764,5.789167881011963,-0.21459080278873444
1701713476553104100,2.075104248046875,7.916537284851074,5.784001350402832,-0.21011242270469666
1701713476562698200,2.0846982421875,7.9192795753479,5.780327796936035,-0.20787866413593292
1701713476572293400,2.09429345703125,7.920980453491211,5.7779717445373535,-0.2085796445608139
1701713476581887500,2.103887451171875,7.921995162963867,5.776458740234375,-0.21192094683647156
1701713476591480800,2.113480712890625,7.9232378005981445,5.774563789367676,-0.2170151174068451
1701713476601075200,2.1230751953125,7.925266742706299,5.771509647369385,-0.2240646332502365
1701713476610670300,2.13267041015625,7.928160667419434,5.767157554626465,-0.2335519790649414
1701713476620264400,2.142264404296875,7.931649208068848,5.761856555938721,-0.24562157690525055
1701713476629857800,2.15185791015625,7.935466766357422,5.75607442855835,-0.25762805342674255
1701713476639452200,2.1614521484375,7.9392218589782715,5.750424385070801,-0.267871618270874
1701713476649047300,2.17104736328125,7.942453384399414,5.745640754699707,-0.27465447783470154
1701713476658641400,2.180641357421875,7.944616794586182,5.742461681365967,-0.2785210907459259
1701713476668235000,2.190235107421875,7.944979667663574,5.741822242736816,-0.2813292145729065
1701713476677829000,2.1998291015625,7.943481922149658,5.7437591552734375,-0.28409647941589355
1701713476687424300,2.20942431640625,7.941178798675537,5.746829986572266,-0.2863657474517822
1701713476697018400,2.219018310546875,7.938763618469238,5.750151634216309,-0.28667035698890686
1701713476706611700,2.22861181640625,7.936384201049805,5.753509044647217,-0.2851759195327759
1701713476716206000,2.2382060546875,7.933216571807861,5.757944107055664,-0.28378793597221375
1701713476725801200,2.24780126953125,7.929712772369385,5.762779235839844,-0.2835693955421448
1701713476735395300,2.257395263671875,7.9265522956848145,5.767055034637451,-0.28499335050582886
1701713476744988700,2.26698876953125,7.923839569091797,5.770585060119629,-0.2889687418937683
1701713476754583000,2.2765830078125,7.922304630279541,5.7724289894104,-0.29420188069343567
1701713476764178200,2.28617822265625,7.922845840454102,5.771246910095215,-0.30266791582107544
1701713476773772300,2.295772216796875,7.926156520843506,5.766227722167969,-0.3115232586860657
1701713476783366000,2.305365966796875,7.930689334869385,5.759421348571777,-0.3219098150730133
1701713476792960000,2.3149599609375,7.9350199699401855,5.7528076171875,-0.3332603871822357
1701713476802555100,2.32455517578125,7.938739776611328,5.747292995452881,-0.3397388160228729
1701713476812149200,2.334149169921875,7.942892551422119,5.741666316986084,-0.33781060576438904
1701713476821742600,2.34374267578125,7.948056697845459,5.7349700927734375,-0.33000701665878296
1701713476831337000,2.3533369140625,7.955384254455566,5.7254414558410645,-0.31868863105773926
1701713476840932000,2.36293212890625,7.966981410980225,5.710087299346924,-0.3041299879550934
1701713476850526200,2.372526123046875,7.985872745513916,5.684702396392822,-0.2834961414337158
1701713476860119800,2.382119873046875,8.011826515197754,5.6491899490356445,-0.26016634702682495
1701713476869714000,2.3917138671875,8.042560577392578,5.6064276695251465,-0.23578134179115295
1701713476879309000,2.40130908203125,8.075018882751465,5.560601234436035,-0.21017275750637054
1701713476888903200,2.410903076171875,8.109454154968262,5.511506080627441,-0.17446601390838623
1701713476898496500,2.42049658203125,8.14373779296875,5.462135314941406,-0.12252745032310486
1701713476908091000,2.4300908203125,8.17189884185791,5.420999526977539,-0.05678088963031769
1701713476917686000,2.43968603515625,8.19117259979248,5.392090797424316,0.020873768255114555
1701713476927280000,2.449280029296875,8.202709197998047,5.373396396636963,0.1120763048529625
1701713476936873500,2.45887353515625,8.211909294128418,5.356032848358154,0.21876297891139984
1701713476946467800,2.4684677734375,8.215158462524414,5.345912933349609,0.32056885957717896
1701713476956063000,2.47806298828125,8.211007118225098,5.3454108238220215,0.41992852091789246
1701713476965657000,2.487656982421875,8.205349922180176,5.344905376434326,0.5240285992622375
1701713476975250700,2.497250732421875,8.196693420410156,5.347436428070068,0.6241161227226257
1701713476984844800,2.5068447265625,8.185012817382812,5.353411674499512,0.7189826369285583
1701713476994440000,2.51643994140625,8.171489715576172,5.360605239868164,0.8130596876144409
1701713477004034000,2.526033935546875,8.156097412109375,5.367697238922119,0.9144906997680664
1701713477013627400,2.53562744140625,8.136466979980469,5.375861644744873,1.0336360931396484
1701713477023221800,2.5452216796875,8.1149263381958,5.380887985229492,1.1680723428726196
1701713477032817000,2.55481689453125,8.092167854309082,5.3811187744140625,1.315588116645813
1701713477042411000,2.564410888671875,8.068270683288574,5.376425743103027,1.4722265005111694
1701713477052004400,2.57400439453125,8.042275428771973,5.36745548248291,1.6378717422485352
1701713477061598700,2.5835986328125,8.012186050415039,5.355006217956543,1.8163591623306274
1701713477071193900,2.59319384765625,7.97574520111084,5.340068340301514,2.0103609561920166
1701713477080788000,2.6027880859375,7.930445671081543,5.324427604675293,2.220107078552246
1701713477090381300,2.61238134765625,7.874959945678711,5.309013843536377,2.4433088302612305
1701713477099975700,2.6219755859375,7.809037685394287,5.294651031494141,2.675067663192749
1701713477109570800,2.63157080078125,7.733443260192871,5.283092498779297,2.907432794570923
1701713477119165000,2.6411650390625,7.650050163269043,5.275262832641602,3.1334853172302246
1701713477128758300,2.65075830078125,7.5605878829956055,5.270218849182129,3.351519823074341
1701713477138352600,2.6603525390625,7.466368198394775,5.26500129699707,3.564197063446045
1701713477147947800,2.66994775390625,7.364058494567871,5.25964879989624,3.7785096168518066
1701713477157542000,2.6795419921875,7.247938632965088,5.256444454193115,4.000945091247559
1701713477167135200,2.68913525390625,7.118224620819092,5.259060859680176,4.2241621017456055
1701713477176729600,2.6987294921875,6.975895881652832,5.27225399017334,4.439661502838135
1701713477186324700,2.70832470703125,6.8168182373046875,5.2972636222839355,4.651922225952148
1701713477195918800,2.7179189453125,6.635329723358154,5.330374240875244,4.871334075927734
1701713477205512200,2.72751220703125,6.429699420928955,5.364811420440674,5.103738307952881
1701713477215106600,2.7371064453125,6.202049255371094,5.39445686340332,5.348347187042236
1701713477224701400,2.746701416015625,5.9558892250061035,5.41369104385376,5.6026530265808105
1701713477234295800,2.7562958984375,5.6954665184021,5.418408393859863,5.862839221954346
1701713477243889200,2.76588916015625,5.423815727233887,5.405843257904053,6.126129627227783
1701713477253483500,2.7754833984375,5.1367034912109375,5.374152660369873,6.395556926727295
1701713477263078700,2.78507861328125,4.831454277038574,5.321385383605957,6.671604633331299
1701713477272672800,2.7946728515625,4.512526988983154,5.245805263519287,6.949028968811035
1701713477282266000,2.80426611328125,4.182705402374268,5.145198345184326,7.2251152992248535
1701713477291860500,2.813860595703125,3.8499062061309814,5.016274929046631,7.495705604553223
1701713477301455400,2.823455322265625,3.528003215789795,4.857068061828613,7.754513740539551
1701713477311049700,2.8330498046875,3.233222723007202,4.665399074554443,7.996918678283691
1701713477320642600,2.842642578125,2.974116563796997,4.435755252838135,8.224906921386719
1701713477330237000,2.85223681640625,2.75209903717041,4.165097713470459,8.440871238708496
1701713477339831800,2.861831787109375,2.5636684894561768,3.856494188308716,8.644387245178223
1701713477349426200,2.87142626953125,2.4018185138702393,3.5219459533691406,8.831622123718262
1701713477359019500,2.88101953125,2.2588226795196533,3.17576265335083,8.999034881591797
1701713477368614000,2.89061376953125,2.130241870880127,2.8313732147216797,9.144165992736816
1701713477378208800,2.900208740234375,2.0141499042510986,2.500731945037842,9.266063690185547
1701713477387803100,2.90980322265625,1.908223032951355,2.1909961700439453,9.366355895996094
1701713477397396500,2.919396484375,1.8085646629333496,1.8996535539627075,9.449380874633789
1701713477406990800,2.928990966796875,1.706673502922058,1.6225528717041016,9.51971435546875
1701713477416585700,2.938585693359375,1.596718430519104,1.3610626459121704,9.579581260681152
1701713477426179800,2.948179931640625,1.4828072786331177,1.1210544109344482,9.628857612609863
1701713477435773400,2.9577734375,1.3731470108032227,0.909342348575592,9.667366027832031
1701713477445367800,2.967367919921875,1.273720622062683,0.7298335433006287,9.696151733398438
1701713477454962700,2.976962646484375,1.18776273727417,0.5790523886680603,9.717217445373535
1701713477464557000,2.98655712890625,1.115390419960022,0.4491560161113739,9.732653617858887
1701713477474150400,2.996150390625,1.0574856996536255,0.33459851145744324,9.74372386932373
1701713477483744800,3.005744873046875,1.0170478820800781,0.22870616614818573,9.751087188720703
1701713477493339600,3.015339599609375,0.9961079359054565,0.12335772067308426,9.755148887634277
1701713477502933800,3.024933837890625,0.9954820275306702,0.01466391421854496,9.755982398986816
1701713477512527400,3.03452734375,1.010546088218689,-0.09986911714076996,9.75393295288086
1701713477522121700,3.044121826171875,1.0320188999176025,-0.22468219697475433,9.749608039855957
1701713477531716600,3.053716552734375,1.0516316890716553,-0.36321064829826355,9.743332862854004
1701713477541311000,3.06331103515625,1.0602566003799438,-0.5190140008926392,9.73534107208252
1701713477550904300,3.072904296875,1.0297093391418457,-0.6910316944122314,9.727927207946777
1701713477560498400,3.08249853515625,0.9423414468765259,-0.8778350949287415,9.72171688079834
1701713477570093600,3.092093505859375,0.8169522881507874,-1.0885648727416992,9.711745262145996
1701713477579687700,3.101687744140625,0.689020037651062,-1.3326693773269653,9.691213607788086
1701713477589281300,3.11128125,0.6308847665786743,-1.513129472732544,9.668651580810547
1701713477598875400,3.12087548828125,0.7047087550163269,-1.5950323343276978,9.650370597839355
1701713477608470500,3.130470458984375,0.8313153386116028,-1.7078684568405151,9.620940208435059
1701713477618064600,3.140064697265625,0.9318488836288452,-1.8697868585586548,9.581541061401367
1701713477627658200,3.149658203125,1.0337705612182617,-2.0597176551818848,9.532012939453125
1701713477637252400,3.15925244140625,1.1641626358032227,-2.2681117057800293,9.469465255737305
1701713477646847500,3.168847412109375,1.3108481168746948,-2.496077299118042,9.39263916015625
1701713477656441600,3.178441650390625,1.4495353698730469,-2.744086265563965,9.30264663696289
1701713477666035200,3.18803515625,1.5449634790420532,-3.0040571689605713,9.20647144317627
1701713477675629300,3.19762939453125,1.5291517972946167,-3.26287579536438,9.120620727539062
1701713477685224400,3.207224365234375,1.4221761226654053,-3.508533000946045,9.046436309814453
1701713477694818600,3.216818603515625,1.2672492265701294,-3.746635675430298,8.973694801330566
1701713477704412000,3.226411865234375,1.0916502475738525,-3.990748167037964,8.891154289245605
1701713477714006300,3.23600634765625,0.9171684384346008,-4.2394232749938965,8.79525375366211
1701713477723601400,3.245601318359375,0.7474572658538818,-4.489573955535889,8.686507225036621
1701713477733195500,3.255195556640625,0.5738067626953125,-4.737199783325195,8.567383766174316
1701713477742788900,3.264788818359375,0.3916188180446625,-4.983785152435303,8.436758041381836
1701713477752383200,3.27438330078125,0.20071926712989807,-5.242175579071045,8.28551197052002
1701713477761978400,3.283978271484375,0.007738578133285046,-5.491847038269043,8.124650001525879
1701713477771572500,3.293572509765625,-0.18978184461593628,-5.724895477294922,7.959896087646484
1701713477781165800,3.303165771484375,-0.3908015489578247,-5.93157958984375,7.799615859985352
1701713477790760200,3.31276025390625,-0.6023516654968262,-6.096179962158203,7.657946586608887
1701713477800355000,3.32235498046875,-0.8289926648139954,-6.224027633666992,7.532903671264648
1701713477809949400,3.331949462890625,-1.0334784984588623,-6.331540107727051,7.417135715484619
1701713477819542800,3.341542724609375,-1.1833109855651855,-6.424378395080566,7.314199924468994
1701713477829137200,3.35113720703125,-1.280984878540039,-6.504893779754639,7.226050853729248
1701713477838732300,3.360732177734375,-1.3309228420257568,-6.584808826446533,7.144181251525879
1701713477848326400,3.370326416015625,-1.3418991565704346,-6.6784892082214355,7.054607391357422
1701713477857919700,3.379919677734375,-1.3418254852294922,-6.786951065063477,6.950337886810303
1701713477867514000,3.38951416015625,-1.347493052482605,-6.903200626373291,6.833774566650391
1701713477877109000,3.39910888671875,-1.3486577272415161,-7.024409770965576,6.708887577056885
1701713477886703400,3.408703369140625,-1.3348042964935303,-7.161026954650879,6.565697193145752
1701713477896296700,3.418296630859375,-1.3118339776992798,-7.290153503417969,6.426751613616943
1701713477905891000,3.42789111328125,-1.2910027503967285,-7.364891529083252,6.345241069793701
1701713477915486000,3.43748583984375,-1.2826496362686157,-7.425363063812256,6.276080131530762
1701713477925080300,3.447080322265625,-1.2780938148498535,-7.489438533782959,6.200417518615723
1701713477934673700,3.456673583984375,-1.2591993808746338,-7.554333686828613,6.12509822845459
1701713477944268000,3.46626806640625,-1.2219868898391724,-7.622262477874756,6.047994613647461
1701713477953863000,3.47586279296875,-1.159201741218567,-7.6978068351745605,5.964093208312988
1701713477963457300,3.485457275390625,-1.08720862865448,-7.780149459838867,5.870061874389648
1701713477973050600,3.495050537109375,-1.0134378671646118,-7.865066051483154,5.769235610961914
1701713477982645000,3.50464501953125,-0.9408798813819885,-7.946583271026611,5.668946743011475
1701713477992239900,3.514239990234375,-0.8749986290931702,-8.02491569519043,5.568257808685303
1701713478001834000,3.523833984375,-0.8122556805610657,-8.099804878234863,5.4684367179870605
1701713478011427600,3.533427490234375,-0.7507330775260925,-8.173993110656738,5.365874767303467
1701713478021022000,3.54302197265625,-0.6907941102981567,-8.244133949279785,5.265686988830566
1701713478030616800,3.552616943359375,-0.6315136551856995,-8.307941436767578,5.172010898590088
1701713478040211000,3.5622109375,-0.5838125348091125,-8.351995468139648,5.106242656707764
1701713478049804500,3.571804443359375,-0.5461346507072449,-8.375875473022461,5.0711774826049805
1701713478059399000,3.58139892578125,-0.5227452516555786,-8.386347770690918,5.056313514709473
1701713478068993800,3.590993896484375,-0.5146478414535522,-8.380386352539062,5.067015647888184
1701713478078588200,3.600588134765625,-0.5204756259918213,-8.365911483764648,5.090285301208496
1701713478088181500,3.610181396484375,-0.558264970779419,-8.354376792907715,5.1052045822143555
1701713478097775600,3.619775634765625,-0.6146241426467896,-8.342890739440918,5.11749792098999
1701713478107370800,3.629370849609375,-0.6445693373680115,-8.317662239074707,5.1547465324401855
1701713478116964900,3.63896484375,-0.6290713548660278,-8.284831047058105,5.209245204925537
1701713478126558500,3.648558349609375,-0.5690093636512756,-8.247611999511719,5.27479887008667
1701713478136152600,3.658152587890625,-0.49344396591186523,-8.209144592285156,5.341989040374756
1701713478145747700,3.667747802734375,-0.4375149607658386,-8.1800537109375,5.391261100769043
1701713478155341800,3.677341796875,-0.4152210056781769,-8.177730560302734,5.396546363830566
1701713478164935400,3.686935302734375,-0.425475150346756,-8.208186149597168,5.349301815032959
1701713478174529500,3.696529541015625,-0.4475763440132141,-8.251947402954102,5.279718399047852
1701713478184124700,3.706124755859375,-0.4566865861415863,-8.311686515808105,5.184371471405029
1701713478193718800,3.71571875,-0.44235384464263916,-8.388096809387207,5.0610809326171875
1701713478203312400,3.7253125,-0.41532182693481445,-8.470401763916016,4.924448013305664
1701713478212906500,3.734906494140625,-0.3926115930080414,-8.551775932312012,4.783654689788818
1701713478222501600,3.744501708984375,-0.3824070692062378,-8.634679794311523,4.633191108703613
1701713478232095700,3.754095703125,-0.37888652086257935,-8.729437828063965,4.452385425567627
1701713478241689000,3.763689208984375,-0.37722834944725037,-8.840126991271973,4.228503227233887
1701713478251283500,3.773283447265625,-0.39676597714424133,-8.964272499084473,3.956613302230835
1701713478260878600,3.782878662109375,-0.41614577174186707,-9.07821273803711,3.6855478286743164
1701713478270472700,3.79247265625,-0.42585137486457825,-9.168291091918945,3.4541969299316406
1701713478280066000,3.802066162109375,-0.42316558957099915,-9.236786842346191,3.2669715881347656
1701713478289660400,3.811660400390625,-0.4121808707714081,-9.290999412536621,3.11091947555542
1701713478299255600,3.821255615234375,-0.40529951453208923,-9.323166847229004,3.014080047607422
1701713478308849700,3.830849609375,-0.409243106842041,-9.332077980041504,2.985840320587158
1701713478318443000,3.840443115234375,-0.4180988669395447,-9.324458122253418,3.0083322525024414
1701713478328037400,3.850037353515625,-0.43073755502700806,-9.316828727722168,3.0301103591918945
1701713478337632500,3.859632568359375,-0.4425494074821472,-9.310028076171875,3.049248218536377
1701713478347226600,3.8692265625,-0.45479702949523926,-9.30241870880127,3.0705957412719727
1701713478356820000,3.878820068359375,-0.4726569354534149,-9.293498992919922,3.09480881690979
1701713478366414300,3.888414306640625,-0.5139026045799255,-9.282547950744629,3.1209938526153564
1701713478376009200,3.89800927734375,-0.6533488035202026,-9.278441429138184,3.107095956802368
1701713478385603600,3.907603515625,-0.7837803959846497,-9.281344413757324,3.0680172443389893
1701713478395197000,3.917197021484375,-0.8708835244178772,-9.288176536560059,3.0235304832458496
1701713478404791300,3.926791259765625,-0.9261975288391113,-9.309496879577637,2.940378189086914
1701713478414386200,3.93638623046875,-0.9566681981086731,-9.349382400512695,2.8007547855377197
1701713478423980500,3.94598046875,-0.9701191186904907,-9.398482322692871,2.6263628005981445
1701713478433574000,3.955573974609375,-0.9732673168182373,-9.444112777709961,2.4559879302978516
1701713478443168300,3.965168212890625,-0.9752684235572815,-9.478645324707031,2.3182990550994873
1701713478452763100,3.97476318359375,-0.9932292699813843,-9.502777099609375,2.209322929382324
1701713478462357500,3.984357421875,-1.0233975648880005,-9.520846366882324,2.115783452987671
1701713478471950800,3.993950927734375,-1.0376307964324951,-9.535012245178223,2.0438337326049805
1701713478481545200,4.003545166015625,-1.0308018922805786,-9.546955108642578,1.9908485412597656
1701713478491140000,4.01314013671875,-1.0131821632385254,-9.558389663696289,1.9444893598556519
1701713478500734200,4.022734130859375,-0.988049328327179,-9.572601318359375,1.8866482973098755
1701713478510327800,4.032327880859375,-0.9718666672706604,-9.588805198669434,1.8112657070159912
1701713478519922200,4.041922119140625,-0.9718924164772034,-9.602657318115234,1.7363108396530151
1701713478529517000,4.05151708984375,-0.9897083044052124,-9.608930587768555,1.690956473350525
1701713478539111400,4.061111328125,-1.0063787698745728,-9.604315757751465,1.707249402999878
1701713478548704800,4.070704833984375,-0.999634861946106,-9.600998878479004,1.729717493057251
1701713478558299000,4.080298828125,-0.9757911562919617,-9.601736068725586,1.739220380783081
1701713478567894000,4.08989404296875,-0.9512926936149597,-9.602330207824707,1.7494789361953735
1701713478577488100,4.099488037109375,-0.928281307220459,-9.603301048278809,1.756496787071228
1701713478587081700,4.109081787109375,-0.9133375287055969,-9.603754043579102,1.7618483304977417
1701713478596676000,4.118676025390625,-0.9047191739082336,-9.604066848754883,1.7645926475524902
1701713478606271000,4.12827099609375,-0.9021385312080383,-9.603726387023926,1.7677613496780396
1701713478615865000,4.137864990234375,-0.9015659093856812,-9.603954315185547,1.7668107748031616
1701713478625458700,4.147458740234375,-0.8946748375892639,-9.605794906616211,1.760301113128662
1701713478635052800,4.157052734375,-0.889680802822113,-9.607216835021973,1.7550581693649292
1701713478644648000,4.16664794921875,-0.8892205953598022,-9.607988357543945,1.7510708570480347
1701713478654242000,4.176241943359375,-0.8935114741325378,-9.607551574707031,1.751281976699829
1701713478663835600,4.185835693359375,-0.8921621441841125,-9.609472274780273,1.7414036989212036
1701713478673429800,4.1954296875,-0.884638786315918,-9.609869003295898,1.7430546283721924
1701713478683025000,4.20502490234375,-0.8865898847579956,-9.60919189453125,1.7457870244979858
1701713478692619000,4.214618896484375,-0.8885396122932434,-9.610424041748047,1.7379953861236572
1701713478702212600,4.224212646484375,-0.8882552981376648,-9.610031127929688,1.7403168678283691
1701713478711806700,4.233806640625,-0.8923195004463196,-9.608781814575195,1.7451213598251343
1701713478721401900,4.24340185546875,-0.881166398525238,-9.611551284790039,1.7355144023895264
1701713478730996000,4.252995849609375,-0.8759987354278564,-9.614333152770996,1.7226718664169312
1701713478740589300,4.26258935546875,-0.8890030980110168,-9.611322402954102,1.7327872514724731
1701713478750183700,4.27218359375,-0.8987278342247009,-9.61038875579834,1.7329446077346802
1701713478759778800,4.28177880859375,-0.9032905101776123,-9.60988712310791,1.7333531379699707
1701713478769373000,4.291373046875,-0.9051795601844788,-9.609426498413086,1.7349225282669067
1701713478778966300,4.30096630859375,-0.9083172678947449,-9.608983039855957,1.7357374429702759
1701713478788560600,4.310560546875,-0.9131450653076172,-9.608445167541504,1.736182451248169
1701713478798155800,4.32015576171875,-0.9163103103637695,-9.607726097106934,1.7384980916976929
1701713478807750000,4.32975,-0.9137389659881592,-9.606620788574219,1.7459361553192139
1701713478817343200,4.33934326171875,-0.9030771255493164,-9.605511665344238,1.757548213005066
1701713478826937600,4.3489375,-0.9033078551292419,-9.603453636169434,1.7686469554901123
1701713478836532500,4.358532470703125,-0.9035086631774902,-9.60248851776123,1.773773193359375
1701713478846126800,4.368126953125,-0.9002858996391296,-9.603477478027344,1.7700601816177368
1701713478855720200,4.37772021484375,-0.8942041993141174,-9.604081153869629,1.7698619365692139
1701713478865314600,4.387314453125,-0.8823246955871582,-9.607246398925781,1.7586106061935425
1701713478874909700,4.39690966796875,-0.8660294413566589,-9.611228942871094,1.744893193244934
1701713478884503800,4.40650390625,-0.8458364009857178,-9.616209030151367,1.7272758483886719
1701713478894097200,4.41609716796875,-0.824983537197113,-9.621238708496094,1.7092559337615967
1701713478903691500,4.42569140625,-0.8045931458473206,-9.625924110412598,1.6925137042999268
1701713478913286400,4.435286376953125,-0.7771696448326111,-9.630975723266602,1.6765141487121582
1701713478922880800,4.444880859375,-0.7517362833023071,-9.635802268981934,1.6603034734725952
1701713478932474000,4.45447412109375,-0.7502546906471252,-9.644455909729004,1.6099618673324585
1701713478942068500,4.464068359375,-0.7610325813293457,-9.657779693603516,1.5226671695709229
1701713478951663400,4.473663330078125,-0.7835707068443298,-9.666901588439941,1.4516981840133667
1701713478961257700,4.4832578125,-0.7888851761817932,-9.675342559814453,1.3913257122039795
1701713478970851000,4.49285107421875,-0.7690117955207825,-9.678181648254395,1.3826829195022583
1701713478980445400,4.502445556640625,-0.7434417605400085,-9.678289413452148,1.3958439826965332
1701713478990040300,4.512040283203125,-0.7272012233734131,-9.6768217086792,1.4144595861434937
1701713478999634700,4.521634765625,-0.7205687761306763,-9.674208641052246,1.4355707168579102
1701713479009228000,4.53122802734375,-0.7199170589447021,-9.670857429504395,1.4582892656326294
1701713479018822400,4.540822509765625,-0.7206815481185913,-9.66685676574707,1.4842064380645752
1701713479028417300,4.550417236328125,-0.7220397591590881,-9.662152290344238,1.5138906240463257
1701713479038011400,4.560011474609375,-0.7253831028938293,-9.656661987304688,1.5469591617584229
1701713479047605000,4.56960498046875,-0.7247926592826843,-9.651378631591797,1.5798574686050415
1701713479057199400,4.579199462890625,-0.7122114300727844,-9.647127151489258,1.6112315654754639
1701713479066794200,4.588794189453125,-0.6867015957832336,-9.643535614013672,1.643484115600586
1701713479076388400,4.598388427734375,-0.651647686958313,-9.640028953552246,1.6779693365097046
1701713479085982000,4.60798193359375,-0.6148228049278259,-9.636673927307129,1.7108206748962402
1701713479095576000,4.617576171875,-0.5951788425445557,-9.634459495544434,1.7301257848739624
1701713479105171200,4.627171142578125,-0.5960601568222046,-9.632523536682129,1.740570068359375
1701713479114765600,4.636765625,-0.5951418876647949,-9.630716323852539,1.750852346420288
1701713479124359000,4.64635888671875,-0.5957120656967163,-9.629654884338379,1.7564873695373535
1701713479133953000,4.655953125,-0.5978583097457886,-9.628589630126953,1.7615939378738403
1701713479143548200,4.665548095703125,-0.5978497862815857,-9.627413749694824,1.7680120468139648
1701713479153142300,4.675142333984375,-0.5957193374633789,-9.626252174377441,1.7750418186187744
1701713479162735900,4.68473583984375,-0.5911917686462402,-9.625158309936523,1.7824697494506836
1701713479172330000,4.694330078125,-0.5860633254051208,-9.6240234375,1.7902711629867554
1701713479181925000,4.703925048828125,-0.5816718935966492,-9.622990608215332,1.7972463369369507
1701713479191519200,4.713519287109375,-0.5786501169204712,-9.621946334838867,1.8037997484207153
1701713479201112800,4.72311279296875,-0.5769628882408142,-9.620828628540039,1.8102905750274658
1701713479210707000,4.73270703125,-0.5760217308998108,-9.619616508483887,1.8170199394226074
1701713479220302000,4.742302001953125,-0.5752246379852295,-9.618483543395996,1.823263168334961
1701713479229896200,4.751896240234375,-0.5738333463668823,-9.617396354675293,1.8294190168380737
1701713479239489800,4.76148974609375,-0.5719255208969116,-9.616377830505371,1.8353651762008667
1701713479249084000,4.771083984375,-0.569784939289093,-9.615439414978027,1.8409348726272583
1701713479258679000,4.780678955078125,-0.5671796798706055,-9.614651679992676,1.845852255821228
1701713479268273200,4.790273193359375,-0.5639747381210327,-9.613971710205078,1.8503687381744385
1701713479277866500,4.799866455078125,-0.560283899307251,-9.613404273986816,1.8544363975524902
1701713479287460900,4.8094609375,-0.5565330386161804,-9.612929344177246,1.8580254316329956
1701713479297056000,4.819055908203125,-0.5530902147293091,-9.612558364868164,1.8609693050384521
1701713479306650000,4.828650146484375,-0.5500489473342896,-9.612290382385254,1.8632524013519287
1701713479316243500,4.838243408203125,-0.5468252301216125,-9.612136840820312,1.864993929862976
1701713479325837800,4.847837890625,-0.5437639951705933,-9.612100601196289,1.866068959236145
1701713479335433000,4.857432861328125,-0.5408315062522888,-9.61221981048584,1.8663100004196167
1701713479345027000,4.867027099609375,-0.5378064513206482,-9.6124849319458,1.865822434425354
1701713479354620400,4.876620361328125,-0.5348868370056152,-9.612927436828613,1.8643803596496582
1701713479364214800,4.88621484375,-0.5322081446647644,-9.613545417785645,1.8619568347930908
1701713479373810000,4.895809814453125,-0.5294287800788879,-9.614359855651855,1.85854172706604
1701713479383404000,4.905404052734375,-0.5261849164962769,-9.615344047546387,1.8543701171875
1701713479392997400,4.914997314453125,-0.5223960876464844,-9.616430282592773,1.849800944328308
1701713479402591700,4.924591796875,-0.5180287957191467,-9.617557525634766,1.8451588153839111
1701713479412187000,4.934186767578125,-0.5125594139099121,-9.618741035461426,1.84051513671875
1701713479421781000,4.943781005859375,-0.5058932304382324,-9.620001792907715,1.8357601165771484
1701713479431374300,4.953374267578125,-0.4980394244194031,-9.621296882629395,1.8311198949813843
1701713479440968700,4.96296875,-0.4889955520629883,-9.62261962890625,1.8265998363494873
1701713479450563600,4.9725634765625,-0.4790072739124298,-9.623891830444336,1.8225358724594116
1701713479460158000,4.982157958984375,-0.46836405992507935,-9.625134468078613,1.8187408447265625
1701713479469751300,4.991751220703125,-0.45754051208496094,-9.62630844116211,1.8152742385864258
1701713479479345700,5.001345703125,-0.446605384349823,-9.62740421295166,1.8121846914291382
1701713479488940500,5.0109404296875,-0.43558716773986816,-9.628446578979492,1.8093280792236328
1701713479498535000,5.020534912109375,-0.42396748065948486,-9.629481315612793,1.806578278541565
1701713479508128300,5.030128173828125,-0.41207900643348694,-9.630507469177246,1.8038581609725952
1701713479517722600,5.03972265625,-0.4000683128833771,-9.631498336791992,1.801267385482788
1701713479527317500,5.0493173828125,-0.38848555088043213,-9.632421493530273,1.7988663911819458
1701713479536912000,5.058911865234375,-0.37762928009033203,-9.633240699768066,1.7967920303344727
1701713479546505200,5.068505126953125,-0.3678162097930908,-9.633952140808105,1.7950098514556885
1701713479556099600,5.078099609375,-0.359272837638855,-9.634604454040527,1.7932413816452026
1701713479565694500,5.087694580078125,-0.3525620102882385,-9.635149955749512,1.7916440963745117
1701713479575288800,5.097288818359375,-0.3475971817970276,-9.635599136352539,1.7901962995529175
1701713479584882200,5.106882080078125,-0.343593031167984,-9.637252807617188,1.7820425033569336
1701713479594476500,5.1164765625,-0.3411244750022888,-9.63878059387207,1.774236798286438
1701713479604071400,5.126071533203125,-0.3396773338317871,-9.64008903503418,1.7674000263214111
1701713479613665800,5.135665771484375,-0.3386262357234955,-9.64118766784668,1.7615995407104492
1701713479623259100,5.145259033203125,-0.33762484788894653,-9.642111778259277,1.7567250728607178
1701713479632853500,5.154853515625,-0.33646664023399353,-9.642851829528809,1.752876877784729
1701713479642448400,5.164448486328125,-0.3350653350353241,-9.643413543701172,1.7500568628311157
1701713479652042500,5.17404248046875,-0.3329417109489441,-9.643752098083496,1.748598337173462
1701713479661636000,5.183635986328125,-0.3304712772369385,-9.643864631652832,1.7484420537948608
1701713479671230500,5.19323046875,-0.32762765884399414,-9.643827438354492,1.7491796016693115
1701713479680825300,5.202825439453125,-0.32542160153388977,-9.643585205078125,1.7509266138076782
1701713479690419700,5.212419677734375,-0.3237400949001312,-9.64310359954834,1.7538918256759644
1701713479700013000,5.222012939453125,-0.32264694571495056,-9.642436981201172,1.7577481269836426
1701713479709607200,5.231607177734375,-0.3219338357448578,-9.641590118408203,1.7625235319137573
1701713479719202300,5.241202392578125,-0.3215113580226898,-9.640641212463379,1.7677820920944214
1701713479728796400,5.25079638671875,-0.3213087022304535,-9.639657020568848,1.7731813192367554
1701713479738390000,5.26039013671875,-0.32156676054000854,-9.638676643371582,1.7784497737884521
1701713479747984400,5.269984375,-0.3214230239391327,-9.63780689239502,1.7831897735595703
1701713479757579300,5.279579345703125,-0.3214913606643677,-9.637012481689453,1.787463665008545
1701713479767173400,5.28917333984375,-0.32170209288597107,-9.636382102966309,1.7908228635787964
1701713479776767000,5.29876708984375,-0.32249516248703003,-9.635889053344727,1.7933330535888672
1701713479786361000,5.308361083984375,-0.3240804076194763,-9.635610580444336,1.7945365905761719
1701713479795956200,5.317956298828125,-0.32638752460479736,-9.63547420501709,1.794853687286377
1701713479805550300,5.32755029296875,-0.3291782736778259,-9.635481834411621,1.7943031787872314
1701713479815144000,5.33714404296875,-0.33246350288391113,-9.635533332824707,1.7934249639511108
1701713479824738000,5.346738037109375,-0.33647167682647705,-9.63561725616455,1.792219877243042
1701713479834333200,5.356333251953125,-0.3407607674598694,-9.635690689086914,1.7910181283950806
1701713479843927300,5.36592724609375,-0.34532174468040466,-9.635762214660645,1.7897584438323975
1701713479853521000,5.37552099609375,-0.350358247756958,-9.635927200317383,1.7878904342651367
1701713479863115000,5.385114990234375,-0.35558223724365234,-9.63626480102539,1.7850401401519775
1701713479872710100,5.394710205078125,-0.36083924770355225,-9.636711120605469,1.781571865081787
1701713479882304300,5.40430419921875,-0.3661966323852539,-9.637235641479492,1.7776355743408203
1701713479891897900,5.41389794921875,-0.37130406498908997,-9.637822151184082,1.773390769958496
1701713479901492000,5.423491943359375,-0.37615102529525757,-9.638400077819824,1.7692235708236694
1701713479911087000,5.433087158203125,-0.3810660243034363,-9.639037132263184,1.7646890878677368
1701713479920681200,5.44268115234375,-0.3850092887878418,-9.639788627624512,1.7597228288650513
1701713479930274600,5.452274658203125,-0.38816967606544495,-9.64047908782959,1.7552388906478882
1701713479939869000,5.461868896484375,-0.3908178508281708,-9.64113712310791,1.7510344982147217
1701713479949464000,5.471464111328125,-0.39309316873550415,-9.6417818069458,1.7469737529754639
1701713479959058200,5.48105810546875,-0.3950346112251282,-9.642529487609863,1.7423990964889526
1701713479968651800,5.49065185546875,-0.3971647620201111,-9.643331527709961,1.737471103668213
1701713479978246000,5.500245849609375,-0.39984366297721863,-9.644087791442871,1.7326542139053345
1701713479987841000,5.509841064453125,-0.40298688411712646,-9.644828796386719,1.727796196937561
1701713479997435100,5.51943505859375,-0.406484991312027,-9.645516395568848,1.7231322526931763
1701713480007028500,5.529028564453125,-0.41055992245674133,-9.64621639251709,1.718239188194275
1701713480016622800,5.538622802734375,-0.41494157910346985,-9.64675235748291,1.714170217514038
1701713480026218000,5.548218017578125,-0.4188542366027832,-9.647135734558105,1.711061716079712
1701713480035812000,5.55781201171875,-0.4234490990638733,-9.647254943847656,1.7092528343200684
1701713480045405400,5.567405517578125,-0.42834845185279846,-9.647209167480469,1.708292841911316
1701713480054999800,5.576999755859375,-0.43335995078086853,-9.647078514099121,1.7077656984329224
1701713480064595000,5.586594970703125,-0.43807387351989746,-9.646891593933105,1.7076188325881958
1701713480074189000,5.59618896484375,-0.4427645206451416,-9.646692276000977,1.7075304985046387
1701713480083782400,5.605782470703125,-0.44799041748046875,-9.646451950073242,1.7075337171554565
1701713480093376800,5.615376708984375,-0.4536952078342438,-9.646117210388184,1.7079133987426758
1701713480102972000,5.624971923828125,-0.45865926146507263,-9.645672798156738,1.7090986967086792
1701713480112566000,5.63456591796875,-0.46321964263916016,-9.645078659057617,1.7112176418304443
1701713480122159400,5.644159423828125,-0.4666004180908203,-9.644331932067871,1.7145066261291504
1701713480131753700,5.653753662109375,-0.46826162934303284,-9.64358901977539,1.7182272672653198
1701713480141348900,5.663348876953125,-0.4681900143623352,-9.642853736877441,1.7223700284957886
1701713480150943000,5.67294287109375,-0.46656858921051025,-9.642107963562012,1.7269834280014038
1701713480160536300,5.682536376953125,-0.46408864855766296,-9.641501426696777,1.7310280799865723
1701713480170130700,5.692130615234375,-0.46076247096061707,-9.64096450805664,1.7349003553390503
1701713480179725600,5.7017255859375,-0.4575231373310089,-9.640536308288574,1.738135814666748
1701713480189320000,5.71131982421875,-0.45528310537338257,-9.640216827392578,1.740495204925537
1701713480198913300,5.720913330078125,-0.45435672998428345,-9.639986038208008,1.742016077041626
1701713480208507600,5.730507568359375,-0.4551032483577728,-9.639934539794922,1.7421009540557861
1701713480218102500,5.7401025390625,-0.4569321870803833,-9.640052795410156,1.7409749031066895
1701713480227697000,5.74969677734375,-0.459871381521225,-9.640297889709473,1.7388341426849365
1701713480237290200,5.759290283203125,-0.4630802869796753,-9.640617370605469,1.7362138032913208
1701713480246884600,5.768884521484375,-0.4664672613143921,-9.64087963104248,1.7338478565216064
1701713480256479500,5.7784794921875,-0.46982520818710327,-9.640982627868652,1.7323659658432007
1701713480266073900,5.788073974609375,-0.4729432761669159,-9.641037940979004,1.7312202453613281
1701713480275667200,5.797667236328125,-0.4761087894439697,-9.640904426574707,1.7310876846313477
1701713480285261600,5.807261474609375,-0.47899380326271057,-9.640700340270996,1.7314285039901733
1701713480294856400,5.8168564453125,-0.48231041431427,-9.640434265136719,1.7319918870925903
1701713480304450800,5.826450927734375,-0.486061692237854,-9.640151977539062,1.7325129508972168
1701713480314044200,5.836044189453125,-0.48984435200691223,-9.639924049377441,1.7327159643173218
1701713480323638500,5.845638427734375,-0.4933646321296692,-9.639754295349121,1.7326586246490479
1701713480333233400,5.8552333984375,-0.496311753988266,-9.639699935913086,1.7321223020553589
1701713480342827800,5.864827880859375,-0.49878811836242676,-9.639766693115234,1.7310454845428467
1701713480352421000,5.874421142578125,-0.5009817481040955,-9.640012741088867,1.729034662246704
1701713480362015500,5.884015380859375,-0.5026504993438721,-9.640300750732422,1.726940393447876
1701713480371610400,5.8936103515625,-0.5036799907684326,-9.640727996826172,1.7242536544799805
1701713480381204700,5.903204833984375,-0.5043972730636597,-9.641159057617188,1.721630573272705
1701713480390798000,5.912798095703125,-0.5046457052230835,-9.641550064086914,1.719373345375061
1701713480400392400,5.922392333984375,-0.5044154524803162,-9.641834259033203,1.7178399562835693
1701713480409987300,5.9319873046875,-0.5039787292480469,-9.641915321350098,1.7175170183181763
1701713480419581700,5.941581787109375,-0.5040273666381836,-9.641810417175293,1.7180891036987305
1701713480429175000,5.951175048828125,-0.5042828917503357,-9.64164924621582,1.718920111656189
1701713480438769400,5.960769287109375,-0.5054555535316467,-9.64137077331543,1.7201335430145264
1701713480448364300,5.9703642578125,-0.5075910091400146,-9.6410551071167,1.7212789058685303
1701713480457958700,5.979958740234375,-0.510833740234375,-9.640735626220703,1.7221072912216187
1701713480467552000,5.989552001953125,-0.5151368379592896,-9.640406608581543,1.7226645946502686
1701713480477146400,5.999146484375,-0.5200302004814148,-9.640069961547852,1.7230820655822754
1701713480486741200,6.0087412109375,-0.5252837538719177,-9.63973331451416,1.7233695983886719
1701713480496335400,6.01833544921875,-0.5308415293693542,-9.639458656311035,1.7232028245925903
1701713480505929000,6.027928955078125,-0.5363065600395203,-9.639220237731934,1.7228479385375977
1701713480515523300,6.0375234375,-0.5417681336402893,-9.639008522033691,1.7223191261291504
1701713480525118200,6.0471181640625,-0.5470061302185059,-9.638813018798828,1.7217589616775513
1701713480534712300,6.05671240234375,-0.5516791939735413,-9.638625144958496,1.721320390701294
1701713480544306000,6.066305908203125,-0.5561150312423706,-9.638365745544434,1.7213468551635742
1701713480553900300,6.075900390625,-0.5605102181434631,-9.638041496276855,1.7217352390289307
1701713480563495200,6.0854951171875,-0.5646981000900269,-9.6376371383667,1.7226289510726929
1701713480573089300,6.09508935546875,-0.5689123868942261,-9.637236595153809,1.723482370376587
1701713480582683000,6.104682861328125,-0.5726755857467651,-9.636811256408691,1.724614143371582
1701713480592277200,6.11427734375,-0.5761382579803467,-9.636429786682129,1.7255905866622925
1701713480601872100,6.1238720703125,-0.5795502662658691,-9.636146545410156,1.7260328531265259
1701713480611466200,6.13346630859375,-0.5823849439620972,-9.635984420776367,1.7259896993637085
1701713480621059800,6.143059814453125,-0.585081934928894,-9.635897636413574,1.7255550622940063
1701713480630654200,6.152654296875,-0.5878713726997375,-9.635828971862793,1.724989414215088
1701713480640249000,6.1622490234375,-0.5910189151763916,-9.63584041595459,1.7238539457321167
1701713480649843200,6.17184326171875,-0.5946522951126099,-9.63579273223877,1.7228673696517944
1701713480659436800,6.181436767578125,-0.5983648300170898,-9.635732650756836,1.7219185829162598
1701713480669031000,6.191031005859375,-0.6022686958312988,-9.635542869567871,1.7216191291809082
1701713480678626000,6.2006259765625,-0.6059591770172119,-9.635259628295898,1.721912145614624
1701713480688220200,6.21022021484375,-0.60926753282547,-9.634927749633789,1.7225927114486694
1701713480697813800,6.219813720703125,-0.6121925711631775,-9.634506225585938,1.7239179611206055
1701713480707408100,6.229408203125,-0.614467978477478,-9.634026527404785,1.7257906198501587
1701713480717003000,6.2390029296875,-0.6160440444946289,-9.63351821899414,1.7280629873275757
1701713480726597000,6.24859716796875,-0.6172013878822327,-9.632938385009766,1.7308831214904785
1701713480736190700,6.258190673828125,-0.6180856227874756,-9.632344245910645,1.733870506286621
1701713480745784800,6.267784912109375,-0.6191313862800598,-9.631678581237793,1.7371876239776611
1701713480755380000,6.2773798828125,-0.6202101111412048,-9.630990982055664,1.740616798400879
1701713480764974000,6.28697412109375,-0.6216815710067749,-9.630322456359863,1.7437869310379028
1701713480774567700,6.296567626953125,-0.6234531402587891,-9.629687309265137,1.746662974357605
1701713480784161800,6.306161865234375,-0.6251935958862305,-9.629146575927734,1.7490127086639404
1701713480793757000,6.3157568359375,-0.6268640160560608,-9.62861156463623,1.7513654232025146
1701713480803351300,6.325351318359375,-0.6284440755844116,-9.628122329711914,1.7534838914871216
1701713480812944600,6.334944580078125,-0.6297092437744141,-9.627639770507812,1.7556778192520142
1701713480822538800,6.344538818359375,-0.6309261322021484,-9.62709903717041,1.7582021951675415
1701713480832134000,6.3541337890625,-0.6316462159156799,-9.62659740447998,1.7606858015060425
1701713480841728000,6.36372802734375,-0.6320763230323792,-9.626056671142578,1.7634879350662231
1701713480851321600,6.373321533203125,-0.6318748593330383,-9.625605583190918,1.7660202980041504
1701713480860915700,6.382915771484375,-0.6313129663467407,-9.625218391418457,1.7683343887329102
1701713480870510800,6.3925107421875,-0.6305325627326965,-9.624871253967285,1.770504117012024
1701713480880105200,6.402105224609375,-0.6296659708023071,-9.624564170837402,1.772477626800537
1701713480889698600,6.411698486328125,-0.6286312341690063,-9.624239921569824,1.774605393409729
1701713480899292700,6.421292724609375,-0.6283503770828247,-9.623921394348145,1.7764296531677246
1701713480908887800,6.4308876953125,-0.6279551982879639,-9.623632431030273,1.7781341075897217
1701713480918482000,6.44048193359375,-0.6278483271598816,-9.623405456542969,1.7793982028961182
1701713480928075500,6.450075439453125,-0.6278991103172302,-9.623294830322266,1.7799800634384155
1701713480937669600,6.459669677734375,-0.6280562281608582,-9.623260498046875,1.7801063060760498
1701713480947264800,6.4692646484375,-0.628183901309967,-9.623286247253418,1.779924750328064
1701713480956859000,6.47885888671875,-0.6282272338867188,-9.623359680175781,1.7795120477676392
1701713480966452500,6.488452392578125,-0.6281596422195435,-9.623451232910156,1.7790417671203613
1701713480976046600,6.498046630859375,-0.6278440952301025,-9.623485565185547,1.7789688110351562
1701713480985641700,6.507641845703125,-0.6273089051246643,-9.623496055603027,1.779100775718689
1701713480995235800,6.51723583984375,-0.6269253492355347,-9.623514175415039,1.779133677482605
1701713481004829400,6.526829345703125,-0.6264259219169617,-9.623493194580078,1.7794252634048462
1701713481014423600,6.536423583984375,-0.626018762588501,-9.623501777648926,1.7795244455337524
1701713481024018700,6.546018798828125,-0.6255925297737122,-9.623595237731934,1.77916419506073
1701713481033612800,6.55561279296875,-0.6249421834945679,-9.623689651489258,1.778878092765808
1701713481043206400,6.565206298828125,-0.6246706247329712,-9.623805046081543,1.7783573865890503
1701713481052800500,6.574800537109375,-0.6241967678070068,-9.623953819274902,1.7777152061462402
1701713481062395600,6.584395751953125,-0.6237794160842896,-9.624114990234375,1.7769907712936401
1701713481071989800,6.59398974609375,-0.6235520839691162,-9.624259948730469,1.776282548904419
1701713481081583400,6.603583251953125,-0.6231233477592468,-9.624438285827637,1.775466799736023
1701713481091177500,6.613177490234375,-0.6228755116462708,-9.624571800231934,1.7748363018035889
1701713481100772600,6.622772705078125,-0.6226417422294617,-9.62470817565918,1.774172306060791
1701713481110366700,6.63236669921875,-0.6223952770233154,-9.624896049499512,1.7732397317886353
1701713481119960300,6.641960205078125,-0.6224356889724731,-9.625070571899414,1.7722846269607544
1701713481129554400,6.651554443359375,-0.6223403215408325,-9.625213623046875,1.7715357542037964
1701713481139149600,6.661149658203125,-0.6223582625389099,-9.625297546386719,1.7710766792297363
1701713481148743700,6.67074365234375,-0.6220951080322266,-9.625377655029297,1.7707304954528809
1701713481158337300,6.680337158203125,-0.6218975782394409,-9.625446319580078,1.7704271078109741
1701713481167931400,6.689931396484375,-0.6219868063926697,-9.625499725341797,1.770100474357605
1701713481177526500,6.699526611328125,-0.621933102607727,-9.625615119934082,1.7694910764694214
1701713481187120600,6.70912060546875,-0.6218686103820801,-9.625743865966797,1.7688164710998535
1701713481196714200,6.71871435546875,-0.6215055584907532,-9.625853538513184,1.7683501243591309
1701713481206308400,6.728308349609375,-0.6210543513298035,-9.625980377197266,1.7678171396255493
1701713481215903500,6.737903564453125,-0.6205597519874573,-9.626123428344727,1.7672101259231567
1701713481225497600,6.74749755859375,-0.6199403405189514,-9.626283645629883,1.7665562629699707
1701713481235091200,6.75709130859375,-0.6191189885139465,-9.626437187194824,1.7660046815872192
1701713481244685300,6.766685302734375,-0.6180899143218994,-9.626619338989258,1.7653793096542358
1701713481254280400,6.776280517578125,-0.6168858408927917,-9.626813888549805,1.7647372484207153
1701713481263874600,6.78587451171875,-0.6156883239746094,-9.626971244812012,1.764296531677246
1701713481273468200,6.79546826171875,-0.6144504547119141,-9.627129554748535,1.7638611793518066
1701713481283062300,6.805062255859375,-0.6137838363647461,-9.627272605895996,1.7633165121078491
1701713481292657400,6.814657470703125,-0.6133981347084045,-9.627373695373535,1.762894868850708
1701713481302251500,6.82425146484375,-0.613605260848999,-9.627400398254395,1.7626779079437256
1701713481311845000,6.83384521484375,-0.6139679551124573,-9.627484321594238,1.7620985507965088
1701713481321439200,6.843439208984375,-0.6143587827682495,-9.627565383911133,1.7615125179290771
1701713481331034400,6.853034423828125,-0.6146528124809265,-9.627640724182129,1.7610021829605103
1701713481340628500,6.86262841796875,-0.6148703098297119,-9.62774658203125,1.7603492736816406
1701713481350222000,6.87222216796875,-0.6150598526000977,-9.627885818481445,1.7595151662826538
1701713481359816200,6.881816162109375,-0.6152621507644653,-9.628008842468262,1.758771538734436
1701713481369411300,6.891411376953125,-0.6150974035263062,-9.6281099319458,1.7582813501358032
1701713481379005400,6.90100537109375,-0.6145648956298828,-9.62819766998291,1.757981777191162
1701713481388599000,6.91059912109375,-0.6143796443939209,-9.628270149230957,1.757648229598999
1701713481398193200,6.920193115234375,-0.6141887903213501,-9.628299713134766,1.7575595378875732
1701713481407788300,6.929788330078125,-0.614425003528595,-9.628297805786133,1.7574889659881592
1701713481417382400,6.93938232421875,-0.6144598722457886,-9.628209114074707,1.7579578161239624
1701713481426976000,6.94897607421875,-0.6145352125167847,-9.628125190734863,1.7583893537521362
1701713481436570000,6.958570068359375,-0.6141747236251831,-9.628080368041992,1.7587600946426392
1701713481446165200,6.968165283203125,-0.6134029030799866,-9.628040313720703,1.7592533826828003
1701713481455759400,6.97775927734375,-0.6127861738204956,-9.628032684326172,1.759508490562439
1701713481465353000,6.98735302734375,-0.612095057964325,-9.628003120422363,1.7599107027053833
1701713481474947000,6.996947021484375,-0.6115202307701111,-9.6279935836792,1.7601609230041504
1701713481484542200,7.006542236328125,-0.6109113693237305,-9.62800121307373,1.7603334188461304
1701713481494136300,7.01613623046875,-0.6110281348228455,-9.627989768981934,1.7603533267974854
1701713481503730000,7.02572998046875,-0.611420214176178,-9.628013610839844,1.7600895166397095
1701713481513324000,7.035323974609375,-0.612125813961029,-9.627997398376465,1.7599314451217651
1701713481522919200,7.044919189453125,-0.6129111647605896,-9.628028869628906,1.7594853639602661
1701713481532513300,7.05451318359375,-0.6140603423118591,-9.627999305725098,1.7592439651489258
1701713481542107000,7.06410693359375,-0.6153200268745422,-9.627910614013672,1.7592921257019043
1701713481551701000,7.073700927734375,-0.6165536046028137,-9.627739906311035,1.7597894668579102
1701713481561296100,7.083296142578125,-0.6179461479187012,-9.627549171447754,1.7603458166122437
1701713481570890200,7.09289013671875,-0.6192208528518677,-9.627333641052246,1.761078953742981
1701713481580483800,7.10248388671875,-0.6207712888717651,-9.627117156982422,1.761716365814209
1701713481590078000,7.112077880859375,-0.6222745776176453,-9.626847267150879,1.7626632452011108
1701713481599673000,7.121673095703125,-0.6237080097198486,-9.626564979553223,1.7636955976486206
1701713481609267500,7.131267333984375,-0.6251460909843445,-9.626274108886719,1.7647730112075806
1701713481618860800,7.14086083984375,-0.626786470413208,-9.62593936920166,1.7660174369812012
1701713481628455000,7.150454833984375,-0.628577709197998,-9.625543594360352,1.7675343751907349
1701713481638050000,7.160050048828125,-0.6306974291801453,-9.625121116638184,1.7690818309783936
1701713481647644200,7.16964404296875,-0.632924497127533,-9.624692916870117,1.7706176042556763
1701713481657237800,7.17923779296875,-0.6349275708198547,-9.624241828918457,1.772349238395691
1701713481666832000,7.188831787109375,-0.63707435131073,-9.623845100402832,1.7737373113632202
1701713481676427000,7.198427001953125,-0.6390941739082336,-9.623414039611816,1.7753432989120483
1701713481686021000,7.208021240234375,-0.6408076286315918,-9.622953414916992,1.7772223949432373
1701713481695614700,7.21761474609375,-0.6424279808998108,-9.622553825378418,1.77879798412323
1701713481705208800,7.227208740234375,-0.6439158320426941,-9.622100830078125,1.7807073593139648
1701713481714804000,7.236803955078125,-0.6453739404678345,-9.621637344360352,1.7826863527297974
1701713481724398300,7.2463984375,-0.6471551656723022,-9.621088981628418,1.7850021123886108
1701713481733991700,7.25599169921875,-0.6489555835723877,-9.620478630065918,1.7876367568969727
1701713481743586000,7.2655859375,-0.6509413123130798,-9.619776725769043,1.7906852960586548
1701713481753181000,7.275180908203125,-0.6531400680541992,-9.619056701660156,1.7937544584274292
1701713481762775000,7.284775146484375,-0.6550722122192383,-9.618285179138184,1.7971779108047485
1701713481772368600,7.29436865234375,-0.6568303108215332,-9.61745834350586,1.8009579181671143
1701713481781962800,7.303962646484375,-0.6581407189369202,-9.616650581359863,1.8047902584075928
1701713481791558000,7.313557861328125,-0.6588330268859863,-9.615784645080566,1.8091446161270142
1701713481801152000,7.323152099609375,-0.6596702337265015,-9.614824295043945,1.8139430284500122
1701713481810745600,7.33274560546875,-0.6600050330162048,-9.613855361938477,1.8189440965652466
1701713481820339700,7.342339599609375,-0.659583330154419,-9.612916946411133,1.824053168296814
1701713481829934800,7.351934814453125,-0.6588928699493408,-9.612029075622559,1.8289746046066284
1701713481839529200,7.361529296875,-0.6573106646537781,-9.611234664916992,1.83371102809906
1701713481849122600,7.37112255859375,-0.6548618674278259,-9.610595703125,1.8379325866699219
1701713481858717000,7.380717041015625,-0.6520086526870728,-9.610027313232422,1.841912865638733
1701713481868311800,7.390311767578125,-0.6495338082313538,-9.609532356262207,1.8453693389892578
1701713481877906000,7.399906005859375,-0.6487167477607727,-9.608985900878906,1.8484995365142822
1701713481887499500,7.40949951171875,-0.650156557559967,-9.608434677124023,1.8508573770523071
1701713481897093600,7.41909375,-0.6530306339263916,-9.607897758483887,1.852629542350769
1701713481906688800,7.428688720703125,-0.6543214917182922,-9.607498168945312,1.854244589805603
1701713481916283000,7.438282958984375,-0.6535652875900269,-9.6072359085083,1.8558710813522339
1701713481925876500,7.44787646484375,-0.6513065695762634,-9.607037544250488,1.8576937913894653
1701713481935470600,7.457470703125,-0.647618293762207,-9.607015609741211,1.8590887784957886
1701713481945065700,7.467065673828125,-0.6428571939468384,-9.607081413269043,1.86040198802948
1701713481954659800,7.476659912109375,-0.6348499655723572,-9.607446670532227,1.8612654209136963
1701713481964253400,7.48625341796875,-0.6233605146408081,-9.608108520507812,1.8617364168167114
1701713481973847800,7.495847900390625,-0.6089479923248291,-9.609162330627441,1.861068606376648
1701713481983442700,7.505442626953125,-0.5927983522415161,-9.610664367675781,1.8585261106491089
1701713481993037000,7.515037109375,-0.5764005780220032,-9.612754821777344,1.8528590202331543
1701713482002630400,7.52463037109375,-0.5602559447288513,-9.615361213684082,1.8442679643630981
1701713482012224800,7.534224853515625,-0.5437195301055908,-9.61841106414795,1.8332833051681519
1701713482021819600,7.543819580078125,-0.5270968675613403,-9.62177848815918,1.8204214572906494
1701713482031413800,7.553413818359375,-0.5120112299919128,-9.625295639038086,1.8060753345489502
1701713482041007400,7.56300732421875,-0.49477124214172363,-9.629050254821777,1.7907997369766235
1701713482050601700,7.572601806640625,-0.4734036922454834,-9.633212089538574,1.7741241455078125
1701713482060196600,7.582196533203125,-0.44801273941993713,-9.637706756591797,1.7562174797058105
1701713482069790700,7.591790771484375,-0.4189150333404541,-9.642675399780273,1.73600172996521
1701713482079384300,7.60138427734375,-0.3886648416519165,-9.647918701171875,1.7137649059295654
1701713482088978700,7.610978759765625,-0.35834357142448425,-9.653456687927246,1.6890078783035278
1701713482098573600,7.620573486328125,-0.32628193497657776,-9.659106254577637,1.6630079746246338
1701713482108167700,7.630167724609375,-0.28930795192718506,-9.665674209594727,1.631388545036316
1701713482117761300,7.63976123046875,-0.2500137984752655,-9.670838356018066,1.6070984601974487
1701713482127355600,7.649355712890625,-0.21557646989822388,-9.676190376281738,1.5796420574188232
1701713482136950500,7.658950439453125,-0.18594859540462494,-9.681697845458984,1.5493624210357666
1701713482146545000,7.668544921875,-0.15838994085788727,-9.687440872192383,1.516174077987671
1701713482156138200,7.67813818359375,-0.13078932464122772,-9.693018913269043,1.4827873706817627
1701713482165732600,7.687732666015625,-0.10743270069360733,-9.697664260864258,1.4540139436721802
1701713482175327500,7.697327392578125,-0.0897214487195015,-9.701687812805176,1.4281331300735474
1701713482184921600,7.706921630859375,-0.07810482382774353,-9.704768180847168,1.4077463150024414
1701713482194515200,7.71651513671875,-0.06612423807382584,-9.707158088684082,1.391797423362732
1701713482204109600,7.726109619140625,-0.057196032255887985,-9.70888900756836,1.3800643682479858
1701713482213704400,7.735704345703125,-0.05089797452092171,-9.709895133972168,1.3732203245162964
1701713482223298600,7.745298583984375,-0.04820717126131058,-9.70992660522461,1.3730913400650024
1701713482232892200,7.75489208984375,-0.04995084926486015,-9.709182739257812,1.3782848119735718
1701713482242486500,7.764486572265625,-0.05451280251145363,-9.708027839660645,1.3862191438674927
1701713482252081400,7.774081298828125,-0.05639250576496124,-9.706513404846191,1.3967088460922241
1701713482261675800,7.78367578125,-0.05915447697043419,-9.704771995544434,1.4086391925811768
1701713482271269000,7.79326904296875,-0.0481448769569397,-9.703561782836914,1.4173775911331177
1701713482280863500,7.802863525390625,-0.04048393294215202,-9.702742576599121,1.4232076406478882
1701713482290458400,7.812458251953125,-0.03994302079081535,-9.702269554138184,1.4264498949050903
1701713482300052700,7.822052734375,-0.031339921057224274,-9.70187759399414,1.4293292760849
1701713482309646000,7.83164599609375,-0.019566575065255165,-9.701788902282715,1.4301364421844482
1701713482319240400,7.841240478515625,-0.003200029954314232,-9.701732635498047,1.4306495189666748
1701713482328835300,7.85083544921875,0.013531655073165894,-9.701924324035645,1.429288387298584
1701713482338429700,7.8604296875,0.031623996794223785,-9.70182991027832,1.4296443462371826
1701713482348023000,7.87002294921875,0.04897604137659073,-9.701471328735352,1.4315851926803589
1701713482357617400,7.879617431640625,0.05966932326555252,-9.700555801391602,1.437373399734497
1701713482367212300,7.88921240234375,0.06391594558954239,-9.698752403259277,1.4493123292922974
1701713482376806700,7.898806640625,0.061279065907001495,-9.696032524108887,1.467511534690857
1701713482386400000,7.90839990234375,0.05488402023911476,-9.692566871643066,1.4904736280441284
1701713482395994400,7.917994384765625,0.04693774878978729,-9.688983917236328,1.5138649940490723
1701713482405589200,7.92758935546875,0.04217277467250824,-9.68541431427002,1.53667151927948
1701713482415183600,7.93718359375,0.043153855949640274,-9.680964469909668,1.5644422769546509
1701713482424777000,7.94677685546875,0.04642196744680405,-9.675954818725586,1.595029592514038
1701713482434371300,7.956371337890625,0.054567646235227585,-9.669754028320312,1.6319580078125
1701713482443966500,7.965966552734375,0.06339500844478607,-9.662738800048828,1.6726819276809692
1701713482453560600,7.975560546875,0.07400772720575333,-9.655047416687012,1.7160916328430176
1701713482463154000,7.98515380859375,0.08882663398981094,-9.64705753326416,1.7597635984420776
1701713482472748300,7.994748291015625,0.09794692695140839,-9.639142990112305,1.8021451234817505
1701713482482343400,8.004343505859374,0.10143179446458817,-9.630863189697266,1.8456875085830688
1701713482491937500,8.0139375,0.10124284774065018,-9.622706413269043,1.8877668380737305
1701713482501531000,8.02353076171875,0.09137065708637238,-9.614930152893066,1.9274733066558838
1701713482511125200,8.033125244140624,0.07614605873823166,-9.606996536254883,1.967281460762024
1701713482520720100,8.04272021484375,0.05924990400671959,-9.59892749786377,2.0068540573120117
1701713482530314500,8.052314453125,0.03857384994626045,-9.590591430664062,2.046813488006592
1701713482539907800,8.061907958984374,0.014697130769491196,-9.582364082336426,2.0853004455566406
1701713482549502200,8.071502197265625,-0.009956767782568932,-9.574301719665527,2.1220362186431885
1701713482559097300,8.081097412109376,-0.034724537283182144,-9.566587448120117,2.156290054321289
1701713482568691500,8.09069140625,-0.06089621037244797,-9.559136390686035,2.1885132789611816
1701713482578284800,8.100284912109375,-0.09169930964708328,-9.551690101623535,2.2197303771972656
1701713482587879200,8.109879150390626,-0.12650874257087708,-9.542767524719238,2.2560946941375732
1701713482597474300,8.119474365234375,-0.1584576666355133,-9.530549049377441,2.3051891326904297
1701713482607068400,8.129068359375,-0.1846204698085785,-9.516402244567871,2.3610143661499023
1701713482616661800,8.138661865234376,-0.21098296344280243,-9.50281047821045,2.412977695465088
1701713482626256100,8.148256103515624,-0.24091970920562744,-9.491011619567871,2.4562273025512695
1701713482635851300,8.157851318359375,-0.2733791768550873,-9.481350898742676,2.4899022579193115
1701713482645445400,8.1674453125,-0.30584877729415894,-9.474077224731445,2.5137062072753906
1701713482655038700,8.177038818359375,-0.34225085377693176,-9.469229698181152,2.5272433757781982
1701713482664633000,8.186633056640625,-0.3820294737815857,-9.466949462890625,2.530080795288086
1701713482674228200,8.196228271484374,-0.4282050132751465,-9.466647148132324,2.5238094329833984
1701713482683822300,8.205822265625,-0.48491719365119934,-9.468308448791504,2.507263422012329
1701713482693416000,8.215416015625,-0.5560798645019531,-9.471720695495605,2.4794535636901855
1701713482703010000,8.225010009765626,-0.6464323401451111,-9.476249694824219,2.4399149417877197
1701713482712605200,8.234605224609375,-0.7438995838165283,-9.478954315185547,2.401336193084717
1701713482722199300,8.24419921875,-0.8463600277900696,-9.478055000305176,2.3707683086395264
1701713482731793000,8.25379296875,-0.950967013835907,-9.4727144241333,2.3523917198181152
1701713482741387000,8.263386962890625,-1.0560775995254517,-9.462960243225098,2.3467984199523926
1701713482750982100,8.272982177734375,-1.1607248783111572,-9.449711799621582,2.350756883621216
1701713482760576300,8.282576171875,-1.2674349546432495,-9.433477401733398,2.3608238697052
1701713482770169900,8.292169921875,-1.3737897872924805,-9.415021896362305,2.3749637603759766
1701713482779764000,8.301763916015625,-1.4800957441329956,-9.395569801330566,2.388087749481201
1701713482789359000,8.311359130859374,-1.5821930170059204,-9.37542724609375,2.401749610900879
1701713482798953200,8.320953125,-1.682676911354065,-9.354643821716309,2.4144606590270996
1701713482808546800,8.330546875,-1.7798528671264648,-9.333281517028809,2.4274189472198486
1701713482818141000,8.340140869140624,-1.873916745185852,-9.310894012451172,2.4425580501556396
1701713482827736000,8.349736083984375,-1.9648886919021606,-9.28712272644043,2.4614970684051514
1701713482837330200,8.359330078125,-2.0540645122528076,-9.261703491210938,2.484361171722412
1701713482846923800,8.368923828125,-2.140029191970825,-9.234710693359375,2.51212739944458
1701713482856518000,8.378517822265625,-2.2213377952575684,-9.206384658813477,2.545297145843506
1701713482866113000,8.388113037109376,-2.2966954708099365,-9.176895141601562,2.5846059322357178
1701713482875707400,8.397707275390625,-2.367011547088623,-9.145933151245117,2.6305079460144043
1701713482885300700,8.40730078125,-2.4329276084899902,-9.11384105682373,2.68125581741333
1701713482894895000,8.41689501953125,-2.494903087615967,-9.081275939941406,2.7342777252197266
1701713482904490000,8.426489990234375,-2.5543088912963867,-9.04860782623291,2.7872161865234375
1701713482914084000,8.436083984375,-2.6126179695129395,-9.015962600708008,2.838491439819336
1701713482923677700,8.445677734375,-2.669642448425293,-8.983750343322754,2.8871495723724365
1701713482933271800,8.455271728515624,-2.7240240573883057,-8.952774047851562,2.9322195053100586
1701713482942867000,8.464866943359375,-2.7767493724823,-8.922775268554688,2.973909378051758
1701713482952461000,8.4744609375,-2.8280835151672363,-8.893768310546875,3.0121796131134033
1701713482962054700,8.4840546875,-2.8775994777679443,-8.866034507751465,3.0468413829803467
1701713482971649000,8.49364892578125,-2.9247488975524902,-8.839775085449219,3.0780861377716064
1701713482981244000,8.503243896484374,-2.9694595336914062,-8.815163612365723,3.105733871459961
1701713482990838000,8.512838134765625,-3.0110366344451904,-8.79249382019043,3.129871368408203
1701713483000431600,8.522431640625,-3.049126386642456,-8.771892547607422,3.1507327556610107
1701713483010026000,8.53202587890625,-3.0833888053894043,-8.7535400390625,3.1683833599090576
1701713483019620900,8.541620849609375,-3.113459587097168,-8.737629890441895,3.182856798171997
1701713483029215000,8.551215087890625,-3.1391184329986572,-8.724214553833008,3.1944334506988525
1701713483038808600,8.56080859375,-3.1610188484191895,-8.713050842285156,3.2032928466796875
1701713483048403000,8.57040283203125,-3.1797475814819336,-8.704069137573242,3.20917010307312
1701713483057997800,8.579997802734376,-3.1953015327453613,-8.697110176086426,3.212585926055908
1701713483067592200,8.58959228515625,-3.2083377838134766,-8.691841125488281,3.213855266571045
1701713483077185500,8.599185546875,-3.220659017562866,-8.687561988830566,3.2130987644195557
1701713483086780000,8.60877978515625,-3.232280969619751,-8.683530807495117,3.212327241897583
1701713483096374800,8.618374755859374,-3.243863582611084,-8.678983688354492,3.212938070297241
1701713483105969200,8.62796923828125,-3.2578437328338623,-8.67232608795166,3.216768980026245
1701713483115562500,8.6375625,-3.2766458988189697,-8.662516593933105,3.2240943908691406
1701713483125156900,8.647156982421874,-3.3014883995056152,-8.650899887084961,3.229935884475708
1701713483134751700,8.656751708984375,-3.3315374851226807,-8.638884544372559,3.2312419414520264
1701713483144346000,8.66634619140625,-3.363974094390869,-8.626654624938965,3.2303106784820557
1701713483153939500,8.675939453125,-3.3948442935943604,-8.61532211303711,3.2282590866088867
1701713483163533800,8.685533935546875,-3.423768997192383,-8.604610443115234,3.2262799739837646
1701713483173128700,8.695128662109376,-3.451295852661133,-8.594024658203125,3.225163221359253
1701713483182723000,8.70472314453125,-3.478187322616577,-8.583127975463867,3.2252941131591797
1701713483192316400,8.71431640625,-3.5053446292877197,-8.571675300598145,3.226351261138916
1701713483201910800,8.723910888671876,-3.531942367553711,-8.560168266296387,3.2278921604156494
1701713483211505700,8.733505615234375,-3.5575482845306396,-8.548871040344238,3.2297120094299316
1701713483221100000,8.74310009765625,-3.5808117389678955,-8.538551330566406,3.23130202293396
1701713483230693400,8.752693359375,-3.600984573364258,-8.529515266418457,3.2327487468719482
1701713483240287700,8.762287841796875,-3.6177480220794678,-8.521645545959473,3.2347850799560547
1701713483249882600,8.771882568359375,-3.6318233013153076,-8.514532089233398,3.2377419471740723
1701713483259477000,8.78147705078125,-3.643681764602661,-8.508048057556152,3.2414605617523193
1701713483269070300,8.7910703125,-3.6537485122680664,-8.502155303955078,3.2455928325653076
1701713483278664700,8.800664794921875,-3.662367820739746,-8.496973037719727,3.249445676803589
1701713483288259800,8.810259765625,-3.669945478439331,-8.492526054382324,3.252519130706787
1701713483297854000,8.81985400390625,-3.6768741607666016,-8.488804817199707,3.2544093132019043
1701713483307447300,8.829447265625,-3.683290958404541,-8.485648155212402,3.2553820610046387
1701713483317041700,8.839041748046874,-3.6892831325531006,-8.48291301727295,3.2557294368743896
1701713483326636500,8.848636474609375,-3.6948139667510986,-8.480281829833984,3.2563085556030273
1701713483336231000,8.85823095703125,-3.6998789310455322,-8.47756576538086,3.257629632949829
1701713483345824300,8.86782421875,-3.704313278198242,-8.474762916564941,3.2598843574523926
1701713483355418600,8.877418701171875,-3.7080636024475098,-8.471871376037598,3.2631335258483887
1701713483365013800,8.887013671875,-3.7114574909210205,-8.46888256072998,3.26703143119812
1701713483374608000,8.89660791015625,-3.714898109436035,-8.465697288513184,3.2713723182678223
1701713483384201200,8.906201171875,-3.718493700027466,-8.46226692199707,3.276163101196289
1701713483393795600,8.915795654296875,-3.722292184829712,-8.458613395690918,3.2812747955322266
1701713483403390700,8.925390625,-3.726106643676758,-8.454948425292969,3.2863917350769043
1701713483412984800,8.93498486328125,-3.729793071746826,-8.451383590698242,3.2913732528686523
1701713483422578200,8.944578125,-3.7343666553497314,-8.448533058166504,3.2935078144073486
1701713483432172500,8.954172607421874,-3.7386317253112793,-8.445630073547363,3.2961113452911377
1701713483441767700,8.963767578125,-3.741981267929077,-8.44297981262207,3.2990968227386475
1701713483451361800,8.97336181640625,-3.7444169521331787,-8.440512657165527,3.3026461601257324
1701713483460955100,8.982955078125,-3.745708703994751,-8.438529968261719,3.306245803833008
1701713483470549500,8.992549560546875,-3.747297525405884,-8.43632984161377,3.310058355331421
1701713483480144600,9.00214453125,-3.7489430904388428,-8.433873176574707,3.3144516944885254
1701713483489738800,9.01173876953125,-3.750685930252075,-8.43113899230957,3.31943416595459
1701713483499332400,9.021332275390625,-3.75178861618042,-8.428656578063965,3.3244874477386475
1701713483508926500,9.030926513671876,-3.7524871826171875,-8.426445007324219,3.329301595687866
1701713483518521600,9.040521484375,-3.7527451515197754,-8.424528121948242,3.333858013153076
1701713483528115700,9.05011572265625,-3.7531371116638184,-8.422728538513184,3.3379604816436768
1701713483537709300,9.059709228515626,-3.7540106773376465,-8.42070484161377,3.34208607673645
1701713483547303400,9.069303466796875,-3.754948377609253,-8.41874885559082,3.345954418182373
1701713483556898600,9.078898681640625,-3.756040096282959,-8.416579246520996,3.3501853942871094
1701713483566492700,9.08849267578125,-3.756697177886963,-8.414523124694824,3.354609727859497
1701713483576086000,9.0980859375,-3.7568061351776123,-8.412749290466309,3.3589348793029785
1701713483585680400,9.107680419921875,-3.756406784057617,-8.411273002624512,3.3630776405334473
1701713483595275500,9.117275634765624,-3.7553930282592773,-8.41012954711914,3.3670668601989746
1701713483604869600,9.12686962890625,-3.7534468173980713,-8.409319877624512,3.371256113052368
1701713483614463200,9.136463134765625,-3.7510507106781006,-8.40871810913086,3.3754210472106934
1701713483624057300,9.146057373046874,-3.7486236095428467,-8.408112525939941,3.379624128341675
1701713483633652500,9.155652587890625,-3.746105670928955,-8.407605171203613,3.383676290512085
1701713483643246600,9.16524658203125,-3.743443489074707,-8.407217025756836,3.3875837326049805
1701713483652840200,9.174840087890624,-3.740715742111206,-8.406837463378906,3.391537666320801
1701713483662434300,9.184434326171875,-3.738255023956299,-8.406328201293945,3.395508289337158
1701713483672029400,9.194029541015626,-3.7360172271728516,-8.405842781066895,3.3991730213165283
1701713483681623600,9.20362353515625,-3.733994960784912,-8.405120849609375,3.4031779766082764
1701713483691217200,9.213217041015625,-3.731679677963257,-8.404455184936523,3.407356023788452
1701713483700811300,9.222811279296875,-3.7288591861724854,-8.403746604919434,3.412191152572632
1701713483710406400,9.232406494140625,-3.7257206439971924,-8.402887344360352,3.4177303314208984
1701713483720000500,9.24200048828125,-3.7227091789245605,-8.401904106140137,3.4234237670898438
1701713483729594000,9.251593994140626,-3.7201273441314697,-8.40068244934082,3.429225206375122
1701713483739188200,9.261188232421874,-3.7181613445281982,-8.399002075195312,3.4354677200317383
1701713483748783400,9.270783447265625,-3.7166988849639893,-8.397014617919922,3.4419004917144775
1701713483758377500,9.28037744140625,-3.7159676551818848,-8.394698143005371,3.448334217071533
1701713483767971000,9.28997119140625,-3.71577525138855,-8.392230987548828,3.454540252685547
1701713483777565200,9.299565185546875,-3.716214656829834,-8.389721870422363,3.4601593017578125
1701713483787160300,9.309160400390626,-3.716935634613037,-8.387369155883789,3.465085506439209
1701713483796754700,9.318754638671875,-3.71722149848938,-8.385212898254395,3.469993829727173
1701713483806348000,9.32834814453125,-3.7174103260040283,-8.38316535949707,3.4747345447540283
1701713483815942100,9.337942138671876,-3.717376470565796,-8.381110191345215,3.4797286987304688
1701713483825537300,9.347537353515625,-3.7171592712402344,-8.379151344299316,3.484673023223877
1701713483835131400,9.35713134765625,-3.716803789138794,-8.377413749694824,3.4892265796661377
1701713483844725000,9.36672509765625,-3.716463804244995,-8.375822067260742,3.493405818939209
1701713483854319000,9.376319091796875,-3.716160774230957,-8.374375343322754,3.497196912765503
1701713483863914200,9.385914306640625,-3.7163000106811523,-8.372852325439453,3.5006911754608154
1701713483873508400,9.39550830078125,-3.717095375061035,-8.371047019958496,3.504163980484009
1701713483883102000,9.40510205078125,-3.7184388637542725,-8.369094848632812,3.5073986053466797
1701713483892696000,9.414696044921875,-3.719980001449585,-8.367093086242676,3.510540008544922
1701713483902291200,9.424291259765624,-3.721605062484741,-8.365147590637207,3.51345157623291
1701713483911885300,9.43388525390625,-3.72273325920105,-8.363493919372559,3.5161921977996826
1701713483921479000,9.44347900390625,-3.723579168319702,-8.362088203430176,3.518641233444214
1701713483931073300,9.4530732421875,-3.723783493041992,-8.36112117767334,3.520720958709717
1701713483940668200,9.462668212890625,-3.7238752841949463,-8.360333442687988,3.5224945545196533
1701713483950262500,9.472262451171876,-3.72347092628479,-8.359708786010742,3.5244007110595703
1701713483959855900,9.48185595703125,-3.7226498126983643,-8.359118461608887,3.5266706943511963
1701713483969450200,9.4914501953125,-3.722153902053833,-8.358292579650879,3.52915096282959
1701713483979045000,9.501045166015626,-3.721334934234619,-8.35745906829834,3.531984806060791
1701713483988639200,9.51063916015625,-3.720473527908325,-8.356603622436523,3.5349178314208984
1701713483998232800,9.52023291015625,-3.7198877334594727,-8.356019973754883,3.536914825439453
1701713484007827200,9.5298271484375,-3.7198193073272705,-8.35539722442627,3.5384562015533447
1701713484017422000,9.539422119140625,-3.7197158336639404,-8.354992866516113,3.5395185947418213
1701713484027016200,9.54901611328125,-3.719879150390625,-8.35459041595459,3.5402979850769043
1701713484036609800,9.55860986328125,-3.7202577590942383,-8.354194641113281,3.5408356189727783
1701713484046204200,9.5682041015625,-3.7209525108337402,-8.353714942932129,3.541234254837036
1701713484055799000,9.577799072265625,-3.7220287322998047,-8.353270530700684,3.541152000427246
1701713484065393400,9.587393310546876,-3.723193883895874,-8.352781295776367,3.5410804748535156
1701713484074986800,9.59698681640625,-3.723952531814575,-8.352599143981934,3.540715217590332
1701713484084581000,9.6065810546875,-3.724686622619629,-8.352508544921875,3.540156364440918
1701713484094176000,9.616176025390626,-3.7255196571350098,-8.352560043334961,3.539156913757324
1701713484103770400,9.625770263671875,-3.726472854614258,-8.352561950683594,3.538147211074829
1701713484113363700,9.63536376953125,-3.7273221015930176,-8.352643013000488,3.537062644958496
1701713484122958000,9.6449580078125,-3.7281808853149414,-8.352596282958984,3.536264657974243
1701713484132553000,9.654552978515625,-3.7293174266815186,-8.352458953857422,3.5353944301605225
1701713484142147000,9.66414697265625,-3.7307868003845215,-8.352151870727539,3.534569263458252
1701713484151740700,9.67374072265625,-3.7326478958129883,-8.351682662963867,3.533714532852173
1701713484161335000,9.6833349609375,-3.734517812728882,-8.35112190246582,3.5330617427825928
1701713484170930000,9.692929931640625,-3.736307144165039,-8.350573539733887,3.532465934753418
1701713484180524000,9.70252392578125,-3.7378416061401367,-8.350114822387695,3.531928300857544
1701713484190117600,9.71211767578125,-3.73903226852417,-8.349884033203125,3.531210422515869
1701713484199712000,9.7217119140625,-3.739769697189331,-8.34975528717041,3.5307369232177734
1701713484209307000,9.731306884765624,-3.7400593757629395,-8.349796295166016,3.5303332805633545
1701713484218901200,9.7409013671875,-3.739915370941162,-8.34994125366211,3.5301406383514404
1701713484228494600,9.75049462890625,-3.7394163608551025,-8.349995613098145,3.5305418968200684
1701713484238089000,9.7600888671875,-3.738909959793091,-8.349905967712402,3.5312893390655518
1701713484247683800,9.769683837890625,-3.738274097442627,-8.349767684936523,3.532289981842041
1701713484257278200,9.7792783203125,-3.7374444007873535,-8.34967041015625,3.5333988666534424
1701713484266871600,9.78887158203125,-3.7370448112487793,-8.3494873046875,3.534252643585205
1701713484276466000,9.7984658203125,-3.736506462097168,-8.34936809539795,3.5351030826568604
1701713484286060800,9.808060791015626,-3.7359724044799805,-8.349203109741211,3.5360586643218994
1701713484295655200,9.8176552734375,-3.7356674671173096,-8.348907470703125,3.537076473236084
1701713484305248500,9.82724853515625,-3.7349812984466553,-8.348769187927246,3.5381264686584473
1701713484314843000,9.8368427734375,-3.7341949939727783,-8.348846435546875,3.5387773513793945
1701713484324437800,9.846437744140625,-3.7334725856781006,-8.348917007446289,3.539372444152832
1701713484334032100,9.8560322265625,-3.7323806285858154,-8.349172592163086,3.5399200916290283
1701713484343625500,9.86562548828125,-3.7310073375701904,-8.349639892578125,3.540264844894409
1701713484353219800,9.8752197265625,-3.7293930053710938,-8.350054740905762,3.540989398956299
1701713484362814700,9.884814697265625,-3.7272908687591553,-8.350499153137207,3.542156457901001
1701713484372409000,9.8944091796875,-3.7253291606903076,-8.35087776184082,3.543323516845703
1701713484382002400,9.90400244140625,-3.7233998775482178,-8.351317405700684,3.5443179607391357
1701713484391596800,9.9135966796875,-3.7212228775024414,-8.351902961730957,3.5452229976654053
1701713484401191700,9.923191650390624,-3.7187225818634033,-8.352618217468262,3.546159029006958
1701713484410786000,9.9327861328125,-3.7158079147338867,-8.353520393371582,3.547091484069824
1701713484420379400,9.94237939453125,-3.712519884109497,-8.35458755493164,3.548020601272583
1701713484429973800,9.951973876953126,-3.709101438522339,-8.355704307556152,3.5489652156829834
1701713484439568600,9.961568603515625,-3.706084966659546,-8.356393814086914,3.5504953861236572
1701713484449163000,9.9711630859375,-3.703643560409546,-8.356473922729492,3.5528509616851807
1701713484458756400,9.98075634765625,-3.7021844387054443,-8.356257438659668,3.554880142211914
1701713484468350700,9.990350830078125,-3.7012557983398438,-8.355923652648926,3.556631088256836
1701713484477945600,9.999945556640625,-3.7003355026245117,-8.355781555175781,3.5579240322113037
1701713484487540000,10.0095400390625,-3.6993813514709473,-8.355724334716797,3.5590481758117676
1701713484497133300,10.01913330078125,-3.6982011795043945,-8.355807304382324,3.5600810050964355
1701713484506727700,10.028727783203125,-3.69756817817688,-8.355622291564941,3.5611753463745117
1701713484516322600,10.038322509765624,-3.697735548019409,-8.355427742004395,3.561458110809326
1701713484525917000,10.0479169921875,-3.6984195709228516,-8.35502815246582,3.5616841316223145
1701713484535510300,10.05751025390625,-3.6988492012023926,-8.354981422424316,3.5613465309143066
1701713484545104600,10.067104736328124,-3.6993155479431152,-8.354935646057129,3.560969114303589
1701713484554699500,10.076699462890625,-3.6998846530914307,-8.355072975158691,3.560054302215576
1701713484564294000,10.0862939453125,-3.7005763053894043,-8.355226516723633,3.5589771270751953
1701713484573887200,10.09588720703125,-3.7015202045440674,-8.355328559875488,3.5577566623687744
1701713484583481600,10.105481689453125,-3.7029170989990234,-8.355306625366211,3.55635142326355
1701713484593076500,10.115076416015626,-3.7046823501586914,-8.355213165283203,3.5547327995300293
1701713484602670800,10.1246708984375,-3.7071399688720703,-8.354887962341309,3.5529353618621826
1701713484612264200,10.13426416015625,-3.7099499702453613,-8.354521751403809,3.55086088180542
1701713484621858600,10.143858642578126,-3.7131941318511963,-8.354020118713379,3.5486514568328857
1701713484631453400,10.153453369140625,-3.7166097164154053,-8.353270530700684,3.546840190887451
1701713484641047800,10.1630478515625,-3.7196290493011475,-8.35236644744873,3.5458030700683594
1701713484650641200,10.17264111328125,-3.7221405506134033,-8.351354598999023,3.5455524921417236
1701713484660235500,10.182235595703125,-3.7241697311401367,-8.35037612915039,3.545722484588623
1701713484669830400,10.191830322265625,-3.7257463932037354,-8.34945011138916,3.5462498664855957
1701713484679424800,10.2014248046875,-3.7271597385406494,-8.348529815673828,3.546929359436035
1701713484689018000,10.21101806640625,-3.7287731170654297,-8.347665786743164,3.5472700595855713
1701713484698612500,10.220612548828125,-3.7306997776031494,-8.346579551696777,3.547797441482544
1701713484708207600,10.23020751953125,-3.7322065830230713,-8.34575080871582,3.548163652420044
1701713484717801700,10.2398017578125,-3.733173131942749,-8.34510326385498,3.5486702919006348
1701713484727395000,10.24939501953125,-3.733826160430908,-8.3446683883667,3.5490057468414307
1701713484736989400,10.258989501953126,-3.734161138534546,-8.34457015991211,3.5488858222961426
1701713484746584600,10.26858447265625,-3.7340781688690186,-8.344782829284668,3.548469305038452
1701713484756178700,10.2781787109375,-3.7342448234558105,-8.344982147216797,3.547828197479248
1701713484765772000,10.28777197265625,-3.7348129749298096,-8.345024108886719,3.547128915786743
1701713484775366400,10.297366455078125,-3.7355477809906006,-8.345009803771973,3.546391725540161
1701713484784961300,10.306961181640625,-3.7372243404388428,-8.344493865966797,3.545837640762329
1701713484794555600,10.3165556640625,-3.739757776260376,-8.343587875366211,3.5452990531921387
1701713484804149000,10.32614892578125,-3.742812156677246,-8.342395782470703,3.5448803901672363
1701713484813743400,10.335743408203125,-3.746267318725586,-8.34106159210205,3.544370651245117
1701713484823338500,10.34533837890625,-3.7496933937072754,-8.33973503112793,3.543870210647583
1701713484832932600,10.3549326171875,-3.753242015838623,-8.338312149047852,3.543459415435791
1701713484842526000,10.36452587890625,-3.756805181503296,-8.33693790435791,3.542917013168335
1701713484852120300,10.374120361328124,-3.76023006439209,-8.335614204406738,3.5423972606658936
1701713484861715500,10.383715576171875,-3.7632551193237305,-8.3343505859375,3.5421597957611084
1701713484871309600,10.3933095703125,-3.76582407951355,-8.33325481414795,3.5420072078704834
1701713484880903000,10.40290283203125,-3.76790189743042,-8.332356452941895,3.5419130325317383
1701713484890497300,10.412497314453125,-3.769657850265503,-8.331480979919434,3.5421032905578613
1701713484900092200,10.422092041015626,-3.771450996398926,-8.330475807189941,3.5425593852996826
1701713484909686500,10.4316865234375,-3.772881507873535,-8.329618453979492,3.5430514812469482
1701713484919279900,10.44127978515625,-3.774136543273926,-8.328813552856445,3.5436062812805176
1701713484928874200,10.450874267578126,-3.7750802040100098,-8.328227043151855,3.543980360031128
1701713484938469400,10.460469482421875,-3.775296449661255,-8.32791519165039,3.5444836616516113
1701713484948063500,10.4700634765625,-3.7747902870178223,-8.328143119812012,3.544485092163086
1701713484957656800,10.47965673828125,-3.7739903926849365,-8.328605651855469,3.5442497730255127
1701713484967251200,10.489251220703125,-3.773897886276245,-8.328838348388672,3.5438032150268555
1701713484976846300,10.498846435546875,-3.7737793922424316,-8.329142570495605,3.5432143211364746
1701713484986440400,10.5084404296875,-3.7743358612060547,-8.329312324523926,3.5422239303588867
1701713484996033800,10.51803369140625,-3.775083065032959,-8.329475402832031,3.541041851043701
1701713485005628200,10.527628173828125,-3.776273488998413,-8.329645156860352,3.5393736362457275
1701713485015223000,10.53722314453125,-3.7778966426849365,-8.329583168029785,3.537785053253174
1701713485024817400,10.5468173828125,-3.779406785964966,-8.329641342163086,3.536036252975464
1701713485034410800,10.55641064453125,-3.7812342643737793,-8.329483032226562,3.534453868865967
1701713485044005000,10.566005126953126,-3.783535957336426,-8.329004287719727,3.533118724822998
1701713485053600300,10.575600341796875,-3.7862191200256348,-8.328344345092773,3.53179931640625
1701713485063194400,10.5851943359375,-3.7891416549682617,-8.327569961547852,3.53049373626709
1701713485072787700,10.59478759765625,-3.7916688919067383,-8.326899528503418,3.529360771179199
1701713485082382000,10.604382080078125,-3.7937095165252686,-8.32667350769043,3.5276999473571777
1701713485091977200,10.613977294921876,-3.7954628467559814,-8.326630592346191,3.525913953781128
1701713485101571300,10.6235712890625,-3.7970030307769775,-8.32667064666748,3.5241634845733643
1701713485111164700,10.63316455078125,-3.7985289096832275,-8.326637268066406,3.5225937366485596
1701713485120759000,10.642759033203125,-3.7996180057525635,-8.326866149902344,3.5208775997161865
1701713485130354200,10.652354248046874,-3.8003571033477783,-8.327208518981934,3.519270896911621
1701713485139948300,10.6619482421875,-3.800935745239258,-8.327535629272461,3.5178725719451904
1701713485149541600,10.671541748046875,-3.8012380599975586,-8.32802963256836,3.5163776874542236
1701713485159136000,10.681135986328124,-3.800715684890747,-8.328815460205078,3.515078067779541
1701713485168731100,10.690731201171875,-3.7998743057250977,-8.329728126525879,3.5138261318206787
1701713485178325200,10.7003251953125,-3.79864501953125,-8.33076000213623,3.5127112865448
1701713485187918600,10.709918701171874,-3.7971692085266113,-8.331876754760742,3.51165509223938
1701713485197513000,10.719512939453125,-3.7955949306488037,-8.33311939239502,3.5104100704193115
1701713485207108000,10.729108154296876,-3.794055938720703,-8.334412574768066,3.5090017318725586
1701713485216702200,10.7387021484375,-3.792957067489624,-8.335594177246094,3.5073816776275635
1701713485226295600,10.748295654296875,-3.792447328567505,-8.336633682250977,3.505462408065796
1701713485235890000,10.757889892578126,-3.7924983501434326,-8.337498664855957,3.5033466815948486
1701713485245485000,10.767485107421875,-3.792835235595703,-8.338218688964844,3.501272678375244
1701713485255079200,10.7770791015625,-3.7929725646972656,-8.33886432647705,3.499586582183838
1701713485264672500,10.786672607421876,-3.7933032512664795,-8.339446067810059,3.497840166091919
1701713485274267000,10.796266845703125,-3.793597936630249,-8.33993911743164,3.496342658996582
1701713485283862000,10.805862060546875,-3.7940099239349365,-8.340394973754883,3.4948081970214844
1701713485293456100,10.8154560546875,-3.7944905757904053,-8.340795516967773,3.49333119392395
1701713485303049500,10.825049560546875,-3.7946133613586426,-8.341236114501953,3.492143392562866
1701713485312643800,10.834643798828125,-3.795036792755127,-8.341693878173828,3.490591526031494
1701713485322239000,10.844239013671874,-3.79567551612854,-8.342087745666504,3.4889543056488037
1701713485331833000,10.8538330078125,-3.796699285507202,-8.342303276062012,3.487325668334961
1701713485341426400,10.863426513671875,-3.7979280948638916,-8.34250259399414,3.48551082611084
1701713485351020800,10.873020751953124,-3.7994399070739746,-8.342554092407227,3.4837379455566406
1701713485360616000,10.882615966796875,-3.8010072708129883,-8.342719078063965,3.4816348552703857
1701713485370210000,10.8922099609375,-3.8025777339935303,-8.342791557312012,3.4797439575195312
1701713485379803400,10.901803466796874,-3.8043785095214844,-8.342716217041016,3.477956533432007
1701713485389397800,10.911397705078125,-3.8063013553619385,-8.342609405517578,3.476107597351074
1701713485398993000,10.920992919921876,-3.8083231449127197,-8.342556953430176,3.4740195274353027
1701713485408587000,10.9305869140625,-3.81081485748291,-8.342707633972168,3.470924139022827
1701713485418180400,10.940180419921875,-3.8141942024230957,-8.342456817626953,3.4678122997283936
1701713485427774700,10.949774658203125,-3.817401885986328,-8.341917037963867,3.465583324432373
1701713485437369900,10.959369873046874,-3.8199920654296875,-8.341134071350098,3.4646127223968506
1701713485446964000,10.9689638671875,-3.82199764251709,-8.34025764465332,3.464509963989258
1701713485456557300,10.978557373046876,-3.8247320652008057,-8.339343070983887,3.4636919498443604
1701713485466151700,10.988151611328124,-3.8272385597229004,-8.338310241699219,3.4634103775024414
1701713485475746800,10.997746826171875,-3.8293676376342773,-8.337313652038574,3.46345591545105
1701713485485341000,11.0073408203125,-3.831385612487793,-8.336374282836914,3.463486671447754
1701713485494934300,11.016934326171874,-3.832982063293457,-8.335531234741211,3.4637489318847656
1701713485504528600,11.026528564453125,-3.8344240188598633,-8.334692001342773,3.4641730785369873
1701713485514123800,11.036123779296876,-3.8357999324798584,-8.333832740783691,3.4647161960601807
1701713485523718000,11.0457177734375,-3.8369300365448,-8.332967758178711,3.465545654296875
1701713485533311200,11.055311279296875,-3.8384323120117188,-8.331902503967285,3.4664418697357178
1701713485542905600,11.064905517578126,-3.84026837348938,-8.33068561553955,3.4673328399658203
1701713485552500700,11.074500732421875,-3.842949867248535,-8.328997611999512,3.468416690826416
1701713485562094800,11.0840947265625,-3.846489667892456,-8.326944351196289,3.469423770904541
1701713485571688200,11.093688232421876,-3.8502776622772217,-8.324616432189941,3.4708058834075928
1701713485581282600,11.103282470703125,-3.8543996810913086,-8.322134017944336,3.4721851348876953
1701713485590877700,11.112877685546875,-3.8584718704223633,-8.319621086120605,3.4736850261688232
1701713485600471800,11.122471923828124,-3.8627612590789795,-8.31710147857666,3.474951982498169
1701713485610065200,11.132065185546875,-3.867006301879883,-8.314650535583496,3.476095199584961
1701713485619659500,11.141659423828125,-3.8706977367401123,-8.312522888183594,3.4770760536193848
1701713485629254400,11.15125439453125,-3.8740923404693604,-8.31057357788086,3.4779562950134277
1701713485638848800,11.160848876953125,-3.877312660217285,-8.308819770812988,3.47855544090271
1701713485648442000,11.170442138671875,-3.880140542984009,-8.307413101196289,3.478759527206421
1701713485658036500,11.180036376953124,-3.882664442062378,-8.306329727172852,3.4785332679748535
1701713485667631600,11.189631591796875,-3.8849985599517822,-8.305559158325195,3.4777677059173584
1701713485677225700,11.199225830078126,-3.887723922729492,-8.304805755615234,3.4765212535858154
1701713485686819000,11.208819091796874,-3.891157388687134,-8.303939819335938,3.4747488498687744
1701713485696413400,11.218413330078125,-3.8952982425689697,-8.302840232849121,3.472733736038208
1701713485706008300,11.22800830078125,-3.900247097015381,-8.301777839660645,3.4697163105010986
1701713485715602700,11.237602783203124,-3.905729293823242,-8.30061149597168,3.4663405418395996
1701713485725196000,11.247196044921875,-3.9111430644989014,-8.299551010131836,3.462775707244873
1701713485734790400,11.256790283203125,-3.91558837890625,-8.2987642288208,3.459635019302368
1701713485744385300,11.26638525390625,-3.9192121028900146,-8.29794979095459,3.4574828147888184
1701713485753979600,11.275979736328125,-3.923086643218994,-8.296906471252441,3.4555933475494385
1701713485763573000,11.285572998046876,-3.9265289306640625,-8.295973777770996,3.4539201259613037
1701713485773167400,11.29516748046875,-3.9290707111358643,-8.295194625854492,3.452902317047119
1701713485782762200,11.30476220703125,-3.932182550430298,-8.2942533493042,3.45162034034729
1701713485792356600,11.314356689453126,-3.9361298084259033,-8.293163299560547,3.4497387409210205
1701713485801950000,11.323949951171874,-3.941068649291992,-8.291807174682617,3.4473609924316406
1701713485811544300,11.33354443359375,-3.9446346759796143,-8.290852546691895,3.4455771446228027
1701713485821139200,11.34313916015625,-3.9472079277038574,-8.289999961853027,3.4446842670440674
1701713485830733600,11.352733642578125,-3.9493508338928223,-8.289217948913574,3.444108247756958
1701713485840327000,11.362326904296875,-3.95168399810791,-8.288220405578613,3.4438343048095703
1701713485849921300,11.37192138671875,-3.9551279544830322,-8.287711143493652,3.441105365753174
1701713485859516200,11.38151611328125,-3.9638876914978027,-8.285492897033691,3.4363625049591064
1701713485869110500,11.391110595703125,-3.9729769229888916,-8.284013748168945,3.4294257164001465
1701713485878703900,11.400703857421876,-3.9801599979400635,-8.283061027526855,3.4233922958374023
1701713485888298200,11.41029833984375,-3.9858791828155518,-8.282204627990723,3.418806552886963
1701713485897893000,11.41989306640625,-3.9905924797058105,-8.281220436096191,3.4156923294067383
1701713485907487500,11.429487548828124,-3.9937119483947754,-8.280486106872559,3.4138243198394775
1701713485917080800,11.439080810546875,-3.996790885925293,-8.279423713684082,3.4127988815307617
1701713485926675200,11.44867529296875,-4.000396251678467,-8.278327941894531,3.411231279373169
1701713485936270000,11.45827001953125,-4.004807472229004,-8.276888847351074,3.4095475673675537
1701713485945864400,11.467864501953125,-4.009359359741211,-8.275164604187012,3.408381700515747
1701713485955457800,11.477457763671875,-4.0135884284973145,-8.273345947265625,3.4078195095062256
1701713485965052200,11.48705224609375,-4.017735481262207,-8.271417617797852,3.4076147079467773
1701713485974647000,11.49664697265625,-4.0215301513671875,-8.269294738769531,3.4082894325256348
1701713485984241400,11.506241455078126,-4.025782108306885,-8.267012596130371,3.408808946609497
1701713485993834800,11.515834716796874,-4.0304179191589355,-8.26474666595459,3.408824920654297
1701713486003429000,11.52542919921875,-4.034632682800293,-8.262656211853027,3.408905267715454
1701713486013024000,11.53502392578125,-4.038053035736084,-8.260931015014648,3.4090347290039062
1701713486022618400,11.544618408203124,-4.038287162780762,-8.260221481323242,3.4104793071746826
1701713486032211700,11.554211669921875,-4.039044380187988,-8.25971508026123,3.4108080863952637
1701713486041806000,11.56380615234375,-4.041443347930908,-8.259174346923828,3.4092769622802734
1701713486051401000,11.57340087890625,-4.04426383972168,-8.25875186920166,3.406952142715454
1701713486060995000,11.5829951171875,-4.047291278839111,-8.258157730102539,3.4047985076904297
1701713486070588700,11.592588623046876,-4.047964096069336,-8.259101867675781,3.4017083644866943
1701713486080183000,11.60218310546875,-4.049655437469482,-8.259577751159668,3.3985369205474854
1701713486089778000,11.61177783203125,-4.0519280433654785,-8.259589195251465,3.3957977294921875
1701713486099372300,11.621372314453126,-4.053124904632568,-8.259929656982422,3.393540859222412
1701713486108965600,11.630965576171874,-4.052925109863281,-8.260717391967773,3.391864061355591
1701713486118560000,11.64056005859375,-4.053081512451172,-8.260835647583008,3.391390800476074
1701713486128155000,11.65015478515625,-4.054956912994385,-8.25997543334961,3.3912429809570312
1701713486137749000,11.6597490234375,-4.056911468505859,-8.258723258972168,3.3919527530670166
1701713486147342600,11.669342529296875,-4.0591044425964355,-8.257181167602539,3.393087148666382
1701713486156937000,11.67893701171875,-4.061114311218262,-8.2553129196167,3.3952248096466064
1701713486166531800,11.68853173828125,-4.063266277313232,-8.253058433532715,3.3981266021728516
1701713486176126200,11.698126220703125,-4.065561294555664,-8.250297546386719,3.402087688446045
1701713486185719600,11.707719482421876,-4.068143367767334,-8.247379302978516,3.4060747623443604
1701713486195313700,11.717313720703125,-4.071960926055908,-8.243396759033203,3.411147117614746
1701713486204908800,11.72690869140625,-4.074707508087158,-8.239455223083496,3.417386770248413
1701713486214503000,11.7365029296875,-4.078050136566162,-8.235604286193848,3.4226765632629395
1701713486224096500,11.746096435546875,-4.082255840301514,-8.232426643371582,3.425304412841797
1701713486233691000,11.75569091796875,-4.091178894042969,-8.227581024169922,3.426301956176758
1701713486243285800,11.76528564453125,-4.103850841522217,-8.220795631408691,3.4274351596832275
1701713486252880000,11.7748798828125,-4.1187896728515625,-8.212225914001465,3.430058002471924
1701713486262473500,11.784473388671875,-4.134402751922607,-8.202181816101074,3.4353034496307373
1701713486272067600,11.794067626953124,-4.15083646774292,-8.190141677856445,3.4442038536071777
1701713486281662700,11.803662841796875,-4.168223857879639,-8.177416801452637,3.453427791595459
1701713486291257000,11.813257080078126,-4.18597412109375,-8.164358139038086,3.4628398418426514
1701713486300850400,11.822850341796874,-4.2053046226501465,-8.150124549865723,3.4729349613189697
1701713486310444800,11.83244482421875,-4.225990295410156,-8.134758949279785,3.4838314056396484
1701713486320039700,11.842039794921876,-4.24990701675415,-8.117047309875488,3.4960291385650635
1701713486329633800,11.8516337890625,-4.278080463409424,-8.095768928527832,3.510974168777466
1701713486339227400,11.861227294921875,-4.309834957122803,-8.072259902954102,3.5262362957000732
1701713486348821500,11.870821533203125,-4.344996452331543,-8.047957420349121,3.5386111736297607
1701713486358416600,11.880416748046875,-4.3829522132873535,-8.022894859313965,3.5487020015716553
1701713486368010800,11.8900107421875,-4.4229230880737305,-7.997998237609863,3.5553011894226074
1701713486377604400,11.899604248046876,-4.464962005615234,-7.972787857055664,3.5593771934509277
1701713486387198500,11.909198486328124,-4.506512641906738,-7.947368144989014,3.5638551712036133
1701713486396793600,11.918793701171875,-4.543113708496094,-7.9243903160095215,3.5685479640960693
1701713486406387700,11.9283876953125,-4.574587821960449,-7.9041032791137695,3.573328971862793
1701713486415981300,11.937981201171874,-4.600560188293457,-7.885309219360352,3.5814998149871826
1701713486425575400,11.947575439453125,-4.618202209472656,-7.868308067321777,3.5961532592773438
1701713486435170600,11.957170654296876,-4.628823757171631,-7.852530002593994,3.6169259548187256
1701713486444764700,11.9667646484375,-4.6353759765625,-7.8376054763793945,3.640827178955078
1701713486454358300,11.976358154296875,-4.638926982879639,-7.8237457275390625,3.6660237312316895
1701713486463952400,11.985952392578126,-4.633376598358154,-7.814220905303955,3.693258762359619
1701713486473547500,11.995547607421875,-4.622430801391602,-7.806922912597656,3.722294330596924
1701713486483141600,12.0051416015625,-4.610615253448486,-7.7973809242248535,3.7567903995513916
1701713486492735000,12.01473486328125,-4.58978796005249,-7.792468070983887,3.792318820953369
1701713486502329300,12.024329345703125,-4.560697555541992,-7.790911674499512,3.830420732498169
1701713486511924500,12.033924560546875,-4.5240397453308105,-7.792850971221924,3.8697447776794434
1701713486521518600,12.0435185546875,-4.478570461273193,-7.798854351043701,3.9103260040283203
1701713486531112000,12.05311181640625,-4.422956466674805,-7.807619571685791,3.9558708667755127
1701713486540706300,12.062706298828125,-4.35634183883667,-7.817232608795166,4.010430812835693
1701713486550301400,12.072301513671874,-4.284235954284668,-7.826564311981201,4.0694708824157715
1701713486559895600,12.0818955078125,-4.212123870849609,-7.833693504333496,4.130576133728027
1701713486569489000,12.091489013671875,-4.132956504821777,-7.841789722442627,4.194685935974121
1701713486579083300,12.101083251953124,-4.0467529296875,-7.851435661315918,4.260180473327637
1701713486588678100,12.11067822265625,-3.949678421020508,-7.871592044830322,4.313753128051758
1701713486598272500,12.1202724609375,-3.83970046043396,-7.900176048278809,4.360539436340332
1701713486607865900,12.129865966796874,-3.7345449924468994,-7.924805164337158,4.406929016113281
1701713486617460200,12.139460205078125,-3.61331844329834,-7.9526166915893555,4.457602500915527
1701713486627055400,12.149055419921876,-3.4877266883850098,-7.979623794555664,4.50907564163208
1701713486636649500,12.1586494140625,-3.363680601119995,-8.007185935974121,4.554228782653809
1701713486646242800,12.168242919921875,-3.242136240005493,-8.038656234741211,4.586822032928467
1701713486655837200,12.177837158203126,-3.111530065536499,-8.067937850952148,4.625705242156982
1701713486665432000,12.18743212890625,-2.962649345397949,-8.09364128112793,4.678255558013916
1701713486675026400,12.1970263671875,-2.785837173461914,-8.123775482177734,4.734317779541016
1701713486684619800,12.206619873046876,-2.5818214416503906,-8.161234855651855,4.785272121429443
1701713486694214100,12.216214111328124,-2.352773427963257,-8.201272010803223,4.834664344787598
1701713486703809000,12.22580908203125,-2.098153829574585,-8.232667922973633,4.898092269897461
1701713486713403400,12.2354033203125,-1.847764015197754,-8.237200736999512,4.990459442138672
1701713486722996700,12.244996826171874,-1.6271003484725952,-8.215258598327637,5.102200984954834
1701713486732591000,12.254591064453125,-1.3949660062789917,-8.181696891784668,5.223435401916504
1701713486742186000,12.26418603515625,-1.1861488819122314,-8.137601852416992,5.3425517082214355
1701713486751780400,12.2737802734375,-0.9825119376182556,-8.073912620544434,5.478776454925537
1701713486761373700,12.283373779296875,-0.757979691028595,-7.987046718597412,5.639409065246582
1701713486770968000,12.292968017578126,-0.5085762143135071,-7.872354507446289,5.825613498687744
1701713486780563000,12.30256298828125,-0.2592121362686157,-7.716879844665527,6.045904636383057
1701713486790157000,12.312156982421875,0.0004466486570890993,-7.539117336273193,6.271529674530029
