time,seconds_elapsed,z,y,x
1701882237844364000,0.084364013671875,6.756433963775635,7.2430739402771,-3.020639419555664
1701882237853957600,0.09395751953125,6.33499813079834,7.073183536529541,-3.55214524269104
1701882237863550200,0.10355029296875,5.851348876953125,6.716353893280029,-3.286242723464966
1701882237873142300,0.113142333984375,5.43709135055542,6.192026615142822,-2.072483539581299
1701882237882735000,0.122735107421875,3.950550079345703,6.558427810668945,-0.758225679397583
1701882237892328400,0.132328369140625,3.122035264968872,7.3292155265808105,-0.43968117237091064
1701882237901921300,0.14192138671875,4.357329845428467,7.470691204071045,-0.3439682424068451
1701882237911513300,0.151513427734375,5.6671013832092285,8.263014793395996,-1.3663017749786377
1701882237921106000,0.16110595703125,6.471388816833496,8.801698684692383,-2.12751841545105
1701882237930699500,0.170699462890625,5.549553871154785,8.76102066040039,-2.103590250015259
1701882237940292000,0.1802919921875,4.740480899810791,8.100302696228027,-1.5290136337280273
1701882237949884200,0.18988427734375,3.684647798538208,7.4204421043396,-0.6002993583679199
1701882237959477000,0.19947705078125,4.01037073135376,7.0683979988098145,-0.2267199456691742
1701882237969070300,0.2090703125,4.869693279266357,7.437191963195801,-0.5784648656845093
1701882237978663200,0.2186630859375,5.836991786956787,7.566404342651367,-0.49710890650749207
1701882237988255000,0.2282548828125,7.06271505355835,7.437191963195801,-0.7749754190444946
1701882237997847800,0.237847900390625,7.548757076263428,7.192824840545654,-2.1418752670288086
1701882238007441400,0.24744140625,7.886444568634033,6.946363925933838,-2.12751841545105
1701882238017034200,0.2570341796875,8.073084831237793,6.865008354187012,-1.7781662940979004
1701882238026626000,0.2666259765625,7.797610759735107,6.824030876159668,-1.4572290182113647
1701882238036219000,0.276218994140625,7.11775016784668,6.721139907836914,-1.5314065217971802
1701882238045812200,0.285812255859375,6.332605361938477,6.706782817840576,-1.8092730045318604
1701882238055405000,0.295405029296875,5.520840167999268,6.776174545288086,-1.9576280117034912
1701882238064996900,0.304996826171875,4.840979099273682,6.840780735015869,-1.9911274909973145
1701882238074589700,0.314589599609375,4.400400638580322,6.929614543914795,-1.9217356443405151
1701882238084183300,0.324183349609375,3.880859136581421,6.989434719085693,-1.588834285736084
1701882238093776000,0.33377587890625,3.2033913135528564,6.963113784790039,-1.0094720125198364
1701882238103368000,0.343367919921875,2.4852454662323,6.996613502502441,-0.30568310618400574
1701882238112960800,0.352960693359375,2.1643080711364746,7.054041385650635,0.17318053543567657
1701882238122554400,0.362554443359375,2.344068765640259,7.087540626525879,0.254536509513855
1701882238132147000,0.37214697265625,2.8277182579040527,7.094718933105469,0.11096715182065964
1701882238141739000,0.381739013671875,3.7109687328338623,7.118647575378418,-0.20997019112110138
1701882238151331600,0.39133154296875,4.678267478942871,7.015756130218506,-0.41575294733047485
1701882238160925200,0.40092529296875,5.264808177947998,6.900900363922119,-0.4133601188659668
1701882238170517800,0.410517822265625,5.207380294799805,6.845566272735596,-0.20997019112110138
1701882238180109800,0.42010986328125,4.776372909545898,6.771389007568359,0.2880360186100006
1701882238189702700,0.42970263671875,4.620839595794678,6.663712024688721,0.8051848411560059
1701882238199296300,0.439296142578125,4.6974101066589355,6.725925445556641,1.2625130414962769
1701882238208888800,0.448888916015625,5.224130153656006,6.500999927520752,1.7772690057754517
1701882238218481000,0.45848095703125,5.863312721252441,6.405287265777588,2.1577277183532715
1701882238228073500,0.468073486328125,6.327819347381592,6.400501251220703,2.50498628616333
1701882238237667000,0.4776669921875,6.655636310577393,6.3000030517578125,2.5887351036071777
1701882238247260000,0.487260009765625,6.878467559814453,6.27577543258667,2.5935206413269043
1701882238256851700,0.496851806640625,7.098607540130615,6.33589506149292,2.4930222034454346
1701882238266444500,0.506444580078125,7.093822002410889,6.548856258392334,2.5624139308929443
1701882238276038000,0.516037841796875,7.177570819854736,6.656533718109131,2.888136863708496
1701882238285630700,0.525630615234375,7.393223762512207,6.510571479797363,3.2231321334838867
1701882238295222500,0.535222412109375,7.481758117675781,6.462714672088623,3.2781670093536377
1701882238304815400,0.5448154296875,7.398009300231934,6.5751776695251465,3.0484559535980225
1701882238314409000,0.554408935546875,7.2421770095825195,6.524928092956543,2.8594231605529785
1701882238324001800,0.564001708984375,7.172784805297852,6.510571479797363,2.8761727809906006
1701882238333593600,0.573593505859375,7.141678333282471,6.57757043838501,3.0245277881622314
1701882238343186400,0.5831865234375,7.206284523010254,6.51535701751709,3.388535976409912
1701882238352779800,0.59277978515625,7.366902828216553,6.355037689208984,3.929612874984741
1701882238362372600,0.60237255859375,7.378866672515869,6.251847267150879,4.278964996337891
1701882238371964700,0.611964599609375,7.453044414520264,6.113063812255859,4.432105541229248
1701882238381557200,0.62155712890625,7.658827304840088,5.842674732208252,4.513761043548584
1701882238391150800,0.63115087890625,7.900801181793213,5.607879161834717,4.396213531494141
1701882238400743700,0.64074365234375,8.049156188964844,5.509773254394531,4.077968120574951
1701882238410335500,0.65033544921875,8.290831565856934,5.332704544067383,3.749852180480957
1701882238419928300,0.65992822265625,8.62612533569336,5.047659397125244,3.6996028423309326
1701882238429522000,0.66952197265625,8.80798053741455,4.8777689933776855,3.8862431049346924
1701882238439114500,0.679114501953125,8.898907661437988,4.77248477935791,4.022933006286621
1701882238448706600,0.68870654296875,8.85344409942627,4.686343193054199,4.24785852432251
1701882238458299100,0.698299072265625,8.719446182250977,4.750949382781982,4.480261325836182
1701882238467892700,0.707892822265625,8.049156188964844,4.695914268493652,4.745864391326904
1701882238477485300,0.7174853515625,7.790432453155518,4.559224605560303,4.89900541305542
1701882238487077400,0.727077392578125,7.737790107727051,4.461118698120117,4.65733003616333
1701882238496670200,0.736670166015625,7.929515361785889,4.468297004699707,4.357928276062012
1701882238506263800,0.746263916015625,7.869694709777832,4.427618980407715,4.698008060455322
1701882238515856400,0.7558564453125,7.747361660003662,4.343870639801025,5.241477966308594
1701882238525448400,0.765448486328125,7.771289825439453,4.205086708068848,5.703591823577881
1701882238535041000,0.775041015625,8.015656471252441,4.073481559753418,6.002694606781006
1701882238544634600,0.784634521484375,8.228617668151855,4.0420756340026855,6.107978820800781
1701882238554227500,0.7942275390625,8.245368003845215,4.020540237426758,6.019444465637207
1701882238563819300,0.8038193359375,8.190332412719727,3.9870407581329346,5.906981945037842
1701882238573412000,0.813412109375,7.881658554077148,4.039682865142822,6.333203315734863
1701882238583005400,0.82300537109375,7.00050163269043,4.19072961807251,6.867101669311523
1701882238592598300,0.832598388671875,6.1363935470581055,4.209872245788574,7.293323516845703
1701882238602190000,0.842190185546875,5.4897332191467285,4.207479476928711,7.582854747772217
1701882238611783000,0.851782958984375,4.898406982421875,4.2122650146484375,7.546962738037109
1701882238621376500,0.86137646484375,4.458127498626709,4.097409725189209,7.2212395668029785
1701882238630969300,0.87096923828125,4.268795490264893,3.929612874984741,6.792924404144287
1701882238640561200,0.88056103515625,4.364508628845215,3.7262229919433594,6.471987247467041
1701882238650154000,0.890154052734375,4.632803916931152,3.5443685054779053,6.278168201446533
1701882238659747300,0.899747314453125,4.814658164978027,3.4244282245635986,6.297310829162598
1701882238669340200,0.909340087890625,4.843372344970703,3.2641091346740723,6.426523208618164
1701882238678932200,0.91893212890625,4.872086048126221,3.055933713912964,6.2877397537231445
1701882238688524800,0.92852490234375,4.745266437530518,2.737389087677002,5.789733409881592
1701882238698118400,0.938118408203125,4.594518661499023,2.3279173374176025,5.179264545440674
1701882238707711000,0.9477109375,4.525126934051514,1.8469599485397339,4.504189491271973
1701882238717303000,0.957302978515625,4.66869592666626,1.3202399015426636,3.6924245357513428
1701882238726895900,0.966895751953125,5.193023204803467,0.6930212378501892,2.8977081775665283
1701882238736489500,0.976489501953125,6.198606967926025,-0.08285148441791534,2.394916296005249
1701882238746082000,0.98608203125,7.328617572784424,-0.8536394834518433,2.215454578399658
1701882238755674000,0.995674072265625,8.319544792175293,-1.7802600860595703,2.220240354537964
1701882238765267000,1.005266845703125,9.11695384979248,-2.6515464782714844,3.115455150604248
1701882238774860300,1.0148603515625,9.4088773727417,-3.5925240516662598,4.674079895019531
1701882238784453000,1.024453125,9.119346618652344,-4.4736809730529785,6.294918060302734
1701882238794045000,1.034044921875,8.041977882385254,-4.978865623474121,8.250751495361328
1701882238803637800,1.0436376953125,6.174678802490234,-5.120042324066162,10.04865837097168
1701882238813231400,1.0532314453125,3.9050865173339844,-4.986044406890869,11.741281509399414
1701882238822824000,1.062823974609375,1.470090389251709,-4.693820953369141,13.860126495361328
1701882238832416000,1.072416015625,-0.8712865710258484,-4.088137626647949,15.607784271240234
1701882238842008600,1.082008544921875,-2.616551637649536,-3.4010982513427734,16.936697006225586
1701882238851602200,1.091602294921875,-3.696312665939331,-2.919841766357422,18.456737518310547
1701882238861195000,1.101195068359375,-4.16799783706665,-2.3931217193603516,19.20389747619629
1701882238870786800,1.110786865234375,-3.983750581741333,-2.292623281478882,18.488143920898438
1701882238880379600,1.120379638671875,-3.624528169631958,-2.1801605224609375,16.56551170349121
1701882238889973200,1.12997314453125,-3.0164520740509033,-2.3069801330566406,14.628820419311523
1701882238899565800,1.13956591796875,-2.013261079788208,-2.6036901473999023,13.38844108581543
1701882238909158000,1.149157958984375,-1.3310075998306274,-2.302194595336914,10.683355331420898
1701882238918750700,1.158750732421875,-0.3732803463935852,-2.6826531887054443,9.6466646194458
1701882238928344000,1.168343994140625,0.6753742098808289,-3.2671003341674805,9.347262382507324
1701882238937937000,1.17793701171875,1.5466607809066772,-3.2742786407470703,8.609973907470703
1701882238947528700,1.18752880859375,2.9353952407836914,-3.0490541458129883,7.788637638092041
1701882238957121500,1.19712158203125,3.6726837158203125,-3.180659532546997,8.083253860473633
1701882238966715100,1.206715087890625,4.144368648529053,-3.484847068786621,8.193324089050293
1701882238976307700,1.2163076171875,4.264009952545166,-3.6858441829681396,7.877471446990967
1701882238985899800,1.225899658203125,4.211368083953857,-3.899104595184326,7.534998416900635
1701882238995492600,1.23549267578125,4.18983268737793,-4.05703067779541,6.92692232131958
1701882239005086000,1.2450859375,4.216153621673584,-4.193421840667725,6.182455539703369
1701882239014678800,1.2546787109375,4.558626174926758,-4.291527271270752,5.861518383026123
1701882239024270600,1.2642705078125,5.0255255699157715,-4.363312244415283,6.000301837921143
1701882239033863400,1.273863525390625,5.3007001876831055,-4.399503707885742,6.175277233123779
1701882239043457000,1.28345703125,5.348556995391846,-4.42821741104126,6.440880298614502
1701882239053049600,1.293049560546875,5.343770980834961,-4.370789527893066,6.723532676696777
1701882239062641700,1.3026416015625,5.159523963928223,-4.260420799255371,6.9891357421875
1701882239072234500,1.312234375,4.850550651550293,-4.2723846435546875,7.338787078857422
1701882239081827800,1.321827880859375,4.649553298950195,-4.389932155609131,7.542177200317383
1701882239091420700,1.331420654296875,4.5083770751953125,-4.42103910446167,8.025826454162598
1701882239101012500,1.341012451171875,4.264009952545166,-4.485645294189453,8.60758113861084
1701882239110605300,1.350605224609375,3.88803768157959,-4.557429790496826,8.815756797790527
1701882239120199000,1.360198974609375,3.416651725769043,-4.631607532501221,8.73918628692627
1701882239129791500,1.36979150390625,2.9449665546417236,-4.760819911956787,8.631509780883789
1701882239139383600,1.379383544921875,2.628814697265625,-4.935794830322266,8.28425121307373
1701882239148976400,1.388976318359375,2.4110679626464844,-5.088935375213623,7.597211837768555
1701882239158569700,1.39856982421875,2.142772674560547,-5.2181477546691895,6.752246379852295
1701882239168162600,1.40816259765625,2.0829520225524902,-5.478965759277344,6.800102710723877
1701882239177754400,1.41775439453125,2.1547367572784424,-5.735296726226807,7.520641803741455
1701882239187347200,1.42734716796875,2.0925233364105225,-5.881258964538574,8.15982437133789
1701882239196940800,1.43694091796875,1.781456470489502,-5.972186088562012,8.404191017150879
1701882239206533600,1.44653369140625,1.3145569562911987,-6.154339790344238,8.360821723937988
1701882239216125400,1.45612548828125,0.924227774143219,-6.233303070068359,8.353643417358398
1701882239225718300,1.46571826171875,0.5485545992851257,-6.2500529289245605,8.521439552307129
1701882239235311900,1.475311767578125,0.1534397453069687,-6.32662296295166,8.552546501159668
1701882239244904400,1.484904541015625,-0.5240281820297241,-6.410371780395508,8.969196319580078
1701882239254496500,1.49449658203125,-1.098604679107666,-6.340980052947998,9.416654586791992
1701882239264089000,1.504089111328125,-1.4291132688522339,-6.230910301208496,9.330513000488281
1701882239273682700,1.5136826171875,-1.6636099815368652,-6.223731517791748,8.973981857299805
1701882239283275500,1.523275634765625,-1.9055840969085693,-6.1710896492004395,8.720044136047363
1701882239292867300,1.532867431640625,-1.8242281675338745,-6.398407936096191,8.425726890563965
1701882239302460200,1.542460205078125,-1.4195420742034912,-6.5491557121276855,7.951648712158203
1701882239312053800,1.5520537109375,-0.7731808423995972,-6.889235496520996,7.362715244293213
1701882239321646300,1.561646240234375,0.11036894470453262,-7.126124858856201,6.747460842132568
1701882239331238400,1.57123828125,0.9864411354064941,-7.2436723709106445,6.081657886505127
1701882239340831000,1.5808310546875,1.695314884185791,-7.435098171234131,5.823233127593994
1701882239350424600,1.590424560546875,2.257927179336548,-7.540382385253906,5.930910110473633
1701882239360017400,1.600017333984375,2.635993242263794,-7.561917781829834,6.09122896194458
1701882239369609200,1.609609130859375,2.8516464233398438,-7.4470624923706055,6.244668960571289
1701882239379202000,1.6192021484375,2.6168506145477295,-7.439883708953857,6.294918060302734
1701882239388795600,1.628795654296875,2.212463617324829,-7.392027378082275,6.292525291442871
1701882239398388200,1.63838818359375,2.0063817501068115,-7.351349353790283,6.242276191711426
1701882239407980300,1.647980224609375,1.9489539861679077,-7.298707485198975,6.119943141937256
1701882239417573000,1.657572998046875,1.963310956954956,-7.255636692047119,6.060122489929199
1701882239427166500,1.66716650390625,1.9657038450241089,-7.234101295471191,6.347560405731201
1701882239436759300,1.67675927734375,1.92741858959198,-7.2867431640625,6.627520561218262
1701882239446351000,1.68635107421875,1.7312071323394775,-7.332206726074219,6.950850486755371
1701882239455944000,1.69594384765625,1.297807216644287,-7.308278560638428,7.130312442779541
1701882239465537500,1.70553759765625,0.9984052777290344,-7.179066181182861,7.35314416885376
1701882239475130400,1.71513037109375,0.7543373107910156,-7.073482990264893,7.408178806304932
1701882239484722200,1.72472216796875,0.4501497745513916,-7.044768810272217,7.077670097351074
1701882239494315000,1.73431494140625,0.09361918270587921,-7.0902323722839355,6.670591354370117
1701882239503908600,1.74390869140625,-0.5168496966362,-7.40399169921875,6.2327046394348145
1701882239513501200,1.753501220703125,-1.4626128673553467,-7.87567663192749,5.801697731018066
1701882239523093000,1.763093017578125,-1.4889339208602905,-8.284849166870117,5.315655708312988
1701882239532685800,1.772685791015625,-0.7540382146835327,-8.476573944091797,5.100301265716553
1701882239542279400,1.782279541015625,0.3281157910823822,-9.118149757385254,5.576473236083984
1701882239551872300,1.791872314453125,0.8548358678817749,-8.907581329345703,5.461617469787598
1701882239561464000,1.801464111328125,0.033798620104789734,-8.670392990112305,5.497509956359863
1701882239571057000,1.811056884765625,0.3496512174606323,-8.660821914672852,5.1050872802734375
1701882239580650500,1.820650390625,-0.7396813035011292,-8.167600631713867,5.270191669464111
1701882239590243000,1.8302431640625,-1.3405789136886597,-8.019246101379395,5.801697731018066
1701882239599835100,1.839835205078125,-1.0794621706008911,-7.703094482421875,5.30847692489624
1701882239609428000,1.849427978515625,-1.0651051998138428,-7.174280643463135,3.9224345684051514
1701882239619021300,1.859021240234375,-0.1818545162677765,-7.583453178405762,2.6485555171966553
1701882239628614100,1.8686142578125,1.3767703771591187,-8.746963500976562,2.957528829574585
1701882239638206000,1.8782060546875,2.0709879398345947,-9.055936813354492,2.528914451599121
1701882239647798800,1.887798828125,1.4605190753936768,-8.146065711975098,-0.3487538993358612
1701882239657392400,1.897392333984375,0.09122636169195175,-7.126124858856201,-1.4380863904953003
1701882239666985200,1.906985107421875,-1.1416754722595215,-9.328718185424805,6.467201232910156
1701882239676577000,1.916576904296875,2.0159530639648438,-9.872187614440918,19.132112503051758
1701882239686169900,1.926169921875,2.731706142425537,-6.815057754516602,13.695021629333496
1701882239695763200,1.93576318359375,0.4740779995918274,-5.486144065856934,6.5150580406188965
1701882239705356000,1.94535595703125,-1.9151554107666016,-6.5874409675598145,5.186442852020264
1701882239714947800,1.95494775390625,-2.0539391040802,-8.275278091430664,5.394618511199951
1701882239724540700,1.964540771484375,-0.8090731501579285,-8.663214683532715,3.8096728324890137
1701882239734134300,1.97413427734375,-0.5120640397071838,-8.59621524810791,2.825923442840576
1701882239743727000,1.98372705078125,-0.31106695532798767,-8.658429145812988,2.5863420963287354
1701882239753319000,1.99331884765625,0.27786654233932495,-8.866903305053711,2.988635540008545
1701882239762911700,2.002911865234375,1.0079765319824219,-9.204291343688965,3.929612874984741
1701882239772505300,2.01250537109375,0.5123631358146667,-9.410074234008789,5.265406131744385
1701882239782098000,2.022097900390625,-0.7229315638542175,-9.201898574829102,5.720341682434082
1701882239791690000,2.03168994140625,-1.8864415884017944,-9.110971450805664,4.805685043334961
1701882239801282800,2.04128271484375,-2.702693223953247,-9.039186477661133,4.420141696929932
1701882239810876200,2.050876220703125,-3.061915636062622,-8.833105087280273,4.190430641174316
1701882239820469000,2.060468994140625,-2.5950162410736084,-8.6967134475708,3.6517465114593506
1701882239830060800,2.070060791015625,-2.0012969970703125,-8.787641525268555,3.122633457183838
1701882239839653600,2.079653564453125,-1.8026927709579468,-9.302396774291992,2.7972097396850586
1701882239849247200,2.089247314453125,-1.2640085220336914,-9.405288696289062,2.5863420963287354
1701882239858840000,2.098840087890625,-0.17946170270442963,-9.824331283569336,2.9551360607147217
1701882239868432000,2.108431884765625,1.0247262716293335,-10.444372177124023,3.0173492431640625
1701882239878024700,2.118024658203125,0.6753742098808289,-10.786844253540039,2.253739833831787
1701882239887618000,2.1276181640625,0.39990049600601196,-11.047661781311035,2.3494527339935303
1701882239897211000,2.1372109375,0.11515458673238754,-10.61695384979248,2.6006991863250732
1701882239906802700,2.146802734375,-1.7404793500900269,-10.559526443481445,2.653341293334961
1701882239916395500,2.1563955078125,-1.3453645706176758,-9.568299293518066,2.169692039489746
1701882239925989000,2.165989013671875,-0.8497511148452759,-8.265707015991211,1.6070795059204102
1701882239935581700,2.175581787109375,-0.4785645306110382,-8.560322761535645,2.6006991863250732
1701882239945173800,2.185173828125,1.6522440910339355,-9.771689414978027,4.501796722412109
1701882239954766600,2.1947666015625,0.7471588850021362,-12.09631633758545,3.1274192333221436
1701882239964360200,2.204360107421875,-1.3764712810516357,-12.965509414672852,0.833898663520813
1701882239973952800,2.213952880859375,-2.465803623199463,-13.01815128326416,1.7653049230575562
1701882239983544800,2.223544921875,-0.8641080856323242,-12.450753211975098,2.830709218978882
1701882239993137700,2.2331376953125,-0.05503492057323456,-11.631810188293457,2.471486806869507
1701882240002731000,2.24273095703125,-0.4307080805301666,-10.796415328979492,2.4523441791534424
1701882240012323800,2.25232373046875,-0.8712865710258484,-10.767702102661133,2.629412889480591
1701882240021915600,2.26191552734375,-0.9909276962280273,-10.695917129516602,2.56719970703125
1701882240031508500,2.271508544921875,-0.8066803216934204,-10.434800148010254,2.464308261871338
1701882240041102000,2.28110205078125,-0.5455635786056519,-10.276874542236328,2.4930222034454346
1701882240050694700,2.290694580078125,-0.4833501875400543,-10.102197647094727,2.5480570793151855
1701882240060286700,2.30028662109375,-0.5838487148284912,-9.733404159545898,2.591127872467041
1701882240069879600,2.309879638671875,-0.5120640397071838,-9.506086349487305,2.6485555171966553
1701882240079473000,2.319472900390625,-0.5814558863639832,-9.405288696289062,2.8498518466949463
1701882240089065700,2.329065673828125,-0.4139583110809326,-9.087042808532715,2.701197624206543
1701882240098657800,2.33865771484375,-0.24406790733337402,-8.878867149353027,2.7514469623565674
1701882240108250400,2.34825048828125,-0.3326023519039154,-8.854640007019043,2.9001009464263916
1701882240117844000,2.357843994140625,-0.3732803463935852,-9.041579246520996,2.801995277404785
1701882240127436500,2.3674365234375,0.07208377867937088,-9.041579246520996,2.449951171875
1701882240137028600,2.377028564453125,0.9720842242240906,-9.118149757385254,2.3757736682891846
1701882240146621400,2.386621337890625,1.1494522094726562,-8.562715530395508,1.6671991348266602
1701882240156215000,2.396215087890625,0.6538388133049011,-8.15563678741455,0.9726824164390564
1701882240165807600,2.4058076171875,0.029012974351644516,-7.681559085845947,1.077966570854187
1701882240175399700,2.415399658203125,-0.2727817893028259,-7.521239757537842,2.0715861320495605
1701882240184992500,2.424992431640625,0.3735794425010681,-7.310671329498291,2.3925235271453857
1701882240194585900,2.4345859375,0.8333004713058472,-7.277172088623047,2.710768938064575
1701882240204178700,2.4441787109375,0.4740779995918274,-7.3058857917785645,3.2135608196258545
1701882240213770500,2.4537705078125,0.2682952284812927,-6.099305152893066,4.619044780731201
1701882240223363300,2.46336328125,0.8787640929222107,-5.2971110343933105,4.202394962310791
1701882240232957000,2.47295703125,0.5796613097190857,-5.227719306945801,3.867100477218628
1701882240242549500,2.482549560546875,-0.009272187948226929,-4.837389945983887,3.443570852279663
1701882240252141600,2.4921416015625,0.026620151475071907,-4.662714004516602,2.950350284576416
1701882240261734400,2.501734375,0.17736798524856567,-5.301896572113037,2.6485555171966553
1701882240271327700,2.51132763671875,-1.1057831048965454,-6.295516490936279,1.8370895385742188
1701882240280920600,2.520920654296875,-2.233400821685791,-6.992126941680908,0.7357929348945618
1701882240290512400,2.530512451171875,-4.050749778747559,-7.087839603424072,-1.0740783214569092
1701882240300105200,2.540105224609375,-4.965106964111328,-8.057531356811523,-2.161017894744873
1701882240309698800,2.54969873046875,-2.7840490341186523,-8.737391471862793,-2.71645188331604
1701882240319291400,2.55929150390625,-1.319043517112732,-9.5324068069458,-1.1820544004440308
1701882240328883500,2.568883544921875,1.8317056894302368,-10.118947982788086,-0.047258246690034866
1701882240338476300,2.578476318359375,3.677469253540039,-12.405289649963379,0.42681974172592163
1701882240348070000,2.58806982421875,1.6546368598937988,-15.402599334716797,-0.7438687682151794
1701882240357662500,2.597662353515625,1.4916257858276367,-23.300708770751953,3.10109806060791
1701882240367254500,2.607254638671875,2.8037898540496826,-33.576385498046875,11.846864700317383
1701882240376847400,2.616847412109375,3.8449668884277344,-28.37139892578125,12.787543296813965
1701882240386440700,2.626440673828125,-0.5383850932121277,-12.244970321655273,3.0891339778900146
1701882240396033500,2.636033447265625,-0.32542386651039124,-5.337789058685303,-2.4388844966888428
1701882240405625300,2.645625244140625,-0.550349235534668,-7.028019428253174,-1.7901304960250854
1701882240415218200,2.65521826171875,-0.46899324655532837,-10.815558433532715,2.0620148181915283
1701882240424811800,2.664811767578125,-0.576670229434967,-10.636096954345703,2.1122641563415527
1701882240434404400,2.674404296875,-0.1746760457754135,-10.006484985351562,1.0974082946777344
1701882240443996400,2.683996337890625,0.03858426585793495,-10.080662727355957,0.8027920126914978
1701882240453589200,2.69358935546875,-0.05024927482008934,-10.135697364807129,0.7166503667831421
1701882240463182600,2.7031826171875,-0.11246266216039658,-10.164411544799805,0.7310073375701904
1701882240472775400,2.712775390625,0.0649053156375885,-9.98973560333252,0.592223584651947
1701882240482367200,2.7223671875,0.7902296781539917,-9.582656860351562,0.498604416847229
1701882240491960000,2.7319599609375,1.1590235233306885,-8.933902740478516,-0.48035913705825806
1701882240501553700,2.7415537109375,0.01704886183142662,-9.845867156982422,0.17557336390018463
1701882240511146500,2.751146484375,-0.5551348328590393,-9.618548393249512,-0.12861421704292297
1701882240520738300,2.76073828125,-0.5168496966362,-10.750951766967773,0.3693920075893402
1701882240530331100,2.7703310546875,0.12711870670318604,-11.289636611938477,1.535294771194458
1701882240539924700,2.7799248046875,-0.1052841991186142,-10.386943817138672,0.7908278703689575
1701882240549517300,2.789517333984375,-0.921535849571228,-10.08305549621582,0.6783652305603027
1701882240559109400,2.799109375,-0.9287142753601074,-9.874580383300781,0.8697910308837891
1701882240568702000,2.808701904296875,-0.6200401782989502,-9.81954574584961,0.7692924737930298
1701882240578295600,2.818295654296875,-0.39481574296951294,-9.654440879821777,0.5467599630355835
1701882240587888400,2.827888427734375,-0.32303106784820557,-9.553942680358887,0.47706902027130127
1701882240597480200,2.837480224609375,-0.32303106784820557,-9.582656860351562,0.5563312768936157
1701882240607073000,2.847072998046875,-0.36610186100006104,-9.728618621826172,0.6472585201263428
1701882240616666600,2.85666650390625,-0.39481574296951294,-9.89850902557373,0.7214360237121582
1701882240626259200,2.86625927734375,-0.42831525206565857,-10.051948547363281,0.778863787651062
1701882240635851300,2.875851318359375,-0.4331009089946747,-10.109376907348633,0.8506484627723694
1701882240645443800,2.88544384765625,-0.4546363055706024,-10.138090133666992,0.9272187948226929
1701882240655037400,2.895037353515625,-0.41156548261642456,-10.190732955932617,0.9655039310455322
1701882240664630300,2.90463037109375,-0.3732803463935852,-10.22183895111084,1.022931694984436
1701882240674222000,2.91422216796875,-0.38763725757598877,-10.217053413391113,1.090229868888855
1701882240683815000,2.92381494140625,-0.39960137009620667,-10.19312572479248,1.1644073724746704
1701882240693408500,2.933408447265625,-0.44745782017707825,-10.128519058227539,1.2242279052734375
1701882240703001000,2.9430009765625,-0.41874396800994873,-10.063913345336914,1.2553346157073975
1701882240712593200,2.95259326171875,-0.38285163044929504,-9.98255729675293,1.2744771242141724
1701882240722186000,2.96218603515625,-0.3852444589138031,-9.881759643554688,1.32711923122406
1701882240731779300,2.971779296875,-0.41874396800994873,-9.783653259277344,1.3462618589401245
1701882240741372200,2.9813720703125,-0.41156548261642456,-9.68794059753418,1.3630115985870361
1701882240750964000,2.9909638671875,-0.41156548261642456,-9.601799011230469,1.3917254209518433
1701882240760556800,3.000556884765625,-0.4163511395454407,-9.513264656066895,1.4108680486679077
1701882240770150400,3.010150390625,-0.4307080805301666,-9.484550476074219,1.42043936252594
1701882240779743000,3.019742919921875,-0.4618147611618042,-9.506086349487305,1.456331729888916
1701882240789335000,3.0293349609375,-0.48813581466674805,-9.501300811767578,1.5185450315475464
1701882240798928000,3.038927978515625,-0.5335994362831116,-9.527621269226074,1.5807584524154663
1701882240808521200,3.048521240234375,-0.5288137793540955,-9.57069206237793,1.662413477897644
1701882240818114000,3.058114013671875,-0.519242525100708,-9.630513191223145,1.731805443763733
1701882240827705900,3.067705810546875,-0.5264210104942322,-9.692726135253906,1.7964116334915161
1701882240837298700,3.077298583984375,-0.5120640397071838,-9.721440315246582,1.8418751955032349
1701882240846892300,3.086892333984375,-0.48095735907554626,-9.783653259277344,1.913659930229187
1701882240856484900,3.09648486328125,-0.46420758962631226,-9.8267240524292,1.9854445457458496
1701882240866077000,3.106076904296875,-0.45224347710609436,-9.853045463562012,2.0452651977539062
1701882240875669800,3.115669677734375,-0.46420758962631226,-9.869794845581055,2.114656925201416
1701882240885263000,3.12526318359375,-0.48813581466674805,-9.850652694702148,2.1720848083496094
1701882240894856000,3.13485595703125,-0.519242525100708,-9.78843879699707,2.1984057426452637
1701882240904447700,3.14444775390625,-0.5551348328590393,-9.733404159545898,2.1984057426452637
1701882240914040600,3.15404052734375,-0.5838487148284912,-9.671191215515137,2.222633123397827
1701882240923634200,3.16363427734375,-0.576670229434967,-9.642477035522461,2.2585253715515137
1701882240933226800,3.173226806640625,-0.5647061467170715,-9.630513191223145,2.246561288833618
1701882240942818800,3.18281884765625,-0.47617170214653015,-9.632905960083008,2.2178475856781006
1701882240952411600,3.19241162109375,-0.4618147611618042,-9.668798446655273,2.1720848083496094
1701882240962005000,3.2020048828125,-0.4977070987224579,-9.745368003845215,2.1409780979156494
1701882240971597800,3.211597900390625,-0.5216353535652161,-9.874580383300781,2.191227436065674
1701882240981189600,3.221189697265625,-0.5383850932121277,-10.056734085083008,2.2345972061157227
1701882240990782500,3.230782470703125,-0.5216353535652161,-10.260124206542969,2.284846544265747
1701882241000376000,3.2403759765625,-0.4426721930503845,-10.413265228271484,2.2944178581237793
1701882241009968600,3.24996875,-0.3732803463935852,-10.506585121154785,2.236989974975586
1701882241019560700,3.259560791015625,-0.3852444589138031,-10.506585121154785,2.186441659927368
1701882241029153500,3.269153564453125,-0.38285163044929504,-10.379765510559082,2.107478618621826
1701882241038747000,3.278746826171875,-0.3852444589138031,-10.178768157958984,2.0237298011779785
1701882241048339700,3.288339599609375,-0.3684946894645691,-9.980164527893066,1.9304096698760986
1701882241057931500,3.297931640625,-0.2871387302875519,-9.817152976989746,1.7964116334915161
1701882241067524400,3.3075244140625,-0.2632105052471161,-9.668798446655273,1.6429718732833862
1701882241077118000,3.317117919921875,-0.17706887423992157,-9.530014038085938,1.4635101556777954
1701882241086710500,3.32671044921875,-0.12921242415905,-9.470193862915039,1.2553346157073975
1701882241096302600,3.336302490234375,-0.12681959569454193,-9.39571762084961,0.9655039310455322
1701882241105895400,3.3458955078125,-0.07657032459974289,-9.340682029724121,0.745364248752594
1701882241115488800,3.35548876953125,0.009870393201708794,-9.27846908569336,0.6065805554389954
1701882241125081600,3.36508154296875,-0.023629123345017433,-9.26171875,0.4914259612560272
1701882241134673400,3.37467333984375,-0.06699903309345245,-9.311968803405762,0.4698905348777771
1701882241144266200,3.384266357421875,-0.11246266216039658,-9.412467002868652,0.4746761918067932
1701882241153859800,3.39385986328125,-0.08614161610603333,-9.558728218078613,0.534795880317688
1701882241163452400,3.403452392578125,-0.14835500717163086,-9.776474952697754,0.5994020700454712
1701882241173044500,3.41304443359375,-0.24406790733337402,-9.99691390991211,0.6544370055198669
1701882241182637000,3.422636962890625,-0.3038884699344635,-10.202696800231934,0.6951149702072144
1701882241192230700,3.432230712890625,-0.3158525824546814,-10.382158279418945,0.747757077217102
1701882241201823500,3.441823486328125,-0.32542386651039124,-10.4850492477417,0.6352944374084473
1701882241211415300,3.451415283203125,-0.38763725757598877,-10.47787094116211,0.5850451588630676
1701882241221008100,3.461008056640625,-0.6631109714508057,-10.566704750061035,0.6113662123680115
1701882241230601700,3.470601806640625,-0.8569296002388,-10.540383338928223,0.48424747586250305
1701882241240194300,3.4801943359375,-0.8210372924804688,-10.501799583435059,0.393320232629776
1701882241249786400,3.489786376953125,-0.7037889361381531,-10.403694152832031,0.46031925082206726
1701882241259379000,3.49937890625,-0.8066803216934204,-10.257731437683105,0.5009972453117371
1701882241268972500,3.50897265625,-0.8306085467338562,-10.150054931640625,0.5201398134231567
1701882241278565400,3.5185654296875,-0.7396813035011292,-10.138090133666992,0.6807580590248108
1701882241288157200,3.5281572265625,-0.6032904386520386,-10.202696800231934,0.9224331378936768
1701882241297750000,3.53775,-0.4139583110809326,-10.286445617675781,1.118943691253662
1701882241307343400,3.54734326171875,-0.23449662327766418,-10.31755256652832,1.236191987991333
1701882241316936200,3.556936279296875,-0.08135596662759781,-10.31515884399414,1.3749756813049316
1701882241326528000,3.566528076171875,-0.08135596662759781,-10.279267311096191,1.3749756813049316
1701882241336120800,3.576120849609375,-0.1579262912273407,-10.147662162780762,1.353440284729004
1701882241345714400,3.58571435546875,-0.2105683982372284,-9.980164527893066,1.3175479173660278
1701882241355307000,3.59530712890625,-0.24885354936122894,-9.81236743927002,1.3247264623641968
1701882241364899000,3.604899169921875,-0.2799602448940277,-9.719047546386719,1.3462618589401245
1701882241374492000,3.614491943359375,-0.2919243574142456,-9.644869804382324,1.3319048881530762
1701882241384085200,3.624085205078125,-0.3038884699344635,-9.608977317810059,1.3127623796463013
1701882241393678000,3.633677978515625,-0.2847459018230438,-9.558728218078613,1.2649059295654297
1701882241403270000,3.643269775390625,-0.25363919138908386,-9.611370086669922,1.3606188297271729
1701882241412862700,3.65286279296875,-0.19381862878799438,-9.642477035522461,1.4347963333129883
1701882241422456300,3.662456298828125,-0.13639089465141296,-9.714262008666992,1.480259895324707
1701882241432049000,3.672048828125,-0.15314064919948578,-9.762118339538574,1.5400804281234741
1701882241441641000,3.681640869140625,-0.16031911969184875,-9.793225288391113,1.6070795059204102
1701882241451233800,3.69123388671875,-0.1459621787071228,-9.79801082611084,1.6405789852142334
1701882241460827100,3.7008271484375,-0.10767702013254166,-9.821938514709473,1.693520188331604
1701882241470420000,3.710419921875,-0.0526420995593071,-9.821938514709473,1.6911274194717407
1701882241480011800,3.72001171875,0.014656038954854012,-9.838688850402832,1.662413477897644
1701882241489604600,3.7296044921875,0.031405795365571976,-9.855438232421875,1.6190435886383057
1701882241499198200,3.7391982421875,0.07447660714387894,-9.843474388122559,1.6310077905654907
1701882241508790800,3.748790771484375,0.07447660714387894,-9.867402076721191,1.633400559425354
1701882241518382800,3.7583828125,-0.004486542660742998,-9.908080101013184,1.5951154232025146
1701882241527975400,3.767975341796875,-0.04546362906694412,-9.94397258758545,1.5759727954864502
1701882241537569000,3.777569091796875,-0.07657032459974289,-9.960722923278809,1.5903297662734985
1701882241547161600,3.78716162109375,-0.11006984114646912,-9.98255729675293,1.5807584524154663
1701882241556753700,3.796753662109375,-0.1579262912273407,-9.994521141052246,1.571187138557434
1701882241566346500,3.806346435546875,-0.18903298676013947,-9.960722923278809,1.5496517419815063
1701882241575939800,3.81593994140625,-0.19381862878799438,-10.016056060791016,1.4850455522537231
1701882241585532700,3.82553271484375,-0.16271193325519562,-9.984950065612793,1.4228321313858032
1701882241595124500,3.83512451171875,-0.16749759018421173,-9.88415241241455,1.236191987991333
1701882241604717300,3.84471728515625,-0.009272187948226929,-9.94397258758545,1.4084752798080444
1701882241614311000,3.854310791015625,0.033798620104789734,-10.07587718963623,1.2242279052734375
1701882241623903500,3.863903564453125,-0.00687936507165432,-10.078269958496094,1.181157112121582
1701882241633495600,3.87349560546875,-0.0526420995593071,-10.152447700500488,1.1907284259796143
1701882241643088400,3.88308837890625,-0.09810572862625122,-10.252945899963379,1.2409776449203491
1701882241652681700,3.892681640625,-0.11964113265275955,-10.319945335388184,1.267298698425293
1701882241662274600,3.902274658203125,-0.1459621787071228,-10.334301948547363,1.291226863861084
1701882241671866400,3.911866455078125,-0.16749759018421173,-10.33908748626709,1.298405408859253
1701882241681459200,3.921459228515625,-0.1339980661869049,-10.32473087310791,1.3151551485061646
1701882241691052800,3.931052734375,-0.1339980661869049,-10.248160362243652,1.3510475158691406
1701882241700645400,3.940645263671875,-0.10767702013254166,-10.152447700500488,1.3965110778808594
1701882241710237400,3.950237548828125,-0.04307080805301666,-10.054341316223145,1.425225019454956
1701882241719830000,3.959830078125,0.026620151475071907,-9.941579818725586,1.4539388418197632
1701882241729423600,3.969423583984375,0.08165507018566132,-9.867402076721191,1.5041881799697876
1701882241739016200,3.97901611328125,0.17497515678405762,-9.80518913269043,1.5281163454055786
1701882241748608300,3.988608154296875,0.23240290582180023,-9.77408218383789,1.6070795059204102
1701882241758201000,3.998201171875,0.2587239444255829,-9.740582466125488,1.669592022895813
1701882241767794400,4.00779443359375,0.24197418987751007,-9.740582466125488,1.7174484729766846
1701882241777387300,4.01738720703125,0.1989033818244934,-9.7669038772583,1.7102699279785156
1701882241786979000,4.02697900390625,0.1582254022359848,-9.783653259277344,1.6815561056137085
1701882241796572000,4.036572021484375,0.08644071966409683,-9.793225288391113,1.5927225351333618
1701882241806165500,4.04616552734375,0.06729813665151596,-9.829116821289062,1.516152262687683
1701882241815758000,4.055758056640625,0.03858426585793495,-9.860223770141602,1.4587244987487793
1701882241825350100,4.06535009765625,0.04097708687186241,-9.853045463562012,1.4228321313858032
1701882241834943000,4.07494287109375,0.009870393201708794,-9.853045463562012,1.3965110778808594
1701882241844536300,4.084536376953125,-0.00687936507165432,-9.862616539001465,1.3917254209518433
1701882241854129000,4.09412890625,-0.09810572862625122,-9.869794845581055,1.3510475158691406
1701882241863721000,4.103720947265625,0.007477570790797472,-9.869794845581055,1.3773685693740845
1701882241873313800,4.113313720703125,0.12233305722475052,-9.814760208129883,1.3869398832321167
1701882241882907100,4.1229072265625,0.12711870670318604,-9.809974670410156,1.3558331727981567
1701882241892500000,4.1325,0.10319047421216965,-9.809974670410156,1.3103694915771484
1701882241902091800,4.142091796875,0.06729813665151596,-9.853045463562012,1.3079767227172852
1701882241911684600,4.1516845703125,0.055334024131298065,-9.915258407592773,1.2816556692123413
1701882241921278200,4.1612783203125,0.005084747914224863,-9.951150894165039,1.291226863861084
1701882241930870800,4.170870849609375,-0.004486542660742998,-9.948758125305176,1.2960125207901
1701882241940462800,4.180462890625,0.00029910283046774566,-9.939187049865723,1.2816556692123413
1701882241950055700,4.1900556640625,0.007477570790797472,-9.934401512145996,1.3055838346481323
1701882241959649000,4.19964892578125,0.01944168470799923,-9.90568733215332,1.3199408054351807
1701882241969241600,4.20924169921875,0.031405795365571976,-9.896116256713867,1.3558331727981567
1701882241978833700,4.218833740234375,0.03858426585793495,-9.89133071899414,1.3797613382339478
1701882241988426500,4.228426513671875,0.05294119939208031,-9.872187614440918,1.38933265209198
1701882241998019800,4.238019775390625,0.09361918270587921,-9.869794845581055,1.4156537055969238
1701882242007612700,4.24761279296875,0.16061821579933167,-9.88415241241455,1.425225019454956
1701882242017204500,4.25720458984375,0.18933209776878357,-9.869794845581055,1.4539388418197632
1701882242026797300,4.26679736328125,0.17258232831954956,-9.848259925842285,1.4850455522537231
1701882242036391000,4.276390869140625,0.11994023621082306,-9.814760208129883,1.4874383211135864
1701882242045983500,4.2859833984375,0.055334024131298065,-9.814760208129883,1.475474238395691
1701882242055575600,4.295575439453125,0.00029910283046774566,-9.841081619262695,1.4587244987487793
1701882242065168400,4.30516845703125,-0.062213387340307236,-9.88415241241455,1.449153184890747
1701882242074761700,4.31476171875,-0.11724831163883209,-9.872187614440918,1.4371891021728516
1701882242084354300,4.324354248046875,-0.17228323221206665,-9.843474388122559,1.425225019454956
1701882242093946400,4.3339462890625,-0.1986042857170105,-9.783653259277344,1.4300106763839722
1701882242103539200,4.343539306640625,-0.18903298676013947,-9.759725570678711,1.4300106763839722
1701882242113132500,4.353132568359375,-0.17946170270442963,-9.783653259277344,1.4324034452438354
1701882242122725400,4.362725341796875,-0.14356936514377594,-9.80518913269043,1.4611172676086426
1701882242132317200,4.372317138671875,-0.10049854964017868,-9.838688850402832,1.4611172676086426
1701882242141910000,4.381909912109375,-0.06699903309345245,-9.879366874694824,1.4611172676086426
1701882242151503600,4.391503662109375,-0.03559323772788048,-9.94397258758545,1.4587244987487793
1701882242161096200,4.40109619140625,-0.026021946221590042,-9.994521141052246,1.4706885814666748
1701882242170688300,4.410688232421875,-0.06699903309345245,-10.035199165344238,1.480259895324707
1701882242180280800,4.42028076171875,-0.08135596662759781,-10.047163009643555,1.5017952919006348
1701882242189874400,4.42987451171875,-0.09571290761232376,-10.037591934204102,1.4874383211135864
1701882242199467000,4.439467041015625,-0.11246266216039658,-10.008877754211426,1.4706885814666748
1701882242209059000,4.44905908203125,-0.1339980661869049,-9.970293998718262,1.475474238395691
1701882242218652000,4.45865185546875,-0.17228323221206665,-9.924830436706543,1.4898312091827393
1701882242228245200,4.468245361328125,-0.1866401731967926,-9.888937950134277,1.4874383211135864
1701882242237838000,4.477838134765625,-0.1746760457754135,-9.872187614440918,1.5089738368988037
1701882242247430000,4.487429931640625,-0.16031911969184875,-9.862616539001465,1.5209379196166992
1701882242257022700,4.497022705078125,-0.16271193325519562,-9.865009307861328,1.5568302869796753
1701882242266616300,4.5066162109375,-0.13878370821475983,-9.853045463562012,1.5999010801315308
1701882242276209000,4.516208984375,-0.11964113265275955,-9.855438232421875,1.6405789852142334
1701882242285800700,4.52580078125,-0.12921242415905,-9.853045463562012,1.6791633367538452
1701882242295393500,4.5353935546875,-0.15553347766399384,-9.867402076721191,1.6863417625427246
1701882242304987100,4.544987060546875,-0.1698904037475586,-9.869794845581055,1.6839489936828613
1701882242314579700,4.554579833984375,-0.16031911969184875,-9.872187614440918,1.6839489936828613
1701882242324171800,4.564171875,-0.17706887423992157,-9.88415241241455,1.693520188331604
1701882242333764600,4.5737646484375,-0.17228323221206665,-9.876974105834961,1.6767704486846924
1701882242343358000,4.58335791015625,-0.17946170270442963,-9.862616539001465,1.6767704486846924
1701882242352950800,4.59295068359375,-0.1986042857170105,-9.857831001281738,1.6600207090377808
1701882242362542600,4.60254248046875,-0.20099709928035736,-9.857831001281738,1.6504493951797485
1701882242372135400,4.612135498046875,-0.21296121180057526,-9.881759643554688,1.633400559425354
1701882242381729000,4.62172900390625,-0.2105683982372284,-9.896116256713867,1.6142579317092896
1701882242391321600,4.631321533203125,-0.2105683982372284,-9.89850902557373,1.5951154232025146
1701882242400913400,4.640913330078125,-0.20578274130821228,-9.908080101013184,1.5568302869796753
1701882242410506200,4.65050634765625,-0.18424734473228455,-9.908080101013184,1.542473316192627
1701882242420099800,4.660099853515625,-0.18903298676013947,-9.932008743286133,1.516152262687683
1701882242429692400,4.6696923828125,-0.1818545162677765,-9.93679428100586,1.4730814695358276
1701882242439284500,4.679284423828125,-0.16749759018421173,-9.92961597442627,1.449153184890747
1701882242448877000,4.688876953125,-0.16510476171970367,-9.915258407592773,1.4324034452438354
1701882242458470700,4.698470703125,-0.16510476171970367,-9.910472869873047,1.42043936252594
1701882242468063200,4.708063232421875,-0.16271193325519562,-9.908080101013184,1.3989039659500122
1701882242477655300,4.7176552734375,-0.1866401731967926,-9.88415241241455,1.3869398832321167
1701882242487248100,4.727248046875,-0.19621145725250244,-9.872187614440918,1.3654043674468994
1701882242496841500,4.736841552734375,-0.1986042857170105,-9.862616539001465,1.3462618589401245
1701882242506434300,4.746434326171875,-0.20817556977272034,-9.841081619262695,1.32711923122406
1701882242516026000,4.756026123046875,-0.21296121180057526,-9.862616539001465,1.3127623796463013
1701882242525619000,4.765618896484375,-0.20817556977272034,-9.857831001281738,1.3103694915771484
1701882242535212500,4.775212646484375,-0.2225325107574463,-9.886545181274414,1.298405408859253
1701882242544805000,4.78480517578125,-0.20338992774486542,-9.888937950134277,1.2960125207901
1701882242554397000,4.79439697265625,-0.23449662327766418,-9.91286563873291,1.3007981777191162
1701882242563989800,4.80398974609375,-0.26560330390930176,-9.94397258758545,1.2792627811431885
1701882242573583400,4.813583251953125,-0.27038896083831787,-9.948758125305176,1.2864413261413574
1701882242583176000,4.823176025390625,-0.2871387302875519,-9.965508460998535,1.2888340950012207
1701882242592768000,4.83276806640625,-0.275174617767334,-10.001699447631836,1.3127623796463013
1701882242602360800,4.84236083984375,-0.2392822653055191,-10.032806396484375,1.322333574295044
1701882242611954200,4.8519541015625,-0.20578274130821228,-10.07587718963623,1.35822594165802
1701882242621546800,4.861546630859375,-0.1866401731967926,-10.085448265075684,1.3821542263031006
1701882242631138800,4.871138916015625,-0.17946170270442963,-10.071091651916504,1.394118309020996
1701882242640731600,4.880731689453125,-0.14835500717163086,-10.023235321044922,1.394118309020996
1701882242650325000,4.890324951171875,-0.13878370821475983,-9.965508460998535,1.3749756813049316
1701882242659917800,4.899917724609375,-0.12203395366668701,-9.915258407592773,1.3438689708709717
1701882242669509600,4.909509521484375,-0.12681959569454193,-9.920044898986816,1.3366905450820923
1701882242679102500,4.9191025390625,-0.11485548317432404,-9.910472869873047,1.3151551485061646
1701882242688695800,4.92869580078125,-0.1052841991186142,-9.908080101013184,1.3127623796463013
1701882242698288600,4.93828857421875,-0.09571290761232376,-9.89850902557373,1.3103694915771484
1701882242707880400,4.94788037109375,-0.08853443711996078,-9.89850902557373,1.3127623796463013
1701882242717473300,4.957473388671875,-0.11964113265275955,-9.886545181274414,1.3079767227172852
1701882242727067000,4.96706689453125,-0.13878370821475983,-9.896116256713867,1.3079767227172852
1701882242736659500,4.976659423828125,-0.13639089465141296,-9.917651176452637,1.2864413261413574
1701882242746251500,4.98625146484375,-0.14356936514377594,-9.915258407592773,1.2744771242141724
1701882242755844000,4.995843994140625,-0.12921242415905,-9.927223205566406,1.2529417276382446
1701882242765437700,5.005437744140625,-0.1579262912273407,-9.924830436706543,1.2529417276382446
1701882242775030300,5.0150302734375,-0.16271193325519562,-9.90568733215332,1.2601202726364136
1701882242784622300,5.024622314453125,-0.14835500717163086,-9.90568733215332,1.2625130414962769
1701882242794215200,5.034215087890625,-0.12921242415905,-9.89133071899414,1.2649059295654297
1701882242803808500,5.04380859375,-0.13160525262355804,-9.893723487854004,1.2744771242141724
1701882242813401300,5.0534013671875,-0.13160525262355804,-9.89133071899414,1.2529417276382446
1701882242822993200,5.0629931640625,-0.09571290761232376,-9.89850902557373,1.2481560707092285
1701882242832586000,5.0725859375,-0.09571290761232376,-9.91286563873291,1.2385848760604858
1701882242842179600,5.0821796875,-0.09810572862625122,-9.920044898986816,1.2409776449203491
1701882242851772200,5.091772216796875,-0.12203395366668701,-9.93679428100586,1.2218350172042847
1701882242861364000,5.101364013671875,-0.10767702013254166,-9.939187049865723,1.2242279052734375
1701882242870956800,5.110956787109375,-0.08614161610603333,-9.924830436706543,1.2170493602752686
1701882242880550400,5.12055029296875,-0.08853443711996078,-9.91286563873291,1.1955139636993408
1701882242890143000,5.13014306640625,-0.07896314561367035,-9.900901794433594,1.1859427690505981
1701882242899735000,5.139735107421875,-0.06939185410737991,-9.89133071899414,1.1835498809814453
1701882242909327600,5.14932763671875,-0.08374879509210587,-9.908080101013184,1.1907284259796143
1701882242918921200,5.158921142578125,-0.10289137065410614,-9.934401512145996,1.1955139636993408
1701882242928513800,5.168513671875,-0.07657032459974289,-9.94397258758545,1.1931211948394775
1701882242938105900,5.17810595703125,-0.10049854964017868,-9.948758125305176,1.1883355379104614
1701882242947698400,5.187698486328125,-0.10049854964017868,-9.958329200744629,1.1907284259796143
1701882242957292000,5.1972919921875,-0.11485548317432404,-9.948758125305176,1.2026925086975098
1701882242966884600,5.206884521484375,-0.1052841991186142,-9.960722923278809,1.200299620628357
1701882242976476700,5.2164765625,-0.11006984114646912,-9.965508460998535,1.2098709344863892
1701882242986069500,5.226069580078125,-0.10289137065410614,-9.967901229858398,1.205085277557373
1701882242995662800,5.235662841796875,-0.10289137065410614,-9.970293998718262,1.2218350172042847
1701882243005255700,5.245255615234375,-0.09810572862625122,-9.977771759033203,1.2170493602752686
1701882243014847500,5.254847412109375,-0.06699903309345245,-9.977771759033203,1.2337992191314697
1701882243024440300,5.2644404296875,-0.07178468257188797,-9.975079536437988,1.2290135622024536
1701882243034034000,5.274033935546875,-0.059820566326379776,-9.953543663024902,1.2481560707092285
1701882243043626500,5.28362646484375,-0.04546362906694412,-9.927223205566406,1.2529417276382446
1701882243053218300,5.29321826171875,-0.03559323772788048,-9.900901794433594,1.2505489587783813
1701882243062811100,5.30281103515625,-0.016450656577944756,-9.881759643554688,1.2601202726364136
1701882243072404700,5.31240478515625,-0.021236300468444824,-9.903294563293457,1.2792627811431885
1701882243081997300,5.321997314453125,-0.00687936507165432,-9.900901794433594,1.2792627811431885
1701882243091589400,5.33158935546875,-0.04785645380616188,-9.908080101013184,1.2816556692123413
1701882243101182000,5.341181884765625,-0.0526420995593071,-9.91286563873291,1.2816556692123413
1701882243110775600,5.350775634765625,-0.04785645380616188,-9.91286563873291,1.2816556692123413
1701882243120368000,5.3603681640625,-0.05742774158716202,-9.89850902557373,1.2864413261413574
1701882243129960200,5.369960205078125,-0.06699903309345245,-9.910472869873047,1.2744771242141724
1701882243139552800,5.379552734375,-0.059820566326379776,-9.91286563873291,1.2577273845672607
1701882243149146400,5.389146484375,-0.064606212079525,-9.917651176452637,1.2553346157073975
1701882243158739000,5.398739013671875,-0.04546362906694412,-9.910472869873047,1.2337992191314697
1701882243168331000,5.4083310546875,-0.03559323772788048,-9.91286563873291,1.2194422483444214
1701882243177923800,5.417923828125,-0.026021946221590042,-9.910472869873047,1.200299620628357
1701882243187517200,5.42751708984375,-0.064606212079525,-9.92243766784668,1.1931211948394775
1701882243197110000,5.437110107421875,-0.05024927482008934,-9.948758125305176,1.173978567123413
1701882243206701800,5.446701904296875,-0.014057832770049572,-9.953543663024902,1.1620144844055176
1701882243216294700,5.456294677734375,-0.02841476909816265,-9.967901229858398,1.1428718566894531
1701882243225888000,5.465887939453125,-0.03320041298866272,-9.977771759033203,1.150050401687622
1701882243235480800,5.475480712890625,-0.040677983313798904,-9.975079536437988,1.1356934309005737
1701882243245072600,5.48507275390625,-0.026021946221590042,-9.984950065612793,1.150050401687622
1701882243254665500,5.49466552734375,-0.004486542660742998,-9.970293998718262,1.1356934309005737
1701882243264259000,5.504259033203125,0.0026919255033135414,-9.984950065612793,1.150050401687622
1701882243273851600,5.5138515625,0.024227328598499298,-9.965508460998535,1.1524431705474854
1701882243283443500,5.523443359375,0.055334024131298065,-9.951150894165039,1.1548360586166382
1701882243293036300,5.533036376953125,0.06969095766544342,-9.927223205566406,1.1668001413345337
1701882243302630000,5.5426298828125,0.08883354067802429,-9.89850902557373,1.181157112121582
1701882243312222500,5.552222412109375,0.10079765319824219,-9.881759643554688,1.1835498809814453
1701882243321814300,5.561814208984375,0.1055833026766777,-9.874580383300781,1.1787642240524292
1701882243331407000,5.571406982421875,0.09361918270587921,-9.886545181274414,1.1715857982635498
1701882243341000700,5.581000732421875,0.08404789865016937,-9.89850902557373,1.1428718566894531
1701882243350593300,5.59059326171875,0.0768694281578064,-9.91286563873291,1.1380863189697266
1701882243360185300,5.600185302734375,0.08644071966409683,-9.90568733215332,1.1476575136184692
1701882243369778000,5.60977783203125,0.11276176571846008,-9.927223205566406,1.150050401687622
1701882243379371500,5.61937158203125,0.13668999075889587,-9.91286563873291,1.150050401687622
1701882243388964000,5.628964111328125,0.2108674943447113,-9.900901794433594,1.1787642240524292
1701882243398556200,5.63855615234375,0.27308088541030884,-9.845867156982422,1.2194422483444214
1701882243408148700,5.648148681640625,0.3281157910823822,-9.817152976989746,1.236191987991333
1701882243417742300,5.657742431640625,0.3089732229709625,-9.776474952697754,1.2529417276382446
1701882243427335000,5.6673349609375,0.2826521694660187,-9.764511108398438,1.2433704137802124
1701882243436927000,5.676927001953125,0.2515454888343811,-9.778867721557617,1.2242279052734375
1701882243446519800,5.686519775390625,0.24915266036987305,-9.79801082611084,1.1883355379104614
1701882243456113200,5.696113037109375,0.2587239444255829,-9.841081619262695,1.176371455192566
1701882243465706000,5.7057060546875,0.27308088541030884,-9.874580383300781,1.173978567123413
1701882243475297800,5.7152978515625,0.33768710494041443,-9.89850902557373,1.173978567123413
1701882243484890600,5.724890625,0.39990049600601196,-9.888937950134277,1.1907284259796143
1701882243494484000,5.73448388671875,0.4046861231327057,-9.862616539001465,1.2290135622024536
1701882243504076800,5.744076904296875,0.3807578980922699,-9.843474388122559,1.2529417276382446
1701882243513668600,5.753668701171875,0.35922250151634216,-9.848259925842285,1.2960125207901
1701882243523261400,5.763261474609375,0.4046861231327057,-9.862616539001465,1.3319048881530762
1701882243532854800,5.772854736328125,0.48843491077423096,-9.845867156982422,1.3175479173660278
1701882243542447600,5.782447509765625,0.521934449672699,-9.80518913269043,1.3247264623641968
1701882243552039400,5.792039306640625,0.5557330846786499,-9.769296646118164,1.3079767227172852
1701882243561632300,5.80163232421875,0.5700899958610535,-9.764511108398438,1.3127623796463013
1701882243571225600,5.8112255859375,0.5485545992851257,-9.778867721557617,1.3510475158691406
1701882243580818400,5.820818359375,0.5365904569625854,-9.80518913269043,1.3869398832321167
1701882243590410200,5.83041015625,0.5892325639724731,-9.829116821289062,1.413260817527771
1701882243600003000,5.840003173828125,0.6083751320838928,-9.857831001281738,1.38933265209198
1701882243609596700,5.8495966796875,0.5964110493659973,-9.872187614440918,1.3630115985870361
1701882243619189200,5.859189208984375,0.5940182209014893,-9.886545181274414,1.3773685693740845
1701882243628781300,5.86878125,0.6203392744064331,-9.908080101013184,1.3797613382339478
1701882243638374000,5.878373779296875,0.649053156375885,-9.963115692138672,1.3007981777191162
1701882243647967500,5.887967529296875,0.6586244106292725,-9.992128372192383,1.2625130414962769
1701882243657560000,5.89756005859375,0.6753742098808289,-9.999306678771973,1.2409776449203491
1701882243667152100,5.907152099609375,0.735194742679596,-9.98255729675293,1.1955139636993408
1701882243676744700,5.91674462890625,0.7447660565376282,-9.994521141052246,1.1165509223937988
1701882243686338300,5.92633837890625,0.6921239495277405,-9.987342834472656,1.077966570854187
1701882243695931000,5.935930908203125,0.6394818425178528,-10.0040922164917,0.989432156085968
1701882243705523000,5.94552294921875,0.5964110493659973,-9.972686767578125,0.9104689955711365
1701882243715115500,5.955115478515625,0.5246263742446899,-9.939187049865723,0.8147560954093933
1701882243724709000,5.964709228515625,0.4214358925819397,-9.91286563873291,0.6951149702072144
1701882243734301700,5.9743017578125,0.3616153299808502,-9.886545181274414,0.5706881880760193
1701882243743893800,5.983893798828125,0.2706880569458008,-9.853045463562012,0.4914259612560272
1701882243753486300,5.993486328125,0.246759831905365,-9.78126049041748,0.44835513830184937
1701882243763080000,6.003079833984375,0.2108674943447113,-9.704689979553223,0.41964125633239746
1701882243772672500,6.012672607421875,0.17497515678405762,-9.608977317810059,0.44835513830184937
1701882243782264600,6.0222646484375,0.07926224917173386,-9.501300811767578,0.48424747586250305
1701882243791857400,6.031857421875,0.009870393201708794,-9.41755199432373,0.4938187599182129
1701882243801450800,6.04145068359375,-0.1052841991186142,-9.321539878845215,0.5129613280296326
1701882243811043300,6.051043212890625,-0.13639089465141296,-9.218647956848145,0.5563312768936157
1701882243820635400,6.060635498046875,-0.059820566326379776,-9.020044326782227,0.6496513485908508
1701882243830228000,6.07022802734375,-0.19621145725250244,-8.825926780700684,0.48903313279151917
1701882243839821600,6.079821533203125,-0.023629123345017433,-8.545966148376465,0.5611169338226318
1701882243849414400,6.089414306640625,0.036191441118717194,-8.263314247131348,0.4627120792865753
1701882243859006200,6.099006103515625,0.057726845145225525,-7.973782539367676,0.376570463180542
1701882243868599000,6.10859912109375,-0.04785645380616188,-7.671987533569336,0.31435707211494446
1701882243878192400,6.1181923828125,-0.12203395366668701,-7.3848490715026855,0.32153555750846863
1701882243887785200,6.12778515625,-0.03798605874180794,-7.092625617980957,0.3646063506603241
1701882243897377000,6.137376953125,0.17258232831954956,-6.7432732582092285,0.4339981973171234
1701882243906969900,6.146969970703125,0.32572299242019653,-6.39601469039917,0.6927221417427063
1701882243916563200,6.156563232421875,0.24915266036987305,-6.125626087188721,0.9702895879745483
1701882243926156000,6.166156005859375,0.014656038954854012,-5.948257923126221,1.1835498809814453
1701882243935747800,6.175747802734375,-0.15074782073497772,-5.809474468231201,1.6070795059204102
1701882243945340700,6.185340576171875,0.031405795365571976,-5.618048667907715,2.0859432220458984
1701882243954934300,6.194934326171875,0.20368902385234833,-5.567799091339111,2.2561326026916504
1701882243964526800,6.20452685546875,0.42382872104644775,-5.596513271331787,2.3255245685577393
1701882243974118700,6.21411865234375,0.768694281578064,-5.754439353942871,2.4858436584472656
1701882243983711500,6.22371142578125,1.3408780097961426,-5.957829475402832,2.246561288833618
1701882243993305000,6.23330517578125,1.0821540355682373,-5.85493803024292,1.7892330884933472
1701882244002897700,6.242897705078125,0.3807578980922699,-5.2492547035217285,1.2816556692123413
1701882244012489500,6.252489501953125,0.06729813665151596,-4.320241451263428,0.6999006271362305
1701882244022082300,6.262082275390625,0.05294119939208031,-3.4704902172088623,0.39092740416526794
1701882244031676000,6.271676025390625,0.2946162819862366,-2.8767709732055664,0.6113662123680115
1701882244041268500,6.2812685546875,0.6227321028709412,-2.5247271060943604,0.8697910308837891
1701882244050860300,6.2908603515625,0.7639086246490479,-2.412264347076416,0.7429714202880859
1701882244060453000,6.300453125,0.4668995141983032,-2.71645188331604,0.534795880317688
1701882244070046700,6.310046630859375,0.7734799385070801,-3.6619160175323486,0.4794618487358093
1701882244079639300,6.319639404296875,1.4868401288986206,-5.069792747497559,0.4244269132614136
1701882244089231400,6.3292314453125,1.8604196310043335,-6.154339790344238,0.33828529715538025
1701882244098824000,6.338823974609375,1.9848463535308838,-6.987341403961182,0.3837489187717438
1701882244108417500,6.34841748046875,2.094916343688965,-7.669594764709473,0.7405785918235779
1701882244118010000,6.358010009765625,1.8987047672271729,-8.366504669189453,1.3965110778808594
1701882244127602200,6.367602294921875,1.3336994647979736,-9.376574516296387,2.3590240478515625
1701882244137194800,6.37719482421875,0.6538388133049011,-10.540383338928223,3.355036497116089
1701882244146788400,6.386788330078125,0.02183450572192669,-11.749357223510742,4.290929317474365
1701882244156381000,6.396380859375,-0.16510476171970367,-12.230613708496094,5.231906890869141
1701882244165973000,6.405972900390625,-0.06939185410737991,-11.81157112121582,5.861518383026123
1701882244175565600,6.415565673828125,0.2994019389152527,-10.841879844665527,5.914160251617432
1701882244185159200,6.4251591796875,0.07447660714387894,-9.661619186401367,6.119943141937256
1701882244194751700,6.434751708984375,0.1295115202665329,-8.787641525268555,6.354738712310791
1701882244204343800,6.44434375,0.34247273206710815,-6.621239185333252,5.4041900634765625
1701882244213936400,6.453936279296875,-0.8904291391372681,-4.746462821960449,4.853541851043701
1701882244223530000,6.463530029296875,-1.2831511497497559,-4.124029636383057,5.509474277496338
1701882244233122600,6.47312255859375,-0.5670989751815796,-4.705784797668457,6.1944193840026855
1701882244242714600,6.482714599609375,-0.021236300468444824,-7.317849636077881,6.859923362731934
1701882244252307200,6.49230712890625,-0.48813581466674805,-11.009376525878906,6.3499531745910645
1701882244261900800,6.50190087890625,-1.4530415534973145,-15.4360990524292,5.698806285858154
1701882244271493400,6.511493408203125,-3.2222347259521484,-19.561325073242188,3.687638759613037
1701882244281085400,6.52108544921875,0.5003990530967712,-21.000009536743164,1.9040886163711548
1701882244290678000,6.530677978515625,0.19651055335998535,-20.636001586914062,-0.9855438470840454
1701882244300271600,6.540271728515625,-0.8473583459854126,-21.201305389404297,-2.9297122955322266
1701882244309864200,6.5498642578125,-5.056034088134766,-20.825334548950195,-3.2934212684631348
1701882244319456300,6.559456298828125,-6.4686970710754395,-22.8194522857666,-2.331207513809204
1701882244329048800,6.569048828125,-8.405387878417969,-22.61606216430664,-2.9368906021118164
1701882244338642400,6.578642333984375,-8.642576217651367,-18.196517944335938,-2.8818557262420654
1701882244348235000,6.588235107421875,-5.666802406311035,-21.952951431274414,-1.8906289339065552
1701882244357827000,6.5978271484375,-3.3083763122558594,-22.38395881652832,-1.8140586614608765
1701882244367420000,6.607419921875,-1.8816559314727783,-20.74397850036621,-0.22432711720466614
1701882244377013200,6.61701318359375,-3.1983065605163574,-17.571693420410156,-0.9065806865692139
1701882244386605800,6.626605712890625,-4.718646049499512,-13.894224166870117,-1.3351950645446777
1701882244396198000,6.636197998046875,-6.305984973907471,-11.18913745880127,-1.3615161180496216
1701882244405790700,6.645790771484375,-8.192426681518555,-9.032008171081543,-0.34636107087135315
1701882244415384000,6.655384033203125,-9.511469841003418,-8.014460563659668,0.6448656916618347
1701882244424976600,6.6649765625,-9.834799766540527,-7.777570724487305,1.0157532691955566
1701882244434568700,6.674568603515625,-8.743074417114258,-8.040781021118164,1.3773685693740845
1701882244444161500,6.68416162109375,-7.656135082244873,-7.559525012969971,1.169192910194397
1701882244453755000,6.6937548828125,-7.373782157897949,-6.5874409675598145,0.46749773621559143
1701882244463347500,6.703347412109375,-7.682456016540527,-5.455037593841553,-0.054436713457107544
1701882244472939500,6.712939453125,-7.914859294891357,-4.476073741912842,-0.42293140292167664
1701882244482532400,6.722532470703125,-7.103094100952148,-3.4417762756347656,-0.8324031829833984
1701882244492125700,6.732125732421875,-6.585945129394531,-2.292623281478882,-1.1820544004440308
1701882244501718300,6.74171826171875,-6.854240417480469,-1.4784653186798096,-1.648654818534851
1701882244511306500,6.751306396484375,-7.670492172241211,-1.1458629369735718,-2.0557336807250977
1701882244520899300,6.7608994140625,-8.855537414550781,-1.4688940048217773,-2.113161563873291
1701882244530492700,6.77049267578125,-9.078369140625,-1.9908283948898315,-2.3359930515289307
1701882244540085500,6.78008544921875,-9.00389289855957,-2.3620150089263916,-2.5633113384246826
1701882244549677300,6.78967724609375,-8.8076810836792,-2.7044878005981445,-2.589632272720337
1701882244559270100,6.799270263671875,-9.121439933776855,-2.9150562286376953,-2.8411777019500732
1701882244568863700,6.80886376953125,-9.18843936920166,-2.881556749343872,-3.3699915409088135
1701882244578456300,6.818456298828125,-9.298508644104004,-3.5015969276428223,-3.1283164024353027
1701882244588048100,6.828048095703125,-9.621838569641113,-3.834498405456543,-2.5848467350006104
1701882244597641000,6.837640869140625,-9.276973724365234,-4.696213722229004,-1.9002002477645874
1701882244607234300,6.847234375,-8.877073287963867,-4.942973613739014,-2.4987051486968994
1701882244616827100,6.8568271484375,-8.470293045043945,-4.784748077392578,-3.6502509117126465
1701882244626419000,6.8664189453125,-7.883453369140625,-4.202992916107178,-4.787439823150635
1701882244636011800,6.87601171875,-7.067201614379883,-3.0203404426574707,-6.240780353546143
1701882244645605000,6.885605224609375,-7.421638488769531,-2.1490538120269775,-7.071389198303223
1701882244655198000,6.895197998046875,-8.237890243530273,-1.6414763927459717,-7.308278560638428
1701882244664789800,6.904789794921875,-8.237890243530273,-1.344467282295227,-7.703393459320068
1701882244674382600,6.914382568359375,-8.185248374938965,-0.8009973764419556,-8.457730293273926
1701882244683976200,6.92397607421875,-8.345566749572754,-0.631106972694397,-8.878867149353027
1701882244693568800,6.93356884765625,-8.582756042480469,-0.786640465259552,-8.914759635925293
1701882244703160600,6.94316064453125,-8.470293045043945,-0.9565308690071106,-8.826225280761719
1701882244712753400,6.95275341796875,-7.912466049194336,-0.9541380405426025,-8.799904823303223
1701882244722346800,6.9623466796875,-7.311269760131836,-0.9302098155021667,-8.768797874450684
1701882244731939600,6.971939697265625,-7.306483745574951,-1.0046863555908203,-9.08973503112793
1701882244741531400,6.981531494140625,-7.172485828399658,-0.908674418926239,-9.235696792602539
1701882244751124200,6.991124267578125,-7.52213716506958,-0.631106972694397,-9.522835731506348
1701882244760717600,7.000717529296875,-8.0081787109375,0.05593222752213478,-10.195816993713379
1701882244770310400,7.010310302734375,-7.830811023712158,0.9897312521934509,-10.449456214904785
1701882244779902200,7.019902099609375,-7.703991413116455,1.7820546627044678,-10.356136322021484
1701882244789495000,7.0294951171875,-7.680063247680664,2.794816732406616,-10.186245918273926
1701882244799088600,7.039088623046875,-7.210771083831787,4.075874328613281,-9.815059661865234
1701882244808681200,7.04868115234375,-6.279664039611816,5.085944652557373,-9.460622787475586
1701882244818273000,7.05827294921875,-5.403292655944824,5.790032386779785,-9.07537841796875
1701882244827865900,7.067865966796875,-5.0703911781311035,5.816353797912598,-8.752047538757324
1701882244837459200,7.077459228515625,-4.8813581466674805,5.426024436950684,-8.397610664367676
1701882244847052000,7.087052001953125,-4.737788677215576,5.282454967498779,-8.299505233764648
1701882244856643800,7.096643798828125,-4.488636016845703,5.612664699554443,-8.558229446411133
1701882244866236700,7.106236572265625,-4.146462440490723,5.421238899230957,-8.701798439025879
1701882244875830000,7.115830078125,-3.344268798828125,4.951946258544922,-8.653942108154297
1701882244885422800,7.1254228515625,-2.8920252323150635,4.288835525512695,-8.440681457519531
1701882244895014700,7.1350146484375,-2.8752756118774414,3.426821231842041,-7.705786228179932
1701882244904607500,7.144607421875,-2.9566314220428467,2.5292134284973145,-6.8895344734191895
1701882244914200800,7.154200927734375,-2.999702215194702,1.5260226726531982,-6.068198204040527
1701882244923793700,7.163793701171875,-3.0403802394866943,0.8485547304153442,-5.927021503448486
1701882244933385500,7.173385498046875,-3.179163932800293,0.32662028074264526,-5.694917678833008
1701882244942978300,7.182978271484375,-3.392125129699707,0.22133609652519226,-5.682953834533691
1701882244952571600,7.192571533203125,-3.559921979904175,0.09900303930044174,-5.726024627685547
1701882244962164500,7.20216455078125,-3.741776466369629,-0.0445663221180439,-5.567799091339111
1701882244971756300,7.21175634765625,-3.545564889907837,-0.3652045428752899,-5.302196025848389
1701882244981348900,7.221348876953125,-3.4474592208862305,-0.8249256014823914,-5.216054439544678
1701882244990942500,7.2309423828125,-3.782454490661621,-1.5071791410446167,-5.4505510330200195
1701882245000535300,7.240535400390625,-2.7457640171051025,-1.4401801824569702,-5.340480804443359
1701882245010127000,7.250127197265625,-3.6053855419158936,-1.1075778007507324,-5.802595138549805
1701882245019720000,7.259719970703125,-3.8494534492492676,-0.8488538265228271,-6.049055576324463
1701882245029313300,7.269313232421875,-3.7776687145233154,-0.6789634227752686,-6.539883613586426
1701882245038906000,7.278906005859375,-3.545564889907837,-0.8273184299468994,-6.970890522003174
1701882245048498000,7.288497802734375,-3.9717864990234375,-1.0549356937408447,-7.514360427856445
1701882245058090800,7.2980908203125,-3.969393730163574,-1.2200404405593872,-7.993224143981934
1701882245067684000,7.30768408203125,-4.273282051086426,-1.3851451873779297,-8.68026351928711
1701882245077276700,7.317276611328125,-4.871787071228027,-1.7850457429885864,-9.125627517700195
1701882245086868700,7.32686865234375,-4.575077056884766,-2.498405933380127,-8.914759635925293
1701882245096461600,7.336461669921875,-3.4067811965942383,-3.2527432441711426,-8.646763801574707
1701882245106055000,7.346054931640625,-3.0738797187805176,-3.9828531742095947,-8.984151840209961
1701882245115647500,7.3556474609375,-4.505385875701904,-4.133601188659668,-11.009675979614258
1701882245125239600,7.365239501953125,-5.269294738769531,-4.344169616699219,-12.244970321655273
1701882245134832400,7.374832275390625,-4.481457710266113,-4.631607532501221,-12.76929759979248
1701882245144425700,7.38442578125,-3.2605199813842773,-4.557429790496826,-13.080663681030273
1701882245154018300,7.394018310546875,-3.3418760299682617,-4.092923164367676,-13.18834114074707
1701882245163610400,7.4036103515625,-4.48624324798584,-3.4728829860687256,-12.920045852661133
1701882245173203200,7.413203125,-5.721837043762207,-2.7930221557617188,-12.55155086517334
1701882245182796500,7.422796630859375,-6.1334028244018555,-2.7116663455963135,-11.675179481506348
1701882245192389000,7.43238916015625,-6.142973899841309,-2.8767709732055664,-10.799107551574707
1701882245201981200,7.441981201171875,-5.949155330657959,-2.6419754028320312,-10.12134075164795
1701882245211573800,7.45157373046875,-5.623432159423828,-2.65633225440979,-9.568299293518066
1701882245221167400,7.46116748046875,-4.9435715675354,-2.826521635055542,-9.197412490844727
1701882245230760000,7.470760009765625,-4.254139423370361,-3.477668523788452,-9.22134017944336
1701882245240352000,7.48035205078125,-3.382553815841675,-4.253242015838623,-8.886046409606934
1701882245249944600,7.489944580078125,-2.513660192489624,-4.8421759605407715,-9.003293991088867
1701882245259538200,7.4995380859375,-1.9462621212005615,-5.435894966125488,-9.290732383728027
1701882245269130800,7.509130859375,-1.350150227546692,-5.852545261383057,-9.180662155151367
1701882245278722800,7.518722900390625,-1.0220344066619873,-6.058627128601074,-8.842975616455078
1701882245288315400,7.5283154296875,-0.9813563823699951,-6.082555294036865,-8.426324844360352
1701882245297909000,7.537908935546875,-1.098604679107666,-5.974578857421875,-7.945367813110352
1701882245307501600,7.54750146484375,-1.194616675376892,-5.845366477966309,-7.406683444976807
1701882245317093600,7.55709375,-1.3214362859725952,-5.6084771156311035,-6.685845375061035
1701882245326686200,7.566686279296875,-1.5080764293670654,-5.385645389556885,-6.010770320892334
1701882245336279800,7.57627978515625,-1.2759727239608765,-5.232504844665527,-5.6084771156311035
1701882245345872400,7.585872314453125,-1.677966833114624,-5.26600456237793,-5.5845489501953125
1701882245355464400,7.59546435546875,-2.17836594581604,-5.419145107269287,-6.0610198974609375
1701882245365057000,7.60505712890625,-2.20947265625,-5.735296726226807,-6.606882572174072
1701882245374650600,7.614650634765625,-2.2764716148376465,-5.86211633682251,-6.714559555053711
1701882245384243200,7.6242431640625,-2.4083759784698486,-5.620441436767578,-6.918248653411865
1701882245393835000,7.6338349609375,-2.496910333633423,-5.242076396942139,-7.265207767486572
1701882245403427800,7.643427734375,-2.585444927215576,-4.456931114196777,-8.10807991027832
1701882245413021400,7.653021484375,-2.6141586303710938,-3.9182469844818115,-8.771190643310547
1701882245422614000,7.662614013671875,-2.6213371753692627,-3.484847068786621,-9.405587196350098
1701882245432205800,7.672205810546875,-2.6596224308013916,-3.2165517807006836,-9.913165092468262
1701882245441798700,7.681798583984375,-2.662015199661255,-3.063411235809326,-10.341779708862305
1701882245451392300,7.691392333984375,-2.6500511169433594,-3.061018466949463,-10.569097518920898
1701882245460984800,7.70098486328125,-2.5878376960754395,-3.197409152984619,-10.569097518920898
1701882245470576600,7.71057666015625,-2.5088746547698975,-3.3388848304748535,-10.482955932617188
1701882245480169500,7.72016943359375,-2.4705893993377686,-3.396312713623047,-10.363314628601074
1701882245489762800,7.7297626953125,-2.458625316619873,-3.358027458190918,-10.236495018005371
1701882245499355600,7.739355712890625,-2.4323041439056396,-3.286242723464966,-10.06152057647705
1701882245508947500,7.748947509765625,-2.324627161026001,-3.187838077545166,-9.920343399047852
1701882245518540300,7.758540283203125,-2.2887349128723145,-3.008376359939575,-9.76241683959961
1701882245528134000,7.7681337890625,-2.1975085735321045,-2.836092948913574,-9.626026153564453
1701882245537726500,7.7777265625,-2.1568305492401123,-2.6443681716918945,-9.518050193786621
1701882245547318300,7.787318359375,-2.144866466522217,-2.4936203956604004,-9.41755199432373
1701882245556911000,7.7969111328125,-2.1759731769561768,-2.3763720989227295,-9.381659507751465
1701882245566504400,7.80650439453125,-2.1664018630981445,-2.2998015880584717,-9.33141040802002
1701882245576097300,7.81609716796875,-2.250150680541992,-2.2663021087646484,-9.32183837890625
1701882245585689000,7.825689208984375,-2.324627161026001,-2.271087884902954,-9.288339614868164
1701882245595282000,7.835281982421875,-2.441875457763672,-2.302194595336914,-9.2859468460083
1701882245604875300,7.844875244140625,-2.6189444065093994,-2.311765670776367,-9.273982048034668
1701882245614468000,7.854468017578125,-2.774477958679199,-2.4337997436523438,-9.171091079711914
1701882245624060000,7.864059814453125,-2.92073917388916,-2.608475685119629,-9.080163955688477
1701882245633652700,7.87365283203125,-3.109772205352783,-2.74755859375,-8.965008735656738
1701882245643246000,7.88324609375,-3.2772696018218994,-2.850450038909912,-8.845368385314941
1701882245652838700,7.892838623046875,-3.399303674697876,-2.8935208320617676,-8.723334312438965
1701882245662430700,7.9024306640625,-3.4809587001800537,-2.922234535217285,-8.613264083862305
1701882245672023600,7.9120234375,-3.5336008071899414,-2.936591625213623,-8.507980346679688
1701882245681617000,7.921616943359375,-3.5718860626220703,-2.895913600921631,-8.423932075500488
1701882245691209500,7.93120947265625,-3.559921979904175,-2.8384859561920166,-8.34018325805664
1701882245700801500,7.940801513671875,-3.5264222621917725,-2.819343328475952,-8.277970314025879
1701882245710394400,7.950394287109375,-3.4953157901763916,-2.7978079319000244,-8.251648902893066
1701882245719987700,7.95998779296875,-3.4713873863220215,-2.764308452606201,-8.23250675201416
1701882245729580300,7.969580322265625,-3.442673683166504,-2.7667012214660645,-8.242077827453613
1701882245739172400,7.97917236328125,-3.4618160724639893,-2.7810580730438232,-8.280363082885742
1701882245748765000,7.988764892578125,-3.4713873863220215,-2.833700180053711,-8.309076309204102
1701882245758358500,7.998358642578125,-3.5168511867523193,-2.8552355766296387,-8.376075744628906
1701882245767951000,8.007951171875,-3.6053855419158936,-2.8911280632019043,-8.404789924621582
1701882245777543200,8.017543212890626,-3.66520619392395,-2.9653055667877197,-8.462516784667969
1701882245787135700,8.0271357421875,-3.8015968799591064,-2.9940192699432373,-8.469695091247559
1701882245796729300,8.036729248046875,-3.861417531967163,-3.0490541458129883,-8.488837242126465
1701882245806322000,8.046322021484375,-3.967000722885132,-3.0993034839630127,-8.464909553527832
1701882245815914000,8.0559140625,-4.048357009887695,-3.139981508255005,-8.428717613220215
1701882245825506600,8.065506591796876,-4.065106391906738,-3.149552822113037,-8.404789924621582
1701882245835100200,8.07510009765625,-4.045963764190674,-3.1663026809692383,-8.37129020690918
1701882245844692700,8.084692626953125,-4.033999919891357,-3.125624656677246,-8.388039588928223
1701882245854284500,8.094284423828125,-3.961916208267212,-3.101696252822876,-8.380861282348633
1701882245863877400,8.10387744140625,-3.8733816146850586,-3.0681967735290527,-8.37129020690918
1701882245873471000,8.113470947265625,-3.7944185733795166,-3.0131618976593018,-8.400003433227539
1701882245883063600,8.1230634765625,-3.6939198970794678,-2.974876642227173,-8.397610664367676
1701882245892655400,8.1326552734375,-3.586242914199829,-2.9246275424957275,-8.416753768920898
1701882245902248200,8.142248291015624,-3.507279872894287,-2.888735055923462,-8.431110382080078
1701882245911841500,8.151841552734375,-3.4235310554504395,-2.8695926666259766,-8.4502534866333
1701882245921434400,8.161434326171875,-3.368196964263916,-2.8600213527679443,-8.486444473266602
1701882245931026200,8.171026123046875,-3.3227334022521973,-2.8624141216278076,-8.536693572998047
1701882245940619000,8.180618896484376,-3.289233922958374,-2.8552355766296387,-8.584549903869629
1701882245950212400,8.19021240234375,-3.243770122528076,-2.857628345489502,-8.646763801574707
1701882245959805200,8.19980517578125,-3.203092098236084,-2.8384859561920166,-8.706583976745605
1701882245969397000,8.20939697265625,-3.164807081222534,-2.843271493911743,-8.78076171875
1701882245978989800,8.21898974609375,-3.124129056930542,-2.8145575523376465,-8.828618049621582
1701882245988583200,8.228583251953125,-3.0954151153564453,-2.8145575523376465,-8.876474380493164
1701882245998175700,8.23817578125,-3.0738797187805176,-2.8241288661956787,-8.926724433898926
1701882246007767800,8.247767822265626,-3.05234432220459,-2.826521635055542,-8.960223197937012
1701882246017360600,8.257360595703124,-3.0499515533447266,-2.819343328475952,-9.000901222229004
1701882246026954000,8.2669541015625,-3.0355947017669678,-2.8145575523376465,-9.013164520263672
1701882246036546600,8.276546630859375,-3.0403802394866943,-2.826521635055542,-9.034700393676758
1701882246046138600,8.286138671875,-3.0355947017669678,-2.836092948913574,-9.037093162536621
1701882246055731200,8.295731201171876,-3.02123761177063,-2.8528428077697754,-9.046664237976074
1701882246065324800,8.30532470703125,-3.004487991333008,-2.8624141216278076,-9.0514497756958
1701882246074917400,8.31491748046875,-3.0092735290527344,-2.888735055923462,-9.056235313415527
1701882246084509400,8.324509521484375,-2.999702215194702,-2.9102704524993896,-9.044271469116211
1701882246094102000,8.33410205078125,-3.0020952224731445,-2.9318058490753174,-9.037093162536621
1701882246103695600,8.343695556640625,-2.9949166774749756,-2.9461629390716553,-9.032307624816895
1701882246113288200,8.3532880859375,-3.006880760192871,-2.9700911045074463,-9.020342826843262
1701882246122880000,8.3628798828125,-3.02123761177063,-2.9724838733673096,-9.003293991088867
1701882246132472800,8.372472900390624,-3.02123761177063,-2.9892337322235107,-8.981759071350098
1701882246142066400,8.38206640625,-3.0355947017669678,-2.9892337322235107,-8.953044891357422
1701882246151659000,8.391658935546875,-3.061915636062622,-2.984447956085205,-8.909974098205566
1701882246161250800,8.401250732421875,-3.0978081226348877,-2.9868409633636475,-8.871688842773438
1701882246170843600,8.41084375,-3.1217362880706787,-2.9796624183654785,-8.821439743041992
1701882246180437200,8.420437255859374,-3.1600213050842285,-2.960519790649414,-8.802297592163086
1701882246190029800,8.43002978515625,-3.2054851055145264,-2.943770170211792,-8.754440307617188
1701882246199621600,8.43962158203125,-3.234198808670044,-2.9413771629333496,-8.720941543579102
1701882246209214500,8.44921435546875,-3.243770122528076,-2.9341988563537598,-8.68026351928711
1701882246218808000,8.45880810546875,-3.2700912952423096,-2.9389843940734863,-8.653942108154297
1701882246228400600,8.468400634765626,-3.2940194606781006,-2.895913600921631,-8.665905952453613
1701882246237992400,8.477992431640626,-3.3179476261138916,-2.9485557079315186,-8.632407188415527
1701882246247585300,8.487585205078124,-3.3107693195343018,-2.991626501083374,-8.591729164123535
1701882246257178600,8.4971787109375,-3.3418760299682617,-2.929413080215454,-8.615656852722168
1701882246266771500,8.506771484375,-3.3634114265441895,-2.9174489974975586,-8.627620697021484
1701882246276363300,8.51636328125,-3.3801610469818115,-2.9174489974975586,-8.639585494995117
1701882246285956000,8.5259560546875,-3.4016964435577393,-2.9030921459198,-8.651549339294434
1701882246295549400,8.535549560546874,-3.4091739654541016,-2.898306369781494,-8.658727645874023
1701882246305142000,8.54514208984375,-3.411566972732544,-2.9006991386413574,-8.67308521270752
1701882246314734000,8.554734130859375,-3.4259238243103027,-2.905484914779663,-8.661120414733887
1701882246324327000,8.564326904296875,-3.4259238243103027,-2.9150562286376953,-8.658727645874023
1701882246333920300,8.573920166015625,-3.411566972732544,-2.9030921459198,-8.677870750427246
1701882246343512800,8.583512939453126,-3.392125129699707,-2.9006991386413574,-8.682656288146973
1701882246353105000,8.59310498046875,-3.384946823120117,-2.8911280632019043,-8.6874418258667
1701882246362697500,8.602697509765624,-3.368196964263916,-2.8935208320617676,-8.697012901306152
1701882246372291000,8.612291015625,-3.358625650405884,-2.8839495182037354,-8.692227363586426
1701882246381883600,8.621883544921875,-3.344268798828125,-2.8767709732055664,-8.716156005859375
1701882246391475700,8.631475830078125,-3.337090253829956,-2.8695926666259766,-8.713762283325195
1701882246401068300,8.641068359375,-3.3227334022521973,-2.881556749343872,-8.730512619018555
1701882246410662000,8.650661865234374,-3.320340633392334,-2.8839495182037354,-8.735298156738281
1701882246420254500,8.66025439453125,-3.303590774536133,-2.8863422870635986,-8.749654769897461
1701882246429846300,8.66984619140625,-3.2868409156799316,-2.881556749343872,-8.754440307617188
1701882246439439000,8.679439208984375,-3.282055377960205,-2.8767709732055664,-8.75922679901123
1701882246449032700,8.68903271484375,-3.250948667526245,-2.8839495182037354,-8.75922679901123
1701882246458625300,8.698625244140626,-3.250948667526245,-2.881556749343872,-8.76640510559082
1701882246468217000,8.708217041015626,-3.2389845848083496,-2.8839495182037354,-8.77358341217041
1701882246477810000,8.717809814453124,-3.217449188232422,-2.874378204345703,-8.783154487609863
1701882246487403300,8.7274033203125,-3.217449188232422,-2.8791637420654297,-8.78076171875
1701882246496996000,8.73699609375,-3.193521022796631,-2.8839495182037354,-8.790332794189453
1701882246506588000,8.746587890625,-3.1983065605163574,-2.8791637420654297,-8.802297592163086
1701882246516180700,8.7561806640625,-3.2054851055145264,-2.8695926666259766,-8.807083129882812
1701882246525774000,8.765774169921874,-3.195913791656494,-2.8791637420654297,-8.809475898742676
1701882246535367000,8.775366943359375,-3.2150564193725586,-2.8767709732055664,-8.828618049621582
1701882246544958700,8.784958740234375,-3.2222347259521484,-2.8911280632019043,-8.821439743041992
1701882246554551600,8.794551513671875,-3.217449188232422,-2.8911280632019043,-8.814261436462402
1701882246564145000,8.804144775390625,-3.224627733230591,-2.888735055923462,-8.807083129882812
1701882246573737500,8.813737548828126,-3.2389845848083496,-2.898306369781494,-8.809475898742676
1701882246583329500,8.82332958984375,-3.2318060398101807,-2.9078776836395264,-8.797511100769043
1701882246592922400,8.83292236328125,-3.2318060398101807,-2.9078776836395264,-8.799904823303223
1701882246602515700,8.842515625,-3.2318060398101807,-2.9078776836395264,-8.799904823303223
1701882246612108300,8.8521083984375,-3.234198808670044,-2.912663459777832,-8.80469036102295
1701882246621700400,8.861700439453125,-3.2294132709503174,-2.9078776836395264,-8.778368949890137
1701882246631293000,8.87129296875,-3.234198808670044,-2.9102704524993896,-8.790332794189453
1701882246640886500,8.880886474609374,-3.2461631298065186,-2.898306369781494,-8.785547256469727
1701882246650479000,8.89047900390625,-3.2557342052459717,-2.9030921459198,-8.778368949890137
1701882246660071200,8.9000712890625,-3.2676985263824463,-2.905484914779663,-8.77358341217041
1701882246669663700,8.909663818359375,-3.2844481468200684,-2.8911280632019043,-8.76640510559082
1701882246679257300,8.91925732421875,-3.296412229537964,-2.8863422870635986,-8.752047538757324
1701882246688850000,8.928849853515626,-3.2940194606781006,-2.895913600921631,-8.740083694458008
1701882246698441700,8.938441650390626,-3.303590774536133,-2.9006991386413574,-8.747262001037598
1701882246708034600,8.94803466796875,-3.3227334022521973,-2.8863422870635986,-8.742476463317871
1701882246717628200,8.957628173828125,-3.313162088394165,-2.874378204345703,-8.737690925598145
1701882246727220700,8.967220703125,-3.313162088394165,-2.8767709732055664,-8.747262001037598
1701882246736812500,8.9768125,-3.3155548572540283,-2.867199659347534,-8.75922679901123
1701882246746405400,8.9864052734375,-3.3179476261138916,-2.8839495182037354,-8.749654769897461
1701882246755998700,8.995998779296874,-3.305983543395996,-2.874378204345703,-8.742476463317871
1701882246765591600,9.005591552734375,-3.313162088394165,-2.87198543548584,-8.747262001037598
1701882246775183400,9.015183349609375,-3.296412229537964,-2.874378204345703,-8.732905387878418
1701882246784776200,9.024776123046875,-3.3011980056762695,-2.874378204345703,-8.730512619018555
1701882246794369500,9.03436962890625,-3.2868409156799316,-2.881556749343872,-8.735298156738281
1701882246803962400,9.04396240234375,-3.298804998397827,-2.87198543548584,-8.737690925598145
1701882246813554200,9.05355419921875,-3.296412229537964,-2.8791637420654297,-8.747262001037598
1701882246823147000,9.06314697265625,-3.282055377960205,-2.8791637420654297,-8.744869232177734
1701882246832740400,9.072740234375,-3.2916266918182373,-2.888735055923462,-8.752047538757324
1701882246842333000,9.0823330078125,-3.2940194606781006,-2.9006991386413574,-8.749654769897461
1701882246851925000,9.091925048828125,-3.289233922958374,-2.895913600921631,-8.749654769897461
1701882246861517800,9.101517822265626,-3.2700912952423096,-2.8935208320617676,-8.783154487609863
1701882246871111200,9.111111083984374,-3.272484064102173,-2.8911280632019043,-8.76640510559082
1701882246880703700,9.120703857421875,-3.2700912952423096,-2.9006991386413574,-8.771190643310547
1701882246890295800,9.1302958984375,-3.2629127502441406,-2.8935208320617676,-8.771190643310547
1701882246899888600,9.139888671875,-3.258127212524414,-2.8839495182037354,-8.77358341217041
1701882246909482000,9.14948193359375,-3.2605199813842773,-2.888735055923462,-8.783154487609863
1701882246919074600,9.159074462890626,-3.250948667526245,-2.895913600921631,-8.775976181030273
1701882246928666600,9.16866650390625,-3.2533414363861084,-2.9006991386413574,-8.783154487609863
1701882246938259200,9.17825927734375,-3.234198808670044,-2.8911280632019043,-8.778368949890137
1701882246947852800,9.187852783203125,-3.2461631298065186,-2.9006991386413574,-8.77358341217041
1701882246957445400,9.1974453125,-3.241377353668213,-2.8935208320617676,-8.768797874450684
1701882246967037400,9.207037353515625,-3.2533414363861084,-2.898306369781494,-8.775976181030273
1701882246976630000,9.216630126953126,-3.2605199813842773,-2.895913600921631,-8.76640510559082
1701882246986223600,9.2262236328125,-3.2676985263824463,-2.8911280632019043,-8.75922679901123
1701882246995816200,9.235816162109375,-3.2676985263824463,-2.888735055923462,-8.761619567871094
1701882247005408300,9.245408203125,-3.2605199813842773,-2.8911280632019043,-8.761619567871094
1701882247015000800,9.255000732421875,-3.2605199813842773,-2.8911280632019043,-8.75922679901123
1701882247024594400,9.264594482421876,-3.2676985263824463,-2.898306369781494,-8.761619567871094
1701882247034187000,9.27418701171875,-3.265305519104004,-2.888735055923462,-8.764012336730957
1701882247043778800,9.28377880859375,-3.274876832962036,-2.888735055923462,-8.775976181030273
1701882247053371600,9.29337158203125,-3.272484064102173,-2.8935208320617676,-8.761619567871094
1701882247062965200,9.30296533203125,-3.2700912952423096,-2.9006991386413574,-8.764012336730957
1701882247072557800,9.312557861328125,-3.2700912952423096,-2.8839495182037354,-8.764012336730957
1701882247082149600,9.322149658203125,-3.250948667526245,-2.895913600921631,-8.75922679901123
1701882247091742500,9.331742431640626,-3.258127212524414,-2.898306369781494,-8.761619567871094
1701882247101336000,9.341336181640624,-3.2700912952423096,-2.9150562286376953,-8.77358341217041
1701882247110928600,9.3509287109375,-3.2605199813842773,-2.9006991386413574,-8.768797874450684
1701882247120520400,9.3605205078125,-3.243770122528076,-2.898306369781494,-8.783154487609863
1701882247130113300,9.37011328125,-3.2533414363861084,-2.895913600921631,-8.78076171875
1701882247139706600,9.37970654296875,-3.243770122528076,-2.8911280632019043,-8.775976181030273
1701882247149299500,9.389299560546876,-3.2629127502441406,-2.9030921459198,-8.77358341217041
1701882247158891300,9.398891357421874,-3.2676985263824463,-2.888735055923462,-8.756834030151367
1701882247168484000,9.408484130859375,-3.2700912952423096,-2.8767709732055664,-8.747262001037598
1701882247178077400,9.418077392578125,-3.2772696018218994,-2.857628345489502,-8.742476463317871
1701882247187670300,9.427670166015625,-3.296412229537964,-2.8528428077697754,-8.742476463317871
1701882247197262000,9.437261962890625,-3.313162088394165,-2.864806890487671,-8.756834030151367
1701882247206855000,9.44685498046875,-3.3011980056762695,-2.8791637420654297,-8.747262001037598
1701882247216448300,9.4564482421875,-3.2676985263824463,-2.8935208320617676,-8.756834030151367
1701882247226040800,9.466040771484375,-3.2557342052459717,-2.888735055923462,-8.761619567871094
1701882247235633000,9.4756328125,-3.248555898666382,-2.8839495182037354,-8.771190643310547
1701882247245225700,9.485225830078125,-3.243770122528076,-2.8695926666259766,-8.790332794189453
1701882247254819000,9.494819091796876,-3.234198808670044,-2.864806890487671,-8.79511833190918
1701882247264411600,9.50441162109375,-3.243770122528076,-2.8528428077697754,-8.78794002532959
1701882247274003700,9.514003662109374,-3.234198808670044,-2.848057270050049,-8.802297592163086
1701882247283596500,9.523596435546875,-3.2318060398101807,-2.848057270050049,-8.80469036102295
1701882247293190000,9.53318994140625,-3.2365918159484863,-2.857628345489502,-8.79511833190918
1701882247302782500,9.542782470703125,-3.2461631298065186,-2.850450038909912,-8.811868667602539
1701882247312374500,9.55237451171875,-3.243770122528076,-2.848057270050049,-8.797511100769043
1701882247321967000,9.561967041015626,-3.241377353668213,-2.8552355766296387,-8.783154487609863
1701882247331560700,9.571560791015624,-3.224627733230591,-2.867199659347534,-8.77358341217041
1701882247341153300,9.5811533203125,-3.2318060398101807,-2.8791637420654297,-8.778368949890137
1701882247350745300,9.590745361328125,-3.2150564193725586,-2.888735055923462,-8.77358341217041
1701882247360338000,9.600337890625,-3.2318060398101807,-2.8863422870635986,-8.78076171875
1701882247369931500,9.609931640625,-3.234198808670044,-2.888735055923462,-8.785547256469727
1701882247379524000,9.619524169921876,-3.227020502090454,-2.881556749343872,-8.785547256469727
1701882247389116200,9.6291162109375,-3.241377353668213,-2.874378204345703,-8.785547256469727
1701882247398708700,9.638708740234375,-3.2318060398101807,-2.8552355766296387,-8.78794002532959
1701882247408302300,9.64830224609375,-3.2365918159484863,-2.8767709732055664,-8.775976181030273
1701882247417895000,9.65789501953125,-3.227020502090454,-2.881556749343872,-8.790332794189453
1701882247427486700,9.66748681640625,-3.2054851055145264,-2.895913600921631,-8.792725563049316
1701882247437079600,9.67707958984375,-3.1983065605163574,-2.9030921459198,-8.807083129882812
1701882247446673200,9.686673095703124,-3.188735246658325,-2.9078776836395264,-8.833403587341309
1701882247456265700,9.696265625,-3.186342477798462,-2.888735055923462,-8.840581893920898
1701882247465857800,9.70585791015625,-3.164807081222534,-2.8791637420654297,-8.845368385314941
1701882247475450400,9.715450439453125,-3.1504502296447754,-2.8528428077697754,-8.857332229614258
1701882247485044000,9.7250439453125,-3.133700370788574,-2.826521635055542,-8.852546691894531
1701882247494636500,9.734636474609376,-3.140878915786743,-2.7834508419036865,-8.854939460754395
1701882247504228400,9.744228271484374,-3.1528429985046387,-2.7667012214660645,-8.852546691894531
1701882247513821200,9.7538212890625,-3.1911280155181885,-2.7499513626098633,-8.811868667602539
1701882247523414800,9.763414794921875,-3.219841957092285,-2.7451658248901367,-8.792725563049316
1701882247533007400,9.77300732421875,-3.250948667526245,-2.7499513626098633,-8.764012336730957
1701882247542599200,9.78259912109375,-3.272484064102173,-2.7523441314697266,-8.752047538757324
1701882247552192000,9.79219189453125,-3.2940194606781006,-2.771486759185791,-8.732905387878418
1701882247561785600,9.80178564453125,-3.3251261711120605,-2.7930221557617188,-8.718548774719238
1701882247571378200,9.811378173828125,-3.329911708831787,-2.8145575523376465,-8.728119850158691
1701882247580970000,9.820969970703125,-3.368196964263916,-2.833700180053711,-8.735298156738281
1701882247590562800,9.830562744140625,-3.329911708831787,-2.8552355766296387,-8.749654769897461
1701882247600156200,9.84015625,-3.368196964263916,-2.8624141216278076,-8.740083694458008
1701882247609749000,9.8497490234375,-3.351447105407715,-2.874378204345703,-8.749654769897461
1701882247619340800,9.8593408203125,-3.3490543365478516,-2.888735055923462,-8.737690925598145
1701882247628933600,9.86893359375,-3.3418760299682617,-2.9030921459198,-8.756834030151367
1701882247638527000,9.87852685546875,-3.3346974849700928,-2.9030921459198,-8.713762283325195
1701882247648119800,9.888119873046875,-3.3418760299682617,-2.9030921459198,-8.677870750427246
1701882247657711600,9.897711669921875,-3.327518939971924,-2.8935208320617676,-8.677870750427246
1701882247667304400,9.907304443359376,-3.3323047161102295,-2.895913600921631,-8.65633487701416
1701882247676897800,9.916897705078124,-3.3179476261138916,-2.898306369781494,-8.64197826385498
1701882247686490600,9.92649072265625,-3.3155548572540283,-2.8791637420654297,-8.63479995727539
1701882247696082400,9.93608251953125,-3.303590774536133,-2.874378204345703,-8.644371032714844
1701882247705675000,9.945675048828125,-3.3083763122558594,-2.8839495182037354,-8.66351318359375
1701882247715268600,9.9552685546875,-3.3227334022521973,-2.8767709732055664,-8.6874418258667
1701882247724861400,9.964861328125,-3.303590774536133,-2.848057270050049,-8.716156005859375
1701882247734453200,9.974453369140624,-3.329911708831787,-2.8528428077697754,-8.749654769897461
1701882247744046000,9.984046142578125,-3.3155548572540283,-2.8600213527679443,-8.77358341217041
1701882247753639400,9.993639404296875,-3.3179476261138916,-2.8456642627716064,-8.790332794189453
1701882247763232000,10.00323193359375,-3.303590774536133,-2.836092948913574,-8.826225280761719
1701882247772824000,10.012823974609375,-3.2868409156799316,-2.833700180053711,-8.845368385314941
1701882247782417000,10.0224169921875,-3.274876832962036,-2.8049862384796143,-8.866903305053711
1701882247792010200,10.03201025390625,-3.2605199813842773,-2.8002007007598877,-8.88365364074707
1701882247801602800,10.041602783203125,-3.2294132709503174,-2.7834508419036865,-8.876474380493164
1701882247811195000,10.05119482421875,-3.2222347259521484,-2.771486759185791,-8.89083194732666
1701882247820787500,10.060787353515625,-3.217449188232422,-2.7667012214660645,-8.876474380493164
1701882247830381000,10.070381103515626,-3.2006993293762207,-2.7571299076080322,-8.876474380493164
1701882247839973600,10.0799736328125,-3.212663412094116,-2.7690939903259277,-8.857332229614258
1701882247849565700,10.089565673828124,-3.2054851055145264,-2.74755859375,-8.854939460754395
1701882247859158500,10.099158447265625,-3.219841957092285,-2.771486759185791,-8.857332229614258
1701882247868752000,10.108751953125,-3.2222347259521484,-2.7690939903259277,-8.859724998474121
1701882247878344400,10.118344482421875,-3.241377353668213,-2.788236618041992,-8.854939460754395
1701882247887936500,10.1279365234375,-3.243770122528076,-2.8049862384796143,-8.838189125061035
1701882247897529000,10.137529052734376,-3.248555898666382,-2.80977201461792,-8.833403587341309
1701882247907122700,10.147122802734375,-3.2461631298065186,-2.826521635055542,-8.826225280761719
1701882247916715300,10.15671533203125,-3.248555898666382,-2.8241288661956787,-8.823832511901855
1701882247926307300,10.166307373046875,-3.258127212524414,-2.8217360973358154,-8.809475898742676
1701882247935900000,10.17589990234375,-3.2461631298065186,-2.80977201461792,-8.792725563049316
1701882247945493500,10.185493408203126,-3.241377353668213,-2.819343328475952,-8.79511833190918
1701882247955086000,10.195086181640624,-3.2533414363861084,-2.80977201461792,-8.778368949890137
1701882247964678100,10.20467822265625,-3.2557342052459717,-2.8313074111938477,-8.768797874450684
1701882247974270700,10.214270751953125,-3.2557342052459717,-2.843271493911743,-8.764012336730957
1701882247983864300,10.2238642578125,-3.2533414363861084,-2.8384859561920166,-8.749654769897461
1701882247993457000,10.233456787109375,-3.2676985263824463,-2.8552355766296387,-8.742476463317871
1701882248003048700,10.243048583984375,-3.2700912952423096,-2.864806890487671,-8.742476463317871
1701882248012641500,10.2526416015625,-3.272484064102173,-2.8552355766296387,-8.754440307617188
1701882248022235100,10.262235107421875,-3.296412229537964,-2.857628345489502,-8.737690925598145
1701882248031827700,10.27182763671875,-3.2772696018218994,-2.888735055923462,-8.761619567871094
1701882248041419500,10.28141943359375,-3.2916266918182373,-2.8863422870635986,-8.732905387878418
1701882248051012400,10.291012451171875,-3.298804998397827,-2.9078776836395264,-8.737690925598145
1701882248060606000,10.30060595703125,-3.303590774536133,-2.9030921459198,-8.732905387878418
1701882248070198500,10.310198486328124,-3.3179476261138916,-2.8839495182037354,-8.740083694458008
1701882248079790300,10.319790283203124,-3.3155548572540283,-2.881556749343872,-8.735298156738281
1701882248089383200,10.329383056640625,-3.3227334022521973,-2.8552355766296387,-8.747262001037598
1701882248098976500,10.3389765625,-3.3227334022521973,-2.8456642627716064,-8.752047538757324
1701882248108569300,10.3485693359375,-3.320340633392334,-2.8384859561920166,-8.756834030151367
1701882248118161200,10.3581611328125,-3.305983543395996,-2.84087872505188,-8.744869232177734
1701882248127754000,10.36775390625,-3.2940194606781006,-2.8456642627716064,-8.756834030151367
1701882248137347300,10.377347412109375,-3.279662609100342,-2.8528428077697754,-8.764012336730957
1701882248146940200,10.386940185546875,-3.265305519104004,-2.8552355766296387,-8.76640510559082
1701882248156532000,10.396531982421875,-3.258127212524414,-2.843271493911743,-8.790332794189453
1701882248166124800,10.406124755859375,-3.2676985263824463,-2.836092948913574,-8.799904823303223
1701882248175718100,10.41571826171875,-3.2605199813842773,-2.8384859561920166,-8.809475898742676
1701882248185311000,10.42531103515625,-3.243770122528076,-2.836092948913574,-8.811868667602539
1701882248194902800,10.43490283203125,-3.248555898666382,-2.826521635055542,-8.799904823303223
1701882248204495600,10.44449560546875,-3.2605199813842773,-2.8073792457580566,-8.80469036102295
1701882248214089000,10.4540888671875,-3.2676985263824463,-2.7906293869018555,-8.78794002532959
1701882248223681500,10.463681640625,-3.2533414363861084,-2.7930221557617188,-8.797511100769043
1701882248233273600,10.473273681640626,-3.2700912952423096,-2.8073792457580566,-8.785547256469727
1701882248242866400,10.482866455078126,-3.279662609100342,-2.8241288661956787,-8.77358341217041
1701882248252459800,10.492459716796875,-3.274876832962036,-2.84087872505188,-8.76640510559082
1701882248262052400,10.50205224609375,-3.272484064102173,-2.8600213527679443,-8.764012336730957
1701882248271644400,10.51164453125,-3.2700912952423096,-2.8600213527679443,-8.778368949890137
1701882248281237000,10.521237060546875,-3.258127212524414,-2.8552355766296387,-8.792725563049316
1701882248290830600,10.53083056640625,-3.250948667526245,-2.8695926666259766,-8.79511833190918
1701882248300423200,10.540423095703124,-3.2461631298065186,-2.867199659347534,-8.802297592163086
1701882248310015200,10.55001513671875,-3.2389845848083496,-2.8456642627716064,-8.797511100769043
1701882248319608000,10.559608154296875,-3.241377353668213,-2.843271493911743,-8.802297592163086
1701882248329201400,10.569201416015625,-3.248555898666382,-2.8600213527679443,-8.783154487609863
1701882248338794000,10.5787939453125,-3.2605199813842773,-2.8552355766296387,-8.775976181030273
1701882248348386000,10.588385986328126,-3.250948667526245,-2.84087872505188,-8.77358341217041
1701882248357978600,10.597978515625,-3.272484064102173,-2.864806890487671,-8.76640510559082
1701882248367572200,10.607572265625,-3.272484064102173,-2.864806890487671,-8.740083694458008
1701882248377164800,10.617164794921875,-3.2844481468200684,-2.850450038909912,-8.742476463317871
1701882248386756900,10.6267568359375,-3.2940194606781006,-2.8767709732055664,-8.735298156738281
1701882248396349400,10.636349365234375,-3.2916266918182373,-2.881556749343872,-8.747262001037598
1701882248405943000,10.645943115234376,-3.289233922958374,-2.874378204345703,-8.737690925598145
1701882248415535600,10.65553564453125,-3.305983543395996,-2.8695926666259766,-8.752047538757324
1701882248425127400,10.66512744140625,-3.2868409156799316,-2.8767709732055664,-8.75922679901123
1701882248434720300,10.67472021484375,-3.3011980056762695,-2.874378204345703,-8.747262001037598
1701882248444313900,10.68431396484375,-3.2868409156799316,-2.874378204345703,-8.75922679901123
1701882248453906400,10.693906494140625,-3.2844481468200684,-2.874378204345703,-8.756834030151367
1701882248463498200,10.703498291015626,-3.2772696018218994,-2.8695926666259766,-8.742476463317871
1701882248473091000,10.713091064453126,-3.296412229537964,-2.8791637420654297,-8.752047538757324
1701882248482684700,10.7226845703125,-3.2940194606781006,-2.874378204345703,-8.740083694458008
1701882248492277200,10.73227734375,-3.282055377960205,-2.8767709732055664,-8.737690925598145
1701882248501869000,10.741869140625,-3.289233922958374,-2.8791637420654297,-8.754440307617188
1701882248511462000,10.7514619140625,-3.3083763122558594,-2.8217360973358154,-8.761619567871094
1701882248521055200,10.76105517578125,-3.2318060398101807,-2.9150562286376953,-8.740083694458008
1701882248530648000,10.77064794921875,-3.282055377960205,-2.874378204345703,-8.737690925598145
1701882248540240000,10.780239990234374,-3.265305519104004,-2.888735055923462,-8.742476463317871
1701882248549832400,10.78983251953125,-3.279662609100342,-2.874378204345703,-8.771190643310547
1701882248559426000,10.799426025390625,-3.2844481468200684,-2.867199659347534,-8.76640510559082
1701882248569019000,10.809018798828125,-3.279662609100342,-2.8791637420654297,-8.756834030151367
1701882248578610700,10.818610595703126,-3.2916266918182373,-2.888735055923462,-8.756834030151367
1701882248588203500,10.82820361328125,-3.2844481468200684,-2.87198543548584,-8.768797874450684
1701882248597796900,10.837796875,-3.279662609100342,-2.8695926666259766,-8.76640510559082
1701882248607389400,10.847389404296875,-3.2772696018218994,-2.867199659347534,-8.75922679901123
1701882248616981500,10.8569814453125,-3.2916266918182373,-2.8839495182037354,-8.756834030151367
1701882248626574300,10.86657421875,-3.2940194606781006,-2.8839495182037354,-8.75922679901123
1701882248636167700,10.876167724609376,-3.282055377960205,-2.888735055923462,-8.75922679901123
1701882248645760300,10.88576025390625,-3.272484064102173,-2.8863422870635986,-8.744869232177734
1701882248655352300,10.895352294921874,-3.282055377960205,-2.87198543548584,-8.754440307617188
1701882248664945000,10.90494482421875,-3.2772696018218994,-2.8863422870635986,-8.749654769897461
1701882248674538500,10.91453857421875,-3.2772696018218994,-2.8767709732055664,-8.754440307617188
1701882248684131000,10.924131103515625,-3.279662609100342,-2.8839495182037354,-8.756834030151367
1701882248693723100,10.93372314453125,-3.2940194606781006,-2.881556749343872,-8.742476463317871
1701882248703315700,10.943315673828126,-3.2916266918182373,-2.888735055923462,-8.742476463317871
1701882248712909300,10.952909423828125,-3.2940194606781006,-2.8911280632019043,-8.725727081298828
1701882248722502000,10.962501953125,-3.298804998397827,-2.895913600921631,-8.732905387878418
1701882248732094000,10.972093994140625,-3.298804998397827,-2.898306369781494,-8.735298156738281
1701882248741686500,10.9816865234375,-3.313162088394165,-2.8911280632019043,-8.732905387878418
1701882248751280000,10.991280029296876,-3.3107693195343018,-2.9030921459198,-8.732905387878418
1701882248760872700,11.000872802734374,-3.3083763122558594,-2.9006991386413574,-8.735298156738281
1701882248770464500,11.010464599609374,-3.3011980056762695,-2.905484914779663,-8.735298156738281
1701882248780057300,11.020057373046875,-3.2940194606781006,-2.9006991386413574,-8.737690925598145
1701882248789651000,11.02965087890625,-3.2940194606781006,-2.8935208320617676,-8.735298156738281
1701882248799243500,11.039243408203125,-3.282055377960205,-2.881556749343872,-8.740083694458008
1701882248808835300,11.04883544921875,-3.282055377960205,-2.8767709732055664,-8.735298156738281
1701882248818428200,11.05842822265625,-3.2868409156799316,-2.8935208320617676,-8.744869232177734
1701882248828021800,11.068021728515625,-3.2700912952423096,-2.8863422870635986,-8.752047538757324
1701882248837614300,11.0776142578125,-3.265305519104004,-2.8863422870635986,-8.75922679901123
1701882248847206100,11.0872060546875,-3.272484064102173,-2.9030921459198,-8.761619567871094
1701882248856799000,11.096799072265625,-3.2629127502441406,-2.9102704524993896,-8.754440307617188
1701882248866392300,11.106392333984376,-3.274876832962036,-2.8935208320617676,-8.764012336730957
1701882248875985000,11.11598486328125,-3.289233922958374,-2.8863422870635986,-8.768797874450684
1701882248885577000,11.125576904296874,-3.2916266918182373,-2.867199659347534,-8.761619567871094
1701882248895169800,11.135169677734375,-3.298804998397827,-2.84087872505188,-8.742476463317871
1701882248904763100,11.14476318359375,-3.3011980056762695,-2.826521635055542,-8.75922679901123
1701882248914355700,11.154355712890625,-3.3011980056762695,-2.8217360973358154,-8.764012336730957
1701882248923947800,11.16394775390625,-3.303590774536133,-2.8073792457580566,-8.764012336730957
1701882248933540600,11.17354052734375,-3.305983543395996,-2.80977201461792,-8.754440307617188
1701882248943134000,11.183134033203125,-3.2940194606781006,-2.8289146423339844,-8.75922679901123
1701882248952726500,11.1927265625,-3.282055377960205,-2.812164783477783,-8.764012336730957
1701882248962318600,11.202318603515625,-3.2700912952423096,-2.8241288661956787,-8.785547256469727
1701882248971911200,11.2119111328125,-3.2700912952423096,-2.80977201461792,-8.809475898742676
1701882248981504800,11.2215048828125,-3.272484064102173,-2.80977201461792,-8.809475898742676
1701882248991097300,11.231097412109374,-3.2557342052459717,-2.8073792457580566,-8.823832511901855
1701882249000689400,11.240689453125,-3.2605199813842773,-2.8002007007598877,-8.823832511901855
1701882249010282000,11.250281982421875,-3.2605199813842773,-2.7762725353240967,-8.819046974182129
1701882249019875600,11.25987548828125,-3.265305519104004,-2.754737138748169,-8.811868667602539
1701882249029468200,11.26946826171875,-3.279662609100342,-2.7499513626098633,-8.802297592163086
1701882249039060000,11.27906005859375,-3.274876832962036,-2.74755859375,-8.783154487609863
1701882249048652800,11.28865283203125,-3.2700912952423096,-2.730808734893799,-8.771190643310547
1701882249058246400,11.298246337890625,-3.274876832962036,-2.7140591144561768,-8.75922679901123
1701882249067839000,11.3078388671875,-3.248555898666382,-2.6973092555999756,-8.768797874450684
1701882249077430800,11.3174306640625,-3.2533414363861084,-2.6539394855499268,-8.783154487609863
1701882249087023600,11.327023681640625,-3.234198808670044,-2.632404088973999,-8.821439743041992
1701882249096617200,11.3366171875,-3.2078778743743896,-2.622832775115967,-8.840581893920898
1701882249106209800,11.346209716796874,-3.193521022796631,-2.591726064682007,-8.886046409606934
1701882249115801600,11.355801513671874,-3.171985626220703,-2.5582265853881836,-8.938688278198242
1701882249125394400,11.36539453125,-3.1432716846466064,-2.53190541267395,-8.99850845336914
1701882249134987800,11.37498779296875,-3.1360931396484375,-2.567797899246216,-9.003293991088867
1701882249144580600,11.38458056640625,-3.1815567016601562,-2.5127627849578857,-9.087342262268066
1701882249154172400,11.39417236328125,-3.0882368087768555,-2.819343328475952,-8.941081047058105
1701882249163765200,11.40376513671875,-3.131307601928711,-2.9389843940734863,-8.938688278198242
1701882249173358600,11.413358642578125,-3.195913791656494,-2.819343328475952,-9.000901222229004
1701882249182951200,11.422951171875,-3.219841957092285,-2.8456642627716064,-8.981759071350098
1701882249192543200,11.432543212890625,-3.265305519104004,-2.9078776836395264,-8.979366302490234
1701882249202136000,11.442135986328125,-3.351447105407715,-2.8695926666259766,-8.988937377929688
1701882249211729400,11.4517294921875,-3.3538401126861572,-3.116053342819214,-8.852546691894531
1701882249221322000,11.461322021484374,-3.3945181369781494,-3.142374277114868,-8.828618049621582
1701882249230914000,11.4709140625,-3.3562328815460205,-3.247957706451416,-8.735298156738281
1701882249240506600,11.480506591796875,-3.298804998397827,-3.2838499546051025,-8.65633487701416
1701882249250100200,11.490100341796875,-3.243770122528076,-3.36759877204895,-8.560622215270996
1701882249259692800,11.49969287109375,-3.2054851055145264,-3.3484561443328857,-8.543871879577637
1701882249269284900,11.509284912109376,-3.1360931396484375,-3.341277837753296,-8.505587577819824
1701882249278877400,11.51887744140625,-3.107379198074341,-3.2982068061828613,-8.51755142211914
1701882249288471000,11.528470947265625,-3.05234432220459,-3.211766242980957,-8.57019329071045
1701882249298063600,11.538063720703125,-3.05234432220459,-3.1758737564086914,-8.56301498413086
1701882249307655400,11.547655517578125,-3.0188448429107666,-3.092125177383423,-8.613264083862305
1701882249317248300,11.557248291015625,-3.0164520740509033,-3.0562326908111572,-8.620442390441895
1701882249326841900,11.566841796875,-3.037987470626831,-3.039483070373535,-8.603693008422852
1701882249336434400,11.576434326171874,-3.05234432220459,-3.0729825496673584,-8.596514701843262
1701882249346026200,11.586026123046874,-3.0786654949188232,-3.125624656677246,-8.594121932983398
1701882249355619000,11.595619140625,-3.1193435192108154,-3.1304101943969727,-8.603693008422852
1701882249365212400,11.60521240234375,-3.1767711639404297,-3.118446111679077,-8.630014419555664
1701882249374805200,11.61480517578125,-3.2461631298065186,-3.087339401245117,-8.651549339294434
1701882249384397000,11.62439697265625,-3.303590774536133,-3.0418758392333984,-8.682656288146973
1701882249393990000,11.633989990234374,-3.329911708831787,-3.0035905838012695,-8.685049057006836
1701882249403583200,11.643583251953125,-3.329911708831787,-3.0035905838012695,-8.692227363586426
1701882249413176000,11.653176025390625,-3.3562328815460205,-2.9940192699432373,-8.711369514465332
1701882249422767900,11.662767822265625,-3.351447105407715,-2.9940192699432373,-8.725727081298828
1701882249432360700,11.672360595703125,-3.3538401126861572,-2.9700911045074463,-8.730512619018555
1701882249441954000,11.6819541015625,-3.3777682781219482,-2.9629125595092773,-8.720941543579102
1701882249451546600,11.691546630859374,-3.3562328815460205,-2.953341245651245,-8.694620132446289
1701882249461138700,11.701138671875,-3.344268798828125,-2.9724838733673096,-8.689834594726562
1701882249470731300,11.710731201171875,-3.3155548572540283,-2.991626501083374,-8.661120414733887
1701882249480324900,11.720324951171875,-3.296412229537964,-2.9940192699432373,-8.704191207885742
1701882249489917400,11.72991748046875,-3.282055377960205,-2.998805046081543,-8.713762283325195
1701882249499509500,11.739509521484376,-3.2629127502441406,-2.974876642227173,-8.735298156738281
1701882249509102000,11.74910205078125,-3.2557342052459717,-2.9389843940734863,-8.761619567871094
1701882249518695700,11.75869580078125,-3.2700912952423096,-2.8863422870635986,-8.792725563049316
1701882249528288300,11.768288330078125,-3.282055377960205,-2.8528428077697754,-8.816654205322266
1701882249537880000,11.777880126953125,-3.296412229537964,-2.84087872505188,-8.842975616455078
1701882249547473000,11.787472900390625,-3.320340633392334,-2.8384859561920166,-8.857332229614258
1701882249557066500,11.79706640625,-3.329911708831787,-2.8695926666259766,-8.838189125061035
1701882249566659000,11.8066591796875,-3.3801610469818115,-2.9006991386413574,-8.826225280761719
1701882249576251000,11.8162509765625,-3.4016964435577393,-2.898306369781494,-8.814261436462402
1701882249585843700,11.82584375,-3.4163525104522705,-2.898306369781494,-8.778368949890137
1701882249595437000,11.83543701171875,-3.428316593170166,-2.8767709732055664,-8.75922679901123
1701882249605030000,11.84502978515625,-3.445066452026367,-2.8624141216278076,-8.742476463317871
1701882249614621700,11.85462158203125,-3.4474592208862305,-2.84087872505188,-8.704191207885742
1701882249624214500,11.864214599609374,-3.452244758605957,-2.8624141216278076,-8.67308521270752
1701882249633808000,11.873807861328125,-3.4474592208862305,-2.8695926666259766,-8.63479995727539
1701882249643400400,11.883400390625,-3.421138286590576,-2.8767709732055664,-8.610871315002441
1701882249652992500,11.892992431640625,-3.428316593170166,-2.895913600921631,-8.591729164123535
1701882249662585300,11.90258544921875,-3.421138286590576,-2.919841766357422,-8.577371597290039
1701882249672178700,11.9121787109375,-3.4139597415924072,-2.958127021789551,-8.546265602111816
1701882249681771300,11.921771240234374,-3.2629127502441406,-2.9964120388031006,-8.589336395263672
1701882249691363300,11.93136328125,-2.9398818016052246,-2.9461629390716553,-8.586943626403809
1701882249700956000,11.940955810546875,-3.265305519104004,-2.8552355766296387,-8.584549903869629
1701882249710549500,11.950549560546875,-3.234198808670044,-2.8695926666259766,-8.584549903869629
1701882249720142000,11.96014208984375,-3.250948667526245,-2.919841766357422,-8.543871879577637
1701882249729734100,11.969734130859376,-3.2868409156799316,-2.9485557079315186,-8.54865837097168
1701882249739326700,11.97932666015625,-2.3844478130340576,-2.254338026046753,-9.235696792602539
1701882249748920300,11.98892041015625,-2.7768707275390625,-1.5071791410446167,-9.42473030090332
1701882249758513000,11.998512939453125,-3.967000722885132,-2.9892337322235107,-8.26121997833252
1701882249768104700,12.008104736328125,-3.210270643234253,-3.0011978149414062,-8.438288688659668
1701882249777697500,12.017697509765625,-2.6428725719451904,-2.0410776138305664,-9.154341697692871
1701882249787291100,12.027291015625,-3.1432716846466064,-2.333301067352295,-9.156734466552734
1701882249796883700,12.0368837890625,-3.2844481468200684,-3.1280174255371094,-8.91954517364502
1701882249806475500,12.0464755859375,-3.3705897331237793,-3.5662031173706055,-8.63479995727539
1701882249816068400,12.056068359375,-3.358625650405884,-3.5446677207946777,-8.694620132446289
1701882249825661700,12.06566162109375,-3.3011980056762695,-3.4393835067749023,-8.91236686706543
1701882249835254300,12.075254150390625,-3.3634114265441895,-3.2165517807006836,-9.013164520263672
1701882249844846300,12.084846435546876,-3.3969109058380127,-3.087339401245117,-9.05862808227539
1701882249854439200,12.094439208984374,-3.337090253829956,-3.118446111679077,-9.068199157714844
1701882249864032500,12.104032470703125,-3.296412229537964,-3.063411235809326,-9.015557289123535
1701882249873625000,12.113625,-3.2772696018218994,-2.9868409633636475,-8.955437660217285
1701882249883217200,12.123217041015625,-3.2772696018218994,-2.857628345489502,-8.926724433898926
1701882249892809700,12.132809814453125,-3.2318060398101807,-2.7762725353240967,-8.929117202758789
1701882249902403300,12.1424033203125,-3.0954151153564453,-2.836092948913574,-8.986544609069824
1701882249911996000,12.151995849609374,-3.030808925628662,-2.8145575523376465,-8.931509971618652
1701882249921587700,12.161587646484374,-3.07627272605896,-2.812164783477783,-8.876474380493164
1701882249931180500,12.1711806640625,-3.140878915786743,-2.922234535217285,-8.809475898742676
1701882249940774100,12.180774169921875,-3.1600213050842285,-3.005983352661133,-8.596514701843262
1701882249950366700,12.19036669921875,-3.2533414363861084,-3.118446111679077,-8.582157135009766
1701882249959958500,12.19995849609375,-3.3179476261138916,-3.1758737564086914,-8.481658935546875
1701882249969551400,12.20955126953125,-3.3801610469818115,-3.211766242980957,-8.37846851348877
1701882249979145000,12.21914501953125,-3.3083763122558594,-3.1232316493988037,-8.421539306640625
1701882249988737500,12.228737548828125,-2.966202735900879,-3.3843486309051514,-9.020342826843262
