time,seconds_elapsed,z,y,x
1701882237906703000,0.146703125,6.287651538848877,7.08923864364624,-2.525574207305908
1701882237916296000,0.1562958984375,6.22420597076416,7.21232795715332,-2.326364517211914
1701882237925889500,0.1658896484375,6.181686878204346,7.2852983474731445,-2.209425926208496
1701882237935482000,0.175482177734375,6.092899322509766,7.384220123291016,-2.126089572906494
1701882237945074200,0.18507421875,6.004888534545898,7.478490829467773,-2.045454263687134
1701882237954667000,0.1946669921875,5.9054274559021,7.580081462860107,-1.9592554569244385
1701882237964260400,0.20426025390625,5.847538948059082,7.641558647155762,-1.8929523229599
1701882237973853200,0.213853271484375,5.824648380279541,7.665509223937988,-1.8665004968643188
1701882237983445000,0.223445068359375,5.850343227386475,7.654144287109375,-1.8324743509292603
1701882237993037800,0.233037841796875,5.929226398468018,7.600735187530518,-1.8009699583053589
1701882238002631400,0.24263134765625,6.014715671539307,7.528011798858643,-1.8228033781051636
1701882238012224300,0.252224365234375,6.104374408721924,7.458395481109619,-1.8108959197998047
1701882238021816000,0.261816162109375,6.188135147094727,7.403809070587158,-1.7495663166046143
1701882238031409000,0.271408935546875,6.251222133636475,7.374231338500977,-1.6472159624099731
1701882238041002200,0.281002197265625,6.285611629486084,7.370764255523682,-1.5275157690048218
1701882238050595000,0.290594970703125,6.290564060211182,7.391730308532715,-1.400542974472046
1701882238060187000,0.300186767578125,6.27004337310791,7.433598518371582,-1.2643394470214844
1701882238069779700,0.30977978515625,6.233311176300049,7.487712383270264,-1.1182092428207397
1701882238079373300,0.319373291015625,6.188939094543457,7.546163082122803,-0.9606427550315857
1701882238088966000,0.3289658203125,6.137417793273926,7.6080002784729,-0.787922739982605
1701882238098558000,0.338557861328125,6.077852725982666,7.672578811645508,-0.601369321346283
1701882238108150800,0.34815087890625,6.010426044464111,7.73813533782959,-0.407950758934021
1701882238117744400,0.357744384765625,5.945776462554932,7.79542875289917,-0.2223263531923294
1701882238127337000,0.3673369140625,5.895851135253906,7.836201190948486,-0.05723300948739052
1701882238136929000,0.376928955078125,5.866954803466797,7.8575944900512695,0.08632313460111618
1701882238146521600,0.386521484375,5.865204334259033,7.856451034545898,0.2143511027097702
1701882238156115200,0.396115234375,5.891019821166992,7.832486152648926,0.34414345026016235
1701882238165707800,0.405707763671875,5.93341064453125,7.792558670043945,0.4909658133983612
1701882238175299800,0.4152998046875,5.978349685668945,7.745931148529053,0.6559528708457947
1701882238184892700,0.424892578125,6.021027088165283,7.695528984069824,0.8345321416854858
1701882238194486000,0.434486083984375,6.067634582519531,7.636448860168457,1.0192350149154663
1701882238204078800,0.444078857421875,6.119789123535156,7.567989349365234,1.2017147541046143
1701882238213670700,0.453670654296875,6.185822010040283,7.4829206466674805,1.3827095031738281
1701882238223263500,0.463263427734375,6.261061191558838,7.3851165771484375,1.5587050914764404
1701882238232857000,0.472857177734375,6.338405132293701,7.281099796295166,1.7264357805252075
1701882238242450000,0.482449951171875,6.417190074920654,7.174536228179932,1.8751217126846313
1701882238252041700,0.492041748046875,6.4957170486450195,7.069348335266113,2.0000922679901123
1701882238261634600,0.501634521484375,6.573850154876709,6.9672698974609375,2.10048508644104
1701882238271228000,0.511227783203125,6.647068977355957,6.871725559234619,2.1831722259521484
1701882238280820700,0.52082080078125,6.716124534606934,6.779169082641602,2.2598507404327393
1701882238290412500,0.53041259765625,6.78316068649292,6.684843063354492,2.339231014251709
1701882238300005400,0.54000537109375,6.844754695892334,6.592153072357178,2.421409845352173
1701882238309599000,0.549598876953125,6.898514747619629,6.505198001861572,2.5026543140411377
1701882238319191800,0.55919189453125,6.947554588317871,6.42075777053833,2.5837461948394775
1701882238328783600,0.56878369140625,6.99311637878418,6.3360371589660645,2.6685829162597656
1701882238338376400,0.57837646484375,7.035116195678711,6.249938488006592,2.759673833847046
1701882238347969800,0.5879697265625,7.073541164398193,6.159790992736816,2.8622326850891113
1701882238357562600,0.597562744140625,7.107031345367432,6.06508731842041,2.97912859916687
1701882238367154700,0.60715478515625,7.134189128875732,5.97022819519043,3.1032416820526123
1701882238376747300,0.616747314453125,7.156951904296875,5.876195430755615,3.227809190750122
1701882238386340900,0.6263408203125,7.1772637367248535,5.781776428222656,3.350872039794922
1701882238395933700,0.63593359375,7.1952104568481445,5.688409805297852,3.4700605869293213
1701882238405525500,0.645525390625,7.209434986114502,5.598453998565674,3.5849335193634033
1701882238415118300,0.655118408203125,7.220054626464844,5.509378433227539,3.6997244358062744
1701882238424712000,0.6647119140625,7.225192546844482,5.418584823608398,3.821768045425415
1701882238434304500,0.674304443359375,7.2213263511657715,5.32838249206543,3.953627109527588
1701882238443896600,0.683896484375,7.208253860473633,5.239386558532715,4.093933582305908
1701882238453489200,0.6934892578125,7.185806751251221,5.151401996612549,4.2423601150512695
1701882238463082800,0.703082763671875,7.153479099273682,5.062811374664307,4.400689601898193
1701882238472675300,0.71267529296875,7.112722873687744,4.974979400634766,4.5638957023620605
1701882238482267400,0.722267333984375,7.070974349975586,4.885271072387695,4.722907066345215
1701882238491860200,0.731860107421875,7.0320539474487305,4.793735027313232,4.872443199157715
1701882238501453600,0.74145361328125,6.996070861816406,4.7007012367248535,5.012861251831055
1701882238511046400,0.75104638671875,6.959208011627197,4.606605529785156,5.149660110473633
1701882238520638200,0.76063818359375,6.922449588775635,4.512231349945068,5.281083106994629
1701882238530231000,0.77023095703125,6.885982036590576,4.416957378387451,5.4077839851379395
1701882238539824600,0.77982470703125,6.846341609954834,4.320102214813232,5.5348615646362305
1701882238549417500,0.78941748046875,6.797618389129639,4.223305702209473,5.668019771575928
1701882238559009300,0.79900927734375,6.735984802246094,4.1285505294799805,5.8096442222595215
1701882238568602000,0.80860205078125,6.660830974578857,4.035486698150635,5.959745407104492
1701882238578195500,0.818195556640625,6.573190212249756,3.9444398880004883,6.115959167480469
1701882238587788300,0.827788330078125,6.480014801025391,3.8588500022888184,6.268099308013916
1701882238597380000,0.837380126953125,6.389855861663818,3.7754058837890625,6.4098711013793945
1701882238606973000,0.846972900390625,6.307016849517822,3.6886637210845947,6.541076183319092
1701882238616566500,0.85656640625,6.236032009124756,3.594416856765747,6.660514831542969
1701882238626159400,0.866159423828125,6.182952404022217,3.4884462356567383,6.765518665313721
1701882238635751200,0.875751220703125,6.150601863861084,3.3686249256134033,6.855133056640625
1701882238645344000,0.885343994140625,6.135838508605957,3.2346084117889404,6.9324727058410645
1701882238654937300,0.894937255859375,6.130990982055664,3.0880346298217773,7.00324010848999
1701882238664530200,0.9045302734375,6.128288745880127,2.9315683841705322,7.072508335113525
1701882238674122200,0.914122314453125,6.123990535736084,2.7670271396636963,7.142176628112793
1701882238683714800,0.92371484375,6.119227409362793,2.5941624641418457,7.210808753967285
1701882238693308400,0.933308349609375,6.116499423980713,2.4095098972320557,7.276886940002441
1701882238702901000,0.94290087890625,6.115540027618408,2.2083311080932617,7.341242790222168
1701882238712493000,0.9524931640625,6.112186908721924,1.9852794408798218,7.407444477081299
1701882238722086000,0.9620859375,6.099264621734619,1.7339017391204834,7.480838298797607
1701882238731679500,0.971679443359375,6.063599109649658,1.448930263519287,7.569925308227539
1701882238741272000,0.98127197265625,5.983789443969727,1.1302542686462402,7.686819076538086
1701882238750864100,0.990864013671875,5.836000919342041,0.782830536365509,7.842108249664307
1701882238760456700,1.000456787109375,5.604290008544922,0.40953657031059265,8.037075996398926
1701882238770050300,1.01005029296875,5.279318809509277,0.019570665434002876,8.264307975769043
1701882238779643100,1.01964306640625,4.865283012390137,-0.37520188093185425,8.506387710571289
1701882238789235000,1.02923486328125,4.379138946533203,-0.7678401470184326,8.740935325622559
1701882238798827800,1.038827880859375,3.851308822631836,-1.1487603187561035,8.945286750793457
1701882238808421000,1.048421142578125,3.319660186767578,-1.5105340480804443,9.103216171264648
1701882238818014000,1.058013916015625,2.8171348571777344,-1.8508179187774658,9.209158897399902
1701882238827605800,1.067605712890625,2.3803088665008545,-2.1618621349334717,9.264495849609375
1701882238837198600,1.077198486328125,2.0456552505493164,-2.43459153175354,9.276768684387207
1701882238846792200,1.086792236328125,1.8272141218185425,-2.6651816368103027,9.258968353271484
1701882238856384800,1.096384765625,1.720215916633606,-2.8456552028656006,9.22569751739502
1701882238865976800,1.105976806640625,1.7127015590667725,-2.970736503601074,9.18758773803711
1701882238875569700,1.115569580078125,1.7904363870620728,-3.0515060424804688,9.14620304107666
1701882238885163300,1.125163330078125,1.9374655485153198,-3.103559970855713,9.098600387573242
1701882238894755800,1.134755859375,2.137024164199829,-3.1404342651367188,9.041084289550781
1701882238904348000,1.144347900390625,2.3761634826660156,-3.1682889461517334,8.97140884399414
1701882238913940700,1.153940673828125,2.6480836868286133,-3.1975324153900146,8.88447093963623
1701882238923534000,1.1635341796875,2.9261505603790283,-3.235018491744995,8.78309154510498
1701882238933127000,1.173126953125,3.186715602874756,-3.2780539989471436,8.67580509185791
1701882238942718700,1.18271875,3.4204368591308594,-3.323056221008301,8.56903076171875
1701882238952311600,1.1923115234375,3.6266379356384277,-3.3681094646453857,8.466032981872559
1701882238961905200,1.2019052734375,3.7977726459503174,-3.408456802368164,8.374349594116211
1701882238971497700,1.211497802734375,3.9271631240844727,-3.4432387351989746,8.300113677978516
1701882238981089800,1.22108984375,4.009389400482178,-3.475950241088867,8.24699592590332
1701882238990682400,1.230682373046875,4.048409461975098,-3.5112993717193604,8.212888717651367
1701882239000276000,1.24027587890625,4.05560827255249,-3.554919481277466,8.190542221069336
1701882239009868800,1.249868896484375,4.040802001953125,-3.612698554992676,8.172558784484863
1701882239019460600,1.259460693359375,4.008847713470459,-3.6836142539978027,8.156623840332031
1701882239029053400,1.269053466796875,3.959683895111084,-3.7626864910125732,8.144536972045898
1701882239038647000,1.27864697265625,3.893047332763672,-3.8472514152526855,8.137150764465332
1701882239048239600,1.288239501953125,3.8112986087799072,-3.935241460800171,8.133772850036621
1701882239057831700,1.297831787109375,3.7182343006134033,-4.024409294128418,8.133218765258789
1701882239067424500,1.307424560546875,3.618044853210449,-4.1141357421875,8.133512496948242
1701882239077017900,1.317017822265625,3.514362096786499,-4.2036895751953125,8.133182525634766
1701882239086610700,1.326610595703125,3.4109160900115967,-4.2936015129089355,8.130253791809082
1701882239096202500,1.336202392578125,3.313498020172119,-4.380300998687744,8.124288558959961
1701882239105795300,1.34579541015625,3.2281203269958496,-4.460485458374023,8.115028381347656
1701882239115389000,1.355388916015625,3.1559252738952637,-4.535229682922363,8.101987838745117
1701882239124981500,1.3649814453125,3.0946035385131836,-4.606952667236328,8.085159301757812
1701882239134573600,1.374573486328125,3.040085554122925,-4.6778082847595215,8.065133094787598
1701882239144166400,1.38416650390625,2.9884231090545654,-4.75122594833374,8.041489601135254
1701882239153759700,1.393759765625,2.9369139671325684,-4.832046985626221,8.012256622314453
1701882239163352600,1.4033525390625,2.8805160522460938,-4.926383972167969,7.975196361541748
1701882239172944400,1.4129443359375,2.8119962215423584,-5.032088279724121,7.933546543121338
1701882239182537200,1.422537109375,2.73231840133667,-5.140137195587158,7.8920087814331055
1701882239192130800,1.432130859375,2.650146961212158,-5.244634628295898,7.851172924041748
1701882239201723600,1.4417236328125,2.5729622840881348,-5.345710277557373,7.808560848236084
1701882239211315500,1.4513154296875,2.5033411979675293,-5.445736408233643,7.761935234069824
1701882239220908300,1.460908203125,2.439167022705078,-5.544140815734863,7.712545871734619
1701882239230502000,1.470501953125,2.3761420249938965,-5.638120174407959,7.663937568664551
1701882239240094500,1.480094482421875,2.309826612472534,-5.7270894050598145,7.618105888366699
1701882239249686300,1.489686279296875,2.2310962677001953,-5.809207439422607,7.5792951583862305
1701882239259279000,1.499279052734375,2.1444194316864014,-5.8820905685424805,7.548037528991699
1701882239268872700,1.508872802734375,2.0600051879882812,-5.948816299438477,7.519197940826416
1701882239278465500,1.518465576171875,1.980602741241455,-6.014101982116699,7.488536357879639
1701882239288057300,1.528057373046875,1.9037197828292847,-6.078824996948242,7.456146717071533
1701882239297650200,1.537650146484375,1.8292802572250366,-6.143696308135986,7.4215312004089355
1701882239307243800,1.547243896484375,1.7566914558410645,-6.209751129150391,7.383997440338135
1701882239316836400,1.55683642578125,1.6858457326889038,-6.278717994689941,7.342071056365967
1701882239326428400,1.566428466796875,1.6136327981948853,-6.351410865783691,7.295626163482666
1701882239336021000,1.57602099609375,1.5340029001235962,-6.4295549392700195,7.2441725730896
1701882239345614600,1.585614501953125,1.4406390190124512,-6.512513160705566,7.189028263092041
1701882239355207200,1.595207275390625,1.3359875679016113,-6.596777439117432,7.132184982299805
1701882239364799200,1.60479931640625,1.2286676168441772,-6.680241107940674,7.07355260848999
1701882239374392000,1.61439208984375,1.1255244016647339,-6.7624430656433105,7.0123419761657715
1701882239383985700,1.623985595703125,1.0313985347747803,-6.844263553619385,6.947132587432861
1701882239393578200,1.633578125,0.9472090005874634,-6.926289081573486,6.877477169036865
1701882239403170300,1.64317041015625,0.8727383017539978,-7.0085625648498535,6.803584575653076
1701882239412763100,1.65276318359375,0.808443009853363,-7.090909481048584,6.725758075714111
1701882239422356500,1.6623564453125,0.7531857490539551,-7.1727142333984375,6.644942283630371
1701882239431949300,1.67194921875,0.7064894437789917,-7.251031398773193,6.564586639404297
1701882239441541000,1.681541015625,0.6664278507232666,-7.323897361755371,6.487432956695557
1701882239451134000,1.691134033203125,0.6301116943359375,-7.389634609222412,6.416123867034912
1701882239460727600,1.7007275390625,0.5970160961151123,-7.447658538818359,6.351876258850098
1701882239470320000,1.710320068359375,0.5689007043838501,-7.497237682342529,6.295884132385254
1701882239479912200,1.719912109375,0.5481175184249878,-7.538845539093018,6.247859954833984
1701882239489505000,1.729505126953125,0.5363020896911621,-7.575035572052002,6.204965591430664
1701882239499098400,1.739098388671875,0.5322539210319519,-7.607662677764893,6.165270805358887
1701882239508691200,1.748691162109375,0.53040611743927,-7.638561725616455,6.127105712890625
1701882239518283000,1.758282958984375,0.5225181579589844,-7.6689934730529785,6.089656352996826
1701882239527875800,1.767875732421875,0.5127301812171936,-7.700057029724121,6.051167011260986
1701882239537469400,1.777469482421875,0.5038700103759766,-7.730833053588867,6.012547492980957
1701882239547062300,1.787062255859375,0.49929365515708923,-7.758447647094727,5.977255821228027
1701882239556654000,1.796654052734375,0.49417823553085327,-7.783446311950684,5.945092678070068
1701882239566247000,1.806246826171875,0.4805397093296051,-7.806229591369629,5.916269779205322
1701882239575840500,1.815840576171875,0.4662155210971832,-7.830057144165039,5.88585090637207
1701882239585433000,1.82543310546875,0.4368833899497986,-7.852355003356934,5.858330726623535
1701882239595025200,1.835025146484375,0.3975703716278076,-7.870572566986084,5.836642742156982
1701882239604618000,1.844617919921875,0.35505738854408264,-7.8902459144592285,5.812774658203125
1701882239614211300,1.85421142578125,0.3089074194431305,-7.918285369873047,5.777171611785889
1701882239623804200,1.86380419921875,0.260736346244812,-7.958901405334473,5.723485946655273
1701882239633396000,1.87339599609375,0.20315726101398468,-8.00688648223877,5.6585235595703125
1701882239642988800,1.88298876953125,0.1277499943971634,-8.066527366638184,5.575409889221191
1701882239652582400,1.89258251953125,0.0350368469953537,-8.157259941101074,5.4431843757629395
1701882239662175000,1.902175048828125,-0.061759792268276215,-8.276895523071289,5.259236812591553
1701882239671767000,1.91176708984375,-0.11613219231367111,-8.367891311645508,5.112268924713135
1701882239681360000,1.92135986328125,-0.09921074658632278,-8.385560989379883,5.083591938018799
1701882239690953200,1.930953125,-0.0711798220872879,-8.401609420776367,5.057497024536133
1701882239700546000,1.940546142578125,-0.08202148228883743,-8.45124626159668,4.97394323348999
1701882239710137900,1.950137939453125,-0.12200596928596497,-8.516427993774414,4.860653400421143
1701882239719730700,1.959730712890625,-0.17508278787136078,-8.582073211669922,4.742126941680908
1701882239729324300,1.96932421875,-0.23988981544971466,-8.64879035949707,4.616413593292236
1701882239738917000,1.978917236328125,-0.3210422694683075,-8.715314865112305,4.484485626220703
1701882239748509000,1.988509033203125,-0.41120272874832153,-8.781126022338867,4.34662389755249
1701882239758101800,1.998101806640625,-0.5020881295204163,-8.84687328338623,4.2013258934021
1701882239767695400,2.0076953125,-0.5893908739089966,-8.910762786865234,4.0523200035095215
1701882239777288000,2.017287841796875,-0.6763551235198975,-8.968267440795898,3.909359931945801
1701882239786880000,2.0268798828125,-0.7661858797073364,-9.018708229064941,3.7744226455688477
1701882239796472600,2.03647265625,-0.8610575795173645,-9.064309120178223,3.642422914505005
1701882239806066200,2.046066162109375,-0.959976851940155,-9.103100776672363,3.518861770629883
1701882239815659000,2.055658935546875,-1.058979868888855,-9.134271621704102,3.4079372882843018
1701882239825250800,2.065250732421875,-1.1509286165237427,-9.159740447998047,3.30830979347229
1701882239834843600,2.07484375,-1.2293858528137207,-9.181396484375,3.2188425064086914
1701882239844437200,2.084437255859375,-1.2913323640823364,-9.201406478881836,3.1363959312438965
1701882239854029800,2.09402978515625,-1.3313549757003784,-9.222095489501953,3.057915449142456
1701882239863622000,2.103621826171875,-1.3400236368179321,-9.243894577026367,2.987496852874756
1701882239873214700,2.113214599609375,-1.3158553838729858,-9.2676362991333,2.9240078926086426
1701882239882808000,2.12280810546875,-1.270231008529663,-9.293606758117676,2.861079454421997
1701882239892401000,2.13240087890625,-1.2087267637252808,-9.319515228271484,2.8028554916381836
1701882239901992700,2.14199267578125,-1.1361315250396729,-9.343704223632812,2.7522356510162354
1701882239911585500,2.15158544921875,-1.0609475374221802,-9.36556339263916,2.7075822353363037
1701882239921179100,2.16117919921875,-0.9764368534088135,-9.388020515441895,2.6612088680267334
1701882239930771700,2.170771728515625,-0.8870890140533447,-9.412946701049805,2.6038248538970947
1701882239940363800,2.18036376953125,-0.776116669178009,-9.437898635864258,2.5483527183532715
1701882239949956600,2.18995654296875,-0.6123512983322144,-9.456501007080078,2.5238866806030273
1701882239959550200,2.19955029296875,-0.4578035771846771,-9.46772289276123,2.5145630836486816
1701882239969142800,2.209142822265625,-0.3421745300292969,-9.475778579711914,2.5025856494903564
1701882239978734800,2.21873486328125,-0.25139757990837097,-9.479063034057617,2.500908136367798
1701882239988327400,2.228327392578125,-0.176084965467453,-9.478108406066895,2.5109450817108154
1701882239997921000,2.237921142578125,-0.11417070031166077,-9.476369857788086,2.521061420440674
1701882240007513900,2.247513916015625,-0.06420020759105682,-9.474254608154297,2.5307626724243164
1701882240017105700,2.257105712890625,-0.03228255733847618,-9.471707344055176,2.540886640548706
1701882240026698500,2.266698486328125,-0.020160550251603127,-9.469398498535156,2.5495996475219727
1701882240036292000,2.2762919921875,-0.02086692303419113,-9.46774673461914,2.555725336074829
1701882240045884700,2.285884765625,-0.028969578444957733,-9.46602725982666,2.5620076656341553
1701882240055476700,2.295476806640625,-0.04341789707541466,-9.463533401489258,2.5709996223449707
1701882240065069600,2.305069580078125,-0.0657201036810875,-9.460145950317383,2.582963228225708
1701882240074663000,2.314662841796875,-0.09622468799352646,-9.455642700195312,2.598452568054199
1701882240084255700,2.324255859375,-0.13365092873573303,-9.449446678161621,2.6192517280578613
1701882240093847800,2.333847900390625,-0.17309477925300598,-9.442142486572266,2.6431772708892822
1701882240103440400,2.3434404296875,-0.21072126924991608,-9.433402061462402,2.6714987754821777
1701882240113034000,2.353033935546875,-0.24550160765647888,-9.422314643859863,2.7074155807495117
1701882240122626600,2.36262646484375,-0.27406132221221924,-9.410126686096191,2.746778726577759
1701882240132218600,2.372218505859375,-0.2883079946041107,-9.399076461791992,2.7829179763793945
1701882240141811500,2.3818115234375,-0.280434250831604,-9.388045310974121,2.82070255279541
1701882240151405000,2.391405029296875,-0.2583348751068115,-9.380047798156738,2.849271297454834
1701882240160997600,2.40099755859375,-0.2325870841741562,-9.380226135253906,2.8509020805358887
1701882240170589700,2.410589599609375,-0.20896169543266296,-9.388832092285156,2.824280261993408
1701882240180182300,2.420182373046875,-0.18542182445526123,-9.40128231048584,2.7842211723327637
1701882240189776000,2.42977587890625,-0.15267573297023773,-9.415040969848633,2.7393555641174316
1701882240199368700,2.43936865234375,-0.10749717801809311,-9.428607940673828,2.694471836090088
1701882240208960500,2.44896044921875,-0.052552081644535065,-9.438700675964355,2.6605520248413086
1701882240218553300,2.45855322265625,0.011715875938534737,-9.438762664794922,2.660830020904541
1701882240228147000,2.46814697265625,0.08467169106006622,-9.431984901428223,2.683441400527954
1701882240237739500,2.477739501953125,0.15767839550971985,-9.421035766601562,2.7183854579925537
1701882240247331600,2.48733154296875,0.23644638061523438,-9.408560752868652,2.7556228637695312
1701882240256924400,2.49692431640625,0.3283248841762543,-9.396990776062012,2.785527229309082
1701882240266517800,2.506517822265625,0.41943126916885376,-9.388593673706055,2.801565408706665
1701882240276110600,2.516110595703125,0.46978259086608887,-9.389634132385254,2.790067672729492
1701882240285702400,2.525702392578125,0.4578683078289032,-9.407355308532715,2.7317416667938232
1701882240295295200,2.535295166015625,0.36621102690696716,-9.447855949401855,2.60274600982666
1701882240304888800,2.544888916015625,0.19700421392917633,-9.506050109863281,2.401371717453003
1701882240314481400,2.5544814453125,-0.0039572580717504025,-9.568735122680664,2.14701509475708
1701882240324073500,2.564073486328125,-0.13773977756500244,-9.620144844055176,1.8984788656234741
1701882240333666300,2.573666259765625,-0.16592368483543396,-9.657859802246094,1.6936942338943481
1701882240343260000,2.583260009765625,-0.15693940222263336,-9.685140609741211,1.530951976776123
1701882240352852500,2.5928525390625,-0.16303567588329315,-9.709443092346191,1.3676725625991821
1701882240362444500,2.602444580078125,-0.1815657764673233,-9.726140022277832,1.2408121824264526
1701882240372037000,2.612037109375,-0.18933731317520142,-9.727816581726074,1.2264273166656494
1701882240381630700,2.621630615234375,-0.17168062925338745,-9.719970703125,1.289605736732483
1701882240391223600,2.6312236328125,-0.16687603294849396,-9.713451385498047,1.3384300470352173
1701882240400815400,2.6408154296875,-0.16499219834804535,-9.713287353515625,1.3398550748825073
1701882240410408200,2.650408203125,-0.17088955640792847,-9.71640682220459,1.3162879943847656
1701882240420001800,2.660001708984375,-0.18480050563812256,-9.717000961303711,1.3100074529647827
1701882240429594400,2.669594482421875,-0.20087124407291412,-9.716200828552246,1.3135772943496704
1701882240439186400,2.6791865234375,-0.21172013878822327,-9.715537071228027,1.316778302192688
1701882240448779300,2.688779296875,-0.21830259263515472,-9.714853286743164,1.3207348585128784
1701882240458372600,2.69837255859375,-0.2254370152950287,-9.713994979858398,1.325850009918213
1701882240467965400,2.70796533203125,-0.23605801165103912,-9.71300220489502,1.3312619924545288
1701882240477557200,2.71755712890625,-0.2484167218208313,-9.712212562561035,1.33476984500885
1701882240487150000,2.727150146484375,-0.25495925545692444,-9.712179183959961,1.3337821960449219
1701882240496743700,2.73674365234375,-0.2576774060726166,-9.713508605957031,1.3235321044921875
1701882240506336500,2.74633642578125,-0.2683373987674713,-9.714265823364258,1.315829873085022
1701882240515928300,2.75592822265625,-0.28879159688949585,-9.714710235595703,1.3082019090652466
1701882240525521200,2.765521240234375,-0.31753411889076233,-9.7140474319458,1.3064639568328857
1701882240535114800,2.77511474609375,-0.3512651026248932,-9.712533950805664,1.3090814352035522
1701882240544707300,2.784707275390625,-0.37862658500671387,-9.711747169494629,1.3072892427444458
1701882240554299400,2.79429931640625,-0.3920034170150757,-9.711159706115723,1.307707667350769
1701882240563892000,2.80389208984375,-0.3939724266529083,-9.710495948791504,1.3120346069335938
1701882240573485600,2.813485595703125,-0.3917193114757538,-9.709747314453125,1.3182363510131836
1701882240583078400,2.823078369140625,-0.3899286091327667,-9.709052085876465,1.3238788843154907
1701882240592670200,2.832670166015625,-0.38973909616470337,-9.708382606506348,1.328834056854248
1701882240602263000,2.842262939453125,-0.39029383659362793,-9.707722663879395,1.333480715751648
1701882240611856400,2.8518564453125,-0.39154860377311707,-9.707039833068848,1.3380800485610962
1701882240621449200,2.86144921875,-0.39303192496299744,-9.706306457519531,1.3429585695266724
1701882240631041300,2.871041259765625,-0.39414724707603455,-9.705561637878418,1.3479981422424316
1701882240640633900,2.8806337890625,-0.3956137001514435,-9.704771041870117,1.3532556295394897
1701882240650227500,2.8902275390625,-0.39706456661224365,-9.703991889953613,1.3584083318710327
1701882240659820000,2.899820068359375,-0.39830800890922546,-9.70332145690918,1.3628239631652832
1701882240669412000,2.909412109375,-0.3992011547088623,-9.702807426452637,1.3662190437316895
1701882240679005000,2.9190048828125,-0.40020129084587097,-9.702475547790527,1.3682897090911865
1701882240688598500,2.9285986328125,-0.40183719992637634,-9.70228385925293,1.3691610097885132
1701882240698191000,2.938191162109375,-0.40460410714149475,-9.702171325683594,1.3691391944885254
1701882240707783200,2.947783203125,-0.40821415185928345,-9.702117919921875,1.3684532642364502
1701882240717376000,2.9573759765625,-0.41232049465179443,-9.70211124420166,1.3672629594802856
1701882240726969300,2.96696923828125,-0.41709765791893005,-9.702068328857422,1.3661235570907593
1701882240736562200,2.976562255859375,-0.4223673939704895,-9.701979637145996,1.36513090133667
1701882240746154000,2.986154052734375,-0.4275732934474945,-9.701826095581055,1.3646043539047241
1701882240755746800,2.995746826171875,-0.4319779574871063,-9.701600074768066,1.3648244142532349
1701882240765340400,3.00534033203125,-0.4352925419807434,-9.701269149780273,1.3661211729049683
1701882240774933000,3.01493310546875,-0.4376392066478729,-9.700852394104004,1.3683241605758667
1701882240784525000,3.024525146484375,-0.4389052093029022,-9.70033073425293,1.3716175556182861
1701882240794117600,3.03411767578125,-0.4406827986240387,-9.699654579162598,1.3758236169815063
1701882240803711200,3.043711181640625,-0.4429786801338196,-9.69879150390625,1.3811657428741455
1701882240813304000,3.053303955078125,-0.44577422738075256,-9.69771671295166,1.3877938985824585
1701882240822895900,3.062895751953125,-0.4491814374923706,-9.696414947509766,1.3957653045654297
1701882240832488700,3.07248876953125,-0.4530433118343353,-9.694926261901855,1.4048258066177368
1701882240842082300,3.082082275390625,-0.45765694975852966,-9.69326400756836,1.4147692918777466
1701882240851675000,3.0916748046875,-0.4629695415496826,-9.691489219665527,1.4251635074615479
1701882240861267000,3.101266845703125,-0.46921759843826294,-9.689629554748535,1.4357229471206665
1701882240870859800,3.11085986328125,-0.4761207103729248,-9.687755584716797,1.446061134338379
1701882240880453000,3.120453125,-0.4832245409488678,-9.685879707336426,1.4562304019927979
1701882240890046000,3.1300458984375,-0.4902051091194153,-9.684005737304688,1.4663279056549072
1701882240899637800,3.1396376953125,-0.4966576099395752,-9.682177543640137,1.4761946201324463
1701882240909230600,3.149230712890625,-0.5023616552352905,-9.680438041687012,1.4856407642364502
1701882240918824200,3.15882421875,-0.5070767402648926,-9.678773880004883,1.4948551654815674
1701882240928416800,3.168416748046875,-0.5105745196342468,-9.677201271057129,1.5038233995437622
1701882240938008800,3.1780087890625,-0.5129019618034363,-9.67581558227539,1.5119277238845825
1701882240947601700,3.1876015625,-0.5132596492767334,-9.674763679504395,1.5185209512710571
1701882240957195000,3.197195068359375,-0.5120027661323547,-9.674182891845703,1.5226404666900635
1701882240966787800,3.206787841796875,-0.5090155005455017,-9.674156188964844,1.523809552192688
1701882240976379600,3.216379638671875,-0.5043240189552307,-9.674673080444336,1.5220879316329956
1701882240985972500,3.225972412109375,-0.4980287551879883,-9.675681114196777,1.5177409648895264
1701882240995566000,3.235566162109375,-0.49069252610206604,-9.67708969116211,1.5111387968063354
1701882241005158700,3.24515869140625,-0.48229289054870605,-9.678853988647461,1.5025259256362915
1701882241014750700,3.254750732421875,-0.4704318642616272,-9.679736137390137,1.5005970001220703
1701882241024343600,3.264343505859375,-0.4573245346546173,-9.680819511413574,1.4976608753204346
1701882241033937000,3.27393701171875,-0.44313105940818787,-9.682000160217285,1.4942824840545654
1701882241043529700,3.28352978515625,-0.42870697379112244,-9.683124542236328,1.4912062883377075
1701882241053121500,3.29312158203125,-0.4147394299507141,-9.68410873413086,1.4887648820877075
1701882241062714400,3.30271435546875,-0.40057873725891113,-9.68504810333252,1.486524224281311
1701882241072308000,3.312307861328125,-0.3874077796936035,-9.685916900634766,1.4843567609786987
1701882241081900500,3.321900634765625,-0.3740054666996002,-9.686845779418945,1.481727957725525
1701882241091492600,3.33149267578125,-0.3608068823814392,-9.687877655029297,1.4782516956329346
1701882241101085200,3.341085205078125,-0.34809890389442444,-9.689282417297363,1.4720783233642578
1701882241110678800,3.3506787109375,-0.3348080515861511,-9.691056251525879,1.463464379310608
1701882241120271600,3.360271728515625,-0.3211376667022705,-9.693068504333496,1.4531660079956055
1701882241129863400,3.369863525390625,-0.3095353841781616,-9.695220947265625,1.441271424293518
1701882241139456300,3.379456298828125,-0.30017247796058655,-9.697309494018555,1.4291495084762573
1701882241149049900,3.3890498046875,-0.29275083541870117,-9.699254989624023,1.4174413681030273
1701882241158642400,3.398642333984375,-0.286103755235672,-9.700958251953125,1.407105803489685
1701882241168234500,3.408234375,-0.2824151813983917,-9.702383995056152,1.397985577583313
1701882241177827000,3.4178271484375,-0.2826756238937378,-9.70195484161377,1.4009099006652832
1701882241187420700,3.427420654296875,-0.2844126522541046,-9.7013521194458,1.404729962348938
1701882241197013500,3.437013427734375,-0.28601738810539246,-9.700515747070312,1.4101626873016357
1701882241206605300,3.446605224609375,-0.28602319955825806,-9.699535369873047,1.4168952703475952
1701882241216198100,3.4561982421875,-0.2842651307582855,-9.698491096496582,1.424376368522644
1701882241225791500,3.46579150390625,-0.2821304202079773,-9.697357177734375,1.4325037002563477
1701882241235384300,3.47538427734375,-0.28025320172309875,-9.696203231811523,1.4406604766845703
1701882241244976000,3.48497607421875,-0.27807673811912537,-9.695089340209961,1.4485483169555664
1701882241254569000,3.49456884765625,-0.27594995498657227,-9.694048881530762,1.4559000730514526
1701882241264162600,3.50416259765625,-0.27530354261398315,-9.693116188049316,1.4622231721878052
1701882241273755400,3.51375537109375,-0.27635881304740906,-9.6923828125,1.4668750762939453
1701882241283347200,3.52334716796875,-0.2780492305755615,-9.691778182983398,1.4705501794815063
1701882241292940000,3.53293994140625,-0.27901142835617065,-9.691191673278809,1.4742274284362793
1701882241302533400,3.542533447265625,-0.2778310775756836,-9.690530776977539,1.4787794351577759
1701882241312126200,3.552126220703125,-0.27298083901405334,-9.689835548400879,1.4842381477355957
1701882241321718000,3.561718017578125,-0.26439112424850464,-9.689140319824219,1.4903196096420288
1701882241331310800,3.571310791015625,-0.2532494366168976,-9.688475608825684,1.496559977531433
1701882241340904400,3.580904541015625,-0.24101980030536652,-9.687905311584473,1.5022600889205933
1701882241350497000,3.5904970703125,-0.22879020869731903,-9.687492370605469,1.506826400756836
1701882241360089000,3.600089111328125,-0.21790355443954468,-9.687247276306152,1.5100125074386597
1701882241369682000,3.609681884765625,-0.20859679579734802,-9.687238693237305,1.5113844871520996
1701882241379275300,3.619275146484375,-0.2008541226387024,-9.687467575073242,1.5109663009643555
1701882241388868000,3.6288681640625,-0.19423416256904602,-9.68795108795166,1.5087288618087769
1701882241398460000,3.6384599609375,-0.1883293241262436,-9.688638687133789,1.50505793094635
1701882241408052700,3.648052734375,-0.182115375995636,-9.689374923706055,1.501075029373169
1701882241417646300,3.657646240234375,-0.17516343295574188,-9.690110206604004,1.4971598386764526
1701882241427239000,3.667239013671875,-0.16726423799991608,-9.690788269042969,1.4936610460281372
1701882241436831000,3.6768310546875,-0.15818974375724792,-9.691337585449219,1.4910888671875
1701882241446423800,3.686423828125,-0.14756859838962555,-9.691682815551758,1.4899321794509888
1701882241456017200,3.69601708984375,-0.13570748269557953,-9.691811561584473,1.490224003791809
1701882241465610000,3.70560986328125,-0.12357744574546814,-9.691719055175781,1.4918781518936157
1701882241475201800,3.715201904296875,-0.1121319830417633,-9.691449165344238,1.4945282936096191
1701882241484794600,3.724794677734375,-0.10190413147211075,-9.691081047058105,1.4976482391357422
1701882241494388200,3.73438818359375,-0.09278737753629684,-9.690709114074707,1.5006444454193115
1701882241503980800,3.743980712890625,-0.0823621079325676,-9.690186500549316,1.5046254396438599
1701882241513572900,3.75357275390625,-0.07346495985984802,-9.689740180969238,1.507950782775879
1701882241523165400,3.76316552734375,-0.06730592250823975,-9.689475059509277,1.5099456310272217
1701882241532759000,3.772759033203125,-0.06271018087863922,-9.689279556274414,1.511399507522583
1701882241542351600,3.7823515625,-0.05902152881026268,-9.689066886901855,1.5129121541976929
1701882241551943700,3.791943603515625,-0.05643472075462341,-9.68887996673584,1.5141981840133667
1701882241561536500,3.80153662109375,-0.05520853400230408,-9.68871784210205,1.5152868032455444
1701882241571129900,3.8111298828125,-0.05473776161670685,-9.688556671142578,1.5163278579711914
1701882241580722700,3.82072265625,-0.054486680775880814,-9.6884765625,1.5168509483337402
1701882241590314500,3.830314453125,-0.05375750735402107,-9.688456535339355,1.5170083045959473
1701882241599907300,3.8399072265625,-0.05309068784117699,-9.68900203704834,1.513541340827942
1701882241609501000,3.8495009765625,-0.04878177493810654,-9.688973426818848,1.5138686895370483
1701882241619093500,3.859093505859375,-0.04284483194351196,-9.689306259155273,1.5119173526763916
1701882241628685600,3.868685546875,-0.03801015391945839,-9.689750671386719,1.5091969966888428
1701882241638278400,3.8782783203125,-0.034749921411275864,-9.690234184265137,1.50616455078125
1701882241647871700,3.887871826171875,-0.03356689587235451,-9.690631866455078,1.5036375522613525
1701882241657464600,3.897464599609375,-0.03454241529107094,-9.690988540649414,1.5013076066970825
1701882241667056400,3.907056396484375,-0.03797844424843788,-9.691258430480957,1.499485969543457
1701882241676649200,3.916649169921875,-0.04410741850733757,-9.691439628601074,1.4981440305709839
1701882241686242800,3.926242919921875,-0.05142684280872345,-9.691454887390137,1.497811198234558
1701882241695835400,3.93583544921875,-0.060168877243995667,-9.691197395324707,1.4991525411605835
1701882241705427500,3.945427490234375,-0.06910102814435959,-9.690678596496582,1.502118706703186
1701882241715020000,3.95502001953125,-0.07699768990278244,-9.689986228942871,1.5061981678009033
1701882241724613600,3.964613525390625,-0.08355338871479034,-9.689172744750977,1.5110702514648438
1701882241734206200,3.974206298828125,-0.08872885257005692,-9.688258171081543,1.5166248083114624
1701882241743798300,3.98379833984375,-0.09167426079511642,-9.687360763549805,1.5221731662750244
1701882241753391000,3.99339111328125,-0.09319047629833221,-9.686402320861816,1.5281736850738525
1701882241762984400,4.002984375,-0.0935874804854393,-9.685420989990234,1.5343564748764038
1701882241772577300,4.012577392578125,-0.09352977573871613,-9.684443473815918,1.540518045425415
1701882241782169000,4.022169189453125,-0.09328921884298325,-9.68361759185791,1.5457183122634888
1701882241791762000,4.031761962890625,-0.09296826273202896,-9.682991027832031,1.5496596097946167
1701882241801355500,4.04135546875,-0.0933254212141037,-9.682685852050781,1.551543951034546
1701882241810948000,4.050947998046875,-0.09361429512500763,-9.682720184326172,1.5513056516647339
1701882241820540200,4.0605400390625,-0.09393986314535141,-9.683002471923828,1.5495232343673706
1701882241830132700,4.0701328125,-0.09402269870042801,-9.683423042297363,1.5468871593475342
1701882241839726300,4.079726318359375,-0.09457869082689285,-9.683916091918945,1.5437647104263306
1701882241849319000,4.08931884765625,-0.09551525861024857,-9.684428215026855,1.54048752784729
1701882241858911000,4.098910888671875,-0.09832242876291275,-9.684999465942383,1.5367172956466675
1701882241868503800,4.10850390625,-0.0996800884604454,-9.685454368591309,1.5337696075439453
1701882241878097200,4.11809716796875,-0.09919487684965134,-9.685783386230469,1.5317132472991943
1701882241887690000,4.12768994140625,-0.09850610047578812,-9.686117172241211,1.529646873474121
1701882241897281800,4.13728173828125,-0.09816250950098038,-9.686538696289062,1.526995062828064
1701882241906874600,4.14687451171875,-0.09844686090946198,-9.686934471130371,1.5244667530059814
1701882241916468200,4.15646826171875,-0.09879075735807419,-9.687393188476562,1.5215232372283936
1701882241926060800,4.166060791015625,-0.09977070987224579,-9.687808990478516,1.5188134908676147
1701882241935652900,4.17565283203125,-0.10066505521535873,-9.688200950622559,1.5162469148635864
1701882241945245400,4.185245361328125,-0.10135483741760254,-9.68863582611084,1.5134227275848389
1701882241954839000,4.194839111328125,-0.10193269699811935,-9.689034461975098,1.5108312368392944
1701882241964431600,4.204431640625,-0.10253264009952545,-9.689427375793457,1.5082651376724243
1701882241974023700,4.214023681640625,-0.10305723547935486,-9.689824104309082,1.5056843757629395
1701882241983616500,4.223616455078125,-0.10338082909584045,-9.690255165100098,1.5028847455978394
1701882241993209900,4.2332099609375,-0.10323917865753174,-9.69077205657959,1.499558687210083
1701882242002802700,4.242802734375,-0.10212989896535873,-9.6913423538208,1.4959392547607422
1701882242012394500,4.25239453125,-0.09935345500707626,-9.691987991333008,1.491940975189209
1701882242021987300,4.2619873046875,-0.09545772522687912,-9.692676544189453,1.487718939781189
1701882242031581000,4.271580810546875,-0.09142965823411942,-9.693353652954102,1.4835529327392578
1701882242041173500,4.281173583984375,-0.08778318762779236,-9.694064140319824,1.4791206121444702
1701882242050765600,4.290765625,-0.0853302925825119,-9.694866180419922,1.4740002155303955
1701882242060358400,4.3003583984375,-0.08372919261455536,-9.69576358795166,1.468178629875183
1701882242069951700,4.30995166015625,-0.08272985368967056,-9.696727752685547,1.4618561267852783
1701882242079544300,4.31954443359375,-0.08205108344554901,-9.69774341583252,1.455140471458435
1701882242089136400,4.329136474609375,-0.08165716379880905,-9.698752403259277,1.4484153985977173
1701882242098729200,4.338729248046875,-0.08107756078243256,-9.699710845947266,1.442022681236267
1701882242108322600,4.348322509765625,-0.079867884516716,-9.700611114501953,1.436016321182251
1701882242117915400,4.357915283203125,-0.07827256619930267,-9.701483726501465,1.4302021265029907
1701882242127507200,4.367507080078125,-0.07583354413509369,-9.702251434326172,1.4251182079315186
1701882242137100000,4.37710009765625,-0.07270114868879318,-9.702954292297363,1.4204843044281006
1701882242146693600,4.386693603515625,-0.06918718665838242,-9.703628540039062,1.4160501956939697
1701882242156286200,4.3962861328125,-0.06559155881404877,-9.704285621643066,1.4117172956466675
1701882242165878300,4.405878173828125,-0.06260551512241364,-9.704879760742188,1.4077482223510742
1701882242175470800,4.415470947265625,-0.06148909032344818,-9.705413818359375,1.4041221141815186
1701882242185064400,4.425064453125,-0.061893779784440994,-9.705864906311035,1.400983452796936
1701882242194657000,4.434656982421875,-0.06368376314640045,-9.706327438354492,1.3976900577545166
1701882242204249000,4.4442490234375,-0.06674898415803909,-9.706785202026367,1.3943649530410767
1701882242213842000,4.453842041015625,-0.07085999846458435,-9.707216262817383,1.3911556005477905
1701882242223435300,4.463435302734375,-0.07616260647773743,-9.707563400268555,1.3884557485580444
1701882242233028000,4.473028076171875,-0.08179640769958496,-9.707856178283691,1.3860807418823242
1701882242242620000,4.482619873046875,-0.08714671432971954,-9.708086967468262,1.3841391801834106
1701882242252212700,4.492212646484375,-0.09192238003015518,-9.708284378051758,1.3824483156204224
1701882242261806300,4.501806396484375,-0.09632379561662674,-9.708412170410156,1.3812438249588013
1701882242271399000,4.51139892578125,-0.0995430275797844,-9.7084321975708,1.3808846473693848
1701882242280990700,4.52099072265625,-0.1014188900589943,-9.708386421203613,1.3810606002807617
1701882242290583600,4.53058349609375,-0.10247533768415451,-9.708248138427734,1.3819537162780762
1701882242300177200,4.54017724609375,-0.1029968410730362,-9.708076477050781,1.3831250667572021
1701882242309769700,4.549769775390625,-0.1030227467417717,-9.70792007446289,1.384220004081726
1701882242319361800,4.55936181640625,-0.1023782417178154,-9.707776069641113,1.3852795362472534
1701882242328954600,4.56895458984375,-0.10150320082902908,-9.707603454589844,1.3865458965301514
1701882242338548000,4.5785478515625,-0.10024500638246536,-9.707476615905762,1.3875287771224976
1701882242348140500,4.588140625,-0.09869536757469177,-9.707335472106934,1.3886295557022095
1701882242357732600,4.597732666015625,-0.09742136299610138,-9.707215309143066,1.3895540237426758
1701882242367325400,4.607325439453125,-0.09611143916845322,-9.707122802734375,1.3902995586395264
1701882242376918800,4.616918701171875,-0.0948873907327652,-9.707076072692871,1.3907017707824707
1701882242386511600,4.62651171875,-0.09375496953725815,-9.707064628601074,1.3908616304397583
1701882242396103400,4.636103515625,-0.09278567135334015,-9.70708179473877,1.3908085823059082
1701882242405696300,4.6456962890625,-0.09164173901081085,-9.707192420959473,1.3901132345199585
1701882242415289900,4.655289794921875,-0.09016497433185577,-9.707322120666504,1.3893040418624878
1701882242424882400,4.66488232421875,-0.0887564867734909,-9.707501411437988,1.3881385326385498
1701882242434474500,4.674474609375,-0.08731834590435028,-9.707778930664062,1.3862876892089844
1701882242444067000,4.684067138671875,-0.08571838587522507,-9.708121299743652,1.3839857578277588
1701882242453660700,4.69366064453125,-0.0842515155673027,-9.708490371704102,1.3814849853515625
1701882242463253200,4.703253173828125,-0.08292170614004135,-9.708892822265625,1.3787333965301514
1701882242472845300,4.71284521484375,-0.08194276690483093,-9.709349632263184,1.3755745887756348
1701882242482438100,4.722438232421875,-0.08183743059635162,-9.70982551574707,1.3722175359725952
1701882242492031500,4.732031494140625,-0.0823393240571022,-9.71031665802002,1.3687092065811157
1701882242501624300,4.741624267578125,-0.08314436674118042,-9.710803031921387,1.3651949167251587
1701882242511216000,4.751216064453125,-0.08431927859783173,-9.711299896240234,1.3615916967391968
1701882242520809000,4.76080908203125,-0.08558101207017899,-9.711809158325195,1.3578788042068481
1701882242530402600,4.770402587890625,-0.0867435410618782,-9.712281227111816,1.354422926902771
1701882242539995100,4.7799951171875,-0.08786211162805557,-9.712733268737793,1.3511053323745728
1701882242549587000,4.7895869140625,-0.08837765455245972,-9.71317195892334,1.347914457321167
1701882242559179800,4.7991796875,-0.08923065662384033,-9.713549613952637,1.3451379537582397
1701882242568773400,4.8087734375,-0.09060795605182648,-9.71398639678955,1.3418850898742676
1701882242578366000,4.818365966796875,-0.09235969185829163,-9.714411735534668,1.3386802673339844
1701882242587958000,4.8279580078125,-0.09478537738323212,-9.714836120605469,1.3354190587997437
1701882242597550800,4.83755078125,-0.09743117541074753,-9.715225219726562,1.3324047327041626
1701882242607144200,4.847144287109375,-0.09956704825162888,-9.715597152709961,1.3295252323150635
1701882242616736800,4.85673681640625,-0.1011107787489891,-9.715887069702148,1.3272887468338013
1701882242626328800,4.866328857421875,-0.10215509682893753,-9.716095924377441,1.3256809711456299
1701882242635921700,4.875921630859375,-0.10279649496078491,-9.716243743896484,1.3245508670806885
1701882242645515000,4.885514892578125,-0.10289634764194489,-9.716363906860352,1.323659062385559
1701882242655107800,4.89510791015625,-0.1028941422700882,-9.716524124145508,1.3224858045578003
1701882242664699600,4.90469970703125,-0.10283100605010986,-9.716781616210938,1.320600152015686
1701882242674292500,4.91429248046875,-0.10304944217205048,-9.717109680175781,1.3181648254394531
1701882242683885800,4.9238857421875,-0.10304970294237137,-9.717509269714355,1.3152148723602295
1701882242693478700,4.933478759765625,-0.10284201800823212,-9.717923164367676,1.312164068222046
1701882242703070500,4.943070556640625,-0.10209482163190842,-9.718338966369629,1.309141993522644
1701882242712663300,4.952663330078125,-0.1007937341928482,-9.718731880187988,1.3063206672668457
1701882242722257000,4.9622568359375,-0.09976929426193237,-9.719076156616211,1.3038328886032104
1701882242731849500,4.971849365234375,-0.0987732782959938,-9.719401359558105,1.3014836311340332
1701882242741441500,4.981441650390625,-0.09759433567523956,-9.719745635986328,1.2990096807479858
1701882242751034000,4.9910341796875,-0.09641027450561523,-9.720090866088867,1.2965036630630493
1701882242760627700,5.000627685546875,-0.09500938653945923,-9.72048282623291,1.2936687469482422
1701882242770220300,5.01022021484375,-0.094309963285923,-9.720873832702637,1.2907748222351074
1701882242779812400,5.019812255859375,-0.09365818649530411,-9.721236228942871,1.2880884408950806
1701882242789405200,5.0294052734375,-0.09261077642440796,-9.721590042114258,1.2854892015457153
1701882242798998500,5.03899853515625,-0.09088923037052155,-9.72192096710205,1.2831177711486816
1701882242808591400,5.04859130859375,-0.08912283927202225,-9.722225189208984,1.280934453010559
1701882242818183200,5.05818310546875,-0.08738657832145691,-9.722567558288574,1.2784461975097656
1701882242827776000,5.06777587890625,-0.08475524187088013,-9.722939491271973,1.2757959365844727
1701882242837369300,5.077369384765625,-0.08205335587263107,-9.723342895507812,1.2728936672210693
1701882242846962200,5.086962158203125,-0.07965867221355438,-9.723732948303223,1.2700629234313965
1701882242856554000,5.096553955078125,-0.0778878778219223,-9.724198341369629,1.2666023969650269
1701882242866146800,5.106146728515625,-0.07607707381248474,-9.724679946899414,1.2630120515823364
1701882242875740400,5.115740478515625,-0.07388808578252792,-9.725223541259766,1.258951187133789
1701882242885333000,5.1253330078125,-0.0718454048037529,-9.725839614868164,1.2543028593063354
1701882242894925000,5.134925048828125,-0.06992093473672867,-9.726487159729004,1.2493773698806763
1701882242904517600,5.144517578125,-0.06785893440246582,-9.727182388305664,1.2440663576126099
1701882242914111200,5.154111328125,-0.06595205515623093,-9.72788143157959,1.2386996746063232
1701882242923703800,5.163703857421875,-0.06413482874631882,-9.728574752807617,1.2333341836929321
1701882242933295900,5.1732958984375,-0.06156694516539574,-9.729293823242188,1.2277765274047852
1701882242942888400,5.182888427734375,-0.05919456481933594,-9.730022430419922,1.2221121788024902
1701882242952482000,5.19248193359375,-0.05670697242021561,-9.730759620666504,1.2163382768630981
1701882242962074600,5.20207470703125,-0.05446944758296013,-9.73146915435791,1.2107610702514648
1701882242971666700,5.211666748046875,-0.052099116146564484,-9.732184410095215,1.205102801322937
1701882242981259500,5.221259521484375,-0.04990357533097267,-9.732864379882812,1.199684500694275
1701882242990852900,5.230852783203125,-0.04781121760606766,-9.733527183532715,1.1943877935409546
1701882243000445400,5.240445556640625,-0.045826107263565063,-9.73414134979248,1.1894457340240479
1701882243010037500,5.25003759765625,-0.043895673006772995,-9.734740257263184,1.1846073865890503
1701882243019630300,5.25963037109375,-0.04171482101082802,-9.735294342041016,1.1801186800003052
1701882243029223700,5.2692236328125,-0.03980296477675438,-9.735832214355469,1.1757419109344482
1701882243038816500,5.27881640625,-0.03774383291602135,-9.736303329467773,1.1718995571136475
1701882243048408300,5.288408203125,-0.035514265298843384,-9.736750602722168,1.1682480573654175
1701882243058001200,5.298001220703125,-0.03298354521393776,-9.737188339233398,1.1646674871444702
1701882243067594800,5.3075947265625,-0.030012747272849083,-9.73759651184082,1.161334753036499
1701882243077187300,5.317187255859375,-0.026760296896100044,-9.737964630126953,1.1583232879638672
1701882243086779400,5.326779296875,-0.023031340911984444,-9.738311767578125,1.1554776430130005
1701882243096372000,5.3363720703125,-0.019705360755324364,-9.738648414611816,1.1527029275894165
1701882243105965600,5.345965576171875,-0.016426995396614075,-9.738990783691406,1.149851679801941
1701882243115558100,5.35555810546875,-0.013165155425667763,-9.739327430725098,1.147047519683838
1701882243125150200,5.365150146484375,-0.009876936674118042,-9.739629745483398,1.1445066928863525
1701882243134742800,5.37474267578125,-0.006911671720445156,-9.739951133728027,1.1417921781539917
1701882243144336400,5.38433642578125,-0.004003634676337242,-9.740297317504883,1.1388475894927979
1701882243153929000,5.393928955078125,-0.0013610414462164044,-9.740655899047852,1.1357923746109009
1701882243163521000,5.40352099609375,0.0014378927880898118,-9.741044044494629,1.1324541568756104
1701882243173113900,5.41311376953125,0.004433189518749714,-9.741463661193848,1.128822922706604
1701882243182707200,5.422707275390625,0.007608836051076651,-9.741923332214355,1.12483549118042
1701882243192299800,5.4322998046875,0.009855221025645733,-9.742389678955078,1.120776653289795
1701882243201891800,5.441891845703125,0.012173277325928211,-9.742911338806152,1.1162039041519165
1701882243211484700,5.451484619140625,0.01513937022536993,-9.74345874786377,1.1113930940628052
1701882243221078000,5.461078125,0.017808962613344193,-9.74404239654541,1.1062146425247192
1701882243230670800,5.4706708984375,0.020243443548679352,-9.744614601135254,1.101109266281128
1701882243240262700,5.4802626953125,0.02244613505899906,-9.745227813720703,1.0956368446350098
1701882243249855500,5.48985546875,0.0248846635222435,-9.745813369750977,1.0903563499450684
1701882243259448800,5.49944873046875,0.02777290716767311,-9.746408462524414,1.0849570035934448
1701882243269041700,5.509041748046875,0.030866464599967003,-9.746991157531738,1.0796287059783936
1701882243278633500,5.518633544921875,0.03451035916805267,-9.747562408447266,1.0743489265441895
1701882243288226300,5.528226318359375,0.03895203769207001,-9.748147010803223,1.0688828229904175
1701882243297820000,5.53781982421875,0.04401766136288643,-9.748723983764648,1.0634043216705322
1701882243307412500,5.54741259765625,0.049850739538669586,-9.749276161193848,1.0580750703811646
1701882243317004300,5.55700439453125,0.056308943778276443,-9.749836921691895,1.052566647529602
1701882243326597000,5.56659716796875,0.06340201199054718,-9.750395774841309,1.0469720363616943
1701882243336190700,5.576190673828125,0.07064318656921387,-9.75097370147705,1.0411072969436646
1701882243345783300,5.585783203125,0.07794352620840073,-9.751619338989258,1.0345183610916138
1701882243355375400,5.595375244140625,0.08534030616283417,-9.752264976501465,1.0278246402740479
1701882243364968000,5.604968017578125,0.09289668500423431,-9.752893447875977,1.0211820602416992
1701882243374561500,5.6145615234375,0.10110385715961456,-9.753518104553223,1.0144246816635132
1701882243384154000,5.624154052734375,0.10993972420692444,-9.754119873046875,1.0076870918273926
1701882243393746200,5.63374609375,0.12047365307807922,-9.754630088806152,1.0015361309051514
1701882243403338800,5.6433388671875,0.13260453939437866,-9.754993438720703,0.9964486956596375
1701882243412932400,5.652932373046875,0.1461504101753235,-9.755254745483398,0.9919788241386414
1701882243422525000,5.66252490234375,0.15958452224731445,-9.755444526672363,0.9880365133285522
1701882243432117000,5.672116943359375,0.1727745532989502,-9.755613327026367,0.9841424822807312
1701882243441709600,5.68170947265625,0.1852470487356186,-9.755802154541016,0.979996383190155
1701882243451303200,5.69130322265625,0.19738127291202545,-9.756021499633789,0.975435197353363
1701882243460896000,5.70089599609375,0.20942358672618866,-9.756242752075195,0.970693826675415
1701882243470487800,5.71048779296875,0.2218598574399948,-9.756430625915527,0.9660443663597107
1701882243480080600,5.72008056640625,0.23567894101142883,-9.756528854370117,0.9617735147476196
1701882243489674000,5.729674072265625,0.2504933178424835,-9.756521224975586,0.9580884575843811
1701882243499266800,5.739266845703125,0.2650253176689148,-9.756404876708984,0.9553567171096802
1701882243508858600,5.748858642578125,0.2786053419113159,-9.756226539611816,0.953313410282135
1701882243518451500,5.758451416015625,0.2917608916759491,-9.755939483642578,0.9523211121559143
1701882243528044800,5.768044921875,0.30591633915901184,-9.755492210388184,0.9524549245834351
1701882243537637600,5.7776376953125,0.3219909965991974,-9.754938125610352,0.9528298377990723
1701882243547229400,5.7872294921875,0.3386940360069275,-9.754297256469727,0.9536068439483643
1701882243556822300,5.796822265625,0.3555903434753418,-9.753643035888672,0.9541506767272949
1701882243566415600,5.80641552734375,0.3725588321685791,-9.752937316894531,0.9548826813697815
1701882243576008400,5.816008544921875,0.3888819217681885,-9.75216007232666,0.9563165307044983
1701882243585600300,5.825600341796875,0.404975563287735,-9.751291275024414,0.958480715751648
1701882243595193000,5.835193115234375,0.422027051448822,-9.750301361083984,0.9611998796463013
1701882243604786700,5.84478662109375,0.4394482672214508,-9.749300003051758,0.9635391235351562
1701882243614379300,5.854379150390625,0.4563942551612854,-9.748340606689453,0.9653783440589905
1701882243623971000,5.86397119140625,0.47272229194641113,-9.74736499786377,0.9673681855201721
1701882243633564000,5.87356396484375,0.4886954724788666,-9.746419906616211,0.9689533114433289
1701882243643157500,5.883157470703125,0.50445955991745,-9.74567985534668,0.9683079719543457
1701882243652750000,5.89275,0.5199330449104309,-9.745100975036621,0.9659544229507446
1701882243662342100,5.902342041015625,0.535365641117096,-9.744656562805176,0.9619999527931213
1701882243671934700,5.911934814453125,0.5513190031051636,-9.744354248046875,0.9560336470603943
1701882243681528300,5.9215283203125,0.5667943358421326,-9.744330406188965,0.9471864700317383
1701882243691121000,5.931120849609375,0.5806364417076111,-9.744633674621582,0.9356040358543396
1701882243700713000,5.940712890625,0.5925911068916321,-9.745348930358887,0.9205443859100342
1701882243710305500,5.950305419921875,0.6027277708053589,-9.746438980102539,0.9022456407546997
1701882243719899100,5.959899169921875,0.610573947429657,-9.7479248046875,0.8806583881378174
1701882243729491700,5.96949169921875,0.6153419017791748,-9.749842643737793,0.8557454943656921
1701882243739083800,5.979083740234375,0.6171479821205139,-9.752182006835938,0.8273202776908875
1701882243748676400,5.98867626953125,0.6152357459068298,-9.754888534545898,0.7962478399276733
1701882243758270000,5.99827001953125,0.6103830337524414,-9.757823944091797,0.7633429169654846
1701882243767862500,6.007862548828125,0.6022093296051025,-9.760952949523926,0.7290650606155396
1701882243777454600,6.01745458984375,0.5902196168899536,-9.764166831970215,0.6950327157974243
1701882243787047200,6.027047119140625,0.5732913613319397,-9.767498970031738,0.6615771055221558
1701882243796640800,6.036640869140625,0.5511345863342285,-9.770939826965332,0.628778338432312
1701882243806233300,6.0462333984375,0.5223143100738525,-9.774500846862793,0.5972485542297363
1701882243815825400,6.055825439453125,0.48806631565093994,-9.778042793273926,0.5675044655799866
1701882243825418000,6.06541796875,0.4507462978363037,-9.781365394592285,0.5404718518257141
1701882243835011600,6.075011474609375,0.4070049524307251,-9.784839630126953,0.5115201473236084
1701882243844604400,6.0846044921875,0.3620331585407257,-9.787931442260742,0.4855124056339264
1701882243854196200,6.0941962890625,0.31392452120780945,-9.79082202911377,0.46005013585090637
1701882243863789000,6.1037890625,0.26129648089408875,-9.793482780456543,0.4356636106967926
1701882243873382400,6.11338232421875,0.20332755148410797,-9.795808792114258,0.4137084186077118
1701882243882975200,6.122975341796875,0.13760462403297424,-9.797699928283691,0.3956446349620819
1701882243892567000,6.132567138671875,0.06650607287883759,-9.798956871032715,0.38264229893684387
1701882243902160000,6.142159912109375,-0.0068735890090465546,-9.799421310424805,0.3764103651046753
1701882243911753200,6.151753173828125,-0.08129152655601501,-9.798958778381348,0.3797093331813812
1701882243921346000,6.161345947265625,-0.1574096828699112,-9.797444343566895,0.39456966519355774
1701882243930937900,6.170937744140625,-0.2372756004333496,-9.794690132141113,0.4220755994319916
1701882243940530700,6.18053076171875,-0.32016173005104065,-9.790401458740234,0.46466946601867676
1701882243950124000,6.1901240234375,-0.4031444489955902,-9.784345626831055,0.5238773822784424
1701882243959716900,6.199716796875,-0.4841991364955902,-9.776374816894531,0.5986936092376709
1701882243969308700,6.20930859375,-0.5615202784538269,-9.76629638671875,0.6888656616210938
1701882243978901500,6.218901611328125,-0.6321689486503601,-9.753978729248047,0.794138491153717
1701882243988495000,6.2284951171875,-0.691495954990387,-9.73976993560791,0.9105543494224548
1701882243998087700,6.238087646484375,-0.7418755292892456,-9.723870277404785,1.032650113105774
1701882244007679500,6.247679443359375,-0.7883407473564148,-9.706633567810059,1.15333092212677
1701882244017272300,6.257272216796875,-0.8348379731178284,-9.688896179199219,1.2644027471542358
1701882244026866000,6.266865966796875,-0.8825875520706177,-9.671419143676758,1.3620091676712036
1701882244036458500,6.27645849609375,-0.9281011819839478,-9.654719352722168,1.4475501775741577
1701882244046050300,6.28605029296875,-0.966463565826416,-9.639681816101074,1.520805835723877
1701882244055643100,6.29564306640625,-0.9988518953323364,-9.627359390258789,1.576907753944397
1701882244065236700,6.30523681640625,-1.0298196077346802,-9.617958068847656,1.6139165163040161
1701882244074829300,6.314829345703125,-1.059924602508545,-9.61096477508545,1.6359447240829468
1701882244084421000,6.324421142578125,-1.0887938737869263,-9.605820655822754,1.6471593379974365
1701882244094014000,6.334013916015625,-1.1166642904281616,-9.60196590423584,1.650970458984375
1701882244103607600,6.343607666015625,-1.144923210144043,-9.598308563232422,1.6528784036636353
1701882244113200000,6.3532001953125,-1.1760601997375488,-9.593522071838379,1.6587992906570435
1701882244122792200,6.362792236328125,-1.2132647037506104,-9.58619499206543,1.6742898225784302
1701882244132384800,6.372384765625,-1.2616496086120605,-9.574469566345215,1.7053322792053223
1701882244141978400,6.381978271484375,-1.32551109790802,-9.55652904510498,1.7567461729049683
1701882244151571000,6.391571044921875,-1.4078038930892944,-9.530433654785156,1.8328404426574707
1701882244161163000,6.4011630859375,-1.5078105926513672,-9.494549751281738,1.9366037845611572
1701882244170755600,6.410755615234375,-1.6204932928085327,-9.448473930358887,2.066575050354004
1701882244180349200,6.42034912109375,-1.7397096157073975,-9.393643379211426,2.2143285274505615
1701882244189941800,6.429941650390625,-1.8625965118408203,-9.330422401428223,2.3757784366607666
1701882244199533600,6.439533447265625,-1.9829472303390503,-9.261649131774902,2.5416834354400635
1701882244209126400,6.44912646484375,-2.1031196117401123,-9.194928169250488,2.683387041091919
1701882244218720000,6.458719970703125,-2.2304773330688477,-9.136039733886719,2.779952049255371
1701882244228312600,6.4683125,-2.366018056869507,-9.087889671325684,2.8253488540649414
1701882244237904600,6.477904541015625,-2.505406141281128,-9.052757263183594,2.817962169647217
1701882244247497200,6.487497314453125,-2.647446632385254,-9.0303373336792,2.759423017501831
1701882244257090800,6.4970908203125,-2.7987418174743652,-9.018292427062988,2.647230863571167
1701882244266683400,6.506683349609375,-2.9608001708984375,-9.012104034423828,2.4871761798858643
1701882244276275500,6.516275390625,-3.130138397216797,-9.008172035217285,2.285930633544922
1701882244285868000,6.525867919921875,-3.2829229831695557,-9.014555931091309,2.032383441925049
1701882244295461600,6.535461669921875,-3.4250636100769043,-9.027912139892578,1.7135131359100342
1701882244305054200,6.54505419921875,-3.5652647018432617,-9.036389350891113,1.3427324295043945
1701882244314646300,6.554646240234375,-3.7290284633636475,-9.019519805908203,0.9555081725120544
1701882244324238800,6.56423876953125,-3.9216747283935547,-8.969658851623535,0.5797157883644104
1701882244333832400,6.57383251953125,-4.17650842666626,-8.870234489440918,0.2147073596715927
1701882244343425000,6.583425048828125,-4.498311519622803,-8.713165283203125,-0.12777940928936005
1701882244353017000,6.59301708984375,-4.824260234832764,-8.527186393737793,-0.42896127700805664
1701882244362609700,6.602609619140625,-5.1091413497924805,-8.341974258422852,-0.6917630434036255
1701882244372203300,6.612203369140625,-5.327004909515381,-8.182000160217285,-0.921013355255127
1701882244381795800,6.6217958984375,-5.478769779205322,-8.052700996398926,-1.1434478759765625
1701882244391388000,6.631387939453125,-5.576736927032471,-7.9488935470581055,-1.373125433921814
1701882244400980700,6.640980712890625,-5.64482307434082,-7.8559651374816895,-1.6094012260437012
1701882244410574000,6.650573974609375,-5.707075119018555,-7.758153438568115,-1.8468191623687744
1701882244420166700,6.660166748046875,-5.776798248291016,-7.644693374633789,-2.0875020027160645
1701882244429758700,6.6697587890625,-5.860146999359131,-7.50803279876709,-2.3363466262817383
1701882244439351600,6.6793515625,-5.951790809631348,-7.3525495529174805,-2.5858418941497803
1701882244448945000,6.68894482421875,-6.045191764831543,-7.1862688064575195,-2.825526714324951
1701882244458537500,6.698537353515625,-6.139595031738281,-7.012996196746826,-3.0485472679138184
1701882244468129500,6.708129638671875,-6.2381110191345215,-6.8328022956848145,-3.251025676727295
1701882244477722000,6.71772216796875,-6.339828968048096,-6.6464667320251465,-3.4353227615356445
1701882244487315700,6.727315673828125,-6.435601711273193,-6.459980010986328,-3.608610153198242
1701882244496908300,6.736908203125,-6.5190863609313965,-6.276599884033203,-3.7783854007720947
1701882244506496500,6.74649658203125,-6.590875148773193,-6.093067646026611,-3.950349807739258
1701882244516089300,6.75608935546875,-6.656485080718994,-5.904707908630371,-4.122622966766357
1701882244525682700,6.7656826171875,-6.719202995300293,-5.709038257598877,-4.292968273162842
1701882244535275500,6.775275634765625,-6.7758378982543945,-5.506765842437744,-4.464743137359619
1701882244544867300,6.784867431640625,-6.825237274169922,-5.300342559814453,-4.636043071746826
1701882244554460200,6.794460205078125,-6.864067554473877,-5.0936455726623535,-4.8072590827941895
1701882244564053500,6.804053466796875,-6.892038345336914,-4.886733531951904,-4.9789581298828125
1701882244573646300,6.813646240234375,-6.910444259643555,-4.679189205169678,-5.149886608123779
1701882244583238100,6.823238037109375,-6.923557758331299,-4.476938247680664,-5.309591293334961
1701882244592831000,6.8328310546875,-6.931499004364014,-4.287369251251221,-5.45373010635376
1701882244602424300,6.84242431640625,-6.931918144226074,-4.122220039367676,-5.579085826873779
1701882244612017200,6.85201708984375,-6.926419258117676,-3.976966381072998,-5.69024133682251
1701882244621609000,6.86160888671875,-6.915833473205566,-3.842043399810791,-5.794854164123535
1701882244631201800,6.871201904296875,-6.901007175445557,-3.710141181945801,-5.897571086883545
1701882244640795100,6.880795166015625,-6.8784613609313965,-3.5733115673065186,-6.007379055023193
1701882244650388000,6.890387939453125,-6.849990367889404,-3.428041458129883,-6.123444080352783
1701882244659979800,6.899979736328125,-6.824496746063232,-3.275928020477295,-6.2341742515563965
1701882244669572600,6.909572509765625,-6.80133056640625,-3.1208603382110596,-6.3381805419921875
1701882244679166000,6.919166015625,-6.778069972991943,-2.9616005420684814,-6.438717365264893
1701882244688758800,6.9287587890625,-6.751161575317383,-2.7966272830963135,-6.539960861206055
1701882244698350600,6.9383505859375,-6.720303535461426,-2.6254639625549316,-6.64190149307251
1701882244707943400,6.947943359375,-6.686483860015869,-2.4486358165740967,-6.742811679840088
1701882244717536800,6.957536865234375,-6.6462225914001465,-2.26870059967041,-6.84478759765625
1701882244727129600,6.967129638671875,-6.599144458770752,-2.090752601623535,-6.946253776550293
1701882244736721400,6.976721435546875,-6.55317497253418,-1.9214099645614624,-7.038073539733887
1701882244746314200,6.986314208984375,-6.512511730194092,-1.7681514024734497,-7.115561485290527
1701882244755907600,6.995907470703125,-6.481001377105713,-1.6341654062271118,-7.1761064529418945
1701882244765500400,7.00550048828125,-6.458499431610107,-1.5132176876068115,-7.222765922546387
1701882244775092200,7.01509228515625,-6.43941593170166,-1.402729868888855,-7.262001037597656
1701882244784685000,7.02468505859375,-6.4217352867126465,-1.3035272359848022,-7.296061992645264
1701882244794278400,7.0342783203125,-6.405354022979736,-1.211577296257019,-7.3262481689453125
1701882244803871200,7.043871337890625,-6.3862457275390625,-1.1247309446334839,-7.35671329498291
1701882244813463000,7.053463134765625,-6.357959747314453,-1.046960711479187,-7.392604351043701
1701882244823056000,7.063055908203125,-6.317709922790527,-0.9820112586021423,-7.435898303985596
1701882244832649200,7.072649169921875,-6.270453453063965,-0.934172511100769,-7.48192024230957
1701882244842242000,7.082241943359375,-6.217045307159424,-0.9032108783721924,-7.530135631561279
1701882244851833900,7.091833740234375,-6.1489057540893555,-0.8826668858528137,-7.588296413421631
1701882244861426700,7.1014267578125,-6.071630954742432,-0.872285783290863,-7.651457786560059
1701882244871020000,7.11102001953125,-5.9868855476379395,-0.8709672689437866,-7.718095779418945
1701882244880612900,7.12061279296875,-5.890779495239258,-0.8769582509994507,-7.791023254394531
1701882244890204700,7.13020458984375,-5.787627696990967,-0.8878154158592224,-7.86673641204834
1701882244899797500,7.139797607421875,-5.684272766113281,-0.9018474221229553,-7.940157413482666
1701882244909390800,7.149390869140625,-5.588176250457764,-0.917277455329895,-8.006327629089355
1701882244918983700,7.158983642578125,-5.503514766693115,-0.9341354370117188,-8.062821388244629
1701882244928575500,7.168575439453125,-5.4300079345703125,-0.9505478739738464,-8.110602378845215
1701882244938168300,7.178168212890625,-5.366428375244141,-0.9685308933258057,-8.150691986083984
1701882244947761700,7.18776171875,-5.3107404708862305,-0.9893046617507935,-8.184601783752441
1701882244957354500,7.1973544921875,-5.261422634124756,-1.0136220455169678,-8.213427543640137
1701882244966946300,7.2069462890625,-5.217487335205078,-1.043678879737854,-8.237653732299805
1701882244976539000,7.216538818359375,-5.1776556968688965,-1.0837737321853638,-8.257585525512695
1701882244986132500,7.226132568359375,-5.144639492034912,-1.1362278461456299,-8.271158218383789
1701882244995725000,7.23572509765625,-5.117698669433594,-1.2014896869659424,-8.278644561767578
1701882245005317000,7.245317138671875,-5.078738689422607,-1.2789037227630615,-8.291031837463379
1701882245014910000,7.254909912109375,-5.034877777099609,-1.3646239042282104,-8.304106712341309
1701882245024503300,7.26450341796875,-4.98501443862915,-1.4583159685134888,-8.318252563476562
1701882245034096000,7.27409619140625,-4.923020362854004,-1.5607010126113892,-8.336573600769043
1701882245043688000,7.28368798828125,-4.850072860717773,-1.6754958629608154,-8.357026100158691
1701882245053280800,7.29328076171875,-4.772394180297852,-1.8056151866912842,-8.374628067016602
1701882245062874000,7.3028740234375,-4.689661026000977,-1.951223611831665,-8.388693809509277
1701882245072466700,7.312466796875,-4.605968475341797,-2.1070094108581543,-8.397377967834473
1701882245082058800,7.322058837890625,-4.524073123931885,-2.2684261798858643,-8.399845123291016
1701882245091651600,7.331651611328125,-4.440414905548096,-2.439173460006714,-8.396638870239258
1701882245101245000,7.341244873046875,-4.341904640197754,-2.623028516769409,-8.392733573913574
1701882245110837500,7.35083740234375,-4.228227615356445,-2.813765525817871,-8.388992309570312
1701882245120429600,7.3604296875,-4.111788749694824,-2.9880876541137695,-8.386591911315918
1701882245130022100,7.370022216796875,-3.9951531887054443,-3.1354925632476807,-8.38914966583252
1701882245139615700,7.37961572265625,-3.8693177700042725,-3.258798360824585,-8.401131629943848
1701882245149208300,7.389208251953125,-3.730353355407715,-3.3609840869903564,-8.42369556427002
1701882245158800400,7.39880029296875,-3.592111825942993,-3.441009759902954,-8.451425552368164
1701882245168393200,7.408393310546875,-3.471590280532837,-3.497093677520752,-8.478724479675293
1701882245177986600,7.417986572265625,-3.3777644634246826,-3.529406785964966,-8.50319766998291
1701882245187579100,7.4275791015625,-3.308347225189209,-3.546485424041748,-8.523360252380371
1701882245197171200,7.437171142578125,-3.260924816131592,-3.5540740489959717,-8.538460731506348
1701882245206763800,7.446763671875,-3.235201358795166,-3.552661657333374,-8.548827171325684
1701882245216357400,7.456357421875,-3.228651523590088,-3.544466972351074,-8.554703712463379
1701882245225950000,7.465949951171875,-3.23551869392395,-3.5312063694000244,-8.557592391967773
1701882245235542000,7.4755419921875,-3.2491226196289062,-3.5132346153259277,-8.559835433959961
1701882245245134600,7.485134521484375,-3.2637152671813965,-3.492011547088623,-8.562967300415039
1701882245254728200,7.494728271484375,-3.273081064224243,-3.465362071990967,-8.570215225219727
1701882245264320800,7.50432080078125,-3.2744240760803223,-3.4301953315734863,-8.583839416503906
1701882245273912800,7.513912841796875,-3.262545585632324,-3.3870739936828613,-8.60545825958252
1701882245283505400,7.52350537109375,-3.234470844268799,-3.338923215866089,-8.6348237991333
1701882245293099000,7.53309912109375,-3.192587375640869,-3.287961483001709,-8.66989517211914
1701882245302691600,7.542691650390625,-3.140932083129883,-3.237046718597412,-8.707839012145996
1701882245312283400,7.552283447265625,-3.0828731060028076,-3.1906282901763916,-8.745636940002441
1701882245321876200,7.561876220703125,-3.0232994556427,-3.153463125228882,-8.779848098754883
1701882245331469800,7.5714697265625,-2.964759111404419,-3.1299757957458496,-8.808168411254883
1701882245341062400,7.5810625,-2.9055709838867188,-3.122398614883423,-8.83055305480957
1701882245350654500,7.590654541015625,-2.8542990684509277,-3.1285064220428467,-8.845101356506348
1701882245360247000,7.6002470703125,-2.815762758255005,-3.142226219177246,-8.852585792541504
1701882245369840600,7.609840576171875,-2.785391330718994,-3.1589903831481934,-8.85622787475586
1701882245379433200,7.61943310546875,-2.7611076831817627,-3.178842544555664,-8.856728553771973
1701882245389025000,7.62902490234375,-2.74328351020813,-3.2001616954803467,-8.854588508605957
1701882245398617900,7.638617919921875,-2.7321696281433105,-3.219717502593994,-8.850934982299805
1701882245408211500,7.64821142578125,-2.727356433868408,-3.230252742767334,-8.848581314086914
1701882245417804000,7.657803955078125,-2.7282345294952393,-3.230128288269043,-8.848356246948242
1701882245427395800,7.667395751953125,-2.733552932739258,-3.218424081802368,-8.85097885131836
1701882245436988700,7.67698876953125,-2.742518424987793,-3.195272445678711,-8.85659122467041
1701882245446582300,7.686582275390625,-2.7536303997039795,-3.1616921424865723,-8.865190505981445
1701882245456174800,7.6961748046875,-2.7650482654571533,-3.1207144260406494,-8.876150131225586
1701882245465766700,7.7057666015625,-2.775827646255493,-3.0760412216186523,-8.888370513916016
1701882245475359500,7.715359375,-2.7859795093536377,-3.031102180480957,-8.900625228881836
1701882245484952800,7.724952880859375,-2.7955117225646973,-2.9880363941192627,-8.912189483642578
1701882245494545700,7.734545654296875,-2.8053648471832275,-2.948127031326294,-8.922380447387695
1701882245504137500,7.744137451171875,-2.8158419132232666,-2.9135191440582275,-8.93044376373291
1701882245513730300,7.753730224609375,-2.8264453411102295,-2.8855035305023193,-8.936187744140625
1701882245523323600,7.76332373046875,-2.838712692260742,-2.8639414310455322,-8.93923568725586
1701882245532916500,7.77291650390625,-2.853307008743286,-2.8486995697021484,-8.939458847045898
1701882245542508300,7.78250830078125,-2.8707969188690186,-2.839144229888916,-8.936899185180664
1701882245552101000,7.79210107421875,-2.8909895420074463,-2.8340346813201904,-8.932010650634766
1701882245561694500,7.801694580078125,-2.913743257522583,-2.8323159217834473,-8.925159454345703
1701882245571287300,7.811287353515625,-2.938807964324951,-2.833087682723999,-8.916692733764648
1701882245580879000,7.820879150390625,-2.965886354446411,-2.8354949951171875,-8.90695571899414
1701882245590472000,7.830471923828125,-2.9947118759155273,-2.8386342525482178,-8.896305084228516
1701882245600065300,7.840065185546875,-3.024888515472412,-2.841634511947632,-8.885130882263184
1701882245609658000,7.849658203125,-3.056368112564087,-2.842848777770996,-8.87396240234375
1701882245619250000,7.85925,-3.088124990463257,-2.8426706790924072,-8.863017082214355
1701882245628842800,7.8688427734375,-3.118257999420166,-2.8415331840515137,-8.852827072143555
1701882245638436000,7.87843603515625,-3.146134614944458,-2.8392932415008545,-8.843677520751953
1701882245648028700,7.888028564453125,-3.1716527938842773,-2.8357367515563965,-8.835700035095215
1701882245657620700,7.897620849609375,-3.194706678390503,-2.8311939239501953,-8.828848838806152
1701882245667213600,7.907213623046875,-3.2151458263397217,-2.82601261138916,-8.823087692260742
1701882245676807000,7.916806884765625,-3.2335681915283203,-2.820333480834961,-8.818170547485352
1701882245686399500,7.9263994140625,-3.250600814819336,-2.814202070236206,-8.81386661529541
1701882245695991600,7.935991455078125,-3.2671711444854736,-2.8076939582824707,-8.809814453125
1701882245705584000,7.945584228515625,-3.283665418624878,-2.8013877868652344,-8.805688858032227
1701882245715177700,7.955177734375,-3.3002727031707764,-2.7954702377319336,-8.801359176635742
1701882245724770300,7.964770263671875,-3.3173892498016357,-2.7897558212280273,-8.796736717224121
1701882245734362400,7.9743623046875,-3.334810256958008,-2.7845051288604736,-8.7918119430542
1701882245743955000,7.983954833984375,-3.3525912761688232,-2.779566526412964,-8.78661060333252
1701882245753548500,7.993548583984375,-3.3701024055480957,-2.775277853012085,-8.781266212463379
1701882245763141000,8.00314111328125,-3.386958122253418,-2.7712764739990234,-8.776043891906738
1701882245772733000,8.01273291015625,-3.402493715286255,-2.767577886581421,-8.771199226379395
1701882245782325800,8.02232568359375,-3.4161808490753174,-2.7643063068389893,-8.766910552978516
1701882245791919400,8.03191943359375,-3.427860975265503,-2.7612171173095703,-8.763322830200195
1701882245801512000,8.041511962890626,-3.437281847000122,-2.758328914642334,-8.760541915893555
1701882245811104000,8.05110400390625,-3.4442358016967773,-2.755958318710327,-8.758556365966797
1701882245820696600,8.060696533203124,-3.4489219188690186,-2.754345178604126,-8.757220268249512
1701882245830290200,8.070290283203125,-3.451230049133301,-2.7535672187805176,-8.756555557250977
1701882245839882800,8.0798828125,-3.451261281967163,-2.7536754608154297,-8.756508827209473
1701882245849474600,8.089474609375,-3.44948410987854,-2.7540109157562256,-8.75710391998291
1701882245859067400,8.0990673828125,-3.446057081222534,-2.7543551921844482,-8.758345603942871
1701882245868660700,8.10866064453125,-3.4411168098449707,-2.754507541656494,-8.760238647460938
1701882245878253600,8.118253662109375,-3.4348368644714355,-2.7544338703155518,-8.762725830078125
1701882245887845400,8.127845458984375,-3.4275319576263428,-2.753952741622925,-8.765738487243652
1701882245897438200,8.137438232421875,-3.4193832874298096,-2.7534525394439697,-8.769076347351074
1701882245907031600,8.147031494140625,-3.4104225635528564,-2.7530040740966797,-8.772706031799316
1701882245916624400,8.156624267578126,-3.4008073806762695,-2.752683162689209,-8.776538848876953
1701882245926216200,8.16621630859375,-3.390552520751953,-2.752635955810547,-8.780519485473633
1701882245935809000,8.17580908203125,-3.379768133163452,-2.7528791427612305,-8.784600257873535
1701882245945402400,8.18540234375,-3.3685178756713867,-2.753142833709717,-8.788838386535645
1701882245954995200,8.1949951171875,-3.356904983520508,-2.753521680831909,-8.793161392211914
1701882245964587000,8.2045869140625,-3.345050811767578,-2.7539663314819336,-8.797539710998535
1701882245974179800,8.214179931640626,-3.3329098224639893,-2.7545604705810547,-8.801959991455078
1701882245983773200,8.223773193359374,-3.3207435607910156,-2.755307197570801,-8.806323051452637
1701882245993365800,8.23336572265625,-3.308645725250244,-2.7562050819396973,-8.81059455871582
1701882246002957800,8.242957763671875,-3.2970001697540283,-2.7572975158691406,-8.814618110656738
1701882246012550700,8.252550537109375,-3.28578782081604,-2.7587201595306396,-8.818359375
1701882246022144000,8.26214404296875,-3.2716493606567383,-2.7606868743896484,-8.822999954223633
1701882246031736600,8.271736572265626,-3.2583229541778564,-2.7625765800476074,-8.827337265014648
1701882246041328600,8.28132861328125,-3.24637508392334,-2.764503240585327,-8.831135749816895
1701882246050921200,8.290921142578124,-3.235741138458252,-2.7664239406585693,-8.83443546295166
1701882246060514800,8.300514892578125,-3.2262439727783203,-2.7684988975524902,-8.837258338928223
1701882246070107400,8.310107421875,-3.217904567718506,-2.770613431930542,-8.83963680267334
1701882246079699500,8.319699462890625,-3.210895299911499,-2.7730913162231445,-8.841407775878906
1701882246089292000,8.3292919921875,-3.2048356533050537,-2.7758824825286865,-8.842731475830078
1701882246098885600,8.3388857421875,-3.2001688480377197,-2.7788403034210205,-8.843491554260254
1701882246108478200,8.348478271484375,-3.196627616882324,-2.781857967376709,-8.843823432922363
1701882246118070000,8.358070068359375,-3.1942617893218994,-2.7852210998535156,-8.843620300292969
1701882246127662800,8.367662841796875,-3.1929705142974854,-2.7885749340057373,-8.843029022216797
1701882246137256400,8.37725634765625,-3.1923916339874268,-2.7922184467315674,-8.842089653015137
1701882246146849000,8.38684912109375,-3.1926827430725098,-2.795900583267212,-8.8408203125
1701882246156440800,8.39644091796875,-3.1940135955810547,-2.799553871154785,-8.839184761047363
1701882246166033700,8.40603369140625,-3.1964046955108643,-2.803114891052246,-8.837190628051758
1701882246175627300,8.415627197265625,-3.19986891746521,-2.806370973587036,-8.8349027633667
1701882246185219800,8.4252197265625,-3.2043979167938232,-2.8087503910064697,-8.832504272460938
1701882246194811600,8.434811767578125,-3.210115432739258,-2.810415029525757,-8.829899787902832
1701882246204404500,8.444404541015626,-3.216254949569702,-2.8116607666015625,-8.82726764678955
1701882246213997800,8.453997802734374,-3.2228431701660156,-2.8124172687530518,-8.824624061584473
1701882246223590700,8.463590576171875,-3.229998826980591,-2.8129265308380127,-8.821845054626465
1701882246233182500,8.473182373046875,-3.237562894821167,-2.811896324157715,-8.8193998336792
1701882246242775300,8.482775390625,-3.2450966835021973,-2.811816692352295,-8.816656112670898
1701882246252368600,8.49236865234375,-3.251922130584717,-2.813188314437866,-8.813702583312988
1701882246261961500,8.50196142578125,-3.2587690353393555,-2.8136417865753174,-8.811029434204102
1701882246271553300,8.51155322265625,-3.265169858932495,-2.814124345779419,-8.808505058288574
1701882246281146000,8.52114599609375,-3.2708404064178467,-2.8148250579833984,-8.806177139282227
1701882246290739500,8.530739501953125,-3.2760202884674072,-2.8154759407043457,-8.804043769836426
1701882246300332000,8.54033203125,-3.2805137634277344,-2.8162665367126465,-8.802116394042969
1701882246309924000,8.549924072265625,-3.2841827869415283,-2.8172175884246826,-8.800443649291992
1701882246319516700,8.5595166015625,-3.2873411178588867,-2.818342447280884,-8.798905372619629
1701882246329110300,8.5691103515625,-3.2899370193481445,-2.81960391998291,-8.797530174255371
1701882246338702800,8.578702880859375,-3.2916951179504395,-2.8207037448883057,-8.796520233154297
1701882246348295000,8.588294921875,-3.2928178310394287,-2.82175874710083,-8.795761108398438
1701882246357887500,8.597887451171875,-3.293471574783325,-2.822679281234741,-8.795220375061035
1701882246367481000,8.607481201171876,-3.29351544380188,-2.8236193656921387,-8.794902801513672
1701882246377073700,8.61707373046875,-3.293055772781372,-2.824446439743042,-8.794808387756348
1701882246386665500,8.62666552734375,-3.292186737060547,-2.824982166290283,-8.794961929321289
1701882246396258300,8.63625830078125,-3.2912895679473877,-2.825510025024414,-8.79512882232666
1701882246405852000,8.645851806640625,-3.2900631427764893,-2.8262131214141846,-8.79536247253418
1701882246415444500,8.655444580078125,-3.2887649536132812,-2.826974630355835,-8.795602798461914
1701882246425036300,8.665036376953125,-3.287238121032715,-2.827876567840576,-8.795883178710938
1701882246434629000,8.674629150390626,-3.2854766845703125,-2.828709602355957,-8.796274185180664
1701882246444222700,8.68422265625,-3.283660411834717,-2.8295557498931885,-8.796679496765137
1701882246453815300,8.693815185546875,-3.2813704013824463,-2.830585241317749,-8.797203063964844
1701882246463407000,8.703406982421875,-3.2791876792907715,-2.8315298557281494,-8.797712326049805
1701882246473000000,8.713,-3.2767226696014404,-2.8324835300445557,-8.798324584960938
1701882246482593300,8.72259326171875,-3.273980140686035,-2.8331289291381836,-8.799137115478516
1701882246492186000,8.73218603515625,-3.271421432495117,-2.8338088989257812,-8.799870491027832
1701882246501778000,8.74177783203125,-3.268832206726074,-2.8344078063964844,-8.800639152526855
1701882246511370800,8.751370849609375,-3.2663698196411133,-2.834890127182007,-8.801399230957031
1701882246520964000,8.760964111328125,-3.2642126083374023,-2.835110664367676,-8.802127838134766
1701882246530556700,8.770556640625,-3.2622921466827393,-2.8354034423828125,-8.80274486541748
1701882246540148700,8.780148681640625,-3.260831117630005,-2.8356051445007324,-8.803221702575684
1701882246549741600,8.789741455078126,-3.2596800327301025,-2.8360679149627686,-8.803499221801758
1701882246559335000,8.7993349609375,-3.2586472034454346,-2.836625576019287,-8.80370044708252
1701882246568927500,8.808927490234375,-3.2580127716064453,-2.8372209072113037,-8.803744316101074
1701882246578519600,8.81851953125,-3.257741689682007,-2.8379454612731934,-8.803611755371094
1701882246588112400,8.8281123046875,-3.2575461864471436,-2.838931083679199,-8.803365707397461
1701882246597705700,8.837705810546876,-3.2575783729553223,-2.839953899383545,-8.803024291992188
1701882246607298300,8.84729833984375,-3.25771164894104,-2.8410611152648926,-8.802618026733398
1701882246616890400,8.856890380859374,-3.258150577545166,-2.842198133468628,-8.80208683013916
1701882246626483000,8.86648291015625,-3.2586495876312256,-2.843365430831909,-8.801526069641113
1701882246636076500,8.87607666015625,-3.2592499256134033,-2.8444902896881104,-8.80094051361084
1701882246645669000,8.885669189453125,-3.2601284980773926,-2.845350980758667,-8.800336837768555
1701882246655261200,8.89526123046875,-3.261162042617798,-2.846184730529785,-8.799684524536133
1701882246664853800,8.904853759765626,-3.2622742652893066,-2.8470425605773926,-8.798994064331055
1701882246674447400,8.914447265625,-3.263573408126831,-2.8475701808929443,-8.798341751098633
1701882246684040000,8.9240400390625,-3.2652769088745117,-2.847994804382324,-8.797572135925293
1701882246693631700,8.9336318359375,-3.26692795753479,-2.8487532138824463,-8.796712875366211
1701882246703224600,8.943224609375,-3.2685484886169434,-2.8495259284973145,-8.79586124420166
1701882246712818000,8.95281787109375,-3.270439386367798,-2.8501951694488525,-8.794940948486328
1701882246722410800,8.96241064453125,-3.271965265274048,-2.8507449626922607,-8.794196128845215
1701882246732002600,8.97200244140625,-3.2732791900634766,-2.851419448852539,-8.793488502502441
1701882246741595400,8.981595458984375,-3.2745625972747803,-2.8517796993255615,-8.792893409729004
1701882246751188700,8.991188720703125,-3.2758476734161377,-2.852464437484741,-8.792192459106445
1701882246760781600,9.000781494140625,-3.2766494750976562,-2.8530807495117188,-8.791694641113281
1701882246770373400,9.010373291015625,-3.277353525161743,-2.853579521179199,-8.791269302368164
1701882246779966200,9.01996630859375,-3.2776637077331543,-2.854196786880493,-8.79095458984375
1701882246789559600,9.0295595703125,-3.277848720550537,-2.854806423187256,-8.790687561035156
1701882246799152400,9.03915234375,-3.2776126861572266,-2.8554794788360596,-8.790555953979492
1701882246808744200,9.048744140625,-3.2775614261627197,-2.8558647632598877,-8.790449142456055
1701882246818337000,9.0583369140625,-3.2772819995880127,-2.856454610824585,-8.790362358093262
1701882246827930400,9.067930419921876,-3.2767739295959473,-2.8571057319641113,-8.790340423583984
1701882246837523000,9.07752294921875,-3.2761943340301514,-2.8579089641571045,-8.790295600891113
1701882246847115000,9.087114990234374,-3.275653123855591,-2.8587868213653564,-8.790210723876953
1701882246856707800,9.096707763671875,-3.275092840194702,-2.8596603870391846,-8.790136337280273
1701882246866301200,9.10630126953125,-3.274094820022583,-2.860469102859497,-8.790245056152344
1701882246875893800,9.115893798828125,-3.2733380794525146,-2.8611955642700195,-8.790290832519531
1701882246885485800,9.12548583984375,-3.2727210521698,-2.86203932762146,-8.79024600982666
1701882246895078400,9.135078369140626,-3.271986961364746,-2.8628082275390625,-8.790266990661621
1701882246904672000,9.144672119140624,-3.271399974822998,-2.863314390182495,-8.790321350097656
1701882246914264600,9.1542646484375,-3.270803213119507,-2.863840103149414,-8.790372848510742
1701882246923856600,9.163856689453125,-3.2700982093811035,-2.8645131587982178,-8.79041576385498
1701882246933449200,9.17344921875,-3.2693963050842285,-2.8652122020721436,-8.790448188781738
1701882246943042800,9.183042724609376,-3.2684621810913086,-2.8658061027526855,-8.790603637695312
1701882246952635400,9.192635498046876,-3.2678632736206055,-2.866499423980713,-8.790599822998047
1701882246962227200,9.202227294921874,-3.267408847808838,-2.867037057876587,-8.790593147277832
1701882246971820000,9.211820068359375,-3.2672300338745117,-2.8675503730773926,-8.790492057800293
1701882246981413600,9.22141357421875,-3.2672119140625,-2.8680481910705566,-8.790336608886719
1701882246991006200,9.231006103515625,-3.2673771381378174,-2.8684473037719727,-8.790144920349121
1701882247000598300,9.240598388671875,-3.267496347427368,-2.8687174320220947,-8.79001235961914
1701882247010190800,9.25019091796875,-3.26743483543396,-2.8690948486328125,-8.789911270141602
1701882247019784400,9.259784423828124,-3.2675209045410156,-2.869337320327759,-8.789800643920898
1701882247029377000,9.269376953125,-3.267721652984619,-2.8696258068084717,-8.789631843566895
1701882247038968800,9.27896875,-3.2676846981048584,-2.8698582649230957,-8.789569854736328
1701882247048561700,9.288561767578125,-3.267831325531006,-2.869917392730713,-8.789495468139648
1701882247058155000,9.298155029296876,-3.2680373191833496,-2.86997652053833,-8.789400100708008
1701882247067747800,9.307747802734376,-3.2681455612182617,-2.8700621128082275,-8.789332389831543
1701882247077339600,9.317339599609374,-3.2681777477264404,-2.8699917793273926,-8.789342880249023
1701882247086932500,9.326932373046875,-3.2679638862609863,-2.87001895904541,-8.789414405822754
1701882247096526000,9.336526123046875,-3.267911434173584,-2.8700971603393555,-8.789406776428223
1701882247106118700,9.34611865234375,-3.268085241317749,-2.8703203201293945,-8.78926944732666
1701882247115710500,9.35571044921875,-3.2681617736816406,-2.8703572750091553,-8.789229393005371
1701882247125303300,9.36530322265625,-3.267953872680664,-2.87028431892395,-8.789331436157227
1701882247134896600,9.374896728515624,-3.267805576324463,-2.8701701164245605,-8.789422988891602
1701882247144489500,9.384489501953125,-3.2674813270568848,-2.8699843883514404,-8.789604187011719
1701882247154081300,9.394081298828125,-3.267134666442871,-2.869861602783203,-8.789772987365723
1701882247163674000,9.403674072265625,-3.2668018341064453,-2.8694489002227783,-8.790031433105469
1701882247173267500,9.413267333984376,-3.2664763927459717,-2.8688981533050537,-8.790331840515137
1701882247182860300,9.4228603515625,-3.266385555267334,-2.8680107593536377,-8.790656089782715
1701882247192452000,9.4324521484375,-3.2667219638824463,-2.8668949604034424,-8.790894508361816
1701882247202045000,9.442044921875,-3.267479181289673,-2.865814447402954,-8.790966033935547
1701882247211638300,9.45163818359375,-3.268171787261963,-2.8649308681488037,-8.790995597839355
1701882247221230800,9.46123095703125,-3.26818585395813,-2.8644065856933594,-8.791162490844727
1701882247230823000,9.470822998046875,-3.267737627029419,-2.86379075050354,-8.791528701782227
1701882247240415700,9.480415771484376,-3.2672181129455566,-2.8631198406219482,-8.791940689086914
1701882247250009000,9.490009033203124,-3.266531229019165,-2.8623037338256836,-8.792461395263672
1701882247259601700,9.4996015625,-3.265596628189087,-2.8615245819091797,-8.793062210083008
1701882247269193700,9.50919384765625,-3.26467227935791,-2.8607938289642334,-8.7936429977417
1701882247278786300,9.518786376953125,-3.263592481613159,-2.8602328300476074,-8.79422664642334
1701882247288380000,9.5283798828125,-3.2624831199645996,-2.8599789142608643,-8.794720649719238
1701882247297972500,9.537972412109376,-3.2615644931793213,-2.86004900932312,-8.795038223266602
1701882247307564500,9.547564453125,-3.2608652114868164,-2.859881639480591,-8.7953519821167
1701882247317157000,9.5571572265625,-3.2602832317352295,-2.8595705032348633,-8.795668601989746
1701882247326750700,9.566750732421875,-3.2598700523376465,-2.859403133392334,-8.795876502990723
1701882247336343300,9.57634326171875,-3.2593448162078857,-2.859490394592285,-8.796043395996094
1701882247345935400,9.585935302734375,-3.259093761444092,-2.8596243858337402,-8.796092987060547
1701882247355528000,9.59552783203125,-3.2585055828094482,-2.8600521087646484,-8.796171188354492
1701882247365121500,9.60512158203125,-3.258143424987793,-2.860276222229004,-8.796232223510742
1701882247374714000,9.614714111328125,-3.257864236831665,-2.860546350479126,-8.796247482299805
1701882247384306200,9.62430615234375,-3.2574620246887207,-2.8607513904571533,-8.796331405639648
1701882247393898800,9.633898681640625,-3.257460117340088,-2.8607561588287354,-8.796329498291016
1701882247403492400,9.643492431640626,-3.257469892501831,-2.860334634780884,-8.796463966369629
1701882247413085000,9.6530849609375,-3.2578110694885254,-2.860154390335083,-8.796395301818848
1701882247422676700,9.6626767578125,-3.25805926322937,-2.8600668907165527,-8.796331405639648
1701882247432269600,9.67226953125,-3.257946252822876,-2.8603148460388184,-8.796293258666992
1701882247441863200,9.68186328125,-3.257711410522461,-2.8606433868408203,-8.796273231506348
1701882247451455700,9.691455810546875,-3.2570960521698,-2.861030340194702,-8.796375274658203
1701882247461047600,9.701047607421875,-3.256514310836792,-2.860903024673462,-8.796631813049316
1701882247470640400,9.710640380859376,-3.2556116580963135,-2.8605332374572754,-8.797086715698242
1701882247480234000,9.72023388671875,-3.254321575164795,-2.8596901893615723,-8.797837257385254
1701882247489826600,9.72982666015625,-3.2528679370880127,-2.8581924438476562,-8.79886245727539
1701882247499418400,9.73941845703125,-3.2516345977783203,-2.855799674987793,-8.800094604492188
1701882247509011200,9.74901123046875,-3.2507059574127197,-2.8529155254364014,-8.801373481750488
1701882247518604800,9.758604736328126,-3.2508602142333984,-2.849773645401001,-8.802332878112793
1701882247528197400,9.768197265625,-3.251880645751953,-2.8464183807373047,-8.803043365478516
1701882247537789200,9.7777890625,-3.2534496784210205,-2.8433148860931396,-8.803465843200684
1701882247547382000,9.787382080078125,-3.255678415298462,-2.8403377532958984,-8.803603172302246
1701882247556975600,9.7969755859375,-3.2584314346313477,-2.8380136489868164,-8.80333423614502
1701882247566568200,9.806568115234375,-3.2620487213134766,-2.836395740509033,-8.802515029907227
1701882247576160000,9.816159912109375,-3.2658374309539795,-2.8353750705718994,-8.801440238952637
1701882247585752800,9.8257529296875,-3.2703030109405518,-2.834747791290283,-8.799983978271484
1701882247595346200,9.83534619140625,-3.273852825164795,-2.8347387313842773,-8.798666954040527
1701882247604939000,9.84493896484375,-3.27791428565979,-2.83485746383667,-8.79711627960205
1701882247614530800,9.85453076171875,-3.2811858654022217,-2.8351426124572754,-8.795804023742676
1701882247624123600,9.86412353515625,-3.284198045730591,-2.8353829383850098,-8.79460334777832
1701882247633717000,9.873717041015626,-3.286391258239746,-2.835590362548828,-8.793717384338379
1701882247643309800,9.883309814453124,-3.288180112838745,-2.8357396125793457,-8.793000221252441
1701882247652901600,9.892901611328124,-3.289849281311035,-2.8355748653411865,-8.792428016662598
1701882247662494500,9.902494384765625,-3.291116952896118,-2.834719657897949,-8.792229652404785
1701882247672087800,9.912087890625,-3.2921957969665527,-2.8336081504821777,-8.792184829711914
1701882247681680600,9.9216806640625,-3.292768716812134,-2.832245111465454,-8.79240894317627
1701882247691272400,9.9312724609375,-3.2931244373321533,-2.8304693698883057,-8.792847633361816
1701882247700865000,9.940864990234376,-3.2931878566741943,-2.82858943939209,-8.793428421020508
1701882247710458600,9.950458740234374,-3.2928719520568848,-2.8270375728607178,-8.794045448303223
1701882247720051200,9.96005126953125,-3.2925641536712646,-2.8254778385162354,-8.794662475585938
1701882247729643300,9.969643310546875,-3.2916479110717773,-2.823765516281128,-8.795555114746094
1701882247739236000,9.979236083984375,-3.2907607555389404,-2.8224873542785645,-8.796297073364258
1701882247748829400,9.988829345703126,-3.289644718170166,-2.8215651512145996,-8.79701042175293
1701882247758422000,9.998422119140624,-3.288355588912964,-2.820742130279541,-8.797755241394043
1701882247768014000,10.00801416015625,-3.28657603263855,-2.8199968338012695,-8.798661231994629
1701882247777607000,10.01760693359375,-3.28458571434021,-2.8194761276245117,-8.799570083618164
1701882247787200300,10.0272001953125,-3.28242564201355,-2.8188304901123047,-8.800582885742188
1701882247796792800,10.036792724609375,-3.2801501750946045,-2.818453550338745,-8.801552772521973
1701882247806385000,10.046385009765626,-3.2776196002960205,-2.818122386932373,-8.802600860595703
1701882247815977500,10.0559775390625,-3.2751102447509766,-2.817739725112915,-8.803657531738281
1701882247825571000,10.065571044921874,-3.2729225158691406,-2.8173983097076416,-8.804579734802246
1701882247835163600,10.07516357421875,-3.2707455158233643,-2.8170557022094727,-8.805499076843262
1701882247844755700,10.084755615234375,-3.269166946411133,-2.8169772624969482,-8.806110382080078
1701882247854348300,10.094348388671875,-3.26766037940979,-2.816603183746338,-8.806788444519043
1701882247863942000,10.10394189453125,-3.266751766204834,-2.8166818618774414,-8.807100296020508
1701882247873534500,10.113534423828124,-3.2660608291625977,-2.816859006881714,-8.807300567626953
1701882247883126500,10.12312646484375,-3.265934705734253,-2.817466974258423,-8.80715274810791
1701882247892719000,10.132718994140625,-3.2661094665527344,-2.818502426147461,-8.806755065917969
1701882247902312700,10.142312744140625,-3.2664706707000732,-2.8196074962615967,-8.806268692016602
1701882247911905300,10.1519052734375,-3.2667336463928223,-2.8211615085601807,-8.805673599243164
1701882247921497000,10.1614970703125,-3.267277956008911,-2.8225202560424805,-8.805035591125488
1701882247931090000,10.17108984375,-3.2681005001068115,-2.8239047527313232,-8.80428695678711
1701882247940683500,10.18068359375,-3.2687323093414307,-2.825174331665039,-8.803645133972168
1701882247950276000,10.190276123046875,-3.2693235874176025,-2.826604127883911,-8.802967071533203
1701882247959868200,10.1998681640625,-3.2701809406280518,-2.8279168605804443,-8.802227020263672
1701882247969460700,10.209460693359375,-3.2712059020996094,-2.829334259033203,-8.80138874053955
1701882247979054300,10.219054443359376,-3.2721831798553467,-2.830857992172241,-8.800537109375
1701882247988647000,10.22864697265625,-3.273252248764038,-2.832171678543091,-8.799715995788574
1701882247998238700,10.23823876953125,-3.2745578289031982,-2.8335893154144287,-8.798774719238281
1701882248007831600,10.24783154296875,-3.275792121887207,-2.835087776184082,-8.797832489013672
1701882248017425000,10.2574248046875,-3.277536153793335,-2.8357131481170654,-8.796980857849121
1701882248027017700,10.267017822265625,-3.279686689376831,-2.8361968994140625,-8.796024322509766
1701882248036609500,10.276609619140626,-3.280665874481201,-2.837634325027466,-8.795194625854492
1701882248046202400,10.286202392578126,-3.281921148300171,-2.8392770290374756,-8.794196128845215
1701882248055796000,10.2957958984375,-3.282931327819824,-2.8411524295806885,-8.793213844299316
1701882248065388500,10.305388427734375,-3.2838892936706543,-2.842961549758911,-8.79227066040039
1701882248074980400,10.31498046875,-3.2845983505249023,-2.844418525695801,-8.791534423828125
1701882248084573200,10.3245732421875,-3.2851181030273438,-2.845801830291748,-8.790892601013184
1701882248094166500,10.33416650390625,-3.2857837677001953,-2.8464176654815674,-8.790445327758789
1701882248103759400,10.34375927734375,-3.2865312099456787,-2.846754789352417,-8.790056228637695
1701882248113351200,10.35335107421875,-3.2871172428131104,-2.846756935119629,-8.789835929870605
1701882248122944000,10.362944091796875,-3.2876052856445312,-2.8468074798583984,-8.789637565612793
1701882248132537300,10.372537353515625,-3.2879440784454346,-2.8470115661621094,-8.789443969726562
1701882248142130200,10.382130126953125,-3.2877132892608643,-2.8473143577575684,-8.789433479309082
1701882248151722000,10.391721923828126,-3.287224054336548,-2.847598075866699,-8.78952407836914
1701882248161314800,10.401314697265626,-3.28653621673584,-2.847703218460083,-8.78974723815918
1701882248170908200,10.410908203125,-3.2859654426574707,-2.847842216491699,-8.789916038513184
1701882248180500700,10.420500732421875,-3.285278558731079,-2.8480489253997803,-8.790104866027832
1701882248190092800,10.4300927734375,-3.284245729446411,-2.8483331203460693,-8.790399551391602
1701882248199685600,10.439685546875,-3.2832741737365723,-2.848611831665039,-8.790672302246094
1701882248209279000,10.449279052734376,-3.282369375228882,-2.8486921787261963,-8.790983200073242
1701882248218871600,10.45887158203125,-3.281697988510132,-2.848576068878174,-8.791271209716797
1701882248228463600,10.468463623046874,-3.2807047367095947,-2.848543643951416,-8.791653633117676
1701882248238056400,10.478056396484375,-3.280080795288086,-2.8488948345184326,-8.79177188873291
1701882248247649800,10.48764990234375,-3.2798447608947754,-2.8495333194732666,-8.79165267944336
1701882248257242400,10.497242431640625,-3.279550790786743,-2.850456476211548,-8.791463851928711
1701882248266834400,10.50683447265625,-3.2793731689453125,-2.851696252822876,-8.79112720489502
1701882248276427000,10.516427001953126,-3.2790918350219727,-2.8529586791992188,-8.79082202911377
1701882248286020600,10.5260205078125,-3.27870774269104,-2.85404634475708,-8.790613174438477
1701882248295613200,10.53561328125,-3.2784922122955322,-2.8553361892700195,-8.790275573730469
1701882248305205200,10.545205322265625,-3.278176784515381,-2.856544017791748,-8.790000915527344
1701882248314797800,10.5547978515625,-3.2779884338378906,-2.8574724197387695,-8.78976821899414
1701882248324391400,10.564391357421876,-3.2778544425964355,-2.8584001064300537,-8.789517402648926
1701882248333984000,10.57398388671875,-3.278067111968994,-2.8595762252807617,-8.789055824279785
1701882248343576000,10.583576171875,-3.2784974575042725,-2.860570192337036,-8.788570404052734
1701882248353168600,10.593168701171875,-3.2788820266723633,-2.8613924980163574,-8.78816032409668
1701882248362762200,10.60276220703125,-3.279609203338623,-2.86252498626709,-8.787519454956055
1701882248372354800,10.612354736328125,-3.280355215072632,-2.8637537956237793,-8.786840438842773
1701882248381946600,10.621946533203126,-3.281479835510254,-2.8646113872528076,-8.786140441894531
1701882248391539500,10.63153955078125,-3.2826876640319824,-2.865910768508911,-8.785266876220703
1701882248401133000,10.641133056640625,-3.283637762069702,-2.86735200881958,-8.784440994262695
1701882248410725600,10.6507255859375,-3.2846643924713135,-2.868743658065796,-8.78360366821289
1701882248420317400,10.6603173828125,-3.2859251499176025,-2.869884729385376,-8.782758712768555
1701882248429910300,10.66991015625,-3.2868335247039795,-2.8710153102874756,-8.782049179077148
1701882248439504000,10.67950390625,-3.287970542907715,-2.8721578121185303,-8.78125
1701882248449096400,10.689096435546874,-3.2886126041412354,-2.8732523918151855,-8.780651092529297
1701882248458688300,10.698688232421874,-3.289220094680786,-2.874140501022339,-8.780133247375488
1701882248468281000,10.708281005859375,-3.2897229194641113,-2.8750789165496826,-8.779637336730957
1701882248477874400,10.71787451171875,-3.2902681827545166,-2.8759355545043945,-8.779152870178223
1701882248487467300,10.72746728515625,-3.290701150894165,-2.876685380935669,-8.7787446975708
1701882248497059000,10.73705908203125,-3.290820837020874,-2.877514600753784,-8.778428077697754
1701882248506652000,10.74665185546875,-3.291124105453491,-2.877800941467285,-8.778219223022461
1701882248516245200,10.756245361328125,-3.2920684814453125,-2.8767378330230713,-8.778214454650879
1701882248525838000,10.765838134765625,-3.291343927383423,-2.8779070377349854,-8.77810287475586
1701882248535430000,10.775429931640625,-3.2914881706237793,-2.8784267902374268,-8.777877807617188
1701882248545022500,10.7850224609375,-3.2912676334381104,-2.879340410232544,-8.777661323547363
1701882248554616000,10.794615966796876,-3.2912449836730957,-2.8797695636749268,-8.7775297164917
1701882248564209000,10.804208984375,-3.291194438934326,-2.880131959915161,-8.777429580688477
1701882248573800700,10.81380078125,-3.291271209716797,-2.8807597160339355,-8.777194023132324
1701882248583393500,10.8233935546875,-3.291541576385498,-2.881464958190918,-8.776862144470215
1701882248592987000,10.83298681640625,-3.291635513305664,-2.8819003105163574,-8.776683807373047
1701882248602579500,10.842579345703125,-3.291807174682617,-2.8821709156036377,-8.776530265808105
1701882248612171500,10.852171630859376,-3.292048215866089,-2.8824737071990967,-8.77634048461914
1701882248621764400,10.861764404296874,-3.292515516281128,-2.8829760551452637,-8.776000022888184
1701882248631357700,10.871357666015625,-3.2929983139038086,-2.883455753326416,-8.77566146850586
1701882248640950300,10.8809501953125,-3.293389320373535,-2.8839192390441895,-8.775362968444824
1701882248650542300,10.890542236328125,-3.293639898300171,-2.8843791484832764,-8.775116920471191
1701882248660135000,10.900135009765625,-3.293936252593994,-2.884516954421997,-8.7749605178833
1701882248669728500,10.909728515625,-3.294123649597168,-2.8848369121551514,-8.774785041809082
1701882248679321000,10.919321044921874,-3.2941980361938477,-2.8849847316741943,-8.774707794189453
1701882248688913200,10.9289130859375,-3.294316291809082,-2.8851871490478516,-8.77459716796875
1701882248698505700,10.938505615234375,-3.29465389251709,-2.8852500915527344,-8.774450302124023
1701882248708099300,10.948099365234375,-3.2949721813201904,-2.8853871822357178,-8.774285316467285
1701882248717692000,10.95769189453125,-3.2952306270599365,-2.8854892253875732,-8.774154663085938
1701882248727283700,10.96728369140625,-3.2954776287078857,-2.885547637939453,-8.774043083190918
1701882248736876500,10.97687646484375,-3.2956702709198,-2.885453939437866,-8.774002075195312
1701882248746470100,10.98647021484375,-3.2960612773895264,-2.885061502456665,-8.773983001708984
1701882248756062700,10.996062744140625,-3.2961878776550293,-2.884850025177002,-8.774005889892578
1701882248765654500,11.005654541015625,-3.2961323261260986,-2.8844215869903564,-8.77416706085205
1701882248775247400,11.015247314453125,-3.295928716659546,-2.8840088844299316,-8.77437973022461
1701882248784841000,11.024841064453126,-3.295616626739502,-2.8833165168762207,-8.774724006652832
1701882248794433500,11.03443359375,-3.2952983379364014,-2.8825623989105225,-8.775091171264648
1701882248804025300,11.044025390625,-3.2949378490448,-2.8815982341766357,-8.775543212890625
1701882248813618200,11.0536181640625,-3.2945144176483154,-2.880497455596924,-8.776063919067383
1701882248823211500,11.06321142578125,-3.294259548187256,-2.8795437812805176,-8.776472091674805
1701882248832804400,11.072804443359376,-3.2939720153808594,-2.878455400466919,-8.776936531066895
1701882248842396200,11.082396240234376,-3.2936832904815674,-2.877361297607422,-8.777403831481934
1701882248851989000,11.091989013671874,-3.293330192565918,-2.87654447555542,-8.777804374694824
1701882248861582300,11.101582275390625,-3.2927637100219727,-2.8758981227874756,-8.778228759765625
1701882248871175000,11.1111748046875,-3.2920925617218018,-2.8750081062316895,-8.778772354125977
1701882248880767000,11.12076708984375,-3.291600227355957,-2.8739161491394043,-8.779314041137695
1701882248890359800,11.13035986328125,-3.2911171913146973,-2.872476100921631,-8.779966354370117
1701882248899953200,11.139953125,-3.2910573482513428,-2.8707683086395264,-8.780548095703125
1701882248909545700,11.149545654296874,-3.2911417484283447,-2.8686277866363525,-8.78121566772461
1701882248919137800,11.1591376953125,-3.2911417484283447,-2.866403341293335,-8.781941413879395
1701882248928730400,11.16873046875,-3.2913365364074707,-2.863865613937378,-8.782696723937988
1701882248938324000,11.178323974609375,-3.291677713394165,-2.8615963459014893,-8.783308029174805
1701882248947916500,11.18791650390625,-3.2916479110717773,-2.8598077297210693,-8.783902168273926
1701882248957508600,11.197508544921876,-3.2913103103637695,-2.8578290939331055,-8.784673690795898
1701882248967101200,11.20710107421875,-3.290639638900757,-2.8561313152313232,-8.785475730895996
1701882248976694800,11.21669482421875,-3.2898831367492676,-2.8542394638061523,-8.786375045776367
1701882248986287400,11.226287353515625,-3.2887699604034424,-2.8526785373687744,-8.787298202514648
1701882248995879200,11.235879150390625,-3.2872238159179688,-2.8512110710144043,-8.788352966308594
1701882249005472000,11.245471923828125,-3.2855145931243896,-2.8497140407562256,-8.789477348327637
1701882249015065600,11.255065673828126,-3.283762216567993,-2.8480358123779297,-8.79067611694336
1701882249024658200,11.264658203125,-3.2818117141723633,-2.8461554050445557,-8.792014122009277
1701882249034250000,11.27425,-3.2799623012542725,-2.844263792037964,-8.793316841125488
1701882249043842800,11.2838427734375,-3.2780404090881348,-2.842608690261841,-8.794567108154297
1701882249053436400,11.2934365234375,-3.2758326530456543,-2.8409359455108643,-8.795930862426758
1701882249063029000,11.303029052734376,-3.273383617401123,-2.839228630065918,-8.797391891479492
1701882249072620800,11.312620849609376,-3.2700960636138916,-2.83748197555542,-8.799180030822754
1701882249082213600,11.322213623046874,-3.266328811645508,-2.8352596759796143,-8.801294326782227
1701882249091807200,11.33180712890625,-3.261648654937744,-2.8327691555023193,-8.803832054138184
1701882249101399800,11.34139990234375,-3.2559404373168945,-2.8304948806762695,-8.80667495727539
1701882249110991600,11.35099169921875,-3.249610424041748,-2.828284502029419,-8.809723854064941
1701882249120584400,11.36058447265625,-3.2424933910369873,-2.826105833053589,-8.813044548034668
1701882249130177800,11.370177734375,-3.2345829010009766,-2.824110746383667,-8.81658935546875
1701882249139770400,11.379770263671874,-3.2268941402435303,-2.82313871383667,-8.819719314575195
1701882249149362400,11.389362548828124,-3.2208056449890137,-2.820706844329834,-8.822721481323242
1701882249158955300,11.398955322265625,-3.213470697402954,-2.8263444900512695,-8.823592185974121
1701882249168548600,11.408548583984375,-3.2065582275390625,-2.8364930152893066,-8.82284927368164
1701882249178141200,11.41814111328125,-3.201289415359497,-2.845644474029541,-8.821816444396973
1701882249187733200,11.427733154296876,-3.196925401687622,-2.856633424758911,-8.819846153259277
1701882249197326000,11.437326171875,-3.193765163421631,-2.8691301345825195,-8.816934585571289
1701882249206919400,11.44691943359375,-3.1930298805236816,-2.8803961277008057,-8.813528060913086
1701882249216512000,11.456511962890625,-3.193073034286499,-2.896268844604492,-8.808308601379395
1701882249226104000,11.46610400390625,-3.1943447589874268,-2.9117252826690674,-8.802749633789062
1701882249235696600,11.475696533203125,-3.195958137512207,-2.9280903339385986,-8.796733856201172
1701882249245290200,11.485290283203126,-3.197462320327759,-2.9440524578094482,-8.790857315063477
1701882249254882800,11.4948828125,-3.199070930480957,-2.9605469703674316,-8.784730911254883
1701882249264475000,11.504474853515624,-3.200922966003418,-2.975212574005127,-8.77910041809082
1701882249274067500,11.5140673828125,-3.202540159225464,-2.9886257648468018,-8.773951530456543
1701882249283661000,11.5236611328125,-3.204186201095581,-2.999732494354248,-8.769560813903809
1701882249293253600,11.533253662109376,-3.2049076557159424,-3.0075109004974365,-8.766632080078125
1701882249302845400,11.542845458984376,-3.206022024154663,-3.013298511505127,-8.764237403869629
1701882249312438300,11.552438232421874,-3.2069287300109863,-3.0159974098205566,-8.762975692749023
1701882249322031600,11.562031494140625,-3.208390951156616,-3.016774892807007,-8.762173652648926
1701882249331624400,11.57162451171875,-3.210909366607666,-3.0165536403656006,-8.761326789855957
1701882249341216300,11.58121630859375,-3.214292049407959,-3.016427516937256,-8.760129928588867
1701882249350809000,11.59080908203125,-3.218679189682007,-3.016918897628784,-8.758349418640137
1701882249360402400,11.60040234375,-3.224119186401367,-3.017589807510376,-8.756117820739746
1701882249369995300,11.609995361328124,-3.2303500175476074,-3.018015146255493,-8.753673553466797
1701882249379587000,11.619587158203124,-3.237560987472534,-3.017733335494995,-8.751107215881348
1701882249389180000,11.629179931640625,-3.2454674243927,-3.016174077987671,-8.7487154006958
1701882249398773200,11.638773193359375,-3.2534220218658447,-3.0137524604797363,-8.74659538269043
1701882249408366000,11.648365966796876,-3.2609755992889404,-3.010744333267212,-8.744818687438965
1701882249417958000,11.6579580078125,-3.268514394760132,-3.0070900917053223,-8.743260383605957
1701882249427550700,11.66755078125,-3.275416851043701,-3.002882242202759,-8.742124557495117
1701882249437144000,11.67714404296875,-3.281853437423706,-2.997936964035034,-8.741408348083496
1701882249446736600,11.686736572265625,-3.288093090057373,-2.992448091506958,-8.74094295501709
1701882249456328700,11.69632861328125,-3.2934513092041016,-2.986542224884033,-8.740945816040039
1701882249465921300,11.70592138671875,-3.2979629039764404,-2.98071026802063,-8.741235733032227
1701882249475515000,11.715514892578126,-3.301547050476074,-2.975553274154663,-8.741639137268066
1701882249485107500,11.725107421875,-3.303927183151245,-2.970580577850342,-8.742430686950684
1701882249494699500,11.734699462890624,-3.3056280612945557,-2.9661953449249268,-8.743276596069336
1701882249504292000,11.7442919921875,-3.306814670562744,-2.961867570877075,-8.744296073913574
1701882249513885700,11.7538857421875,-3.3077352046966553,-2.9575119018554688,-8.745421409606934
1701882249523478300,11.763478271484376,-3.3090503215789795,-2.952704429626465,-8.74654769897461
1701882249533070000,11.773070068359376,-3.31075382232666,-2.9478578567504883,-8.747539520263672
1701882249542663000,11.782662841796874,-3.312791585922241,-2.9433350563049316,-8.748290061950684
1701882249552256300,11.79225634765625,-3.3155109882354736,-2.9393675327301025,-8.748594284057617
1701882249561849000,11.80184912109375,-3.318364143371582,-2.9367685317993164,-8.748385429382324
1701882249571441000,11.81144091796875,-3.321782112121582,-2.935439109802246,-8.747533798217773
1701882249581033700,11.82103369140625,-3.325153112411499,-2.9349353313446045,-8.746421813964844
1701882249590627000,11.830626953125,-3.3284552097320557,-2.9353227615356445,-8.745035171508789
1701882249600220000,11.840219970703124,-3.3315393924713135,-2.9360644817352295,-8.743613243103027
1701882249609811700,11.849811767578124,-3.3344547748565674,-2.9372446537017822,-8.742105484008789
1701882249619404500,11.859404541015625,-3.3370473384857178,-2.9384121894836426,-8.740721702575684
1701882249628998000,11.868997802734375,-3.339181900024414,-2.9401490688323975,-8.739322662353516
1701882249638590500,11.878590576171876,-3.3409199714660645,-2.94213604927063,-8.737990379333496
1701882249648182500,11.8881826171875,-3.341742753982544,-2.944178819656372,-8.736987113952637
1701882249657775000,11.897775146484374,-3.342418670654297,-2.9465675354003906,-8.735923767089844
1701882249667368700,11.90736865234375,-3.342672348022461,-2.9491939544677734,-8.734941482543945
1701882249676961300,11.916961181640625,-3.3425729274749756,-2.9523324966430664,-8.733919143676758
1701882249686553300,11.92655322265625,-3.3398263454437256,-2.955918312072754,-8.733755111694336
1701882249696146000,11.93614599609375,-3.3313963413238525,-2.959444284439087,-8.735780715942383
1701882249705739500,11.945739501953126,-3.3278820514678955,-2.9606754779815674,-8.736703872680664
1701882249715332000,11.95533203125,-3.323941230773926,-2.961738109588623,-8.73784351348877
1701882249724924200,11.964924072265624,-3.3203670978546143,-2.963244915008545,-8.738690376281738
1701882249734516700,11.974516845703125,-3.314866542816162,-2.9638381004333496,-8.740578651428223
1701882249744110300,11.9841103515625,-3.273549795150757,-2.9418554306030273,-8.763545989990234
1701882249753703000,11.993702880859376,-3.2351818084716797,-2.8955836296081543,-8.7931547164917
1701882249763294700,12.003294677734376,-3.2378077507019043,-2.8786816596984863,-8.797737121582031
1701882249772887600,12.012887451171874,-3.230451822280884,-2.8667612075805664,-8.804330825805664
1701882249782481000,12.02248095703125,-3.206691026687622,-2.837564706802368,-8.822457313537598
1701882249792073700,12.03207373046875,-3.1912624835968018,-2.8143317699432373,-8.83548355102539
1701882249801665500,12.04166552734375,-3.181551694869995,-2.8091700077056885,-8.84062671661377
1701882249811258400,12.05125830078125,-3.180159091949463,-2.8173813819885254,-8.838515281677246
1701882249820851700,12.060851806640626,-3.182018518447876,-2.829160213470459,-8.834081649780273
1701882249830444300,12.0704443359375,-3.181708574295044,-2.840782642364502,-8.830463409423828
1701882249840036400,12.080036376953124,-3.1806845664978027,-2.849419593811035,-8.828047752380371
1701882249849629200,12.089629150390625,-3.1795690059661865,-2.8566300868988037,-8.826119422912598
1701882249859222500,12.099222412109375,-3.177781820297241,-2.8653509616851807,-8.82393741607666
1701882249868815000,12.108815185546876,-3.1767051219940186,-2.87435245513916,-8.821395874023438
1701882249878407200,12.1184072265625,-3.1775639057159424,-2.8833675384521484,-8.818143844604492
1701882249887999700,12.127999755859374,-3.181323528289795,-2.891263723373413,-8.814202308654785
1701882249897593300,12.13759326171875,-3.186455726623535,-2.8987064361572266,-8.809903144836426
1701882249907186000,12.14718603515625,-3.189223527908325,-2.906867027282715,-8.806211471557617
1701882249916777700,12.15677783203125,-3.1907403469085693,-2.914743423461914,-8.803057670593262
1701882249926370600,12.16637060546875,-3.1928744316101074,-2.9223275184631348,-8.799769401550293
1701882249935964200,12.175964111328126,-3.196925640106201,-2.9311156272888184,-8.795374870300293
1701882249945556700,12.185556640625,-3.2031712532043457,-2.9420862197875977,-8.789437294006348
1701882249955148500,12.1951484375,-3.2126731872558594,-2.954315662384033,-8.781864166259766
1701882249964741400,12.204741455078125,-3.226435422897339,-2.967397928237915,-8.7724027633667
1701882249974335000,12.2143349609375,-3.244936466217041,-2.981058359146118,-8.760939598083496
1701882249983927600,12.223927490234376,-3.2634334564208984,-2.991684675216675,-8.750439643859863
1701882249993519400,12.233519287109376,-3.2679507732391357,-2.9980790615081787,-8.746564865112305
1701882250003112000,12.24311181640625,-3.2822721004486084,-2.997844696044922,-8.741281509399414
1701882250012705500,12.25270556640625,-3.298236608505249,-2.9950006008148193,-8.736245155334473
1701882250022298400,12.26229833984375,-3.3346571922302246,-2.996849775314331,-8.721774101257324
1701882250031890200,12.27189013671875,-3.3848280906677246,-3.0156843662261963,-8.695917129516602
1701882250041482800,12.281482666015625,-3.4128611087799072,-3.0364253520965576,-8.67772388458252
1701882250051076400,12.291076416015626,-3.4306464195251465,-3.037949323654175,-8.670173645019531
