time,seconds_elapsed,z,y,x
1701857440452828000,0.159827880859375,-0.5680879354476929,2.256011724472046,-0.5297572612762451
1701857440462421200,0.169421142578125,-0.35917818546295166,1.9261541366577148,-0.6824691295623779
1701857440472015000,0.17901513671875,-0.24311721324920654,1.3214153051376343,-0.8192988634109497
1701857440481608400,0.1886083984375,-0.20768806338310242,0.6189410090446472,-0.9035958051681519
1701857440491200800,0.19820068359375,-0.21501824259757996,-0.01511846948415041,-0.9219212532043457
1701857440500794000,0.207794189453125,-0.2101314514875412,-0.43797749280929565,-0.8559496998786926
1701857440510388200,0.21738818359375,-0.1698155403137207,-0.5528167486190796,-0.7105680704116821
1701857440519981600,0.226981689453125,-0.1050657257437706,-0.39140036702156067,-0.5273138880729675
1701857440529574000,0.236573974609375,-0.028098974376916885,-0.2154763638973236,-0.35383328795433044
1701857440539167200,0.246167236328125,0.05741964280605316,-0.18615570664405823,-0.21333840489387512
1701857440548761300,0.25576123046875,0.17225892841815948,-0.22036315500736237,-0.0984991192817688
1701857440558354400,0.2653544921875,0.3139754831790924,-0.3474193811416626,0.029778804630041122
1701857440567947000,0.274947021484375,0.41537612676620483,-0.4709632396697998,0.14095300436019897
1701857440577540400,0.284540283203125,0.41171106696128845,-0.5613686442375183,0.18615570664405823
1701857440587134200,0.29413427734375,0.30908870697021484,-0.6810947060585022,0.16538690030574799
1701857440596727600,0.3037275390625,0.17348061501979828,-0.8203678727149963,0.10308047384023666
1701857440606319900,0.31331982421875,0.10628741979598999,-0.8484668135643005,0.02489202655851841
1701857440615913200,0.322913330078125,0.11972606182098389,-0.7641699314117432,-0.038636088371276855
1701857440625507300,0.33250732421875,0.15515519678592682,-0.6420004963874817,-0.08994726091623306
1701857440635100400,0.342100341796875,0.17225892841815948,-0.5650337338447571,-0.1388150453567505
1701857440644693000,0.35169287109375,0.15026842057704926,-0.4868452548980713,-0.1644706279039383
1701857440654286300,0.361286376953125,0.0647498071193695,-0.3694098889827728,-0.15591876208782196
1701857440663880200,0.370880126953125,-0.07452336698770523,-0.3205420970916748,-0.12904147803783417
1701857440673473500,0.3804736328125,-0.1979145109653473,-0.34375429153442383,-0.10338589549064636
1701857440683066000,0.390066162109375,-0.2516690790653229,-0.399952232837677,-0.08628217875957489
1701857440692659200,0.3996591796875,-0.24311721324920654,-0.45141613483428955,-0.072843536734581
1701857440702253300,0.40925341796875,-0.19180603325366974,-0.446529358625412,-0.054518118500709534
1701857440711846700,0.4188466796875,-0.12583453953266144,-0.40972578525543213,-0.036192700266838074
1701857440721439000,0.42843896484375,-0.07452336698770523,-0.3901786804199219,-0.0459662564098835
1701857440731032300,0.4380322265625,-0.05131116881966591,-0.4146125912666321,-0.09483403712511063
1701857440740626400,0.44762646484375,-0.04031591862440109,-0.4819584786891937,-0.15469707548618317
1701857440750219500,0.457219482421875,-0.028098974376916885,-0.5259394645690918,-0.2011214643716812
1701857440759812000,0.46681201171875,-0.01588202826678753,-0.5198310017585754,-0.22066856920719147
1701857440769405400,0.476405517578125,-0.010995250195264816,-0.5088357925415039,-0.2279987335205078
1701857440778999600,0.48599951171875,-0.02076880633831024,-0.5027272701263428,-0.23166382312774658
1701857440788592600,0.495592529296875,-0.045202698558568954,-0.46729815006256104,-0.22189027070999146
1701857440798185200,0.505185302734375,-0.0781884491443634,-0.3620797097682953,-0.18035265803337097
1701857440807778600,0.514778564453125,-0.1185043677687645,-0.19837264716625214,-0.12048961967229843
1701857440817372400,0.524372314453125,-0.1563768982887268,-0.032222192734479904,-0.06306997686624527
1701857440826965800,0.5339658203125,-0.16859383881092072,0.09972081333398819,-0.012980503961443901
1701857440836558000,0.54355810546875,-0.14782503247261047,0.14003673195838928,0.04199574887752533
1701857440846151400,0.5531513671875,-0.10873081535100937,0.07895200699567795,0.08964183181524277
1701857440855745500,0.56274560546875,-0.08063183724880219,-0.06276455521583557,0.11285403370857239
1701857440865338600,0.572338623046875,-0.08796200156211853,-0.27656111121177673,0.11285403370857239
1701857440874931200,0.58193115234375,-0.12339114397764206,-0.4978405237197876,0.11896250396966934
1701857440884524500,0.591524658203125,-0.16004198789596558,-0.624896764755249,0.13973131775856018
1701857440894118700,0.60111865234375,-0.18081079423427582,-0.6346703171730042,0.16050012409687042
1701857440903711700,0.610711669921875,-0.1844758689403534,-0.5577035546302795,0.164165198802948
1701857440913304300,0.62030419921875,-0.17225892841815948,-0.41705596446990967,0.14828316867351532
1701857440922897700,0.629897705078125,-0.1588202863931656,-0.2777827978134155,0.11651911586523056
1701857440932491500,0.639491455078125,-0.14782503247261047,-0.20936790108680725,0.07375980913639069
1701857440942084900,0.6490849609375,-0.15515519678592682,-0.18615570664405823,0.037108972668647766
1701857440951677200,0.65867724609375,-0.18081079423427582,-0.19959434866905212,0.012675080448389053
1701857440961270500,0.6682705078125,-0.20157960057258606,-0.24601873755455017,-0.014202198944985867
1701857440970864600,0.67786474609375,-0.20646637678146362,-0.32542887330055237,-0.04963133856654167
1701857440980458000,0.6874580078125,-0.19058434665203094,-0.40850409865379333,-0.0850604772567749
1701857440990050300,0.69705029296875,-0.15149012207984924,-0.4489727318286896,-0.1119377613067627
1701857440999643600,0.7066435546875,-0.10873081535100937,-0.4282039403915405,-0.11560284346342087
1701857441009237800,0.71623779296875,-0.07330167293548584,-0.32542887330055237,-0.10582929104566574
1701857441018830800,0.725830810546875,-0.05986303091049194,-0.1763821393251419,-0.12048961967229843
1701857441028423400,0.73542333984375,-0.06352811306715012,-0.0456608310341835,-0.16813570261001587
1701857441038016800,0.745016845703125,-0.0647498071193695,0.04352286830544472,-0.23777230083942413
1701857441047610600,0.754610595703125,-0.04153761267662048,0.08017370104789734,-0.3061871826648712
1701857441057204000,0.764203857421875,0.007330167107284069,0.0716218426823616,-0.3574983477592468
1701857441066796500,0.773796630859375,0.05986303091049194,0.015423892997205257,-0.39048412442207336
1701857441076389600,0.7833896484375,0.10995250940322876,-0.04688252881169319,-0.4088095426559448
1701857441085983700,0.792983642578125,0.1441599577665329,-0.111632339656353,-0.4161396920681
1701857441095577000,0.8025771484375,0.15515519678592682,-0.17882554233074188,-0.4027010500431061
1701857441105169400,0.81216943359375,0.14049486815929413,-0.23991025984287262,-0.358720064163208
1701857441114762800,0.8217626953125,0.1050657257437706,-0.25090551376342773,-0.2793098986148834
1701857441124356900,0.83135693359375,0.06352811306715012,-0.1898207813501358,-0.19256959855556488
1701857441133950000,0.840949951171875,0.024433890357613564,-0.11285403370857239,-0.1253764033317566
1701857441143542500,0.85054248046875,0.0024433890357613564,-0.02244863659143448,-0.08383878320455551
1701857441153135900,0.860135986328125,0.008551862090826035,0.05085303261876106,-0.07650861889123917
1701857441162730000,0.86972998046875,0.04031591862440109,0.072843536734581,-0.08750387281179428
1701857441172323000,0.879322998046875,0.08429691940546036,0.039857782423496246,-0.10705098509788513
1701857441181915600,0.88891552734375,0.12461283802986145,-0.04321744292974472,-0.12293300777673721
1701857441191509000,0.898509033203125,0.1575985997915268,-0.14095300436019897,-0.11926792562007904
1701857441201103000,0.90810302734375,0.17714570462703705,-0.23258009552955627,-0.09239064902067184
1701857441210696200,0.9176962890625,0.16737215220928192,-0.29977330565452576,-0.036192700266838074
1701857441220288800,0.927288818359375,0.12094775587320328,-0.31443363428115845,0.04199574887752533
1701857441229882000,0.936882080078125,0.062306419014930725,-0.30221667885780334,0.11651911586523056
1701857441239476000,0.94647607421875,0.0012216945178806782,-0.2838912606239319,0.16660858690738678
1701857441249069300,0.9560693359375,-0.062306419014930725,-0.24601873755455017,0.17882554233074188
1701857441258662000,0.965661865234375,-0.1185043677687645,-0.1898207813501358,0.1519482582807541
1701857441268255200,0.975255126953125,-0.16004198789596558,-0.1238492801785469,0.09330692142248154
1701857441277849000,0.98484912109375,-0.18081079423427582,-0.05543438717722893,0.010231691412627697
1701857441287442400,0.9944423828125,-0.19180603325366974,-0.005344913341104984,-0.08261708915233612
1701857441297034800,1.00403466796875,-0.19058434665203094,0.017867282032966614,-0.16935740411281586
1701857441306628000,1.013628173828125,-0.17592400312423706,0.02641914412379265,-0.2292204350233078
1701857441316222200,1.02322216796875,-0.1575985997915268,0.005650337319821119,-0.2438807636499405
1701857441325815300,1.032815185546875,-0.15515519678592682,-0.0261137206107378,-0.20356485247612
1701857441335407900,1.042407958984375,-0.18081079423427582,-0.07009471952915192,-0.1253764033317566
1701857441345001200,1.052001220703125,-0.22723518311977386,-0.1238492801785469,-0.038636088371276855
1701857441354595300,1.06159521484375,-0.26632940769195557,-0.15927842259407043,0.037108972668647766
1701857441364188400,1.0711884765625,-0.28098973631858826,-0.16660858690738678,0.0859767496585846
1701857441373781000,1.080781005859375,-0.26999449729919434,-0.16660858690738678,0.09941539168357849
1701857441383374300,1.090374267578125,-0.2357870489358902,-0.1507265567779541,0.0859767496585846
1701857441392968400,1.099968505859375,-0.17592400312423706,-0.12140589207410812,0.05421269312500954
1701857441402561500,1.1095615234375,-0.10140064358711243,-0.08842013776302338,0.018783552572131157
1701857441412154000,1.119154052734375,-0.03665083646774292,-0.06765133142471313,-0.01175880990922451
1701857441421747500,1.12874755859375,-0.0012216945178806782,-0.04077405482530594,-0.021532366052269936
1701857441431341600,1.138341552734375,0.0024433890357613564,-0.005344913341104984,-0.009315420873463154
1701857441440934700,1.1479345703125,-0.01954711228609085,0.0325276181101799,0.01511846948415041
1701857441450527200,1.15752734375,-0.047646086663007736,0.054518118500709534,0.04199574887752533
1701857441460120600,1.16712060546875,-0.061084724962711334,0.04107947647571564,0.05665608495473862
1701857441469714400,1.17671435546875,-0.05619794875383377,-0.009009997360408306,0.05787777900695801
1701857441479307800,1.186307861328125,-0.03298575058579445,-0.07009471952915192,0.04932591691613197
1701857441488900400,1.195900390625,-0.0024433890357613564,-0.10430216789245605,0.04199574887752533
1701857441498493400,1.205493408203125,0.03176405653357506,-0.1104106456041336,0.033443886786699295
1701857441508087600,1.215087646484375,0.05986303091049194,-0.11407572776079178,0.031000498682260513
1701857441517681000,1.224680908203125,0.06841489672660828,-0.09330692142248154,0.04443913698196411
1701857441527273200,1.234273193359375,0.05986303091049194,-0.033443886786699295,0.0713164210319519
1701857441536866600,1.243866455078125,0.05131116881966591,0.03497100621461868,0.08719844371080399
1701857441546460700,1.253460693359375,0.043981000781059265,0.08383878320455551,0.08353336155414581
1701857441556054000,1.263053955078125,0.03298575058579445,0.08994726091623306,0.05665608495473862
1701857441565646300,1.272646240234375,0.02076880633831024,0.05085303261876106,0.016340164467692375
1701857441575239700,1.28223974609375,0.012216945178806782,-0.005344913341104984,-0.025197450071573257
1701857441584833800,1.291833740234375,0.007330167107284069,-0.06154286116361618,-0.06184828653931618
1701857441594427000,1.301427001953125,-0.006108472589403391,-0.10063708573579788,-0.08994726091623306
1701857441604019500,1.31101953125,-0.024433890357613564,-0.10918894410133362,-0.10582929104566574
1701857441613612800,1.32061279296875,-0.03420744836330414,-0.11651911586523056,-0.11315945535898209
1701857441623207000,1.33020703125,-0.043981000781059265,-0.12995775043964386,-0.10705098509788513
1701857441632800000,1.339800048828125,-0.062306419014930725,-0.1250709742307663,-0.07406523078680038
1701857441642392600,1.349392578125,-0.0781884491443634,-0.10796725004911423,-0.02641914412379265
1701857441651986000,1.35898583984375,-0.08185353130102158,-0.09330692142248154,0.01511846948415041
1701857441661580000,1.368580078125,-0.07207997888326645,-0.08353336155414581,0.033443886786699295
1701857441671173000,1.378173095703125,-0.043981000781059265,-0.07986827939748764,0.02733541466295719
1701857441680765700,1.387765625,-0.010995250195264816,-0.08353336155414581,0.009009997360408306
1701857441690359000,1.397359130859375,0.0036650835536420345,-0.09697200357913971,-0.023975754156708717
1701857441699953200,1.406953125,0.0024433890357613564,-0.1360662281513214,-0.07528692483901978
1701857441709546200,1.416546142578125,0.0036650835536420345,-0.188599094748497,-0.14125843346118927
1701857441719138800,1.426138916015625,0.0024433890357613564,-0.24601873755455017,-0.19745637476444244
1701857441728732200,1.435732177734375,-0.01710372418165207,-0.3217637836933136,-0.22189027070999146
1701857441738326300,1.445326171875,-0.062306419014930725,-0.3730749487876892,-0.20845162868499756
1701857441747919400,1.45491943359375,-0.09651386737823486,-0.3694098889827728,-0.1656923145055771
1701857441757512000,1.464511962890625,-0.09773556143045425,-0.3083251416683197,-0.11438114941120148
1701857441767105300,1.474105224609375,-0.06963659077882767,-0.22402822971343994,-0.06673506647348404
1701857441776699400,1.483699462890625,-0.03420744836330414,-0.1629435122013092,-0.036192700266838074
1701857441786292500,1.49329248046875,-0.0036650835536420345,-0.12751436233520508,-0.017867282032966614
1701857441795885000,1.502885009765625,0.012216945178806782,-0.08964183181524277,-0.0007635590736754239
1701857441805478400,1.512478515625,0.007330167107284069,-0.07375980913639069,0.012675080448389053
1701857441815072300,1.522072265625,-0.01954711228609085,-0.09452861547470093,0.020005248486995697
1701857441824665600,1.53166552734375,-0.062306419014930725,-0.11896250396966934,0.021226942539215088
1701857441834258200,1.541258056640625,-0.11361759155988693,-0.111632339656353,0.012675080448389053
1701857441843851500,1.5508515625,-0.14171656966209412,-0.06032116711139679,-0.0032069480512291193
1701857441853445400,1.5604453125,-0.10995250940322876,-0.0004581354442052543,-0.0325276181101799
1701857441863038700,1.570038818359375,-0.03665083646774292,0.02641914412379265,-0.06795676052570343
1701857441872631300,1.57963134765625,0.03665083646774292,0.017867282032966614,-0.09727742522954941
1701857441882224600,1.589224609375,0.09651386737823486,-0.004123218823224306,-0.1107160672545433
1701857441891818500,1.598818603515625,0.1319430023431778,-0.037108972668647766,-0.11438114941120148
1701857441901411800,1.608411865234375,0.14782503247261047,-0.06765133142471313,-0.11315945535898209
1701857441911004400,1.61800439453125,0.1588202863931656,-0.05787777900695801,-0.09116895496845245
1701857441920597500,1.627597412109375,0.19058434665203094,-0.010231691412627697,-0.04840964451432228
1701857441930191600,1.637191650390625,0.2101314514875412,0.054518118500709534,-0.012980503961443901
1701857441939785000,1.646784912109375,0.237008735537529,0.06673506647348404,-0.012980503961443901
1701857441949377300,1.656377197265625,0.2773246467113495,-0.012675080448389053,-0.054518118500709534
1701857441958970600,1.665970703125,0.2870981991291046,-0.09575030952692032,-0.09483403712511063
1701857441968564700,1.675564697265625,0.25777754187583923,-0.14706148207187653,-0.11438114941120148
1701857441978158000,1.685157958984375,0.2235700935125351,-0.22280654311180115,-0.12781979143619537
1701857441987750400,1.69475048828125,0.20646637678146362,-0.30221667885780334,-0.1363716572523117
1701857441997343700,1.70434375,0.19058434665203094,-0.3486410677433014,-0.13148486614227295
1701857442006937900,1.713937744140625,0.16126367449760437,-0.38040512800216675,-0.11682453751564026
1701857442016531200,1.72353125,0.130721315741539,-0.41827765107154846,-0.08872556686401367
1701857442026123800,1.733123779296875,0.09895725548267365,-0.4355340898036957,-0.05085303261876106
1701857442035716900,1.742716796875,0.06963659077882767,-0.38162681460380554,-0.02764083817601204
1701857442045311000,1.75231103515625,0.0525328628718853,-0.3095468580722809,-0.038636088371276855
1701857442054904300,1.761904296875,0.0390942245721817,-0.28999972343444824,-0.0716218426823616
1701857442064497000,1.771496826171875,0.01710372418165207,-0.3364241421222687,-0.10338589549064636
1701857442074090000,1.781090087890625,-0.030542362481355667,-0.4355340898036957,-0.1119377613067627
1701857442083684000,1.79068408203125,-0.10384403169155121,-0.5344913601875305,-0.09605573117733002
1701857442093277400,1.80027734375,-0.1710372269153595,-0.5577035546302795,-0.055739812552928925
1701857442102869800,1.809869873046875,-0.21623992919921875,-0.469741553068161,-0.001985253533348441
1701857442112463000,1.819463134765625,-0.24678228795528412,-0.31565532088279724,0.033443886786699295
1701857442122057200,1.82905712890625,-0.26632940769195557,-0.21058958768844604,0.0261137206107378
1701857442131650600,1.838650634765625,-0.2492256760597229,-0.1776038408279419,-0.021532366052269936
1701857442141243000,1.848242919921875,-0.21868331730365753,-0.1495048701763153,-0.07773031294345856
1701857442150836200,1.857836181640625,-0.17225892841815948,-0.14339639246463776,-0.11682453751564026
1701857442160430300,1.867430419921875,-0.10750912129878998,-0.16538690030574799,-0.1375933438539505
1701857442170023700,1.877023681640625,-0.0390942245721817,-0.24724042415618896,-0.14858859777450562
1701857442179616000,1.886615966796875,0.021990500390529633,-0.4133908748626709,-0.14125843346118927
1701857442189209300,1.896209228515625,0.07452336698770523,-0.6554391384124756,-0.1107160672545433
1701857442198803500,1.905803466796875,0.10995250940322876,-0.8997780084609985,-0.04963133856654167
1701857442208396800,1.915396728515625,0.1453816443681717,-1.081810474395752,0.031000498682260513
1701857442217989000,1.924989013671875,0.21379654109477997,-1.2052016258239746,0.111632339656353
1701857442227582500,1.93458251953125,0.3274141252040863,-1.294385313987732,0.1751604527235031
1701857442237176600,1.944176513671875,0.4984513521194458,-1.3676869869232178,0.22524993121623993
1701857442246770000,1.95377001953125,0.7036960124969482,-1.4849697351455688,0.25945737957954407
1701857442256362200,1.9633623046875,0.893058717250824,-1.7146482467651367,0.27289602160453796
1701857442265955600,1.97295556640625,1.035996913909912,-2.033510446548462,0.31443363428115845
1701857442275549700,1.9825498046875,1.1606098413467407,-2.357259511947632,0.43293800950050354
1701857442285143000,1.99214306640625,1.3988401889801025,-2.68467378616333,0.6236750483512878
1701857442294735400,2.0017353515625,2.065885543823242,-3.1428091526031494,0.7873821258544922
1701857442304328700,2.01132861328125,2.6107611656188965,-3.593614339828491,0.9620844125747681
1701857442313922800,2.0209228515625,2.7634730339050293,-4.052971363067627,1.1697725057601929
1701857442323516200,2.03051611328125,2.6547422409057617,-4.2276740074157715,1.3566917181015015
1701857442333108500,2.0401083984375,2.4837050437927246,-4.263103008270264,1.5704883337020874
1701857442342701800,2.049701904296875,2.3713090419769287,-4.243556022644043,1.827044129371643
1701857442352296000,2.0592958984375,2.3358798027038574,-4.129938125610352,2.1190290451049805
1701857442361889300,2.06888916015625,2.3713090419769287,-3.8929295539855957,2.435447931289673
1701857442371481600,2.078481689453125,2.47881817817688,-3.514204263687134,2.7555320262908936
1701857442381075000,2.088074951171875,2.675510883331299,-3.023082971572876,3.0743942260742188
1701857442390669000,2.0976689453125,2.9552791118621826,-2.502641201019287,3.3798179626464844
1701857442400262400,2.107262451171875,3.2790281772613525,-2.068939685821533,3.6718027591705322
1701857442409855000,2.11685498046875,3.584451675415039,-1.8539214134216309,3.9479057788848877
1701857442419448300,2.1264482421875,3.8263471126556396,-1.850256323814392,4.203239917755127
1701857442429042200,2.136042236328125,4.003492832183838,-1.976090908050537,4.431696891784668
1701857442438635300,2.14563525390625,4.166131019592285,-2.0726046562194824,4.61739444732666
1701857442448227800,2.155227783203125,4.382370948791504,-1.9907512664794922,4.739563941955566
1701857442457821200,2.1648212890625,4.708563327789307,-1.6425682306289673,4.7859883308410645
1701857442467415300,2.174415283203125,5.134934902191162,-1.0561549663543701,4.757889270782471
1701857442477008400,2.18400830078125,5.582075119018555,-0.2777827978134155,4.660153865814209
1701857442486601000,2.19360107421875,5.959578514099121,0.45645561814308167,4.4854512214660645
1701857442496194300,2.2031943359375,6.1489410400390625,0.5883986353874207,4.118943214416504
1701857442505788400,2.212788330078125,6.008446216583252,-0.40483900904655457,3.3773744106292725
1701857442515381500,2.222381591796875,5.604065418243408,-1.952878713607788,2.615037202835083
1701857442524974000,2.23197412109375,5.153260231018066,-3.0181963443756104,2.3450427055358887
1701857442534567400,2.2415673828125,3.7884747982025146,-4.063966751098633,2.004189968109131
1701857442544161500,2.25116162109375,2.1685078144073486,-4.933813095092773,1.4324368238449097
1701857442553754600,2.260754638671875,2.7989020347595215,-4.386494159698486,1.5118470191955566
1701857442563347200,2.27034716796875,4.6731343269348145,-2.519744873046875,2.2179863452911377
1701857442572940500,2.2799404296875,5.830079078674316,-0.10063708573579788,2.993762493133545
1701857442582534700,2.28953466796875,5.867951393127441,1.4240376949310303,3.4751100540161133
1701857442592127700,2.299127685546875,5.150816917419434,0.3978142738342285,3.084167718887329
1701857442601720300,2.30872021484375,3.6870739459991455,-2.8972485065460205,1.7378604412078857
1701857442611313700,2.318313720703125,1.9693715572357178,-5.514118194580078,0.5418215394020081
1701857442620907800,2.32790771484375,1.3401988744735718,-5.7034807205200195,0.05421269312500954
1701857442630501000,2.337501220703125,1.5906462669372559,-4.630833148956299,-0.34039464592933655
1701857442640093400,2.347093505859375,1.951046109199524,-2.710329294204712,-0.8388460278511047
1701857442649686800,2.356686767578125,2.2002718448638916,-0.6859814524650574,-1.177255392074585
1701857442659281000,2.366281005859375,2.444610834121704,0.7826480269432068,-1.3055332899093628
1701857442668874200,2.375874267578125,2.5386812686920166,1.4985610246658325,-1.3140851259231567
1701857442678466600,2.385466552734375,2.50813889503479,1.3372973203659058,-1.2175712585449219
1701857442688060000,2.395059814453125,2.6535205841064453,0.3880407214164734,-1.0917367935180664
1701857442697654000,2.404654052734375,3.0737833976745605,-0.9229902029037476,-0.9463551044464111
1701857442707247400,2.414247314453125,3.7713708877563477,-2.1935524940490723,-0.6555918455123901
1701857442716839700,2.423839599609375,4.370153903961182,-3.1049365997314453,-0.04352286830544472
1701857442726433000,2.43343310546875,3.861776351928711,-2.892361879348755,1.349361538887024
1701857442736027100,2.443027099609375,2.968717575073242,-2.6113719940185547,2.329160690307617
1701857442745620500,2.452620361328125,2.421398639678955,-1.8380393981933594,1.5081819295883179
1701857442755213000,2.462213134765625,2.2552480697631836,0.41980478167533875,0.2044811248779297
1701857442764806400,2.471806396484375,2.510582208633423,2.7117037773132324,-0.8168554902076721
1701857442774400300,2.481400146484375,2.6767327785491943,3.610870838165283,-1.6072918176651
1701857442783993600,2.49099365234375,2.4543843269348145,3.2101550102233887,-1.9285974502563477
1701857442793586200,2.500586181640625,2.0817675590515137,2.1656062602996826,-1.6732633113861084
1701857442803179500,2.510179443359375,1.7091506719589233,0.15958385169506073,-0.5847335457801819
1701857442812773400,2.5197734375,1.7372496128082275,-1.142895221710205,-0.14614520967006683
1701857442822366700,2.52936669921875,2.2405877113342285,-1.050046443939209,-0.7044596076011658
1701857442831959300,2.538959228515625,2.5704452991485596,-1.2882769107818604,-0.9060391783714294
1701857442841552600,2.548552734375,2.6767327785491943,-1.387234091758728,-1.1247224807739258
1701857442851146800,2.558146728515625,2.6315300464630127,-1.063485026359558,-1.3140851259231567
1701857442860739800,2.56773974609375,2.473931312561035,-1.0304993391036987,-1.3470709323883057
1701857442870332400,2.57733251953125,2.2234840393066406,-1.4422104358673096,-1.1992459297180176
1701857442879925800,2.58692578125,1.7250326871871948,-1.6022523641586304,-0.8950439691543579
1701857442889519900,2.596519775390625,1.5833160877227783,-1.428771734237671,-0.48333290219306946
1701857442899113000,2.606113037109375,1.706707239151001,-0.786160409450531,-0.10094250738620758
1701857442908705500,2.61570556640625,1.4220523834228516,0.03497100621461868,0.16660858690738678
1701857442918299000,2.625298828125,0.6572716236114502,0.06673506647348404,0.39506545662879944
1701857442927893000,2.63489306640625,-0.05986303091049194,-0.021226942539215088,0.762948215007782
1701857442937486000,2.644486083984375,-0.4727957844734192,0.5932853817939758,1.111131191253662
1701857442947078700,2.65407861328125,-0.6279509663581848,1.311641812324524,1.2198619842529297
1701857442956672000,2.663672119140625,-0.6389462351799011,1.4851224422454834,1.3298144340515137
1701857442966266000,2.67326611328125,-0.3787252902984619,1.6219521760940552,1.3530266284942627
1701857442975859200,2.682859130859375,0.32008397579193115,1.3996037244796753,1.0439379215240479
1701857442985451800,2.69245166015625,0.624285876750946,0.8107470273971558,0.7519529461860657
1701857442995045000,2.702045166015625,0.7989882230758667,0.34283801913261414,0.4683671295642853
1701857443004639200,2.71163916015625,1.133732557296753,-0.06032116711139679,0.25945737957954407
1701857443014232600,2.721232666015625,1.3939534425735474,-0.319320410490036,0.1519482582807541
1701857443023825000,2.730824951171875,1.3756279945373535,-0.3962871730327606,0.06032116711139679
1701857443033418200,2.740418212890625,1.1300674676895142,-0.36574479937553406,-0.008093725889921188
1701857443043012400,2.750012451171875,0.7452336549758911,-0.3571929335594177,-0.005650337319821119
1701857443052605700,2.759605712890625,0.41293275356292725,-0.34008920192718506,0.10430216789245605
1701857443062198300,2.7691982421875,0.2602209448814392,-0.15683503448963165,0.16905197501182556
1701857443071791600,2.77879150390625,0.19180603325366974,-0.1250709742307663,0.16172181069850922
1701857443081385500,2.788385498046875,0.21501824259757996,-0.10674555599689484,0.09452861547470093
1701857443090978800,2.797978759765625,0.22967857122421265,-0.14583978056907654,0.018783552572131157
1701857443100571400,2.8075712890625,0.14049486815929413,-0.17882554233074188,0.005344913341104984
1701857443110164700,2.817164794921875,-0.030542362481355667,-0.09575030952692032,0.0261137206107378
1701857443119758800,2.8267587890625,-0.08429691940546036,-0.04199574887752533,0.04932591691613197
1701857443129352000,2.83635205078125,-0.0781884491443634,-0.0029015245381742716,0.05421269312500954
1701857443138944500,2.845944580078125,-0.1172826737165451,0.004428642801940441,0.037108972668647766
1701857443148537900,2.855537841796875,-0.11972606182098389,0.025197450071573257,0.0065666078589856625
1701857443158132000,2.865132080078125,-0.10017894953489304,0.06184828653931618,-0.055739812552928925
1701857443167725000,2.87472509765625,0.05986303091049194,0.025197450071573257,-0.18279604613780975
1701857443177317600,2.884317626953125,0.864959716796875,-0.5027272701263428,-0.8144121170043945
1701857443186911000,2.893910888671875,1.3414205312728882,-0.91566002368927,-0.755770742893219
1701857443196505000,2.903505126953125,1.3072131872177124,-0.49417543411254883,-0.284196674823761
1701857443206098200,2.91309814453125,1.51734459400177,-0.1910424828529358,-0.08139539510011673
1701857443215690800,2.922690673828125,1.9559329748153687,-0.2802261710166931,0.2545706033706665
1701857443225284000,2.9322841796875,2.299229145050049,-0.4011739492416382,0.7678350210189819
1701857443234878200,2.941878173828125,2.461714506149292,-0.5063923597335815,1.2357439994812012
1701857443244471600,2.951471435546875,2.618091344833374,-0.786160409450531,1.4275500774383545
1701857443254063900,2.96106396484375,2.7842419147491455,-1.3811256885528564,1.1942063570022583
1701857443263657200,2.9706572265625,2.5447897911071777,-1.4031161069869995,0.4268295168876648
1701857443273251300,2.980251220703125,1.9876970052719116,-1.4715310335159302,-0.511431872844696
1701857443282844700,2.9898447265625,1.6932686567306519,-1.513068675994873,-1.0831849575042725
1701857443292437000,2.99943701171875,1.7824523448944092,-1.3383663892745972,-1.1931374073028564
1701857443302030300,3.0090302734375,2.175837993621826,-1.230857253074646,-1.0306520462036133
1701857443311624400,3.01862451171875,2.9284017086029053,-1.058598279953003,-1.1515997648239136
1701857443321217800,3.0282177734375,3.1031041145324707,-0.6322268843650818,-1.2114628553390503
1701857443330810400,3.037810302734375,2.140408754348755,-0.19837264716625214,-0.6226060390472412
1701857443340403700,3.04740380859375,1.0335536003112793,0.6604785919189453,-0.17913095653057098
1701857443349997600,3.05699755859375,0.7024743556976318,0.5786250829696655,0.07986827939748764
1701857443359591000,3.0665908203125,0.4593571424484253,0.04963133856654167,0.3706315755844116
1701857443369183500,3.07618359375,0.2907632887363434,-0.3217637836933136,0.624896764755249
1701857443378776800,3.08577685546875,0.15271180868148804,-0.5430431962013245,0.8154810667037964
1701857443388371000,3.095370849609375,0.047646086663007736,-0.4611896872520447,0.7666133046150208
1701857443397964000,3.104964111328125,0.014660334214568138,-0.35108447074890137,0.633448600769043
1701857443407556600,3.114556640625,0.03176405653357506,-0.28755635023117065,0.5037962794303894
1701857443417150000,3.12414990234375,0.05008947476744652,-0.22158484160900116,0.38040512800216675
1701857443426744000,3.133744140625,0.03787253051996231,-0.1776038408279419,0.2423536479473114
1701857443436337200,3.143337158203125,0.013438640162348747,-0.12751436233520508,0.1104106456041336
1701857443445929700,3.1529296875,0.006108472589403391,-0.03955236077308655,0.033443886786699295
1701857443455523000,3.162523193359375,-0.0012216945178806782,0.04474456235766411,0.009009997360408306
1701857443465117200,3.1721171875,-0.007330167107284069,0.12904147803783417,0.005344913341104984
1701857443474710500,3.18171044921875,-0.006108472589403391,0.15958385169506073,0.0029015245381742716
1701857443484302800,3.191302734375,0.012216945178806782,0.05207473039627075,-0.04230117425322533
1701857443493896200,3.200896240234375,0.03176405653357506,-0.05421269312500954,-0.2170034945011139
1701857443503490300,3.210490234375,0.03298575058579445,0.08994726091623306,-0.3489464819431305
1701857443513083600,3.220083740234375,-0.023212196305394173,0.2011214643716812,-0.39292749762535095
1701857443522676000,3.229676025390625,-0.10384403169155121,0.24998924136161804,-0.35627666115760803
1701857443532269600,3.23926953125,-0.1832541823387146,0.24632415175437927,-0.2670929729938507
1701857443541863400,3.248863525390625,-0.2773246467113495,0.26342788338661194,-0.16691401600837708
1701857443551456800,3.258456787109375,-0.3115321099758148,0.24754585325717926,-0.058183200657367706
1701857443561049300,3.26804931640625,-0.27854636311531067,0.26220619678497314,0.017561858519911766
1701857443570642700,3.277642578125,-0.2223484069108963,0.27808821201324463,0.029778804630041122
1701857443580236800,3.28723681640625,-0.07207997888326645,0.31596073508262634,-0.08383878320455551
1701857443589830000,3.296829833984375,-0.03298575058579445,0.4149180054664612,-0.12048961967229843
1701857443599422500,3.30642236328125,-0.023212196305394173,0.46012070775032043,-0.1119377613067627
1701857443609015800,3.316015869140625,-0.008551862090826035,0.5016583204269409,-0.11560284346342087
1701857443618610000,3.32560986328125,0.0012216945178806782,0.5334223508834839,-0.10949437320232391
1701857443628203300,3.335203369140625,0.006108472589403391,0.5187620520591736,-0.10705098509788513
1701857443637795600,3.344795654296875,0.010995250195264816,0.4894413650035858,-0.10338589549064636
1701857443647389000,3.354388916015625,0.04153761267662048,0.4784461259841919,-0.09972081333398819
1701857443656983000,3.363983154296875,0.05375456064939499,0.4515688419342041,-0.08750387281179428
1701857443666576100,3.373576171875,0.04031591862440109,0.40636613965034485,-0.06306997686624527
1701857443676168700,3.383168701171875,0.05131116881966591,0.3990359604358673,-0.037414394319057465
1701857443685762000,3.392761962890625,0.061084724962711334,0.41736137866973877,-0.012980503961443901
1701857443695356200,3.402356201171875,0.05619794875383377,0.4259132444858551,0.011453386396169662
1701857443704949500,3.411949462890625,0.05008947476744652,0.43202173709869385,0.02489202655851841
1701857443714541800,3.421541748046875,0.03665083646774292,0.4149180054664612,0.0261137206107378
1701857443724135400,3.431135498046875,0.0036650835536420345,0.36727190017700195,0.02489202655851841
1701857443733729300,3.440729248046875,0.008551862090826035,0.34039464592933655,0.009009997360408306
1701857443743322600,3.450322509765625,0.009773556143045425,0.31473904848098755,-0.004428642801940441
1701857443752915200,3.459915283203125,-0.02076880633831024,0.24876753985881805,-0.008093725889921188
1701857443762508500,3.469508544921875,-0.062306419014930725,0.18523943424224854,-0.001985253533348441
1701857443772102400,3.479102294921875,-0.08551861345767975,0.15714046359062195,0.0004581354442052543
1701857443781695700,3.48869580078125,-0.11239589750766754,0.14125843346118927,0.0065666078589856625
1701857443791288300,3.498288330078125,-0.1429382562637329,0.1253764033317566,0.010231691412627697
1701857443800881700,3.507881591796875,-0.1588202863931656,0.1375933438539505,0.007788302376866341
1701857443810475800,3.517475830078125,-0.1710372269153595,0.16080553829669952,0.0065666078589856625
1701857443820068900,3.52706884765625,-0.17470231652259827,0.1889045089483261,0.007788302376866341
1701857443829661400,3.536661376953125,-0.17348061501979828,0.21822518110275269,0.011453386396169662
1701857443839254800,3.5462548828125,-0.1820324808359146,0.23288552463054657,0.009009997360408306
1701857443848849000,3.555848876953125,-0.19302773475646973,0.23655059933662415,-0.0007635590736754239
1701857443858442000,3.56544189453125,-0.20768806338310242,0.2157817929983139,-0.012980503961443901
1701857443868034600,3.57503466796875,-0.2211267054080963,0.1779092699289322,-0.025197450071573257
1701857443877628000,3.5846279296875,-0.23334364593029022,0.13270656764507294,-0.04107947647571564
1701857443887222000,3.594221923828125,-0.2345653474330902,0.09605573117733002,-0.056961506605148315
1701857443896815400,3.6038154296875,-0.22479179501533508,0.06306997686624527,-0.07406523078680038
1701857443906407700,3.61340771484375,-0.20524467527866364,0.023975754156708717,-0.08750387281179428
1701857443916001000,3.6230009765625,-0.17470231652259827,-0.0065666078589856625,-0.09972081333398819
1701857443925595100,3.63259521484375,-0.12705622613430023,-0.020005248486995697,-0.1107160672545433
1701857443935188500,3.6421884765625,-0.0794101431965828,-0.02367033064365387,-0.10949437320232391
1701857443944780800,3.65178076171875,-0.04031591862440109,-0.02489202655851841,-0.10216420143842697
1701857443954374100,3.6613740234375,-0.009773556143045425,-0.020005248486995697,-0.09727742522954941
1701857443963968300,3.67096826171875,0.0036650835536420345,-0.016340164467692375,-0.10216420143842697
1701857443973561600,3.6805615234375,0,-0.013896775431931019,-0.10949437320232391
1701857443983154000,3.69015380859375,-0.0390942245721817,-0.021226942539215088,-0.10216420143842697
1701857443992747300,3.699747314453125,-0.09284878522157669,-0.05421269312500954,-0.07773031294345856
1701857444002341400,3.70934130859375,-0.10995250940322876,-0.05787777900695801,-0.06306997686624527
1701857444011934700,3.718934814453125,-0.12216944992542267,-0.05543438717722893,-0.05207473039627075
1701857444021527300,3.72852734375,-0.12339114397764206,-0.06765133142471313,-0.055739812552928925
1701857444031120600,3.73812060546875,-0.11117420345544815,-0.0859767496585846,-0.07650861889123917
1701857444040714500,3.747714599609375,-0.09284878522157669,-0.1104106456041336,-0.10705098509788513
1701857444050307800,3.757307861328125,-0.06719319522380829,-0.1238492801785469,-0.1363716572523117
1701857444059900400,3.766900390625,-0.045202698558568954,-0.1372879147529602,-0.15958385169506073
1701857444069493800,3.77649365234375,-0.04153761267662048,-0.15561333298683167,-0.16691401600837708
1701857444079087900,3.786087890625,-0.045202698558568954,-0.15927842259407043,-0.1632489264011383
1701857444088681000,3.795680908203125,-0.04886778071522713,-0.1519482582807541,-0.15347537398338318
1701857444098273500,3.8052734375,-0.05864133685827255,-0.13973131775856018,-0.13514995574951172
1701857444107867000,3.814866943359375,-0.07452336698770523,-0.13362284004688263,-0.11560284346342087
1701857444117461000,3.8244609375,-0.08551861345767975,-0.1360662281513214,-0.0984991192817688
1701857444127054000,3.83405419921875,-0.08551861345767975,-0.13973131775856018,-0.08261708915233612
1701857444136646700,3.843646728515625,-0.0794101431965828,-0.15805672109127045,-0.06917845457792282
1701857444146240000,3.853239990234375,-0.06841489672660828,-0.1898207813501358,-0.0594048947095871
1701857444155834000,3.862834228515625,-0.05497625470161438,-0.22647161781787872,-0.056961506605148315
1701857444165427200,3.87242724609375,-0.046424392610788345,-0.2655658423900604,-0.0594048947095871
1701857444175019800,3.882019775390625,-0.043981000781059265,-0.2985515892505646,-0.06795676052570343
1701857444184613000,3.891613037109375,-0.04886778071522713,-0.3205420970916748,-0.07406523078680038
1701857444194207200,3.901207275390625,-0.05497625470161438,-0.32665055990219116,-0.08017370104789734
1701857444203800600,3.910800537109375,-0.05864133685827255,-0.32542887330055237,-0.09605573117733002
1701857444213393000,3.920392822265625,-0.0659715011715889,-0.3180987238883972,-0.12171131372451782
1701857444222986200,3.929986328125,-0.07452336698770523,-0.30343836545944214,-0.15714046359062195
1701857444232580400,3.939580322265625,-0.08429691940546036,-0.2680092453956604,-0.19745637476444244
1701857444242173700,3.949173583984375,-0.10384403169155121,-0.22402822971343994,-0.2438807636499405
1701857444251766000,3.95876611328125,-0.12094775587320328,-0.1776038408279419,-0.2976353168487549
1701857444261359400,3.968359375,-0.130721315741539,-0.11896250396966934,-0.35505497455596924
1701857444270953500,3.977953369140625,-0.20402298867702484,-0.06398624926805496,-0.39048412442207336
1701857444280546800,3.987546875,-0.3432961702346802,-0.033443886786699295,-0.42224815487861633
1701857444290139100,3.99713916015625,-0.4031592011451721,-0.037108972668647766,-0.4747810363769531
1701857444299732500,4.006732421875,-0.4618005156517029,-0.033443886786699295,-0.5065450668334961
1701857444309326600,4.01632666015625,-0.5387672781944275,-0.028557108715176582,-0.5053234100341797
1701857444318920000,4.025919921875,-0.6022953987121582,-0.04810422286391258,-0.4821111857891083
1701857444328512500,4.035512451171875,-0.6206207871437073,-0.02244863659143448,-0.44301697611808777
1701857444338105900,4.04510595703125,-0.6022953987121582,0.005650337319821119,-0.40758782625198364
1701857444347699700,4.05469970703125,-0.5790832042694092,0.025197450071573257,-0.39292749762535095
1701857444357293000,4.06429296875,-0.5509842038154602,0.022754060104489326,-0.37948885560035706
1701857444366885600,4.0738857421875,-0.5534276366233826,0.008093725889921188,-0.36482852697372437
1701857444376479000,4.08347900390625,-0.577861487865448,0.009315420873463154,-0.35138988494873047
1701857444386072800,4.09307275390625,-0.6169557571411133,-0.03833066672086716,-0.32817769050598145
1701857444395666200,4.102666259765625,-0.652384877204895,-0.0859767496585846,-0.29030516743659973
1701857444405258800,4.1122587890625,-0.6621584296226501,-0.1238492801785469,-0.24998924136161804
1701857444414852000,4.12185205078125,-0.6499415040016174,-0.14583978056907654,-0.19867807626724243
1701857444424446000,4.131446044921875,-0.6108472347259521,-0.15561333298683167,-0.13148486614227295
1701857444434039300,4.141039306640625,-0.5265503525733948,-0.14095300436019897,-0.06306997686624527
1701857444443631900,4.1506318359375,-0.4324798583984375,-0.1495048701763153,-0.017867282032966614
1701857444453225200,4.16022509765625,-0.3518480062484741,-0.17882554233074188,0.005344913341104984
1701857444462819300,4.1698193359375,-0.2761029601097107,-0.22280654311180115,0.013896775431931019
1701857444472412400,4.179412353515625,-0.2235700935125351,-0.23624517023563385,0.011453386396169662
1701857444482005000,4.1890048828125,-0.20035789906978607,-0.24479703605175018,0.02367033064365387
1701857444491598300,4.198598388671875,-0.19058434665203094,-0.2582356929779053,0.04443913698196411
1701857444501192400,4.2081923828125,-0.18814095854759216,-0.2680092453956604,0.06642963737249374
1701857444510785500,4.21778564453125,-0.18936264514923096,-0.26312246918678284,0.0859767496585846
1701857444520378000,4.227378173828125,-0.19302773475646973,-0.25090551376342773,0.10430216789245605
1701857444529971500,4.236971435546875,-0.19913621246814728,-0.2313583940267563,0.11651911586523056
1701857444539565600,4.246565673828125,-0.20402298867702484,-0.21058958768844604,0.12262758612632751
1701857444549159000,4.256158935546875,-0.20280128717422485,-0.18371231853961945,0.12140589207410812
1701857444558751200,4.265751220703125,-0.19302773475646973,-0.15439164638519287,0.11896250396966934
1701857444568344600,4.275344482421875,-0.17958909273147583,-0.1238492801785469,0.12018419802188873
1701857444577938700,4.284938720703125,-0.16248537600040436,-0.0981936976313591,0.12629267573356628
1701857444587532000,4.294531982421875,-0.1429382562637329,-0.07864658534526825,0.13362284004688263
1701857444597124400,4.304124267578125,-0.12339114397764206,-0.06520794332027435,0.14583978056907654
1701857444606717700,4.3137177734375,-0.1050657257437706,-0.05787777900695801,0.15683503448963165
1701857444616311800,4.323311767578125,-0.08674030750989914,-0.04810422286391258,0.15927842259407043
1701857444625905200,4.3329052734375,-0.062306419014930725,-0.03588727489113808,0.15927842259407043
1701857444635497500,4.34249755859375,-0.03420744836330414,-0.018783552572131157,0.15439164638519287
1701857444645090800,4.3520908203125,-0.004886778071522713,0.009315420873463154,0.14706148207187653
1701857444654685000,4.361684814453125,0.021990500390529633,0.05085303261876106,0.14339639246463776
1701857444664278300,4.3712783203125,0.043981000781059265,0.09605573117733002,0.14461809396743774
1701857444673870600,4.38087060546875,0.061084724962711334,0.1375933438539505,0.14828316867351532
1701857444683464000,4.3904638671875,0.07207997888326645,0.1656923145055771,0.15439164638519287
1701857444693058000,4.40005810546875,0.08429691940546036,0.17913095653057098,0.15927842259407043
1701857444702651400,4.4096513671875,0.09773556143045425,0.18523943424224854,0.16660858690738678
1701857444712243700,4.41924365234375,0.11361759155988693,0.18768282234668732,0.18004722893238068
1701857444721837000,4.428837158203125,0.1319430023431778,0.1913478970527649,0.19348587095737457
1701857444731431200,4.43843115234375,0.15515519678592682,0.20356485247612,0.2044811248779297
1701857444741024500,4.4480244140625,0.18569757044315338,0.22677704691886902,0.21058958768844604
1701857444750617000,4.4576171875,0.21990501880645752,0.2560977041721344,0.20814619958400726
1701857444760210200,4.467210205078125,0.25533416867256165,0.2939702570438385,0.19715094566345215
1701857444769804300,4.47680419921875,0.284654825925827,0.3318427801132202,0.18126893043518066
1701857444779397600,4.486397705078125,0.30664533376693726,0.36360684037208557,0.16783028841018677
1701857444788990200,4.495990234375,0.32130566239356995,0.39414918422698975,0.16660858690738678
1701857444798583300,4.505583251953125,0.33596599102020264,0.4283566474914551,0.17393875122070312
1701857444808177400,4.515177490234375,0.3555130958557129,0.4662291705608368,0.18249061703681946
1701857444817770800,4.524770751953125,0.3823903799057007,0.49677154421806335,0.188599094748497
1701857444827363300,4.53436328125,0.4080459773540497,0.5175403356552124,0.19592925906181335
1701857444836956700,4.543956787109375,0.43736663460731506,0.5419742465019226,0.21058958768844604
1701857444846550500,4.553550537109375,0.4715740978717804,0.5676298141479492,0.2289150059223175
1701857444856144000,4.563143798828125,0.5204418897628784,0.5810684561729431,0.2411319613456726
1701857444865736400,4.572736328125,0.5961869359016418,0.5871769189834595,0.24479703605175018
1701857444875329800,4.582329833984375,0.6804838180541992,0.5529694557189941,0.2289150059223175
1701857444884923600,4.591923583984375,0.735460102558136,0.5297572612762451,0.23746687173843384
1701857444894517000,4.60151708984375,0.7562289237976074,0.5322006940841675,0.27656111121177673
1701857444904109600,4.611109619140625,0.7562289237976074,0.49799323081970215,0.3058817684650421
1701857444913703000,4.620702880859375,0.735460102558136,0.4271349310874939,0.3217637836933136
1701857444923296800,4.630296875,0.6927008032798767,0.33917292952537537,0.32787227630615234
1701857444932890000,4.63989013671875,0.6206207871437073,0.2560977041721344,0.3217637836933136
1701857444942482700,4.649482666015625,0.5253286361694336,0.20234315097332,0.3217637836933136
1701857444952076000,4.659075927734375,0.4080459773540497,0.17424418032169342,0.3315373361110687
1701857444961670000,4.668669921875,0.2870981991291046,0.15591876208782196,0.35352784395217896
1701857444971263200,4.67826318359375,0.21746163070201874,0.1913478970527649,0.3730749487876892
1701857444980855800,4.687855712890625,0.20402298867702484,0.2426590770483017,0.37796175479888916
1701857444990449200,4.69744921875,0.21379654109477997,0.2683146595954895,0.3694098889827728
1701857445000043000,4.70704296875,0.2211267054080963,0.2548760175704956,0.3620797097682953
1701857445009636400,4.71663623046875,0.22845686972141266,0.23777230083942413,0.3620797097682953
1701857445019229000,4.72622900390625,0.21868331730365753,0.20722992718219757,0.36696648597717285
1701857445028822300,4.735822265625,0.1966928243637085,0.15591876208782196,0.3730749487876892
1701857445038416100,4.745416015625,0.17714570462703705,0.10094250738620758,0.38040512800216675
1701857445048009500,4.755009521484375,0.16615045070648193,0.039857782423496246,0.3877353072166443
1701857445057602000,4.76460205078125,0.16737215220928192,-0.016340164467692375,0.39384377002716064
1701857445067195400,4.7741953125,0.17592400312423706,-0.05787777900695801,0.40606072545051575
1701857445076789200,4.783789306640625,0.18691925704479218,-0.08719844371080399,0.423164427280426
1701857445086382600,4.793382568359375,0.19424942135810852,-0.10674555599689484,0.44637662172317505
1701857445095975200,4.80297509765625,0.19913621246814728,-0.11896250396966934,0.4695888161659241
1701857445105568500,4.812568603515625,0.1979145109653473,-0.12629267573356628,0.48791423439979553
1701857445115162400,4.822162353515625,0.19180603325366974,-0.12873606383800507,0.5001311898231506
1701857445124755700,4.831755615234375,0.18691925704479218,-0.12751436233520508,0.506239652633667
1701857445134348300,4.841348388671875,0.1954711228609085,-0.10796725004911423,0.5025745630264282
1701857445143941400,4.85094140625,0.20280128717422485,-0.10796725004911423,0.4940227270126343
1701857445153535500,4.860535400390625,0.19302773475646973,-0.12018419802188873,0.48302745819091797
1701857445163128800,4.87012890625,0.17592400312423706,-0.1250709742307663,0.4659237563610077
1701857445172721400,4.879721435546875,0.1575985997915268,-0.1238492801785469,0.44759833812713623
1701857445182314500,4.889314453125,0.13438639044761658,-0.111632339656353,0.43171629309654236
1701857445191908600,4.89890869140625,0.10262233763933182,-0.09330692142248154,0.41949936747550964
1701857445201502000,4.908501953125,0.08551861345767975,-0.04443913698196411,0.39506545662879944
1701857445211094500,4.918094482421875,0.05741964280605316,-0.01511846948415041,0.36818817257881165
1701857445220688000,4.92768798828125,0.026877280324697495,0.014202198944985867,0.33886751532554626
1701857445230281700,4.93728173828125,-0.006108472589403391,0.019088976085186005,0.3107685446739197
1701857445239875000,4.946875,-0.03787253051996231,0.023975754156708717,0.2838912606239319
1701857445249467400,4.95646728515625,-0.07207997888326645,0.03497100621461868,0.26434415578842163
1701857445259060700,4.966060791015625,-0.09773556143045425,0.058183200657367706,0.25212720036506653
1701857445268654800,4.97565478515625,-0.09407047927379608,0.11804623156785965,0.23868857324123383
1701857445278248200,4.985248291015625,-0.04153761267662048,0.1901262104511261,0.22036315500736237
1701857445287840500,4.994840576171875,-0.03542914241552353,0.16691401600837708,0.21303297579288483
1701857445297433900,5.004433837890625,-0.046424392610788345,0.1644706279039383,0.21303297579288483
1701857445307028000,5.014028076171875,-0.04886778071522713,0.1754658818244934,0.21914145350456238
1701857445316621300,5.023621337890625,-0.03665083646774292,0.19501298666000366,0.22647161781787872
1701857445326213600,5.033213623046875,-0.021990500390529633,0.20234315097332,0.23868857324123383
1701857445335807000,5.042806884765625,-0.014660334214568138,0.20356485247612,0.24846212565898895
1701857445345401000,5.052401123046875,-0.01588202826678753,0.19501298666000366,0.2557922899723053
1701857445354994400,5.061994384765625,-0.03176405653357506,0.16813570261001587,0.2667875289916992
1701857445364586800,5.071586669921875,-0.05741964280605316,0.13392825424671173,0.27411770820617676
1701857445374180000,5.08118017578125,-0.062306419014930725,0.13270656764507294,0.2777827978134155
1701857445383774200,5.090774169921875,-0.05864133685827255,0.11560284346342087,0.2838912606239319
1701857445393367600,5.100367431640625,-0.08307522535324097,0.072843536734581,0.2924431264400482
1701857445402960000,5.1099599609375,-0.09651386737823486,0.08383878320455551,0.2985515892505646
1701857445412553200,5.11955322265625,-0.10384403169155121,0.11438114941120148,0.293664813041687
1701857445422147300,5.129147216796875,-0.11361759155988693,0.15591876208782196,0.2777827978134155
1701857445431740400,5.138740478515625,-0.11239589750766754,0.22189027070999146,0.2545706033706665
1701857445441333000,5.1483330078125,-0.11361759155988693,0.26220619678497314,0.22647161781787872
1701857445450926300,5.15792626953125,-0.15393351018428802,0.24021568894386292,0.18493400514125824
1701857445460520400,5.1675205078125,-0.18691925704479218,0.24876753985881805,0.1360662281513214
1701857445470113500,5.177113525390625,-0.2101314514875412,0.2658712565898895,0.07864658534526825
1701857445479706000,5.1867060546875,-0.23090025782585144,0.2658712565898895,0.034665580838918686
1701857445489299500,5.196299560546875,-0.25411245226860046,0.2573194205760956,0.005344913341104984
1701857445498893600,5.2058935546875,-0.26755109429359436,0.24754585325717926,-0.008093725889921188
1701857445508486700,5.215486572265625,-0.25655585527420044,0.23655059933662415,-0.005650337319821119
1701857445518079200,5.225079345703125,-0.24678228795528412,0.17913095653057098,0.012675080448389053
1701857445527672600,5.234672607421875,-0.2504473626613617,0.08994726091623306,0.034665580838918686
1701857445537266700,5.2442666015625,-0.24433889985084534,0.04474456235766411,0.05421269312500954
1701857445546859800,5.25385986328125,-0.23212195932865143,0.020310672000050545,0.07864658534526825
1701857445556452400,5.263452392578125,-0.22479179501533508,0.001985253533348441,0.10185877978801727
1701857445566045400,5.27304541015625,-0.21746163070201874,-0.011453386396169662,0.12018419802188873
1701857445575639600,5.2826396484375,-0.20646637678146362,-0.010231691412627697,0.13973131775856018
1701857445585233000,5.29223291015625,-0.17714570462703705,0.021532366052269936,0.17149536311626434
1701857445594825500,5.301825439453125,-0.16248537600040436,-0.0029015245381742716,0.2020377367734909
1701857445604418800,5.311418701171875,-0.16492876410484314,-0.020005248486995697,0.2289150059223175
1701857445614012700,5.3210126953125,-0.16126367449760437,-0.0016798300202935934,0.24601873755455017
1701857445623606000,5.33060595703125,-0.14782503247261047,0.0007635590736754239,0.24724042415618896
1701857445633198600,5.340198486328125,-0.12094775587320328,-0.01511846948415041,0.23746687173843384
1701857445642791700,5.349791748046875,-0.08551861345767975,-0.04199574887752533,0.22524993121623993
1701857445652385800,5.3593857421875,-0.045202698558568954,-0.07620319724082947,0.21791976690292358
1701857445661979100,5.368979248046875,0.0012216945178806782,-0.0847550556063652,0.2044811248779297
1701857445671571500,5.378571533203125,0.045202698558568954,-0.07742489129304886,0.18493400514125824
1701857445681164800,5.388164794921875,0.07696675509214401,-0.04321744292974472,0.16172181069850922
1701857445690759000,5.397759033203125,0.08551861345767975,0.020310672000050545,0.12995775043964386
1701857445700352300,5.407352294921875,0.06841489672660828,0.11315945535898209,0.08108997344970703
1701857445709944600,5.416944580078125,0.03298575058579445,0.2170034945011139,0.017561858519911766
1701857445719538000,5.426537841796875,-0.014660334214568138,0.31473904848098755,-0.04963133856654167
1701857445729132000,5.436132080078125,-0.06841489672660828,0.3990359604358673,-0.1107160672545433
1701857445738725000,5.44572509765625,-0.11972606182098389,0.46989426016807556,-0.15958385169506073
1701857445748317700,5.455317626953125,-0.16492876410484314,0.5224271416664124,-0.19379130005836487
1701857445757911000,5.4649111328125,-0.19424942135810852,0.5578562617301941,-0.21822518110275269
1701857445767505200,5.474505126953125,-0.2089097648859024,0.5737382769584656,-0.23410721123218536
1701857445777098200,5.48409814453125,-0.2101314514875412,0.5749599933624268,-0.22677704691886902
1701857445786690800,5.49369091796875,-0.1979145109653473,0.5639647245407104,-0.19501298666000366
1701857445796284200,5.5032841796875,-0.17470231652259827,0.5395308136940002,-0.14492350816726685
1701857445805878300,5.512878173828125,-0.1429382562637329,0.48333290219306946,-0.09727742522954941
1701857445815471400,5.522471435546875,-0.1050657257437706,0.4124746024608612,-0.04963133856654167
1701857445825064000,5.53206396484375,-0.0659715011715889,0.3379512429237366,-0.005650337319821119
1701857445834657300,5.5416572265625,-0.026877280324697495,0.2695363461971283,0.034665580838918686
1701857445844251100,5.551251220703125,0.013438640162348747,0.22311195731163025,0.06887302547693253
1701857445853844500,5.560844482421875,0.05375456064939499,0.19379130005836487,0.09697200357913971
1701857445863437000,5.57043701171875,0.09651386737823486,0.1754658818244934,0.11896250396966934
1701857445873030400,5.580030517578125,0.13927318155765533,0.1632489264011383,0.13240113854408264
1701857445882624300,5.589624267578125,0.17225892841815948,0.15836215019226074,0.12995775043964386
1701857445892217600,5.599217529296875,0.20035789906978607,0.15836215019226074,0.11285403370857239
1701857445901810000,5.608809814453125,0.21868331730365753,0.15836215019226074,0.08842013776302338
1701857445911403300,5.6184033203125,0.22967857122421265,0.15958385169506073,0.06520794332027435
1701857445920997400,5.627997314453125,0.2357870489358902,0.1632489264011383,0.04810422286391258
1701857445930590700,5.6375908203125,0.2357870489358902,0.17913095653057098,0.033443886786699295
1701857445940183000,5.64718310546875,0.23212195932865143,0.20967331528663635,0.017561858519911766
1701857445949776400,5.6567763671875,0.22845686972141266,0.24510246515274048,-0.001985253533348441
1701857445959370500,5.66637060546875,0.2235700935125351,0.2707580327987671,-0.021532366052269936
1701857445968963600,5.675963623046875,0.2211267054080963,0.27197974920272827,-0.038636088371276855
1701857445978556200,5.68555615234375,0.21501824259757996,0.2536543309688568,-0.04352286830544472
1701857445988149500,5.6951494140625,0.1979145109653473,0.23166382312774658,-0.03497100621461868
1701857445997743600,5.70474365234375,0.16859383881092072,0.21211670339107513,-0.020310672000050545
1701857446007336700,5.714336669921875,0.13438639044761658,0.19379130005836487,-0.0032069480512291193
1701857446016929300,5.72392919921875,0.10017894953489304,0.1766875684261322,0.020005248486995697
1701857446026522400,5.7335224609375,0.06841489672660828,0.1522536724805832,0.0456608310341835
1701857446036116500,5.743116455078125,0.042759306728839874,0.11560284346342087,0.06887302547693253
1701857446045709800,5.752709716796875,0.029320668429136276,0.06429167091846466,0.08842013776302338
1701857446055302400,5.762302490234375,0.030542362481355667,-0.0016798300202935934,0.10552386194467545
1701857446064895500,5.7718955078125,0.042759306728839874,-0.06765133142471313,0.11896250396966934
1701857446074489600,5.781489501953125,0.05741964280605316,-0.12262758612632751,0.13117945194244385
1701857446084083000,5.7910830078125,0.07207997888326645,-0.15927842259407043,0.14461809396743774
1701857446093675300,5.80067529296875,0.08429691940546036,-0.1751604527235031,0.15805672109127045
1701857446103268600,5.8102685546875,0.09529217332601547,-0.17027367651462555,0.17271706461906433
1701857446112862700,5.81986279296875,0.10628741979598999,-0.1495048701763153,0.18249061703681946
1701857446122455800,5.829455810546875,0.11361759155988693,-0.11651911586523056,0.18493400514125824
1701857446132048400,5.83904833984375,0.1172826737165451,-0.07986827939748764,0.1763821393251419
1701857446141641700,5.848641845703125,0.12094775587320328,-0.04199574887752533,0.1629435122013092
1701857446151235800,5.85823583984375,0.12094775587320328,-0.009009997360408306,0.14706148207187653
1701857446160829000,5.867828857421875,0.1172826737165451,0.016645587980747223,0.1238492801785469
1701857446170421500,5.87742138671875,0.11239589750766754,0.036192700266838074,0.09697200357913971
1701857446180014800,5.887014892578125,0.10873081535100937,0.04963133856654167,0.0713164210319519
1701857446189609000,5.89660888671875,0.10628741979598999,0.06306997686624527,0.052990999072790146
1701857446199202000,5.9062021484375,0.10750912129878998,0.072843536734581,0.037108972668647766
1701857446208794600,5.915794677734375,0.10995250940322876,0.08628217875957489,0.020005248486995697
1701857446218388000,5.925387939453125,0.11361759155988693,0.09972081333398819,-0.001985253533348441
1701857446227981800,5.93498193359375,0.1172826737165451,0.1107160672545433,-0.022754060104489326
1701857446237575200,5.9445751953125,0.12216944992542267,0.11682453751564026,-0.04230117425322533
1701857446247167500,5.95416748046875,0.12583453953266144,0.11682453751564026,-0.058183200657367706
1701857446256760800,5.9637607421875,0.12827792763710022,0.10460758954286575,-0.0716218426823616
1701857446266355000,5.97335498046875,0.129499614238739,0.08628217875957489,-0.08383878320455551
1701857446275948300,5.9829482421875,0.129499614238739,0.058183200657367706,-0.0984991192817688
1701857446285540600,5.99254052734375,0.12583453953266144,0.02641914412379265,-0.10949437320232391
1701857446295134000,6.002134033203125,0.1172826737165451,-0.0016798300202935934,-0.11315945535898209
1701857446304728000,6.01172802734375,0.10750912129878998,-0.02244863659143448,-0.10582929104566574
1701857446314321200,6.021321044921875,0.09529217332601547,-0.032222192734479904,-0.09605573117733002
1701857446323913700,6.030913818359375,0.08307522535324097,-0.032222192734479904,-0.08383878320455551
1701857446333507000,6.040507080078125,0.07452336698770523,-0.02244863659143448,-0.072843536734581
1701857446343101200,6.05010107421875,0.06841489672660828,-0.007788302376866341,-0.06062658876180649
1701857446352694300,6.0596943359375,0.0659715011715889,0.005650337319821119,-0.05085303261876106
1701857446362286800,6.069286865234375,0.0659715011715889,0.014202198944985867,-0.04352286830544472
1701857446371880000,6.0788798828125,0.06963659077882767,0.015423892997205257,-0.04107947647571564
1701857446381474000,6.08847412109375,0.07574506103992462,0.016645587980747223,-0.03497100621461868
1701857446391067400,6.0980673828125,0.08185353130102158,0.017867282032966614,-0.03008422814309597
1701857446400659700,6.10765966796875,0.08551861345767975,0.014202198944985867,-0.02641914412379265
1701857446410253000,6.117253173828125,0.08918370306491852,0.008093725889921188,-0.02764083817601204
1701857446419847200,6.12684716796875,0.0916270911693573,-0.0004581354442052543,-0.03374931216239929
1701857446429440300,6.136440185546875,0.09651386737823486,-0.010231691412627697,-0.03497100621461868
1701857446439032800,6.14603271484375,0.10140064358711243,-0.020005248486995697,-0.03497100621461868
1701857446448626200,6.155626220703125,0.1050657257437706,-0.02244863659143448,-0.03497100621461868
1701857446458220300,6.16522021484375,0.10873081535100937,-0.021226942539215088,-0.039857782423496246
1701857446467813400,6.1748134765625,0.11117420345544815,-0.021226942539215088,-0.04840964451432228
1701857446477406000,6.184406005859375,0.11361759155988693,-0.020005248486995697,-0.06062658876180649
1701857446486999300,6.193999267578125,0.11361759155988693,-0.017561858519911766,-0.072843536734581
1701857446496593200,6.20359326171875,0.11117420345544815,-0.012675080448389053,-0.08383878320455551
1701857446506186500,6.2131865234375,0.10750912129878998,-0.007788302376866341,-0.09116895496845245
1701857446515778800,6.22277880859375,0.10384403169155121,-0.0004581354442052543,-0.09605573117733002
1701857446525372200,6.2323720703125,0.09895725548267365,-0.0004581354442052543,-0.0984991192817688
1701857446534966300,6.24196630859375,0.10140064358711243,-0.0029015245381742716,-0.09483403712511063
1701857446544559600,6.2515595703125,0.1050657257437706,-0.0004581354442052543,-0.09116895496845245
1701857446554152000,6.26115185546875,0.11117420345544815,0.001985253533348441,-0.08628217875957489
1701857446563745300,6.270745361328125,0.11239589750766754,0.005650337319821119,-0.08628217875957489
1701857446573339400,6.28033935546875,0.10995250940322876,0.010537114925682545,-0.09116895496845245
1701857446582932500,6.289932373046875,0.10995250940322876,0.015423892997205257,-0.09605573117733002
1701857446592525000,6.299525146484375,0.11239589750766754,0.02641914412379265,-0.09972081333398819
1701857446602118100,6.3091181640625,0.11483928561210632,0.04107947647571564,-0.10338589549064636
1701857446611712300,6.318712158203125,0.11483928561210632,0.05329642444849014,-0.10827267915010452
1701857446621305600,6.3283056640625,0.11117420345544815,0.06429167091846466,-0.11926792562007904
1701857446630898200,6.337898193359375,0.10873081535100937,0.07528692483901978,-0.13026317954063416
1701857446640491300,6.3474912109375,0.11239589750766754,0.07895200699567795,-0.1363716572523117
1701857446650085400,6.35708544921875,0.12094775587320328,0.07040014863014221,-0.14614520967006683
1701857446659678700,6.3666787109375,0.129499614238739,0.06184828653931618,-0.15836215019226074
1701857446669271000,6.37627099609375,0.13805148005485535,0.06062658876180649,-0.16935740411281586
1701857446678864400,6.385864501953125,0.14782503247261047,0.072843536734581,-0.18157434463500977
1701857446688458500,6.39545849609375,0.1563768982887268,0.09361234307289124,-0.1913478970527649
1701857446698051600,6.405051513671875,0.1588202863931656,0.10827267915010452,-0.20722992718219757
1701857446707644200,6.41464404296875,0.15393351018428802,0.12048961967229843,-0.23288552463054657
1701857446717237500,6.424237548828125,0.15026842057704926,0.14370182156562805,-0.2585411071777344
1701857446726831600,6.43383154296875,0.1453816443681717,0.17057909071445465,-0.27686652541160583
1701857446736424700,6.4434248046875,0.13805148005485535,0.1889045089483261,-0.30130040645599365
1701857446746017300,6.453017333984375,0.12339114397764206,0.2047865390777588,-0.3367295563220978
1701857446755610400,6.4626103515625,0.11606097966432571,0.22189027070999146,-0.36849361658096313
1701857446765204500,6.47220458984375,0.12094775587320328,0.21822518110275269,-0.3880407214164734
1701857446774797800,6.4817978515625,0.13438639044761658,0.22555534541606903,-0.3892624080181122
1701857446784390100,6.49139013671875,0.15271180868148804,0.2695363461971283,-0.3709369897842407
1701857446793983500,6.5009833984375,0.16615045070648193,0.3245126008987427,-0.3574983477592468
1701857446803577600,6.51057763671875,0.17225892841815948,0.37948885560035706,-0.36849361658096313
1701857446813171000,6.5201708984375,0.17470231652259827,0.441795289516449,-0.39414918422698975
1701857446822763300,6.52976318359375,0.17958909273147583,0.49799323081970215,-0.41980478167533875
1701857446832356600,6.539356689453125,0.19058434665203094,0.5370874404907227,-0.462564080953598
1701857446841950700,6.54895068359375,0.1954711228609085,0.5578562617301941,-0.5224271416664124
1701857446851543800,6.558543701171875,0.19424942135810852,0.548082709312439,-0.5871769189834595
1701857446861136400,6.568136474609375,0.20157960057258606,0.5285356044769287,-0.6592568755149841
1701857446870729500,6.5777294921875,0.21257483959197998,0.5077667832374573,-0.7362236380577087
1701857446880323600,6.587323486328125,0.2357870489358902,0.5187620520591736,-0.8107470273971558
1701857446889917000,6.5969169921875,0.26755109429359436,0.566408097743988,-0.8718317747116089
1701857446899509200,6.60650927734375,0.30786702036857605,0.6445965766906738,-0.9292513728141785
1701857446909102600,6.6161025390625,0.3542914092540741,0.7435538172721863,-0.9817842841148376
1701857446918696700,6.62569677734375,0.40071579813957214,0.8645015954971313,-1.0318737030029297
1701857446928290000,6.6352900390625,0.4324798583984375,0.987892746925354,-1.0685245990753174
1701857446937882400,6.64488232421875,0.4569137394428253,1.0685245990753174,-1.1100621223449707
1701857446947475700,6.654475830078125,0.4960079789161682,1.1479346752166748,-1.1589299440383911
1701857446957069800,6.66406982421875,0.5839699506759644,1.3006465435028076,-1.2126845121383667
1701857446966663000,6.673662841796875,0.5949652194976807,1.3873867988586426,-1.2945380210876465
1701857446976255500,6.68325537109375,0.5705313682556152,1.3971604108810425,-1.3275238275527954
1701857446985848600,6.6928486328125,0.5448757410049438,1.4667969942092896,-1.356844425201416
1701857446995442700,6.702442626953125,0.4825693368911743,1.686702013015747,-1.4020471572875977
1701857447005036000,6.7120361328125,0.3946073353290558,1.8333053588867188,-1.366618037223816
1701857447014628400,6.72162841796875,0.2858765125274658,1.8772863149642944,-1.2517787218093872
1701857447024221700,6.7312216796875,0.1832541823387146,1.9603615999221802,-1.1039537191390991
1701857447033815800,6.74081591796875,0.024433890357613564,1.81986665725708,-1.0489774942398071
1701857447043409200,6.7504091796875,-0.03176405653357506,1.5254383087158203,-1.0636377334594727
1701857447053001500,6.76000146484375,0.0012216945178806782,1.917602300643921,-0.7802046537399292
1701857447062594800,6.7695947265625,-0.07574506103992462,1.8565175533294678,-0.5993938446044922
1701857447072189000,6.77918896484375,-0.16859383881092072,1.7441216707229614,-0.462564080953598
1701857447081782000,6.788781982421875,-0.2651077210903168,1.6647114753723145,-0.35138988494873047
1701857447091374600,6.79837451171875,-0.42392799258232117,1.538877010345459,-0.21211670339107513
1701857447100967700,6.8079677734375,-0.5754181146621704,1.5327684879302979,-0.036192700266838074
1701857447110561800,6.817561767578125,-0.629172682762146,1.5718626976013184,0.07742489129304886
1701857447120155100,6.827155029296875,-0.5925218462944031,1.735569715499878,0.10918894410133362
1701857447129747700,6.836747802734375,-0.7098045349121094,1.8723995685577393,0.08719844371080399
1701857447139340800,6.8463408203125,-1.0115630626678467,1.838192105293274,0.10063708573579788
1701857447148935000,6.855934814453125,-1.431978702545166,1.7221311330795288,0.11651911586523056
1701857447158528300,6.8655283203125,-1.9792978763580322,1.5119997262954712,0.1507265567779541
1701857447168120600,6.87512060546875,-2.5205085277557373,1.3556227684020996,0.14828316867351532
1701857447177714000,6.8847138671875,-2.8564743995666504,1.3470709323883057,0.04932591691613197
1701857447187308000,6.89430810546875,-2.7611823081970215,1.0013313293457031,0.03955236077308655
1701857447196901000,6.903901123046875,-2.2871649265289307,0.7728744745254517,-0.11682453751564026
1701857447206493700,6.91349365234375,-1.7056382894515991,0.46989426016807556,-0.23777230083942413
1701857447216087000,6.923087158203125,-1.2548329830169678,0.07895200699567795,-0.3721587061882019
1701857447225681000,6.932680908203125,-1.0445488691329956,-0.39506545662879944,-0.5541911721229553
1701857447235274200,6.942274169921875,-0.9187142848968506,-0.8423583507537842,-0.8290724158287048
1701857447244866800,6.95186669921875,-0.7843278646469116,-1.1172395944595337,-1.1650384664535522
1701857447254460000,6.9614599609375,-0.6389462351799011,-1.504516839981079,-1.4313678741455078
1701857447264054000,6.971053955078125,-0.3836120665073395,-1.6425682306289673,-1.9591398239135742
1701857447273647000,6.980647216796875,-0.28221142292022705,-1.813605546951294,-2.5712087154388428
1701857447283239700,6.99023974609375,-0.22845686972141266,-2.033510446548462,-3.129523277282715
1701857447292833000,6.9998330078125,-0.15515519678592682,-2.293731451034546,-3.486258029937744
1701857447302427100,7.00942724609375,-0.20646637678146362,-2.6602396965026855,-3.5717766284942627
1701857447312020200,7.019020263671875,-0.30664533376693726,-3.086611270904541,-3.4618241786956787
1701857447321612800,7.02861279296875,-0.53143709897995,-3.4726667404174805,-3.2907869815826416
1701857447331206100,7.0382060546875,-0.6462764143943787,-3.570402145385742,-3.1307449340820312
1701857447340800000,7.047800048828125,-0.6572716236114502,-3.473888397216797,-2.8912928104400635
1701857447350393300,7.057393310546875,-0.5803049206733704,-3.4384591579437256,-2.517454147338867
1701857447359985700,7.066985595703125,-0.35795649886131287,-3.4115819931030273,-2.0849742889404297
1701857447369579000,7.0765791015625,0.07085828483104706,-3.3138463497161865,-1.7306829690933228
1701857447379173000,7.086173095703125,0.6047387719154358,-3.1867902278900146,-1.5645325183868408
1701857447388766500,7.095766357421875,1.1251806020736694,-2.993762493133545,-1.4777922630310059
1701857447398358800,7.10535888671875,1.4916889667510986,-2.6687917709350586,-1.3678396940231323
1701857447407952100,7.1149521484375,1.6456224918365479,-2.3816933631896973,-1.3324105739593506
1701857447417546200,7.124546142578125,1.6724997758865356,-2.215543031692505,-1.4411413669586182
1701857447427139300,7.134139404296875,1.6993770599365234,-2.094595193862915,-1.7343480587005615
1701857447436732000,7.14373193359375,1.7665703296661377,-1.8856854438781738,-2.131398916244507
1701857447446325000,7.153324951171875,1.9205037355422974,-1.6596720218658447,-2.464921474456787
1701857447455919000,7.162919189453125,2.2088236808776855,-1.4800828695297241,-2.5870909690856934
1701857447465512400,7.172512451171875,2.3554270267486572,-1.2259705066680908,-2.6371803283691406
1701857447475104800,7.182104736328125,2.3932995796203613,-0.7959339618682861,-2.560213565826416
1701857447484698000,7.191697998046875,2.40673828125,-0.4856235682964325,-2.661614179611206
1701857447494292200,7.201292236328125,2.3077809810638428,-0.7324058413505554,-2.5333364009857178
1701857447503885600,7.210885498046875,2.207602024078369,-0.762948215007782,-2.285332202911377
1701857447513478000,7.220477783203125,2.0964276790618896,-0.8851176500320435,-2.1008565425872803
1701857447523071200,7.2300712890625,2.0817675590515137,-0.8802309036254883,-1.9652483463287354
1701857447532665300,7.239665283203125,2.0182392597198486,-0.8997780084609985,-1.7575602531433105
1701857447542258400,7.249258544921875,1.902178406715393,-0.8448017835617065,-1.5804145336151123
1701857447551851000,7.25885107421875,1.6957119703292847,-0.9608627557754517,-1.3531793355941772
1701857447561444000,7.268444091796875,1.508792757987976,-0.8961129188537598,-1.1528215408325195
1701857447571038200,7.2780380859375,1.3255385160446167,-0.6920899152755737,-0.9463551044464111
1701857447580631600,7.287631591796875,1.1215155124664307,-0.35474956035614014,-0.6348230242729187
1701857447590224000,7.297223876953125,0.8979454636573792,0.06184828653931618,-0.2157817929983139
1701857447599817200,7.306817138671875,0.675597071647644,0.43446511030197144,0.2166980654001236
1701857447609411300,7.316411376953125,0.4960079789161682,0.6653653979301453,0.5858024954795837
1701857447619004400,7.32600439453125,0.35917818546295166,0.7301151752471924,0.8203678727149963
1701857447628597000,7.335596923828125,0.23945212364196777,0.669030487537384,0.8667922616004944
1701857447638190300,7.3451904296875,0.130721315741539,0.5468609929084778,0.7214106321334839
1701857447647784400,7.354784423828125,0.02076880633831024,0.39170581102371216,0.4378247857093811
1701857447657377500,7.36437744140625,-0.08918370306491852,0.20356485247612,0.06887302547693253
1701857447666970000,7.37397021484375,-0.17836740612983704,0.04230117425322533,-0.27808821201324463
1701857447676563500,7.3835634765625,-0.23823043704032898,-0.033443886786699295,-0.488219678401947
1701857447686157300,7.3931572265625,-0.24311721324920654,-0.04199574887752533,-0.566408097743988
1701857447695750700,7.402750732421875,-0.17714570462703705,-0.0016798300202935934,-0.5798467397689819
1701857447705343000,7.412343017578125,-0.09407047927379608,0.09483403712511063,-0.5602996349334717
1701857447714936300,7.421936279296875,-0.08674030750989914,0.21333840489387512,-0.5187620520591736
1701857447724530400,7.431530517578125,-0.08307522535324097,0.3086305856704712,-0.5053234100341797
1701857447734123500,7.44112353515625,-0.09040539711713791,0.34161633253097534,-0.566408097743988
1701857447743716000,7.450716064453125,-0.11361759155988693,0.3477247953414917,-0.6372663974761963
1701857447753309400,7.460309326171875,-0.12339114397764206,0.35627666115760803,-0.6604785919189453
1701857447762903300,7.4699033203125,-0.06352811306715012,0.37704548239707947,-0.6739172339439392
1701857447772496600,7.47949658203125,-0.04886778071522713,0.4149180054664612,-0.6849125027656555
1701857447782089200,7.489089111328125,-0.06719319522380829,0.4527905285358429,-0.6812474131584167
1701857447791682600,7.4986826171875,-0.08918370306491852,0.5077667832374573,-0.6555918455123901
1701857447801276400,7.5082763671875,-0.1050657257437706,0.5468609929084778,-0.6482616662979126
1701857447810869800,7.517869873046875,-0.11483928561210632,0.543195903301239,-0.6665870547294617
1701857447820462000,7.527462158203125,-0.12461283802986145,0.5468609929084778,-0.6788040399551392
1701857447830055400,7.537055419921875,-0.1820324808359146,0.5725166201591492,-0.6849125027656555
1701857447839649500,7.5466494140625,-0.24311721324920654,0.6103891134262085,-0.6849125027656555
1701857447849242600,7.55624267578125,-0.2651077210903168,0.654370129108429,-0.6592568755149841
1701857447858835200,7.565835205078125,-0.2724378705024719,0.6910209655761719,-0.6079457402229309
1701857447868428500,7.575428466796875,-0.2748812735080719,0.7337802648544312,-0.5615213513374329
1701857447878022400,7.5850224609375,-0.2883199155330658,0.7948650121688843,-0.543195903301239
1701857447887615700,7.59461572265625,-0.3164188861846924,0.858393132686615,-0.5370874404907227
1701857447897208300,7.604208251953125,-0.3799470067024231,0.9243646264076233,-0.5102101564407349
1701857447906801400,7.613801513671875,-0.41293275356292725,1.0147700309753418,-0.4100312292575836
1701857447916395500,7.6233955078125,-0.4227063059806824,1.145491361618042,-0.2695363461971283
1701857447925988600,7.632988525390625,-0.4312581717967987,1.2530004978179932,-0.12904147803783417
1701857447935581200,7.642581298828125,-0.3921639323234558,1.3091983795166016,0.0261137206107378
1701857447945174500,7.652174560546875,-0.33474430441856384,1.3311889171600342,0.16905197501182556
1701857447954768600,7.6617685546875,-0.3127537965774536,1.3519576787948608,0.2692309319972992
1701857447964361700,7.67136181640625,-0.33230090141296387,1.3592878580093384,0.36696648597717285
1701857447973954300,7.680954345703125,-0.39949411153793335,1.3653963804244995,0.4756973087787628
1701857447983547400,7.69054736328125,-0.4984513521194458,1.3519576787948608,0.5674771070480347
1701857447993141500,7.7001416015625,-0.605960488319397,1.3030898571014404,0.6261184215545654
1701857448002734800,7.70973486328125,-0.6694886088371277,1.2310099601745605,0.6456655263900757
1701857448012327200,7.7193271484375,-0.6389462351799011,1.1149489879608154,0.6236750483512878
1701857448021920500,7.72892041015625,-0.5839699506759644,0.9988879561424255,0.6016845703125
1701857448031514600,7.7385146484375,-0.5302154421806335,0.9255862832069397,0.5564818382263184
1701857448041107700,7.748107666015625,-0.4813476502895355,0.8913788795471191,0.48791423439979553
1701857448050700300,7.7577001953125,-0.4324798583984375,0.8791618943214417,0.41827765107154846
1701857448060293600,7.767293701171875,-0.38483378291130066,0.8437327742576599,0.34131091833114624
1701857448069887500,7.776887451171875,-0.3298575282096863,0.7618792653083801,0.24846212565898895
1701857448079480800,7.786480712890625,-0.2748812735080719,0.6592568755149841,0.15927842259407043
1701857448089073200,7.7960732421875,-0.23334364593029022,0.5493044257164001,0.07375980913639069
1701857448098666500,7.80566650390625,-0.1954711228609085,0.4283566474914551,-0.0007635590736754239
1701857448108260600,7.815260498046875,-0.14660334587097168,0.3086305856704712,-0.05329642444849014
1701857448117854000,7.82485400390625,-0.09407047927379608,0.19379130005836487,-0.072843536734581
1701857448127446300,7.8344462890625,-0.03665083646774292,0.08017370104789734,-0.0594048947095871
1701857448137039600,7.84403955078125,0.02076880633831024,-0.016340164467692375,-0.03130592033267021
1701857448146633700,7.8536337890625,0.06719319522380829,-0.09208522737026215,-0.0032069480512291193
1701857448156226800,7.863226806640625,0.09529217332601547,-0.12995775043964386,0.020005248486995697
1701857448165819400,7.8728193359375,0.10384403169155121,-0.1360662281513214,0.03955236077308655
1701857448175412700,7.882412841796875,0.10140064358711243,-0.12262758612632751,0.05665608495473862
1701857448185006600,7.892006591796875,0.09529217332601547,-0.0981936976313591,0.07375980913639069
1701857448194600000,7.901599853515625,0.0916270911693573,-0.07498150318861008,0.09208522737026215
1701857448204192300,7.911192138671875,0.09040539711713791,-0.052990999072790146,0.10674555599689484
1701857448213785600,7.92078564453125,0.09529217332601547,-0.0456608310341835,0.10552386194467545
1701857448223379700,7.930379638671875,0.10262233763933182,-0.04077405482530594,0.09941539168357849
1701857448232972800,7.939972900390625,0.1050657257437706,-0.03588727489113808,0.0859767496585846
1701857448242565400,7.9495654296875,0.10262233763933182,-0.037108972668647766,0.06032116711139679
1701857448252158500,7.959158447265625,0.09773556143045425,-0.04077405482530594,0.029778804630041122
1701857448261752600,7.968752685546875,0.08918370306491852,-0.04688252881169319,-0.009315420873463154
1701857448271346000,7.978345947265625,0.08307522535324097,-0.051769305020570755,-0.054518118500709534
1701857448280938500,7.9879384765625,0.08307522535324097,-0.0590994730591774,-0.10460758954286575
1701857448290531600,7.997531494140625,0.08307522535324097,-0.0713164210319519,-0.15591876208782196
1701857448300125700,8.007125732421875,0.09284878522157669,-0.0859767496585846,-0.20234315097332
1701857448309718800,8.01671875,0.11117420345544815,-0.10063708573579788,-0.23777230083942413
1701857448319311400,8.026311279296875,0.13438639044761658,-0.11651911586523056,-0.2695363461971283
1701857448328904700,8.03590478515625,0.16859383881092072,-0.12873606383800507,-0.2964136302471161
1701857448338498600,8.04549853515625,0.1979145109653473,-0.13240113854408264,-0.30740886926651
1701857448348092000,8.055091796875,0.24189551174640656,-0.11285403370857239,-0.31473904848098755
1701857448357684500,8.0646845703125,0.28343313932418823,-0.08842013776302338,-0.31473904848098755
1701857448367277600,8.074277587890625,0.3017585575580597,-0.07375980913639069,-0.3061871826648712
1701857448376871700,8.08387158203125,0.3115321099758148,-0.06520794332027435,-0.2976353168487549
1701857448386464800,8.09346484375,0.33230090141296387,-0.05543438717722893,-0.28541839122772217
1701857448396057300,8.103057373046875,0.34818294644355774,-0.051769305020570755,-0.27320143580436707
1701857448405650700,8.112650634765625,0.3665083646774292,-0.0590994730591774,-0.2536543309688568
1701857448415244800,8.122244873046874,0.3787252902984619,-0.07620319724082947,-0.25121092796325684
1701857448424838000,8.131837890625,0.38605546951293945,-0.09941539168357849,-0.2707580327987671
1701857448434430500,8.141430419921875,0.365286648273468,-0.1372879147529602,-0.2707580327987671
1701857448444023600,8.1510234375,0.3506263196468353,-0.1776038408279419,-0.2548760175704956
1701857448453617700,8.16061767578125,0.3567348122596741,-0.19837264716625214,-0.23532891273498535
1701857448463211000,8.1702109375,0.34573954343795776,-0.188599094748497,-0.20356485247612
1701857448472803300,8.17980322265625,0.33230090141296387,-0.18371231853961945,-0.15714046359062195
1701857448482396700,8.189396728515625,0.32252734899520874,-0.18493400514125824,-0.10460758954286575
1701857448491990800,8.19899072265625,0.3164188861846924,-0.1776038408279419,-0.054518118500709534
1701857448501584000,8.208583984375,0.3274141252040863,-0.1629435122013092,-0.0068720318377017975
1701857448511176400,8.218176513671875,0.3286358118057251,-0.1495048701763153,0.032222192734479904
1701857448520769800,8.227769775390625,0.3286358118057251,-0.14217470586299896,0.052990999072790146
1701857448530363600,8.23736376953125,0.32130566239356995,-0.14095300436019897,0.06887302547693253
1701857448539957000,8.24695703125,0.3115321099758148,-0.14339639246463776,0.07742489129304886
1701857448549549300,8.25654931640625,0.3029802441596985,-0.14583978056907654,0.07620319724082947
1701857448559142700,8.266142578125,0.2907632887363434,-0.15316994488239288,0.06887302547693253
1701857448568736800,8.27573681640625,0.2895416021347046,-0.1519482582807541,0.05787777900695801
1701857448578329900,8.285329833984376,0.27976804971694946,-0.14461809396743774,0.05787777900695801
1701857448587922400,8.29492236328125,0.2504473626613617,-0.1250709742307663,0.05543438717722893
1701857448597515800,8.304515869140625,0.2345653474330902,-0.11285403370857239,0.050547610968351364
1701857448607109600,8.314109619140625,0.2211267054080963,-0.09941539168357849,0.03833066672086716
1701857448616703000,8.323702880859376,0.2211267054080963,-0.08964183181524277,0.020005248486995697
1701857448626295300,8.33329541015625,0.2223484069108963,-0.08353336155414581,-0.0032069480512291193
1701857448635888600,8.342888671875,0.21623992919921875,-0.07375980913639069,-0.025197450071573257
1701857448645482800,8.352482666015625,0.20768806338310242,-0.0590994730591774,-0.036192700266838074
1701857448655075800,8.362075927734375,0.20035789906978607,-0.03955236077308655,-0.03497100621461868
1701857448664668400,8.37166845703125,0.19913621246814728,-0.021226942539215088,-0.023975754156708717
1701857448674261800,8.38126171875,0.20646637678146362,-0.005344913341104984,-0.012980503961443901
1701857448683855600,8.390855712890625,0.2089097648859024,0.004428642801940441,0.0004581354442052543
1701857448693449000,8.400448974609375,0.21868331730365753,0.014202198944985867,0.0029015245381742716
1701857448703041300,8.410041259765626,0.2211267054080963,0.020310672000050545,0.018783552572131157
1701857448712634600,8.419634521484374,0.21257483959197998,0.023975754156708717,0.021226942539215088
1701857448722228700,8.429228759765625,0.21501824259757996,0.021532366052269936,0.011453386396169662
1701857448731821800,8.43882177734375,0.2101314514875412,0.010537114925682545,-0.005650337319821119
1701857448741414400,8.448414306640625,0.19424942135810852,0.0007635590736754239,-0.023975754156708717
1701857448751007700,8.4580078125,0.16615045070648193,0.012980503961443901,-0.03008422814309597
1701857448760601600,8.4676015625,0.12827792763710022,0.03130592033267021,-0.03374931216239929
1701857448770195000,8.47719482421875,0.09407047927379608,0.0459662564098835,-0.0325276181101799
1701857448779787300,8.486787353515625,0.06719319522380829,0.04840964451432228,-0.03008422814309597
1701857448789380600,8.496380615234376,0.0525328628718853,0.04840964451432228,-0.02886253222823143
1701857448798974700,8.505974609375,0.04031591862440109,0.05085303261876106,-0.03130592033267021
1701857448808567800,8.51556787109375,0.030542362481355667,0.05085303261876106,-0.0325276181101799
1701857448818160400,8.525160400390625,0.021990500390529633,0.05207473039627075,-0.036192700266838074
1701857448827753700,8.534753662109376,0.012216945178806782,0.05329642444849014,-0.038636088371276855
1701857448837347600,8.54434765625,0.0036650835536420345,0.055739812552928925,-0.036192700266838074
1701857448846941000,8.55394091796875,-0.006108472589403391,0.056961506605148315,-0.023975754156708717
1701857448856533200,8.563533203125,-0.02076880633831024,0.056961506605148315,-0.01175880990922451
1701857448866126600,8.573126708984375,-0.029320668429136276,0.054518118500709534,-0.005650337319821119
1701857448875720700,8.582720703125,-0.03542914241552353,0.05207473039627075,-0.0007635590736754239
1701857448885313800,8.592313720703125,-0.03665083646774292,0.04963133856654167,-0.001985253533348441
1701857448894906400,8.60190625,-0.03420744836330414,0.04963133856654167,-0.009315420873463154
1701857448904499700,8.611499755859375,-0.028098974376916885,0.04840964451432228,-0.021532366052269936
1701857448914093600,8.621093505859376,-0.021990500390529633,0.04840964451432228,-0.0325276181101799
1701857448923687000,8.63068701171875,-0.01588202826678753,0.05207473039627075,-0.039857782423496246
1701857448933279200,8.640279296875,-0.012216945178806782,0.055739812552928925,-0.04718795046210289
1701857448942872600,8.64987255859375,-0.008551862090826035,0.05207473039627075,-0.054518118500709534
1701857448952466700,8.659466796875,-0.007330167107284069,0.0459662564098835,-0.058183200657367706
1701857448962059800,8.669059814453124,-0.006108472589403391,0.04107947647571564,-0.055739812552928925
1701857448971652400,8.67865234375,-0.008551862090826035,0.04230117425322533,-0.055739812552928925
1701857448981245400,8.688245361328125,-0.013438640162348747,0.04107947647571564,-0.0594048947095871
1701857448990839600,8.697839599609376,-0.02076880633831024,0.038636088371276855,-0.06429167091846466
1701857449000433000,8.707432861328124,-0.025655584409832954,0.0325276181101799,-0.06429167091846466
1701857449010025200,8.717025146484374,-0.03298575058579445,0.02886253222823143,-0.0594048947095871
1701857449019618600,8.72661865234375,-0.04031591862440109,0.03008422814309597,-0.04963133856654167
1701857449029212700,8.736212646484375,-0.04886778071522713,0.03497100621461868,-0.039857782423496246
1701857449038805800,8.7458056640625,-0.05497625470161438,0.04107947647571564,-0.03130592033267021
1701857449048398300,8.7553984375,-0.05986303091049194,0.04718795046210289,-0.022754060104489326
1701857449057991400,8.764991455078125,-0.061084724962711334,0.04718795046210289,-0.019088976085186005
1701857449067585500,8.77458544921875,-0.05986303091049194,0.04474456235766411,-0.015423892997205257
1701857449077179000,8.784178955078126,-0.05864133685827255,0.04474456235766411,-0.01175880990922451
1701857449086771200,8.793771240234374,-0.05375456064939499,0.04474456235766411,-0.0068720318377017975
1701857449096364500,8.803364501953125,-0.04886778071522713,0.0459662564098835,-0.001985253533348441
1701857449105958700,8.812958740234375,-0.043981000781059265,0.04840964451432228,0.0004581354442052543
1701857449115551700,8.8225517578125,-0.03787253051996231,0.05329642444849014,0.0016798300202935934
1701857449125144300,8.832144287109376,-0.03420744836330414,0.056961506605148315,0.0029015245381742716
1701857449134737700,8.841737548828124,-0.028098974376916885,0.058183200657367706,0.007788302376866341
1701857449144331500,8.85133154296875,-0.023212196305394173,0.06062658876180649,0.016340164467692375
1701857449153924900,8.8609248046875,-0.01954711228609085,0.06062658876180649,0.028557108715176582
1701857449163517200,8.87051708984375,-0.01588202826678753,0.06551336497068405,0.03955236077308655
1701857449173110500,8.880110595703124,-0.013438640162348747,0.072843536734581,0.04443913698196411
1701857449182704600,8.88970458984375,-0.010995250195264816,0.06429167091846466,0.052990999072790146
1701857449192297700,8.899297607421875,-0.007330167107284069,0.056961506605148315,0.05665608495473862
1701857449201890300,8.908890380859376,-0.0036650835536420345,0.056961506605148315,0.05665608495473862
1701857449211483400,8.9184833984375,0,0.05329642444849014,0.05543438717722893
1701857449221077500,8.928077392578125,0.004886778071522713,0.04718795046210289,0.052990999072790146
1701857449230670600,8.937670654296875,0.008551862090826035,0.038636088371276855,0.04810422286391258
1701857449240263200,8.94726318359375,0.008551862090826035,0.03497100621461868,0.04810422286391258
1701857449249856500,8.9568564453125,0.007330167107284069,0.03008422814309597,0.04810422286391258
1701857449259450600,8.96645068359375,0.006108472589403391,0.022754060104489326,0.0456608310341835
1701857449269043700,8.976043701171875,0.006108472589403391,0.012980503961443901,0.04321744292974472
1701857449278636300,8.98563623046875,0.007330167107284069,0.004428642801940441,0.037108972668647766
1701857449288229400,8.9952294921875,0.007330167107284069,-0.0029015245381742716,0.02733541466295719
1701857449297823500,9.004823486328124,0.008551862090826035,-0.009009997360408306,0.017561858519911766
1701857449307416600,9.01441650390625,0.013438640162348747,-0.013896775431931019,0.010231691412627697
1701857449317009200,9.024009033203125,0.01954711228609085,-0.01511846948415041,0.0016798300202935934
1701857449326602500,9.0336025390625,0.024433890357613564,-0.012675080448389053,-0.008093725889921188
1701857449336196400,9.0431962890625,0.026877280324697495,-0.020005248486995697,-0.01175880990922451
1701857449345789700,9.052789794921875,0.026877280324697495,-0.0261137206107378,-0.01175880990922451
1701857449355382000,9.062382080078125,0.025655584409832954,-0.029778804630041122,-0.01175880990922451
1701857449364975400,9.071975341796875,0.026877280324697495,-0.04077405482530594,-0.012980503961443901
1701857449374569500,9.081569580078124,0.029320668429136276,-0.04443913698196411,-0.014202198944985867
1701857449384162600,9.09116259765625,0.029320668429136276,-0.03955236077308655,-0.01175880990922451
1701857449393755100,9.100755126953125,0.025655584409832954,-0.03833066672086716,-0.01175880990922451
1701857449403348200,9.11034814453125,0.01954711228609085,-0.03833066672086716,-0.012980503961443901
1701857449412942300,9.1199423828125,0.012216945178806782,-0.03588727489113808,-0.012980503961443901
1701857449422535700,9.12953564453125,0.007330167107284069,-0.031000498682260513,-0.015423892997205257
1701857449432128000,9.1391279296875,0.004886778071522713,-0.021226942539215088,-0.017867282032966614
1701857449441721300,9.148721435546875,0.004886778071522713,-0.010231691412627697,-0.020310672000050545
1701857449451315500,9.1583154296875,0.007330167107284069,-0.0004581354442052543,-0.023975754156708717
1701857449460908500,9.167908447265624,0.007330167107284069,0.0068720318377017975,-0.02764083817601204
1701857449470501000,9.177501220703125,0.007330167107284069,0.008093725889921188,-0.02886253222823143
1701857449480094200,9.18709423828125,0.006108472589403391,0.005650337319821119,-0.02764083817601204
1701857449489688300,9.196688232421875,0.004886778071522713,0.0032069480512291193,-0.019088976085186005
1701857449499281400,9.206281494140624,0.0012216945178806782,0.001985253533348441,-0.005650337319821119
1701857449508874000,9.2158740234375,-0.0024433890357613564,0.0007635590736754239,0.007788302376866341
1701857449518467300,9.22546728515625,-0.004886778071522713,0.0032069480512291193,0.013896775431931019
1701857449528061200,9.235061279296875,-0.007330167107284069,0.004428642801940441,0.01511846948415041
1701857449537654500,9.244654541015626,-0.004886778071522713,0.001985253533348441,0.011453386396169662
1701857449547246800,9.254246826171874,-0.0012216945178806782,-0.0065666078589856625,0.0029015245381742716
1701857449556840200,9.263840087890625,0.0012216945178806782,-0.012675080448389053,0.0016798300202935934
1701857449566434300,9.273434326171875,0.0036650835536420345,-0.010231691412627697,0.009009997360408306
1701857449576027400,9.28302734375,0.004886778071522713,-0.004123218823224306,0.017561858519911766
1701857449585620000,9.292619873046876,0.0036650835536420345,0.004428642801940441,0.02367033064365387
1701857449595213000,9.302213134765625,0.0012216945178806782,0.015423892997205257,0.02733541466295719
1701857449604807200,9.31180712890625,-0.0024433890357613564,0.02641914412379265,0.031000498682260513
1701857449614400500,9.321400390625,-0.006108472589403391,0.03497100621461868,0.031000498682260513
1701857449623992800,9.330992919921876,-0.006108472589403391,0.03497100621461868,0.029778804630041122
1701857449633586200,9.340586181640624,-0.006108472589403391,0.03008422814309597,0.02489202655851841
1701857449643180000,9.350179931640625,-0.006108472589403391,0.022754060104489326,0.020005248486995697
1701857449652773400,9.3597734375,-0.006108472589403391,0.020310672000050545,0.02367033064365387
1701857449662365700,9.36936572265625,-0.007330167107284069,0.012980503961443901,0.029778804630041122
1701857449671959000,9.378958984375,-0.006108472589403391,0.008093725889921188,0.034665580838918686
1701857449681553200,9.38855322265625,-0.006108472589403391,0.004428642801940441,0.037108972668647766
1701857449691146200,9.398146240234375,-0.004886778071522713,-0.0004581354442052543,0.034665580838918686
1701857449700738800,9.40773876953125,-0.0036650835536420345,-0.009009997360408306,0.029778804630041122
1701857449710332200,9.417332275390624,0.0012216945178806782,-0.020005248486995697,0.021226942539215088
1701857449719926000,9.426926025390625,0.006108472589403391,-0.033443886786699295,0.007788302376866341
1701857449729519400,9.436519287109375,0.012216945178806782,-0.03833066672086716,-0.0032069480512291193
1701857449739111700,9.446111572265625,0.013438640162348747,-0.037108972668647766,-0.012980503961443901
1701857449748705000,9.455705078125,0.008551862090826035,-0.033443886786699295,-0.020310672000050545
1701857449758299000,9.465298828125,0.0012216945178806782,-0.02244863659143448,-0.020310672000050545
1701857449767892200,9.474892333984375,-0.008551862090826035,-0.005344913341104984,-0.014202198944985867
1701857449777484800,9.48448486328125,-0.01832541823387146,0.0068720318377017975,-0.010537114925682545
1701857449787078000,9.494077880859376,-0.023212196305394173,0.0068720318377017975,-0.010537114925682545
1701857449796672000,9.503672119140624,-0.024433890357613564,-0.004123218823224306,-0.015423892997205257
1701857449806265000,9.51326513671875,-0.024433890357613564,-0.01511846948415041,-0.020310672000050545
1701857449815857700,9.522857666015625,-0.026877280324697495,-0.02367033064365387,-0.021532366052269936
1701857449825450800,9.53245068359375,-0.028098974376916885,-0.02733541466295719,-0.025197450071573257
1701857449835044900,9.542044921875,-0.029320668429136276,-0.02489202655851841,-0.03008422814309597
1701857449844638200,9.55163818359375,-0.029320668429136276,-0.02367033064365387,-0.03130592033267021
1701857449854230500,9.56123046875,-0.030542362481355667,-0.021226942539215088,-0.02886253222823143
1701857449863824000,9.570823974609375,-0.030542362481355667,-0.017561858519911766,-0.02641914412379265
1701857449873417700,9.580417724609376,-0.029320668429136276,-0.012675080448389053,-0.02641914412379265
1701857449883011000,9.590010986328124,-0.028098974376916885,-0.010231691412627697,-0.02886253222823143
1701857449892603400,9.599603271484375,-0.025655584409832954,-0.011453386396169662,-0.03374931216239929
1701857449902196700,9.60919677734375,-0.02076880633831024,-0.013896775431931019,-0.037414394319057465
1701857449911790800,9.618790771484376,-0.01588202826678753,-0.018783552572131157,-0.04230117425322533
1701857449921384000,9.628384033203124,-0.012216945178806782,-0.02489202655851841,-0.04474456235766411
1701857449930976500,9.6379765625,-0.008551862090826035,-0.0261137206107378,-0.04474456235766411
1701857449940569600,9.647569580078125,-0.007330167107284069,-0.02489202655851841,-0.04107947647571564
1701857449950163700,9.657163818359376,-0.004886778071522713,-0.02489202655851841,-0.0325276181101799
1701857449959756800,9.6667568359375,-0.004886778071522713,-0.02244863659143448,-0.025197450071573257
1701857449969349400,9.676349365234374,-0.0036650835536420345,-0.020005248486995697,-0.017867282032966614
1701857449978942500,9.6859423828125,-0.0012216945178806782,-0.017561858519911766,-0.005650337319821119
1701857449988536600,9.69553662109375,-0.0024433890357613564,-0.016340164467692375,-0.004428642801940441
1701857449998130000,9.7051298828125,-0.0024433890357613564,-0.016340164467692375,-0.001985253533348441
1701857450007722200,9.71472216796875,-0.0024433890357613564,-0.01511846948415041,0.0004581354442052543
1701857450017315600,9.724315673828125,-0.0024433890357613564,-0.01511846948415041,0.0016798300202935934
1701857450026909700,9.73390966796875,-0.0012216945178806782,-0.018783552572131157,-0.0007635590736754239
1701857450036502800,9.743502685546876,0,-0.021226942539215088,-0.001985253533348441
1701857450046095400,9.753095458984374,0,-0.020005248486995697,-0.001985253533348441
1701857450055688400,9.7626884765625,-0.0012216945178806782,-0.021226942539215088,-0.001985253533348441
1701857450065282600,9.772282470703125,-0.0024433890357613564,-0.020005248486995697,-0.001985253533348441
1701857450074875600,9.781875732421875,-0.004886778071522713,-0.020005248486995697,-0.0032069480512291193
1701857450084468200,9.79146826171875,-0.007330167107284069,-0.021226942539215088,-0.004428642801940441
1701857450094061300,9.801061279296874,-0.008551862090826035,-0.021226942539215088,-0.004428642801940441
1701857450103655400,9.810655517578125,-0.009773556143045425,-0.021226942539215088,-0.004428642801940441
1701857450113248500,9.82024853515625,-0.010995250195264816,-0.02244863659143448,-0.0068720318377017975
1701857450122841000,9.829841064453126,-0.010995250195264816,-0.02367033064365387,-0.0068720318377017975
1701857450132434400,9.839434326171874,-0.009773556143045425,-0.02367033064365387,-0.005650337319821119
1701857450142028300,9.8490283203125,-0.008551862090826035,-0.02367033064365387,-0.0032069480512291193
1701857450151621600,9.85862158203125,-0.008551862090826035,-0.021226942539215088,0.0016798300202935934
1701857450161214000,9.8682138671875,-0.008551862090826035,-0.016340164467692375,0.0065666078589856625
1701857450170807300,9.877807373046876,-0.010995250195264816,-0.012675080448389053,0.010231691412627697
1701857450180401400,9.8874013671875,-0.014660334214568138,-0.009009997360408306,0.011453386396169662
1701857450189994500,9.896994384765625,-0.01588202826678753,-0.0065666078589856625,0.013896775431931019
1701857450199587000,9.906587158203125,-0.01710372418165207,-0.007788302376866341,0.012675080448389053
1701857450209180200,9.91618017578125,-0.01832541823387146,-0.007788302376866341,0.013896775431931019
1701857450218774300,9.925774169921874,-0.01954711228609085,-0.0065666078589856625,0.016340164467692375
1701857450228367400,9.935367431640625,-0.01954711228609085,-0.007788302376866341,0.018783552572131157
1701857450237960000,9.9449599609375,-0.01710372418165207,-0.009009997360408306,0.018783552572131157
1701857450247553000,9.954552978515625,-0.01588202826678753,-0.012675080448389053,0.016340164467692375
1701857450257147100,9.964147216796874,-0.013438640162348747,-0.017561858519911766,0.007788302376866341
1701857450266740200,9.973740234375,-0.012216945178806782,-0.018783552572131157,-0.0007635590736754239
1701857450276332800,9.983332763671875,-0.012216945178806782,-0.01511846948415041,-0.004428642801940441
1701857450285926100,9.992926025390625,-0.012216945178806782,-0.011453386396169662,-0.005650337319821119
1701857450295520000,10.00252001953125,-0.012216945178806782,-0.0029015245381742716,-0.008093725889921188
1701857450305113300,10.01211328125,-0.013438640162348747,0.005650337319821119,-0.01175880990922451
1701857450314705700,10.02170556640625,-0.012216945178806782,0.004428642801940441,-0.014202198944985867
1701857450324299000,10.031299072265625,-0.009773556143045425,-0.0016798300202935934,-0.016645587980747223
1701857450333893000,10.04089306640625,-0.009773556143045425,-0.0004581354442052543,-0.017867282032966614
1701857450343486200,10.050486328125,-0.010995250195264816,0.001985253533348441,-0.020310672000050545
1701857450353078500,10.06007861328125,-0.012216945178806782,0.005650337319821119,-0.020310672000050545
1701857450362671900,10.069671875,-0.014660334214568138,0.014202198944985867,-0.016645587980747223
1701857450372266000,10.079265869140626,-0.01588202826678753,0.016645587980747223,-0.012980503961443901
1701857450381859000,10.088859130859374,-0.01588202826678753,0.015423892997205257,-0.008093725889921188
1701857450391451600,10.09845166015625,-0.013438640162348747,0.012980503961443901,-0.0068720318377017975
1701857450401044700,10.108044677734375,-0.013438640162348747,0.0068720318377017975,-0.009315420873463154
1701857450410638800,10.117638916015625,-0.013438640162348747,0.0007635590736754239,-0.009315420873463154
1701857450420232000,10.12723193359375,-0.012216945178806782,-0.0029015245381742716,-0.0032069480512291193
1701857450429824500,10.136824462890624,-0.010995250195264816,-0.0065666078589856625,-0.0007635590736754239
1701857450439417600,10.14641748046875,-0.009773556143045425,-0.010231691412627697,0.0004581354442052543
1701857450449011700,10.15601171875,-0.009773556143045425,-0.010231691412627697,0.0016798300202935934
1701857450458605000,10.16560498046875,-0.009773556143045425,-0.004123218823224306,0.005344913341104984
1701857450468197400,10.175197265625,-0.010995250195264816,-0.0004581354442052543,0.009009997360408306
1701857450477790700,10.184790771484375,-0.013438640162348747,0.012980503961443901,0.012675080448389053
1701857450487384600,10.194384521484375,-0.01832541823387146,0.016645587980747223,0.011453386396169662
1701857450496978000,10.20397802734375,-0.02076880633831024,-0.004123218823224306,-0.0032069480512291193
1701857450506570200,10.2135703125,-0.01954711228609085,-0.011453386396169662,-0.010537114925682545
1701857450516163600,10.22316357421875,-0.01710372418165207,-0.010231691412627697,-0.012980503961443901
1701857450525757700,10.2327578125,-0.01588202826678753,-0.010231691412627697,-0.014202198944985867
1701857450535350800,10.242350830078125,-0.012216945178806782,-0.010231691412627697,-0.015423892997205257
1701857450544943000,10.251943115234376,-0.010995250195264816,-0.010231691412627697,-0.014202198944985867
1701857450554536400,10.261536376953124,-0.009773556143045425,-0.009009997360408306,-0.012980503961443901
1701857450564130600,10.271130615234375,-0.012216945178806782,-0.0004581354442052543,-0.010537114925682545
1701857450573723600,10.2807236328125,-0.013438640162348747,0.009315420873463154,-0.0068720318377017975
1701857450583316200,10.290316162109375,-0.01710372418165207,0.016645587980747223,-0.005650337319821119
1701857450592909300,10.299909423828124,-0.01832541823387146,0.015423892997205257,-0.009315420873463154
1701857450602503400,10.30950341796875,-0.02076880633831024,0.012980503961443901,-0.014202198944985867
1701857450612096500,10.319096435546875,-0.01954711228609085,0.0068720318377017975,-0.016645587980747223
1701857450621689000,10.328689208984375,-0.01588202826678753,-0.005344913341104984,-0.017867282032966614
1701857450631282200,10.3382822265625,-0.013438640162348747,-0.01511846948415041,-0.022754060104489326
1701857450640876300,10.347876220703125,-0.008551862090826035,-0.034665580838918686,-0.0325276181101799
1701857450650469400,10.357469482421875,0.0012216945178806782,-0.06398624926805496,-0.04840964451432228
1701857450660062000,10.36706201171875,0.010995250195264816,-0.07742489129304886,-0.058183200657367706
1701857450669655000,10.376655029296876,0.01588202826678753,-0.06520794332027435,-0.056961506605148315
1701857450679249200,10.386249267578124,0.014660334214568138,-0.034665580838918686,-0.04474456235766411
1701857450688842500,10.395842529296875,0.010995250195264816,-0.012675080448389053,-0.03130592033267021
1701857450698434800,10.405434814453125,0.008551862090826035,-0.016340164467692375,-0.023975754156708717
1701857450708028200,10.415028076171875,0.007330167107284069,-0.034665580838918686,-0.025197450071573257
1701857450717622000,10.4246220703125,0.006108472589403391,-0.050547610968351364,-0.02764083817601204
1701857450727215400,10.43421533203125,0.009773556143045425,-0.0456608310341835,-0.025197450071573257
1701857450736807700,10.4438076171875,0.004886778071522713,-0.013896775431931019,-0.012980503961443901
1701857450746401000,10.453401123046875,-0.0012216945178806782,0.019088976085186005,0.0016798300202935934
1701857450755995000,10.462994873046876,-0.007330167107284069,0.04107947647571564,0.016340164467692375
1701857450765588200,10.472588134765624,-0.010995250195264816,0.04718795046210289,0.0261137206107378
1701857450775180500,10.4821806640625,-0.010995250195264816,0.03497100621461868,0.028557108715176582
1701857450784774000,10.49177392578125,-0.006108472589403391,0.009315420873463154,0.017561858519911766
1701857450794368000,10.501367919921876,0.013438640162348747,-0.03955236077308655,-0.0032069480512291193
1701857450803961000,10.510961181640624,0.03542914241552353,-0.06032116711139679,-0.021532366052269936
1701857450813553400,10.520553466796875,0.047646086663007736,-0.0456608310341835,-0.021532366052269936
1701857450823146800,10.530146728515625,0.05375456064939499,-0.020005248486995697,-0.01175880990922451
1701857450832740900,10.539740966796876,0.062306419014930725,0.010537114925682545,0.0029015245381742716
1701857450842334000,10.549333984375,0.05864133685827255,0.014202198944985867,0.01511846948415041
1701857450851926300,10.55892626953125,0.05497625470161438,0.010537114925682545,0.011453386396169662
1701857450861519600,10.56851953125,0.05497625470161438,0.014202198944985867,0.0016798300202935934
1701857450871113700,10.57811376953125,0.03787253051996231,0.017867282032966614,0.0004581354442052543
1701857450880706800,10.587706787109376,0.03176405653357506,0.023975754156708717,0.005344913341104984
1701857450890299400,10.59729931640625,0.030542362481355667,0.016645587980747223,0.004123218823224306
1701857450899892500,10.606892578125,0.030542362481355667,0.004428642801940441,-0.001985253533348441
1701857450909486600,10.616486572265625,0.03176405653357506,-0.0004581354442052543,-0.010537114925682545
1701857450919079700,10.62607958984375,0.030542362481355667,0.0032069480512291193,-0.017867282032966614
1701857450928672300,10.63567236328125,0.030542362481355667,0.019088976085186005,-0.019088976085186005
1701857450938265300,10.645265380859374,0.02076880633831024,0.04230117425322533,-0.01175880990922451
1701857450947859500,10.654859375,0.012216945178806782,0.06184828653931618,-0.001985253533348441
1701857450957452500,10.66445263671875,0.008551862090826035,0.07528692483901978,0.0029015245381742716
1701857450967045000,10.674045166015626,0.006108472589403391,0.06551336497068405,0.0016798300202935934
1701857450976638200,10.68363818359375,0.007330167107284069,0.039857782423496246,-0.005650337319821119
1701857450986232300,10.693232421875,0.007330167107284069,0.020310672000050545,-0.012980503961443901
1701857450995825400,10.702825439453125,0.004886778071522713,0.020310672000050545,-0.022754060104489326
1701857451005418000,10.71241796875,0.0012216945178806782,0.04963133856654167,-0.02641914412379265
1701857451015011000,10.722010986328126,0,0.06917845457792282,-0.019088976085186005
1701857451024605200,10.731605224609375,-0.007330167107284069,0.07650861889123917,-0.009315420873463154
1701857451034198500,10.741198486328125,-0.008551862090826035,0.0850604772567749,-0.0032069480512291193
1701857451043790800,10.750790771484375,-0.0012216945178806782,0.11560284346342087,-0.0032069480512291193
1701857451053384000,10.760384033203126,-0.004886778071522713,0.12048961967229843,0.0029015245381742716
1701857451062978000,10.76997802734375,-0.013438640162348747,0.10216420143842697,0.007788302376866341
1701857451072571400,10.7795712890625,-0.01710372418165207,0.08750387281179428,0.011453386396169662
1701857451082163700,10.789163818359375,-0.013438640162348747,0.06917845457792282,0.011453386396169662
1701857451091757000,10.798757080078126,-0.007330167107284069,0.04963133856654167,0.007788302376866341
1701857451101351000,10.808350830078124,-0.006108472589403391,0.04718795046210289,0.005344913341104984
1701857451110944300,10.8179443359375,-0.009773556143045425,0.054518118500709534,0.0065666078589856625
1701857451120536600,10.82753662109375,-0.01710372418165207,0.06062658876180649,0.011453386396169662
1701857451130130000,10.8371298828125,-0.023212196305394173,0.056961506605148315,0.016340164467692375
1701857451139723800,10.846723876953124,-0.028098974376916885,0.054518118500709534,0.020005248486995697
1701857451149317000,10.856317138671875,-0.028098974376916885,0.04718795046210289,0.02244863659143448
1701857451158909400,10.865909423828125,-0.024433890357613564,0.03374931216239929,0.020005248486995697
1701857451168502800,10.875502685546875,-0.01954711228609085,0.016645587980747223,0.013896775431931019
1701857451178096600,10.8850966796875,-0.014660334214568138,0.0007635590736754239,0.005344913341104984
1701857451187690000,10.89468994140625,-0.009773556143045425,-0.016340164467692375,-0.0032069480512291193
1701857451197282300,10.9042822265625,-0.0036650835536420345,-0.031000498682260513,-0.0032069480512291193
1701857451206875600,10.913875732421875,-0.0024433890357613564,-0.032222192734479904,0.0004581354442052543
1701857451216469500,10.923469482421876,-0.006108472589403391,-0.018783552572131157,0.0016798300202935934
1701857451226062800,10.933062744140624,-0.010995250195264816,-0.004123218823224306,0.0029015245381742716
1701857451235655200,10.9426552734375,-0.010995250195264816,-0.0016798300202935934,0.0004581354442052543
1701857451245248500,10.95224853515625,-0.007330167107284069,-0.005344913341104984,-0.001985253533348441
1701857451254842400,10.96184228515625,-0.0024433890357613564,-0.009009997360408306,-0.0032069480512291193
1701857451264435700,10.971435791015624,0.0012216945178806782,-0.005344913341104984,-0.01175880990922451
1701857451274028000,10.981028076171874,0.0036650835536420345,0.0032069480512291193,-0.02641914412379265
1701857451283621400,10.990621337890625,0.0036650835536420345,0.025197450071573257,-0.038636088371276855
1701857451293215500,11.000215576171875,-0.0012216945178806782,0.06184828653931618,-0.04718795046210289
1701857451302808600,11.00980859375,-0.006108472589403391,0.09972081333398819,-0.04718795046210289
1701857451312401000,11.01940087890625,-0.012216945178806782,0.12904147803783417,-0.039857782423496246
1701857451321994200,11.028994140625,-0.008551862090826035,0.14492350816726685,-0.02641914412379265
1701857451331588400,11.03858837890625,-0.004886778071522713,0.15958385169506073,-0.01175880990922451
1701857451341181400,11.048181396484376,-0.007330167107284069,0.17057909071445465,-0.0007635590736754239
1701857451350773800,11.057773681640626,-0.012216945178806782,0.18035265803337097,0.0016798300202935934
1701857451360367000,11.0673671875,-0.012216945178806782,0.18401773273944855,-0.0032069480512291193
1701857451369961200,11.076961181640625,0,0.18523943424224854,-0.009315420873463154
1701857451379554300,11.08655419921875,0.007330167107284069,0.1620272397994995,-0.008093725889921188
1701857451389147000,11.09614697265625,0.01832541823387146,0.15591876208782196,-0.020310672000050545
1701857451398740000,11.105739990234374,0.021990500390529633,0.1253764033317566,-0.015423892997205257
1701857451408334000,11.115333984375,0.024433890357613564,0.11560284346342087,-0.017867282032966614
1701857451417927200,11.12492724609375,0.029320668429136276,0.10460758954286575,-0.016645587980747223
1701857451427519700,11.134519775390626,0.025655584409832954,0.11926792562007904,-0.02886253222823143
1701857451437112800,11.14411279296875,0.01588202826678753,0.09605573117733002,-0.0325276181101799
1701857451446707000,11.15370703125,0.006108472589403391,0.06306997686624527,-0.03130592033267021
1701857451456300000,11.163300048828125,0.0024433890357613564,0.038636088371276855,-0.022754060104489326
1701857451465892600,11.172892578125,0,0.020310672000050545,-0.012980503961443901
1701857451475485700,11.182485595703126,-0.004886778071522713,0.014202198944985867,-0.004428642801940441
1701857451485079800,11.192079833984375,-0.007330167107284069,0.008093725889921188,-0.0007635590736754239
1701857451494673000,11.2016728515625,-0.008551862090826035,-0.0004581354442052543,0.0016798300202935934
1701857451504265500,11.211265380859375,-0.010995250195264816,-0.0029015245381742716,-0.001985253533348441
1701857451513858600,11.220858642578126,-0.012216945178806782,0.0032069480512291193,-0.004428642801940441
1701857451523452700,11.23045263671875,-0.007330167107284069,-0.004123218823224306,-0.0032069480512291193
1701857451533045800,11.240045654296875,0,-0.018783552572131157,-0.004428642801940441
1701857451542638300,11.249638427734375,0.007330167107284069,-0.033443886786699295,-0.005650337319821119
1701857451552231400,11.2592314453125,0.01588202826678753,-0.04443913698196411,-0.0032069480512291193
1701857451561825500,11.268825439453124,0.021990500390529633,-0.034665580838918686,0.004123218823224306
1701857451571418600,11.278418701171875,0.028098974376916885,0.0032069480512291193,0.007788302376866341
1701857451581011200,11.28801123046875,0.021990500390529633,0.0325276181101799,0.013896775431931019
1701857451590604300,11.297604248046875,0.012216945178806782,0.038636088371276855,0.020005248486995697
1701857451600198400,11.307198486328126,0.012216945178806782,0.03130592033267021,0.021226942539215088
1701857451609791500,11.31679150390625,0.02076880633831024,0.016645587980747223,0.020005248486995697
1701857451619384000,11.326384033203125,0.03298575058579445,-0.0029015245381742716,0.010231691412627697
1701857451628977200,11.33597705078125,0.04886778071522713,-0.02733541466295719,0.0004581354442052543
1701857451638571300,11.3455712890625,0.06352811306715012,-0.03833066672086716,-0.015423892997205257
1701857451648164400,11.355164306640624,0.07330167293548584,-0.032222192734479904,-0.04352286830544472
1701857451657757000,11.3647568359375,0.07207997888326645,-0.02489202655851841,-0.072843536734581
1701857451667350000,11.37435009765625,0.06841489672660828,-0.02489202655851841,-0.09116895496845245
1701857451676944100,11.383944091796875,0.05741964280605316,-0.034665580838918686,-0.09483403712511063
1701857451686537200,11.393537109375,0.046424392610788345,-0.04932591691613197,-0.0850604772567749
1701857451696129800,11.4031298828125,0.04153761267662048,-0.06398624926805496,-0.06795676052570343
1701857451705723000,11.412722900390625,0.03665083646774292,-0.07742489129304886,-0.04840964451432228
1701857451715317000,11.42231689453125,0.03665083646774292,-0.09941539168357849,-0.03497100621461868
1701857451724910000,11.43191015625,0.04153761267662048,-0.11407572776079178,-0.02886253222823143
1701857451734502700,11.441502685546874,0.05008947476744652,-0.10918894410133362,-0.0325276181101799
1701857451744095700,11.451095703125,0.05375456064939499,-0.10552386194467545,-0.04230117425322533
1701857451753689900,11.46068994140625,0.05864133685827255,-0.10674555599689484,-0.05085303261876106
1701857451763283000,11.470282958984376,0.06352811306715012,-0.09452861547470093,-0.04963133856654167
1701857451772875500,11.47987548828125,0.062306419014930725,-0.07986827939748764,-0.04352286830544472
1701857451782468600,11.489468505859374,0.05864133685827255,-0.06887302547693253,-0.038636088371276855
1701857451792062700,11.499062744140625,0.05864133685827255,-0.05421269312500954,-0.038636088371276855
1701857451801655800,11.50865576171875,0.05864133685827255,-0.04932591691613197,-0.04107947647571564
1701857451811248400,11.518248291015626,0.061084724962711334,-0.051769305020570755,-0.04107947647571564
1701857451820841500,11.527841552734374,0.062306419014930725,-0.06154286116361618,-0.037414394319057465
1701857451830435600,11.537435546875,0.061084724962711334,-0.0725381150841713,-0.02641914412379265
1701857451840028700,11.547028564453125,0.06352811306715012,-0.0847550556063652,-0.015423892997205257
1701857451849621200,11.556621337890626,0.06719319522380829,-0.0981936976313591,-0.010537114925682545
1701857451859214300,11.56621435546875,0.06719319522380829,-0.09941539168357849,-0.012980503961443901
1701857451868808400,11.575808349609375,0.0647498071193695,-0.0981936976313591,-0.02641914412379265
1701857451878401500,11.585401611328125,0.0647498071193695,-0.10185877978801727,-0.04352286830544472
1701857451887994000,11.594994140625,0.06719319522380829,-0.111632339656353,-0.056961506605148315
1701857451897587200,11.604587158203126,0.062306419014930725,-0.12751436233520508,-0.06184828653931618
1701857451907181300,11.614181396484375,0.05619794875383377,-0.14461809396743774,-0.05207473039627075
1701857451916774400,11.6237744140625,0.05497625470161438,-0.1629435122013092,-0.04107947647571564
1701857451926366700,11.63336669921875,0.07085828483104706,-0.18493400514125824,-0.036192700266838074
1701857451935960000,11.6429599609375,0.09895725548267365,-0.20814619958400726,-0.036192700266838074
1701857451945554200,11.65255419921875,0.12216944992542267,-0.21425467729568481,-0.04230117425322533
1701857451955147300,11.662147216796875,0.13438639044761658,-0.1898207813501358,-0.05207473039627075
1701857451964739600,11.671739501953125,0.129499614238739,-0.14217470586299896,-0.055739812552928925
1701857451974333000,11.6813330078125,0.10995250940322876,-0.09452861547470093,-0.04230117425322533
1701857451983927000,11.690927001953124,0.07696675509214401,-0.06032116711139679,-0.02886253222823143
1701857451993520000,11.70052001953125,0.042759306728839874,-0.04443913698196411,-0.021532366052269936
1701857452003112400,11.710112548828125,0.014660334214568138,-0.037108972668647766,-0.03008422814309597
1701857452012705800,11.719705810546875,-0.0024433890357613564,-0.02489202655851841,-0.04352286830544472
1701857452022299600,11.729299560546876,-0.010995250195264816,-0.013896775431931019,-0.05207473039627075
1701857452031893000,11.73889306640625,-0.012216945178806782,-0.004123218823224306,-0.05085303261876106
1701857452041485300,11.7484853515625,-0.010995250195264816,0.005650337319821119,-0.04107947647571564
1701857452051078700,11.75807861328125,-0.010995250195264816,0.012980503961443901,-0.020310672000050545
1701857452060672800,11.7676728515625,-0.010995250195264816,0.020310672000050545,-0.0007635590736754239
1701857452070265900,11.777265869140624,-0.012216945178806782,0.023975754156708717,0.012675080448389053
1701857452079858200,11.786858154296874,-0.013438640162348747,0.025197450071573257,0.013896775431931019
1701857452089451500,11.796451416015625,-0.01710372418165207,0.03497100621461868,0.0065666078589856625
1701857452099045600,11.806045654296875,-0.026877280324697495,0.04474456235766411,-0.004428642801940441
1701857452108638700,11.815638671875,-0.03298575058579445,0.038636088371276855,-0.014202198944985867
1701857452118231000,11.82523095703125,-0.03787253051996231,0.04230117425322533,-0.014202198944985867
